attitudeX,attitudeY,attitudeZ,gyroX,gyroY,gyroZ,gravityX,gravityY,gravityZ,accX,accY,accZ
0.7346866265071266,0.4698971110183134,1.9353663385373148,-0.20472809672355652,0.26686620712280273,0.04190942645072937,0.33599206805229187,-0.6703546643257141,-0.6616146564483643,0.06413918733596802,-0.03695118427276611,0.04702121019363403
0.732668472512168,0.4714622776955399,1.9371486105512312,-0.26945194602012634,0.2821780741214752,0.007625488098710775,0.3376409411430359,-0.6688557267189026,-0.6622918844223022,0.04588872194290161,-0.05598253011703491,0.02329963445663452
0.7300482987522725,0.47336680931440966,1.9386905495513238,-0.29529908299446106,0.30114445090293884,-0.037039078772068024,0.33969947695732117,-0.6669056415557861,-0.6632052063941956,0.04233485460281372,-0.07470202445983887,-0.005358576774597168
0.7271948032457695,0.47557725009306967,1.939904422259853,-0.2891424000263214,0.2901669144630432,-0.05827299505472183,0.3420345187187195,-0.6647766828536987,-0.6641417741775513,0.0641392171382904,-0.08995354175567627,-0.02744746208190918
0.7244523827936391,0.4773040958763537,1.9407898572252364,-0.2529679834842682,0.1528741866350174,-0.07779962569475174,0.3440170884132385,-0.6627254486083984,-0.6651670336723328,0.10599508881568909,-0.11878389120101929,-0.04070448875427246
0.7220641197925081,0.47785080926015505,1.940966088448403,-0.17777468264102936,-0.010059071704745293,-0.11476430296897888,0.3451075851917267,-0.66093510389328,-0.6663824319839478,0.1207890510559082,-0.14860469102859497,-0.06977784633636475
0.7204093218284218,0.47800770380389895,1.940065218885387,-0.04670075327157974,-0.0648367628455162,-0.15639546513557434,0.345714807510376,-0.6596923470497131,-0.6672985553741455,0.11415457725524902,-0.18462222814559937,-0.1395862102508545
0.7198125280548683,0.478975541729013,1.937454955989126,0.12673494219779968,-0.09700508415699005,-0.25670289993286133,0.3465418517589569,-0.6592437028884888,-0.6673128604888916,0.11296135187149048,-0.23089301586151123,-0.20957916975021362
0.7202016810836667,0.48086031345627683,1.9318867176152725,0.3312014639377594,-0.2832149863243103,-0.45241954922676086,0.3476802706718445,-0.6595363020896912,-0.6664310097694397,0.1170719563961029,-0.26952558755874634,-0.24454909563064575
0.7216784134330122,0.482694918613593,1.9225082091473011,0.5851866006851196,-0.5930365324020386,-0.6456572413444519,0.34844985604286194,-0.660645604133606,-0.6649286150932312,0.15614309906959534,-0.30995070934295654,-0.2678258419036865
0.7247363077346378,0.4835487297597031,1.9095644990596023,0.8490154147148132,-0.9490993618965149,-0.7682828903198242,0.34807658195495605,-0.6629380583763123,-0.6628391742706299,0.22716450691223145,-0.33248430490493774,-0.31277722120285034
0.7295371954092186,0.48245725681649393,1.8942806015320064,1.0362635850906372,-1.3000710010528564,-0.7874614000320435,0.34587228298187256,-0.6665247082710266,-0.660391628742218,0.29655328392982483,-0.3050481677055359,-0.30709177255630493
0.7356931808280492,0.47817637034076976,1.8785548033156207,1.122925877571106,-1.6289997100830078,-0.6973665356636047,0.3411474823951721,-0.6711012125015259,-0.6582108736038208,0.39513489603996277,-0.23815470933914185,-0.2521131634712219
0.7431421448740383,0.47004513188736163,1.8641174631076474,1.168630838394165,-1.9687199592590332,-0.5078578591346741,0.33351069688796997,-0.6766049265861511,-0.6564878225326538,0.5059058666229248,-0.2605440616607666,-0.23702102899551392
0.7520433061649227,0.456345549752732,1.851334158184456,1.2473444938659668,-2.4682464599609375,-0.3941234052181244,0.3218192756175995,-0.6831324100494385,-0.6555626392364502,0.5715980529785156,-0.32558029890060425,-0.22958439588546753
0.7616084416931779,0.43844708938956134,1.8388141914981941,1.240768551826477,-2.797252893447876,-0.4338007867336273,0.30724668502807617,-0.6900864243507385,-0.6552711129188538,0.5936322808265686,-0.358879029750824,-0.23895490169525146
0.7707526527429001,0.4182836497227763,1.8255360842547674,1.210537314414978,-3.086668014526367,-0.5386502742767334,0.2913971245288849,-0.6966753602027893,-0.65553879737854,0.5279541015625,-0.3731793761253357,-0.27486586570739746
0.7801033009458983,0.3941531503124805,1.8115756719803568,1.3208377361297607,-3.675835132598877,-0.5389989018440247,0.2729816734790802,-0.7033528685569763,-0.6563350558280945,0.4450359642505646,-0.3011789917945862,-0.34982943534851074
0.7912536547218273,0.36552184817034544,1.7960470042571748,1.559849500656128,-4.207563400268555,-0.7048999667167664,0.2512616217136383,-0.7112351059913635,-0.6565151810646057,0.4667712450027466,-0.15340417623519897,-0.5081729292869568
0.8042396595160538,0.3357089546519269,1.775893133042704,1.8492025136947632,-4.586404800415039,-1.0501500368118286,0.22851809859275818,-0.7203034162521362,-0.6549369692802429,0.4935431182384491,-0.16368401050567627,-0.6541145443916321
0.8195202944711694,0.30959058638251025,1.7494251965427055,2.1777756214141846,-4.286654472351074,-1.4272665977478027,0.20795828104019165,-0.730818510055542,-0.65012127161026,0.5115547180175781,-0.174424409866333,-0.7710975408554077
0.8363421388156522,0.2962704565589314,1.7176157322733652,2.272247076034546,-2.9922966957092285,-1.625091552734375,0.19566316902637482,-0.7421966791152954,-0.6409837007522583,0.5753482580184937,-0.09305417537689209,-0.9119032621383667
0.8535984332361573,0.2971390597610381,1.684716067793184,2.268655300140381,-1.71269690990448,-1.5008153915405273,0.1924409568309784,-0.753650426864624,-0.6284723877906799,0.6412841081619263,0.08655142784118652,-0.9521397948265076
0.8694830224150261,0.3114261482508479,1.6557848732071474,1.9011567831039429,0.1510208398103714,-1.1236820220947266,0.19770655035972595,-0.7639954686164856,-0.6141848564147949,0.6645982265472412,0.2811768651008606,-0.9504971504211426
0.8849337542958101,0.33814252106246917,1.6319856033632771,1.9988367557525635,1.498978614807129,-0.7835550308227539,0.21010155975818634,-0.7738730311393738,-0.5974763035774231,0.6781889200210571,0.4080435633659363,-1.0234496593475342
0.9013332104145363,0.37419080197674154,1.6112822048858984,1.955301284790039,2.386868715286255,-0.5084664821624756,0.22682859003543854,-0.7841549515724182,-0.5776242613792419,0.6955195069313049,0.5102444291114807,-1.1789369583129883
0.9180632226284905,0.41531676839273834,1.5931796368783155,1.9934872388839722,2.968613624572754,-0.2518444061279297,0.24505743384361267,-0.7944267988204956,-0.5557273030281067,0.7172381281852722,0.6078575849533081,-1.2213417291641235
0.936106765862568,0.4607713596542519,1.5772178369332732,2.071974277496338,3.534618377685547,0.05704287812113762,0.26363876461982727,-0.8052558302879333,-0.5310909152030945,0.7450740337371826,0.7281684279441833,-1.2866733074188232
0.9560305960716331,0.5090352972669272,1.5642154900556795,2.1483254432678223,3.9423446655273438,0.4717461168766022,0.28107884526252747,-0.816908597946167,-0.5036417245864868,0.7596621513366699,0.8808887004852295,-1.3117725849151611
0.9787427606814492,0.5575521612361033,1.5556696616409547,2.245176315307617,4.348928928375244,0.9843822717666626,0.2952788472175598,-0.8297964334487915,-0.4735487401485443,0.74778151512146,1.042580246925354,-1.3206559419631958
1.0044563881009394,0.6074064398464066,1.5507242303318152,2.334792375564575,4.719217300415039,1.3786652088165283,0.3062286674976349,-0.8438704013824463,-0.44057536125183105,0.78765869140625,1.1659681797027588,-1.3410561084747314
1.0333832870157347,0.6578483441515611,1.5478593009979205,2.4998979568481445,4.830504417419434,1.7969645261764526,0.3129931390285492,-0.859035849571228,-0.40508365631103516,0.7443189024925232,1.2927364110946655,-1.3220281600952148
1.0663807847175037,0.7076618710631122,1.5461383156245616,2.7133989334106445,4.776818752288818,2.2213051319122314,0.3141707479953766,-0.8754571080207825,-0.3672487437725067,0.7271806001663208,1.4090569019317627,-1.311584234237671
1.1039063425986786,0.7565704926756542,1.5442473734994395,2.9699175357818604,4.643767356872559,2.6525492668151855,0.30897068977355957,-0.892972469329834,-0.3273184895515442,0.6545303463935852,1.5116705894470215,-1.316571831703186
1.1462932932648726,0.805963003631043,1.5407318987614838,3.23848819732666,4.574169635772705,3.086876630783081,0.29716184735298157,-0.9112435579299927,-0.2851842939853668,0.5433990955352783,1.6186105012893677,-1.319551944732666
1.1933765466778583,0.8579540864528332,1.5340604836568656,3.4559316635131836,4.572887897491455,3.506707191467285,0.2787899971008301,-0.9296185970306396,-0.2410091608762741,0.4073977768421173,1.7138440608978271,-1.28767728805542
1.2445726992518842,0.9146507403860659,1.522916997719627,3.5761871337890625,4.647106647491455,3.917323589324951,0.25392284989356995,-0.9472593069076538,-0.19550718367099762,0.27184927463531494,1.7938321828842163,-1.238284945487976
1.2991190930598508,0.9785969105403619,1.505053592495637,3.624547004699707,4.690394401550293,4.292612552642822,0.22265201807022095,-0.9633221626281738,-0.14978820085525513,0.15349242091178894,1.8507580757141113,-1.18828547000885
1.3563839988179514,1.0555697308380796,1.474210503317901,3.630797863006592,4.672616481781006,4.636540412902832,0.18515095114707947,-0.9771016240119934,-0.10484002530574799,0.043486788868904114,1.8881124258041382,-1.1338379383087158
1.4156513703355775,1.1618038435431808,1.4132883520181074,3.634988784790039,4.546901702880859,4.938323974609375,0.1417788714170456,-0.9879891276359558,-0.06145176663994789,-0.06562216579914093,1.9241310358047485,-1.0820571184158325
1.475200234126737,1.3640722993943857,1.254472428502217,3.7419817447662354,4.344418525695801,5.1356120109558105,0.09341862052679062,-0.9954341650009155,-0.01959175616502762,-0.19650697708129883,1.9558223485946655,-1.0769047737121582
1.5238673240277507,2.056479518145527,0.6033881009239124,3.9845235347747803,4.162618637084961,5.223617076873779,0.04148830473423004,-0.9988990426063538,0.02189984731376171,-0.36068686842918396,1.980100154876709,-1.1173282861709595
1.505747298023806,-2.949475272844702,-0.6344057157005453,4.262829780578613,3.987215757369995,5.178088665008545,-0.01241166703402996,-0.9978850483894348,0.06380780786275864,-0.5271390676498413,2.0154173374176025,-1.133174180984497
1.4451119764339073,-2.5799495478604477,-0.966155767747267,4.514631748199463,3.785332202911377,5.053339958190918,-0.06676088273525238,-0.9921121001243591,0.1060975044965744,-0.6713677048683167,2.0548715591430664,-1.0936157703399658
1.3783014721448272,-2.4593752484639446,-1.0514227030640135,4.745582580566406,3.4497392177581787,4.92519474029541,-0.12062259018421173,-0.9815300107002258,0.14848865568637848,-0.7541332244873047,2.088372230529785,-1.0341697931289673
1.309553203988144,-2.40449361914577,-1.0740572443249736,4.996374130249023,3.08918833732605,4.799103260040283,-0.1736021339893341,-0.9660696387290955,0.19123728573322296,-0.7888306975364685,2.1015067100524902,-1.010298490524292
1.2402177764320566,-2.376827709991394,-1.0723297575492945,5.155124187469482,2.7714502811431885,4.544150352478027,-0.22473572194576263,-0.9458547234535217,0.23420651257038116,-0.8915514945983887,2.097923755645752,-1.0124351978302002
1.1730416292824961,-2.3625107378672916,-1.0587603855048844,5.08404541015625,2.626173734664917,4.092846870422363,-0.2721620500087738,-0.9219330549240112,0.27562204003334045,-1.0872281789779663,2.081646680831909,-0.9411035776138306
1.1105382092438028,-2.35293635151914,-1.0404626677028432,4.796370983123779,2.6038739681243896,3.6585893630981445,-0.31510400772094727,-0.8959378600120544,0.3130573630332947,-1.2600302696228027,2.0413389205932617,-0.7684863805770874
1.0521482957193389,-2.3409583853816183,-1.0240165268237655,4.477716445922852,2.7216384410858154,3.6543242931365967,-0.3558170795440674,-0.8684901595115662,0.345136433839798,-1.3007380962371826,2.043172836303711,-0.5754220485687256
0.9925296851267504,-2.319835297593382,-1.0142463975517908,4.514890670776367,3.179108142852783,4.337377548217773,-0.40027928352355957,-0.8374113440513611,0.37218087911605835,-1.2440687417984009,2.196511745452881,-0.46957769989967346
0.9243159077618037,-2.290485544647122,-1.0086125068085836,5.148135185241699,3.5448901653289795,5.333638668060303,-0.4529968202114105,-0.7982088923454285,0.39705994725227356,-1.3281158208847046,2.3382632732391357,-0.40612363815307617
0.8436629434575025,-2.263032020083122,-0.9994343182666185,6.183816909790039,3.226461410522461,6.095837593078613,-0.5117237567901611,-0.7470830082893372,0.42427098751068115,-1.6368205547332764,2.195767641067505,-0.21225011348724365
0.753221421235437,-2.2484580975260067,-0.980932401328866,7.169366836547852,2.2745625972747803,6.136467456817627,-0.5683019161224365,-0.683992326259613,0.45737016201019287,-2.202038049697876,1.8551502227783203,0.23052656650543213
0.6612226024205499,-2.2498890863110996,-0.9520296126830389,7.650295257568359,1.1777604818344116,5.314120292663574,-0.6141429543495178,-0.6140822172164917,0.4957128167152405,-2.851891040802002,1.5394668579101562,0.873473584651947
0.5768801121991497,-2.2636335893149195,-0.9165187849939679,7.36513090133667,0.22524097561836243,4.033480644226074,-0.6449174284934998,-0.5454115867614746,0.5353571176528931,-3.329157829284668,1.2548539638519287,1.5773441791534424
0.5058712042460166,-2.2826777468442923,-0.8801886011125803,6.450169563293457,-0.22293958067893982,2.7977378368377686,-0.6623051762580872,-0.4845696985721588,0.5714404582977295,-3.452486753463745,0.9265100359916687,2.176805019378662
0.44937871514249617,-2.2995387126381726,-0.8483575384218836,5.201744079589844,-0.15655362606048584,2.0235531330108643,-0.6719464659690857,-0.43440601229667664,0.5998165607452393,-3.1558125019073486,0.6664615869522095,2.596503257751465
0.40448150175079023,-2.3089534767137603,-0.8243603034856181,4.052433967590332,0.2895541787147522,1.7563767433166504,-0.6800202131271362,-0.3935421407222748,0.6186251640319824,-2.5947751998901367,0.5151547193527222,2.73069429397583
0.3675913486315369,-2.3098941578253114,-0.8086469011817037,3.0559468269348145,0.6768470406532288,1.736466646194458,-0.6897029876708984,-0.3593687415122986,0.6286205053329468,-2.107126235961914,0.38659045100212097,2.716823101043701
0.3375697665671319,-2.3055154100931405,-0.8006728156702348,2.0585579872131348,0.6973593235015869,1.6662054061889648,-0.7001411318778992,-0.33119499683380127,0.6325439810752869,-1.8009421825408936,0.22287294268608093,2.808267116546631
0.31600974555246686,-2.3010098548936924,-0.7995152434166949,0.9715123772621155,0.21545231342315674,1.3542840480804443,-0.7081400752067566,-0.31077638268470764,0.6339992880821228,-1.7040454149246216,0.1150367259979248,3.0342438220977783
0.304696989289205,-2.3014132532723144,-0.8040096132239537,-0.09872078150510788,-0.5835294127464294,0.8828977942466736,-0.7104573845863342,-0.30000412464141846,0.6365905404090881,-1.718604326248169,0.07832452654838562,3.1883301734924316
0.30403286475515773,-2.3086193845912906,-0.8132444394494244,-1.1143524646759033,-1.3882627487182617,0.40031832456588745,-0.7059990763664246,-0.29937052726745605,0.6418276429176331,-1.6921331882476807,0.08457261323928833,3.1562070846557617
0.3135106226292235,-2.3216489935658653,-0.827109945631996,-2.1009371280670166,-2.0292277336120605,0.007643923629075289,-0.6954708695411682,-0.30840003490448,0.649006724357605,-1.6057528257369995,0.15511026978492737,3.0207624435424805
0.33243276955272877,-2.338733590336012,-0.8458325243943084,-3.0601603984832764,-2.559089422225952,-0.29459238052368164,-0.6799616813659668,-0.3263435661792755,0.6566213369369507,-1.5235445499420166,0.2952309846878052,2.8307747840881348
0.3600180378083678,-2.3592355307543014,-0.8693531274864132,-3.9254612922668457,-3.1256465911865234,-0.5140970945358276,-0.6597588658332825,-0.3522911071777344,0.663783848285675,-1.4732365608215332,0.46859368681907654,2.6018106937408447
0.39492178947094847,-2.383590356917854,-0.8969948339979936,-4.605710506439209,-3.761137008666992,-0.6453062295913696,-0.6345551013946533,-0.38473600149154663,0.6703119874000549,-1.4578368663787842,0.6791085004806519,2.31693172454834
0.43524694994217844,-2.412387751847907,-0.9274391869549655,-5.039933204650879,-4.431076526641846,-0.7026723027229309,-0.6041572690010071,-0.42163434624671936,0.6761794090270996,-1.5156852006912231,0.9167210459709167,1.9766069650650024
0.47917573063204805,-2.446658106783611,-0.9589976626495408,-5.253200054168701,-5.191282749176025,-0.7567864060401917,-0.568217396736145,-0.461047887802124,0.6815887689590454,-1.643681287765503,1.1208531856536865,1.643209457397461
0.5256498032996556,-2.488800433671528,-0.9894481736894688,-5.2938737869262695,-6.163695335388184,-0.8817201852798462,-0.5254059433937073,-0.5017752051353455,0.687146782875061,-1.8379058837890625,1.2615711688995361,1.3779778480529785
0.5741982143198836,-2.541710754371337,-1.0167736381042365,-5.264913082122803,-7.216687202453613,-1.0398679971694946,-0.4740077555179596,-0.5431617498397827,0.693030834197998,-2.0427005290985107,1.3593544960021973,1.191063404083252
0.6245641130885798,-2.6058995058719545,-1.039666267346172,-5.2392449378967285,-8.123941421508789,-1.1862553358078003,-0.4140757918357849,-0.5847437381744385,0.6975784301757812,-2.2363147735595703,1.4762691259384155,1.0074537992477417
0.6768162487682712,-2.6798288003083273,-1.0576470786758474,-5.2820281982421875,-8.743586540222168,-1.2843906879425049,-0.347320556640625,-0.6263142228126526,0.6979248523712158,-2.4222869873046875,1.6203175783157349,0.8296326398849487
0.7307690408112666,-2.7610511940951454,-1.070582987266416,-5.339515686035156,-9.073942184448242,-1.3117755651474,-0.27658459544181824,-0.6674425005912781,0.691391110420227,-2.583904266357422,1.7786178588867188,0.6113891005516052
0.7858411660996563,-2.847167280942143,-1.078328470813655,-5.394556999206543,-9.12126350402832,-1.2519629001617432,-0.20510447025299072,-0.7074199914932251,0.6763797402381897,-2.6966288089752197,1.915076732635498,0.36393409967422485
0.8412438888296496,-2.9360559760036464,-1.081120238628771,-5.394209384918213,-8.982274055480957,-1.099937081336975,-0.13603509962558746,-0.74547278881073,0.6525067090988159,-2.7301299571990967,2.035710334777832,0.12044262886047363
0.8958315626061817,-3.0264896752277832,-1.079088755370331,-5.296409606933594,-8.733189582824707,-0.8942785263061523,-0.07176567614078522,-0.7807289958000183,0.6207351684570312,-2.7009241580963135,2.106870174407959,-0.13225555419921875
0.94856526144392,-3.118479596164014,-1.0719110970120738,-5.133246898651123,-8.458027839660645,-0.6939833164215088,-0.013470233418047428,-0.8125801086425781,0.5826937556266785,-2.629260301589966,2.1002845764160156,-0.3265445828437805
0.9987091603084823,3.070381812170177,-1.0592189218865173,-4.871270179748535,-8.274784088134766,-0.4899841248989105,0.03852014243602753,-0.8407728672027588,0.540016233921051,-2.5385963916778564,2.0814037322998047,-0.4397048354148865
1.044626054844602,2.9719907203646727,-1.0410308242927646,-4.426538467407227,-8.256169319152832,-0.29422715306282043,0.08477062731981277,-0.864736795425415,0.49501949548721313,-2.454430103302002,2.07973313331604,-0.5640349388122559
1.0848499807540368,2.869304314616357,-1.0186059704261017,-3.8626248836517334,-8.311518669128418,-0.06287410855293274,0.1256054788827896,-0.8842333555221558,0.449838787317276,-2.342585325241089,2.0561540126800537,-0.6734258532524109
1.1190572470233346,2.7641498253625496,-0.994843294884047,-3.2909486293792725,-8.424419403076172,0.2175854742527008,0.1608811467885971,-0.8996893167495728,0.40580376982688904,-2.2083053588867188,2.0258336067199707,-0.7198752760887146
1.1488893386827417,2.660080159203474,-0.9733478413880825,-2.90678334236145,-8.410639762878418,0.6178005337715149,0.1896483302116394,-0.9123097062110901,0.36293914914131165,-2.1031460762023926,2.0121021270751953,-0.6975797414779663
1.1778504639190022,2.5598214583441745,-0.9545484201762501,-2.865842819213867,-8.08343505859375,1.017817735671997,0.21041151881217957,-0.9237850904464722,0.31991881132125854,-2.056297779083252,2.0171384811401367,-0.6052887439727783
1.2090448392742594,2.4613478903621595,-0.9322917096191038,-3.1548166275024414,-7.389710426330566,1.3294403553009033,0.22260521352291107,-0.9352783560752869,0.27513840794563293,-2.0794014930725098,1.9923157691955566,-0.49538376927375793
1.2441707223191338,2.359009244138421,-0.8979035145476317,-3.604402780532837,-6.55839204788208,1.6379847526550293,0.2262347787618637,-0.9471303820610046,0.2275119572877884,-2.0289385318756104,1.951112985610962,-0.4391971826553345
1.2829502678724332,2.2455999782841936,-0.8440003334471239,-3.9494528770446777,-5.834083557128906,1.9480546712875366,0.22166767716407776,-0.9588575959205627,0.17735694348812103,-1.9103425741195679,1.96290123462677,-0.4987223148345947
1.3230266667694162,2.1129192595147,-0.7646165503795448,-4.0196990966796875,-5.393163204193115,2.2066636085510254,0.21007800102233887,-0.9694617986679077,0.12653398513793945,-1.7707011699676514,1.9720406532287598,-0.665733814239502
1.3614519851540028,1.9510003058327374,-0.6532088822558924,-3.878726005554199,-5.291281700134277,2.401014804840088,0.19297845661640167,-0.9781673550605774,0.07712369412183762,-1.6286931037902832,1.9224269390106201,-0.8302211761474609
1.3955198453285642,1.747967699917719,-0.5010568811614957,-3.619590997695923,-5.437817573547363,2.5303642749786377,0.17165054380893707,-0.9846783876419067,0.030733812600374222,-1.5004774332046509,1.8492109775543213,-0.9451320171356201
1.4232570092413568,1.4872308526278757,-0.2931756348431611,-3.2951016426086426,-5.61879301071167,2.646260976791382,0.14649149775505066,-0.9891358017921448,-0.012270206585526466,-1.395163893699646,1.751388669013977,-1.065488576889038
1.4418689415631216,1.1620358395444517,-0.02201310117872702,-3.0343639850616455,-5.629014492034912,2.722137212753296,0.11797795444726944,-0.9917003512382507,-0.0511031374335289,-1.3282744884490967,1.629502534866333,-1.1802964210510254
1.4481012280998036,0.7890038077465459,0.2979485571629531,-2.8943424224853516,-5.4240522384643555,2.7656495571136475,0.08685314655303955,-0.9924824237823486,-0.08622907102108002,-1.2973328828811646,1.4785815477371216,-1.2354110479354858
1.4402719323096806,0.4231220002144334,0.6134687082533088,-2.898364305496216,-5.103298664093018,2.8705368041992188,0.05344264581799507,-0.9914937615394592,-0.11867640912532806,-1.2761141061782837,1.347191333770752,-1.2564609050750732
1.41939079081227,0.11719424365813041,0.8725444634330812,-3.01867938041687,-4.740653038024902,3.002992630004883,0.01763569377362728,-0.9885600805282593,-0.14979302883148193,-1.2162744998931885,1.2383464574813843,-1.2815577983856201
1.3884880122478889,-0.11208056342596408,1.0585188570716706,-3.124310255050659,-4.404889106750488,3.1342580318450928,-0.020277677103877068,-0.9834278225898743,-0.18016234040260315,-1.130997896194458,1.074049711227417,-1.3991070985794067
1.3514732521312212,-0.27892231726653244,1.1853797037407048,-3.0932812690734863,-4.056297779083252,3.2411012649536133,-0.05990104004740715,-0.9760449528694153,-0.20916052162647247,-1.0255481004714966,0.8203747868537903,-1.632499098777771
1.3124181989818,-0.4031107963364803,1.2735859011473731,-2.8091514110565186,-3.6008291244506836,3.2645065784454346,-0.10023308545351028,-0.966805636882782,-0.23503242433071136,-0.9759387373924255,0.5633480548858643,-1.9543445110321045
1.275057414504184,-0.49916866231763624,1.338414377764053,-2.3405237197875977,-3.1179239749908447,3.142061471939087,-0.1395145058631897,-0.9565870761871338,-0.25588497519493103,-0.9836238622665405,0.22561466693878174,-2.277898073196411
1.241236819238408,-0.57512805862219,1.3877336674961769,-1.9254512786865234,-2.681781530380249,2.890899896621704,-0.17603392899036407,-0.9461849927902222,-0.27156203985214233,-1.0479345321655273,-0.14971643686294556,-2.451155185699463
1.210979052794778,-0.6343090355317713,1.4238745441362992,-1.6675666570663452,-2.343574285507202,2.532151222229004,-0.20866364240646362,-0.9359611868858337,-0.28361237049102783,-1.1104586124420166,-0.4809851050376892,-2.463458299636841
1.1841704614078243,-0.6789199536086565,1.4480715398975017,-1.4986168146133423,-2.0490243434906006,2.117053508758545,-0.23677948117256165,-0.9261866211891174,-0.2934519052505493,-1.1644351482391357,-0.7977057099342346,-2.4622855186462402
1.1609304481773273,-0.7102967481538959,1.461941802672507,-1.381200909614563,-1.6435197591781616,1.666023850440979,-0.259836345911026,-0.9171742796897888,-0.30211958289146423,-1.2342889308929443,-1.0572214126586914,-2.523716688156128
1.1414006017104397,-0.7286003430740841,1.4665016668978799,-1.3090227842330933,-1.1698393821716309,1.1782881021499634,-0.27719759941101074,-0.9092174768447876,-0.3106203079223633,-1.2846615314483643,-1.2465746402740479,-2.5926084518432617
1.125624360093958,-0.7343869917873743,1.4627994286433668,-1.2378207445144653,-0.6371357440948486,0.692416787147522,-0.2885676324367523,-0.9025366306304932,-0.3196188509464264,-1.2529515027999878,-1.4229789972305298,-2.6488869190216064
1.1135549849601494,-0.7284082755839022,1.4525059859376048,-1.1435333490371704,-0.013646346516907215,0.2540781497955322,-0.2938820719718933,-0.8972737789154053,-0.32944387197494507,-1.179537057876587,-1.5181316137313843,-2.7063229084014893
1.105073050309746,-0.7120037119394701,1.4374328786241,-1.0037719011306763,0.5855569243431091,-0.14538724720478058,-0.29340025782585144,-0.8934969902038574,-0.3399697542190552,-1.1279406547546387,-1.48832368850708,-2.731304168701172
1.100502081760779,-0.6866793680224769,1.4187469637980987,-0.7621220350265503,1.1319727897644043,-0.5562415719032288,-0.2872839570045471,-0.8914349675178528,-0.35044509172439575,-1.0951471328735352,-1.4126574993133545,-2.745349645614624
1.1006019532233817,-0.6536059267189548,1.397201180730057,-0.4210701286792755,1.6265603303909302,-0.9800967574119568,-0.2754843235015869,-0.8914802670478821,-0.3596824109554291,-1.0503671169281006,-1.3342735767364502,-2.757840871810913
1.1058368375642487,-0.613448567820137,1.3730440987129222,-0.01812814176082611,2.0731558799743652,-1.3815813064575195,-0.2581320106983185,-0.8938397169113159,-0.36663123965263367,-1.008774757385254,-1.1922656297683716,-2.725836992263794
1.1161511569346263,-0.5665429384418772,1.3460604743336302,0.39401841163635254,2.4440386295318604,-1.7380964756011963,-0.235696479678154,-0.8984168767929077,-0.3705325722694397,-0.985159158706665,-0.9923606514930725,-2.619274616241455
1.1308804241506751,-0.5126551801875844,1.3153301084425084,0.7582243084907532,2.7714216709136963,-2.0366051197052,-0.20888294279575348,-0.9047874808311462,-0.37111663818359375,-0.9510901570320129,-0.783383846282959,-2.4542007446289062
1.1491122463188486,-0.4507123016361642,1.2796033681962893,1.0769836902618408,3.10990834236145,-2.2756659984588623,-0.17829279601573944,-0.9124009609222412,-0.3684238791465759,-0.9300445318222046,-0.5709669589996338,-2.268493175506592
1.169757772823006,-0.37897239935314264,1.2373265421579382,1.323341965675354,3.466325521469116,-2.4603028297424316,-0.14442531764507294,-0.9206560850143433,-0.3626756966114044,-0.9230489730834961,-0.33329588174819946,-2.069788932800293
1.1916427024452108,-0.2955628657062898,1.1866450753470692,1.5181570053100586,3.816298007965088,-2.6073431968688965,-0.10781208425760269,-0.9289782643318176,-0.3540845811367035,-0.9197757840156555,-0.0849834680557251,-1.8593095541000366
1.2139220599740048,-0.1985507946935391,1.1254669164282187,1.7189656496047974,4.139486789703369,-2.729238271713257,-0.06890834122896194,-0.9369933605194092,-0.34248384833335876,-0.9212954640388489,0.16056513786315918,-1.6692044734954834
1.2361090319743269,-0.08646974790141532,1.0519483231187345,1.9529213905334473,4.408937931060791,-2.809089183807373,-0.028367675840854645,-0.9445130825042725,-0.32724669575691223,-0.9225905537605286,0.39319777488708496,-1.5038080215454102
1.2575801772583675,0.04186701707455477,0.9645717384621652,2.2043685913085938,4.664834976196289,-2.8198485374450684,0.012896300293505192,-0.9513475298881531,-0.30785006284713745,-0.9219843745231628,0.6115189790725708,-1.3498190641403198
1.2777682978995224,0.1880241043896041,0.8619825063849972,2.4990007877349854,4.959023952484131,-2.776421546936035,0.053991831839084625,-0.9573736190795898,-0.2837618589401245,-0.9254059791564941,0.8160161972045898,-1.22182297706604
1.296184364792007,0.3552889369149324,0.7412469517457203,2.838644504547119,5.2781758308410645,-2.7278120517730713,0.09433067589998245,-0.9625304937362671,-0.25423741340637207,-0.9332588911056519,0.9924530386924744,-1.125279188156128
1.3114952562675106,0.5475988470627664,0.5985198801143866,3.172550916671753,5.614050388336182,-2.6919639110565186,0.13349422812461853,-0.9665694236755371,-0.2189124971628189,-0.9598796963691711,1.1424728631973267,-1.0202385187149048
1.3216192942137512,0.7660405511336267,0.43278729164967084,3.4933090209960938,5.951366901397705,-2.6485397815704346,0.17096935212612152,-0.969115674495697,-0.17771999537944794,-1.0038855075836182,1.2753138542175293,-0.9194937944412231
1.3247341891808369,1.0056724221669209,0.24907117935095602,3.843655586242676,6.307007789611816,-2.527461290359497,0.20571424067020416,-0.969879150390625,-0.13044556975364685,-1.038142204284668,1.402923583984375,-0.864564836025238
1.3199025325928622,1.2554980411798238,0.05835711417831385,4.191415309906006,6.633342742919922,-2.311699390411377,0.236030712723732,-0.9686909317970276,-0.07698836177587509,-1.0746537446975708,1.5409414768218994,-0.8210524320602417
1.3065224484622417,1.5021712744242448,-0.12654483123656768,4.504971027374268,6.869689464569092,-2.088895797729492,0.26059290766716003,-0.9652824401855469,-0.017911328002810478,-1.1551241874694824,1.6628382205963135,-0.7667109370231628
1.2843091670733078,1.733485195186443,-0.2948847120665834,4.814579486846924,6.9275407791137695,-1.8878144025802612,0.2788528501987457,-0.9592424631118774,0.045770782977342606,-1.2279800176620483,1.7525622844696045,-0.7098180055618286
1.2539368619281255,1.9426000673000545,-0.4411208079847659,5.129002094268799,6.91598653793335,-1.6418453454971313,0.290294885635376,-0.9502186179161072,0.11319750547409058,-1.2814141511917114,1.8266834020614624,-0.6942063570022583
1.2167521107049437,2.1278736167613665,-0.5639390709356836,5.382954120635986,6.893763542175293,-1.3591995239257812,0.2942754030227661,-0.9379782676696777,0.18329986929893494,-1.3142642974853516,1.8896842002868652,-0.6811026334762573
1.1741796848193906,2.2901501898856758,-0.664146875145671,5.542152404785156,6.863090515136719,-1.0924195051193237,0.2905869781970978,-0.9223732352256775,0.25453248620033264,-1.345961093902588,1.9283089637756348,-0.6573644876480103
1.1274911811055968,2.431165227957741,-0.7435884969634157,5.607017993927002,6.775108337402344,-0.873735249042511,0.2797284722328186,-0.9033389091491699,0.32516276836395264,-1.3867993354797363,1.917651653289795,-0.6205881834030151
1.078100396223943,2.553126727994115,-0.804768520934226,5.56384801864624,6.654295444488525,-0.6956714987754822,0.2625572383403778,-0.8810608983039856,0.39344078302383423,-1.4111777544021606,1.8787109851837158,-0.5709615349769592
1.0278106189764589,2.6586274494369153,-0.850169640129394,5.4385666847229,6.552015781402588,-0.541598379611969,0.23995663225650787,-0.8561698198318481,0.4575957953929901,-1.4313170909881592,1.8437187671661377,-0.5343475937843323
0.9772730405879542,2.7527148041904543,-0.8842500595287632,5.238799571990967,6.49168062210083,-0.39638471603393555,0.2120530903339386,-0.8289753198623657,0.5175260901451111,-1.4589707851409912,1.8156545162200928,-0.5221343636512756
0.9282058201944813,2.837731182776787,-0.9086456972531854,4.908085346221924,6.508939266204834,-0.27782103419303894,0.17930611968040466,-0.8005460500717163,0.5718174576759338,-1.4849090576171875,1.7757964134216309,-0.5095310807228088
0.8821707159011918,2.9167102369109763,-0.9251894800882511,4.476919651031494,6.650822639465332,-0.14821693301200867,0.14170610904693604,-0.7721201181411743,0.6194758415222168,-1.492948055267334,1.7081856727600098,-0.47285401821136475
0.8403743448610399,2.993150307259019,-0.936622622887914,3.9878101348876953,6.879712104797363,0.07151301205158234,0.09867507964372635,-0.744892954826355,0.6598470211029053,-1.477245569229126,1.665806531906128,-0.44823795557022095
0.8030962743475218,3.0711669569948588,-0.9460726066085321,3.561049222946167,7.324183464050293,0.39123934507369995,0.04886897653341293,-0.7195098400115967,0.6927607655525208,-1.4762370586395264,1.6782958507537842,-0.444103479385376
0.7684163736274979,-3.1294558147398384,-0.9555736318290201,3.440549850463867,7.77712345123291,0.7437360286712646,-0.008726324886083603,-0.6949974894523621,0.7189595699310303,-1.5261704921722412,1.6844229698181152,-0.45258671045303345
0.7320955439848051,-3.0435427621992908,-0.9657255464553722,3.754880905151367,7.917738914489746,1.1460914611816406,-0.07281026989221573,-0.6684297323226929,0.7402026653289795,-1.6405075788497925,1.67799711227417,-0.45628249645233154
0.6904476666254972,-2.958488540702678,-0.9757694967521116,4.25931453704834,7.690549373626709,1.5082578659057617,-0.14037857949733734,-0.6368823647499084,0.7580726742744446,-1.786867380142212,1.6711232662200928,-0.3625650405883789
0.6423501720517469,-2.8795999796836416,-0.9826619144409856,4.880572319030762,7.1316819190979,1.6311497688293457,-0.20738331973552704,-0.5990788340568542,0.773367166519165,-1.993483304977417,1.6074254512786865,-0.05110752582550049
0.5877172838098694,-2.8131585413799938,-0.9817428327285842,5.568588733673096,6.185478687286377,1.3466283082962036,-0.26843833923339844,-0.5544627904891968,0.7877261638641357,-2.3550968170166016,1.4807322025299072,0.34082943201065063
0.5300224862956813,-2.762908979503291,-0.9692747845993651,5.9019880294799805,5.145247459411621,0.6358106732368469,-0.31897351145744324,-0.5055527687072754,0.8016682267189026,-2.7055931091308594,1.337523102760315,0.9003885388374329
0.47449889559803304,-2.726979779270727,-0.9460518203808135,5.838468074798584,4.2967119216918945,-0.0760483518242836,-0.3583310544490814,-0.4568927586078644,0.8141546845436096,-2.7922120094299316,1.231947660446167,1.5330896377563477
0.4246908212635247,-2.698799032880601,-0.9163844677460234,5.341739654541016,3.9373347759246826,-0.6200796961784363,-0.39040306210517883,-0.4120391011238098,0.823291540145874,-2.622459888458252,1.133062720298767,2.055706024169922
0.3844092019712352,-2.6716218687702162,-0.8854594756710298,4.305050373077393,3.9508097171783447,-0.8895456194877625,-0.41981062293052673,-0.37501153349876404,0.8265141248703003,-2.2938733100891113,1.0434685945510864,2.5735867023468018
0.35567474339218597,-2.640567352875069,-0.8588953788737989,3.080472230911255,4.15324068069458,-0.7582136988639832,-0.4502624571323395,-0.3482229709625244,0.8221951127052307,-1.797296166419983,0.9699118137359619,2.987741470336914
0.33630445989162056,-2.6048700564773295,-0.8402852750840917,2.0207982063293457,4.186148166656494,-0.3508271872997284,-0.4826781153678894,-0.3300008475780487,0.8112465143203735,-1.2857085466384888,0.8919211626052856,3.1680471897125244
0.3242161920071501,-2.5674129179283014,-0.8301280725805705,1.036957859992981,3.882897138595581,-0.03594541549682617,-0.5148488283157349,-0.31856590509414673,0.7958937287330627,-0.9864177107810974,0.7459951639175415,3.2593889236450195
0.3198402706715737,-2.5325916019690853,-0.8269632708273467,0.020013757050037384,3.2504374980926514,-0.006834152154624462,-0.5430372953414917,-0.31441494822502136,0.7786229252815247,-0.9293441772460938,0.5981674194335938,3.3614070415496826
0.32447766254449906,-2.503161657766896,-0.8290410971833531,-0.9948852062225342,2.473689556121826,-0.2435297816991806,-0.5648386478424072,-0.3188137412071228,0.7611274123191833,-1.0053973197937012,0.48792698979377747,3.4025230407714844
0.33905468608763695,-2.4803936170932075,-0.8351969048230263,-2.0264782905578613,1.6849510669708252,-0.5963662266731262,-0.5791047215461731,-0.33259573578834534,0.7443237900733948,-1.0703245401382446,0.4044188857078552,3.2958831787109375
0.3638691154922999,-2.463035513149543,-0.8458227013352649,-3.081761360168457,1.068382978439331,-0.9118106961250305,-0.586574912071228,-0.35589268803596497,0.7275097370147705,-1.048267126083374,0.37325718998908997,3.1130969524383545
0.398325394106043,-2.448681209302546,-0.8615958269088884,-4.073796272277832,0.6487154960632324,-1.1759153604507446,-0.5887709856033325,-0.38787537813186646,0.7091553807258606,-1.0417373180389404,0.43745124340057373,2.840344190597534
0.44151912136185756,-2.435032789526933,-0.8826975917624675,-4.971620559692383,0.3678804337978363,-1.4303609132766724,-0.5869630575180054,-0.4273133873939514,0.6876609921455383,-1.0833250284194946,0.5385652184486389,2.505408525466919
0.4922701946018932,-2.4206468626545217,-0.908786103036186,-5.691024303436279,0.16388435661792755,-1.6898807287216187,-0.581717312335968,-0.472627729177475,0.6619882583618164,-1.1144192218780518,0.6492023468017578,2.145400285720825
0.5492459597941983,-2.4051622709315343,-0.9387511487418978,-6.2130303382873535,-0.06325585395097733,-2.0189685821533203,-0.5728607177734375,-0.5220442414283752,0.6319024562835693,-1.15667724609375,0.7445173859596252,1.7605078220367432
0.611694519939599,-2.389545817806951,-0.9713381729966809,-6.607821464538574,-0.398283988237381,-2.432072639465332,-0.5592663288116455,-0.5742555260658264,0.597872793674469,-1.224226713180542,0.8212343454360962,1.4376497268676758
0.6791476476318029,-2.375072781493581,-1.0054153054967498,-6.869643211364746,-0.805676281452179,-2.892224073410034,-0.5397213697433472,-0.6281300187110901,0.5604940056800842,-1.3057832717895508,0.9395467042922974,1.1598734855651855
0.7510094486091583,-2.3623082215869853,-1.0403488029795929,-7.047727108001709,-1.1976200342178345,-3.3485751152038574,-0.513725757598877,-0.6823770403862,0.5200459957122803,-1.3508068323135376,1.0777778625488281,0.9010204076766968
0.8268330890068768,-2.350381146078027,-1.0759490106905818,-7.173328876495361,-1.4474575519561768,-3.7960472106933594,-0.4816347658634186,-0.7357904314994812,0.4760672450065613,-1.3925106525421143,1.2202417850494385,0.666571855545044
0.9060171347748205,-2.337606192886351,-1.1129650883102415,-7.267364501953125,-1.6217401027679443,-4.150115013122559,-0.4442363679409027,-0.7870529890060425,0.428020715713501,-1.4060139656066895,1.3931167125701904,0.4706915020942688
0.9875368218038967,-2.3217841477362735,-1.1531996632203714,-7.307168483734131,-1.720229148864746,-4.402271747589111,-0.402604877948761,-0.8346719145774841,0.37580883502960205,-1.3547497987747192,1.570511817932129,0.292205810546875
1.0701953783480977,-2.299792026968479,-1.1989508879806177,-7.259458065032959,-1.7011224031448364,-4.586460113525391,-0.357969731092453,-0.8772943019866943,0.319706529378891,-1.2871108055114746,1.6967829465866089,0.11237666010856628
1.1528036857780355,-2.2681272366410097,-1.2526799508942208,-7.090700626373291,-1.575029730796814,-4.754195213317871,-0.3111666142940521,-0.9139056205749512,0.26067546010017395,-1.255102276802063,1.8180651664733887,-0.06484416127204895
1.2343383569422948,-2.221843547594235,-1.3184504331155054,-6.816256046295166,-1.3958693742752075,-4.921915531158447,-0.26261427998542786,-0.9439299702644348,0.20007483661174774,-1.23631751537323,1.91567063331604,-0.21223604679107666
1.313893636966934,-2.1525310057194353,-1.404929288736612,-6.447684288024902,-1.2896854877471924,-5.093257427215576,-0.21229182183742523,-0.9671816229820251,0.13961383700370789,-1.199283480644226,1.9626344442367554,-0.3098407983779907
1.390246199546725,-2.0390889525530205,-1.5341513516797893,-5.997264862060547,-1.2731711864471436,-5.24683952331543,-0.16023854911327362,-0.9837450385093689,0.08105183392763138,-1.167840600013733,1.9823564291000366,-0.3700685501098633
1.4607712230552177,-1.8053278524647927,-1.7835643081292942,-5.550819396972656,-1.3622944355010986,-5.376227378845215,-0.10679851472377777,-0.9939533472061157,0.02551720105111599,-1.1482826471328735,2.0021166801452637,-0.3759809732437134
1.5117177149833032,-1.1034131110035434,-2.5020759488119095,-5.108360290527344,-1.529973030090332,-5.438503742218018,-0.05271116644144058,-0.9982553720474243,-0.026602180674672127,-1.1281511783599854,2.031092405319214,-0.35358577966690063
1.4954784256358098,0.011639736593795828,2.6472610552491727,-4.6992034912109375,-1.8221769332885742,-5.431450843811035,0.0008758279145695269,-0.9971649646759033,-0.07524125277996063,-1.094915747642517,2.0502655506134033,-0.3345334529876709
1.4385824926071336,0.41159247279279015,2.2252118725095325,-4.337713241577148,-2.177602767944336,-5.352310657501221,0.05274081975221634,-0.9912724494934082,-0.12081947177648544,-1.0635135173797607,2.0609288215637207,-0.3000636696815491
1.3766116367162389,0.554645100000935,2.0560442569359436,-4.032565593719482,-2.602376937866211,-5.2156805992126465,0.10162445157766342,-0.9812053442001343,-0.16403880715370178,-1.0306710004806519,2.0797924995422363,-0.26473313570022583
1.3154835500039788,0.6188946056241359,1.96075716260002,-3.7697036266326904,-3.126004219055176,-5.0560383796691895,0.14651203155517578,-0.9675843715667725,-0.20570553839206696,-0.9995850920677185,2.07218337059021,-0.23661625385284424
1.2565776258935686,0.6477269259341956,1.8950627603044004,-3.532153367996216,-3.6950151920318604,-4.871027946472168,0.1864873617887497,-0.951038122177124,-0.24647299945354462,-0.9640599489212036,2.044421911239624,-0.22073578834533691
1.2004308579779197,0.6559457936774311,1.844312120824083,-3.3247408866882324,-4.197656154632568,-4.627038955688477,0.22076047956943512,-0.9321951270103455,-0.2868401110172272,-0.9243279099464417,2.0323996543884277,-0.23079901933670044
1.1473640618526222,0.6490736651302162,1.8031877431483256,-3.1664879322052,-4.745028495788574,-4.320209503173828,0.24836313724517822,-0.9116840362548828,-0.3273346722126007,-0.8764301538467407,2.025606155395508,-0.2553068995475769
1.0971223235437666,0.6293062416793637,1.768808848210191,-3.115013837814331,-5.383212089538574,-4.056018829345703,0.268487811088562,-0.8898983597755432,-0.36877524852752686,-0.860040545463562,1.980611801147461,-0.25903230905532837
1.0484361061367378,0.598345962670431,1.738703838374915,-3.1715357303619385,-6.053109169006348,-3.8932559490203857,0.2810339033603668,-0.866644024848938,-0.4122476577758789,-0.8876317739486694,1.906286358833313,-0.2781515121459961
1.0003045158713724,0.5589508266915596,1.710633774117632,-3.2783899307250977,-6.543941974639893,-3.7971904277801514,0.2863847315311432,-0.8416354656219482,-0.4578574001789093,-0.9398728609085083,1.8403385877609253,-0.41705095767974854
0.9517921487288211,0.5148176116457935,1.683338016750749,-3.4944798946380615,-6.721224308013916,-3.7832794189453125,0.2856886088848114,-0.8144566416740417,-0.5050171613693237,-0.9635144472122192,1.774402379989624,-0.6002990007400513
0.901324903212339,0.4697076275904857,1.656306044312264,-3.8571250438690186,-6.530547618865967,-3.823904514312744,0.28088656067848206,-0.7841497659683228,-0.5533640384674072,-0.9345120191574097,1.6941840648651123,-0.7657429575920105
0.8480061887396645,0.4271676611935816,1.629947162158137,-4.261148452758789,-5.940391540527344,-3.807546377182007,0.27404749393463135,-0.7499630451202393,-0.6020410060882568,-0.8341671228408813,1.6163876056671143,-0.9687597155570984
0.7923492719106933,0.38974519842549926,1.605154553207368,-4.567231178283691,-5.1195173263549805,-3.6748898029327393,0.2667931318283081,-0.7120048403739929,-0.6495156288146973,-0.6502769589424133,1.5602867603302002,-1.2242484092712402
0.7361226851144274,0.3582024302099293,1.5825424821398397,-4.653043746948242,-4.305453777313232,-3.4366092681884766,0.2598153054714203,-0.6714195609092712,-0.6940401196479797,-0.3984261155128479,1.491823673248291,-1.518957257270813
0.681338635652204,0.3316244578521021,1.5619918081779334,-4.558047294616699,-3.695488929748535,-3.190605640411377,0.25288739800453186,-0.6298333406448364,-0.7344099283218384,-0.11387979984283447,1.364009976387024,-1.7856706380844116
0.6291693409741721,0.3081976373953499,1.542180124723843,-4.309000492095947,-3.4109323024749756,-3.0711021423339844,0.24525679647922516,-0.588473379611969,-0.7704207897186279,0.10905236005783081,1.1853361129760742,-1.966395616531372
0.5807685966214081,0.28684005844397764,1.5209636917609992,-3.882755756378174,-3.2496984004974365,-3.1048402786254883,0.23653511703014374,-0.5486666560173035,-0.8018827438354492,0.24245357513427734,0.9966037273406982,-2.1633729934692383
0.5370627046343329,0.2681735138439503,1.4965505348221309,-3.362124443054199,-3.0333752632141113,-3.2588748931884766,0.22766682505607605,-0.5116144418716431,-0.8285037875175476,0.3396092653274536,0.8452631235122681,-2.365389585494995
0.49841128463923023,0.25300243026090946,1.4688627089926491,-2.8578336238861084,-2.708272933959961,-3.3376712799072266,0.2198597639799118,-0.4780307114124298,-0.8503812551498413,0.4834483861923218,0.7704349160194397,-2.4857850074768066
0.46472481355870865,0.24138293109905498,1.4401611363506852,-2.42100191116333,-2.228783130645752,-3.1946144104003906,0.21369369328022003,-0.4481768310070038,-0.8680279850959778,0.7635402679443359,0.7238879203796387,-2.5252368450164795
0.4358121114111903,0.23418452790446395,1.412999855680452,-2.044288396835327,-1.5438305139541626,-2.889798402786255,0.2103595733642578,-0.422146737575531,-0.8817828297615051,1.0895061492919922,0.661374032497406,-2.5318522453308105
0.41124999424219294,0.23255759390084466,1.3887372095932105,-1.6993253231048584,-0.7614406943321228,-2.5313966274261475,0.21125110983848572,-0.39975541830062866,-0.8919464945793152,1.353278398513794,0.5819301605224609,-2.47969651222229
0.3909421657250409,0.23723849776145867,1.367568229171034,-1.3299822807312012,0.04631441459059715,-2.1930675506591797,0.21728725731372833,-0.3810596764087677,-0.8986544013023376,1.5577372312545776,0.4962635338306427,-2.3993191719055176
0.3748587778990837,0.2484646823238047,1.3491204086960438,-0.9608871340751648,0.8145008683204651,-1.888592004776001,0.22883950173854828,-0.36614111065864563,-0.9019829034805298,1.7129178047180176,0.4242008328437805,-2.2887063026428223
0.3624712104914321,0.2658905914858039,1.3332305016559902,-0.6904893517494202,1.508566975593567,-1.5924746990203857,0.2456948608160019,-0.3545859456062317,-0.9021656513214111,1.824541449546814,0.3947013318538666,-2.106074094772339
0.35269908392577776,0.28880058266973424,1.3203111698520082,-0.5345679521560669,2.1518971920013428,-1.2497498989105225,0.2672713100910187,-0.34543201327323914,-0.8995792269706726,1.9173142910003662,0.41220447421073914,-1.8790004253387451
0.3449325052004474,0.3165037716685539,1.3111956584537012,-0.43985840678215027,2.738693952560425,-0.8313148617744446,0.2929129898548126,-0.33813315629959106,-0.8943533897399902,1.9904885292053223,0.45515283942222595,-1.6723885536193848
0.3392390405386792,0.34793231535340297,1.30651799973813,-0.3441624939441681,3.1878347396850586,-0.3655916750431061,0.32152312994003296,-0.33276960253715515,-0.8865028619766235,2.0283303260803223,0.50807785987854,-1.5016807317733765
0.33615527369555387,0.3813054195267251,1.3063195884096652,-0.21203571557998657,3.4287712574005127,0.11029300093650818,0.35130414366722107,-0.32986000180244446,-0.8762292861938477,1.997633934020996,0.5577042698860168,-1.3641271591186523
0.33626413696234303,0.4148352916057711,1.3101872030542834,-0.04663877189159393,3.488813877105713,0.5675129890441895,0.3804665505886078,-0.32996276021003723,-0.8639269471168518,1.9034538269042969,0.6189032793045044,-1.256373405456543
0.34001544343380014,0.44720227778957905,1.317643977384573,0.14150144159793854,3.4491684436798096,1.0190372467041016,0.4076869785785675,-0.3335016369819641,-0.8500400185585022,1.7727940082550049,0.6996973752975464,-1.175121784210205
0.34776724962888544,0.4780855065462609,1.3284472996944372,0.33709731698036194,3.441213846206665,1.4861749410629272,0.4325379431247711,-0.34079957008361816,-0.8347254991531372,1.6358519792556763,0.7821905612945557,-1.1313389539718628
0.35978679856611845,0.5080582692756022,1.3422803286419809,0.545835554599762,3.4892923831939697,1.9270716905593872,0.4553332030773163,-0.35207468271255493,-0.8177499771118164,1.4867597818374634,0.8705073595046997,-1.1155080795288086
0.3760281043316806,0.537324644545735,1.3587473955726819,0.7245259284973145,3.523080825805664,2.3394575119018555,0.4760775566101074,-0.36722898483276367,-0.7990576028823853,1.30509614944458,0.9615283012390137,-1.0872186422348022
0.39620747256628336,0.5657206432205811,1.3774421665214944,0.889612078666687,3.5377161502838135,2.70375657081604,0.49449920654296875,-0.3859224021434784,-0.7788032293319702,1.1260147094726562,1.0494966506958008,-1.0459648370742798
0.4200580520855836,0.5931983981348546,1.3978285554205718,1.0385173559188843,3.553101062774658,3.0172908306121826,0.5104179978370667,-0.4078134596347809,-0.7570744752883911,0.9555244445800781,1.1259074211120605,-1.0177820920944214
0.44710965012720166,0.6198249738829937,1.41969168132471,1.1299999952316284,3.585958480834961,3.30635142326355,0.5237912535667419,-0.4323611259460449,-0.7339663505554199,0.7933627367019653,1.20198392868042,-0.9837460517883301
0.47685602967382607,0.6456206968961217,1.4431557836594364,1.168252944946289,3.644425392150879,3.5760579109191895,0.5345707535743713,-0.458988219499588,-0.7096224427223206,0.6564998626708984,1.2810401916503906,-0.9580869078636169
0.5088349356930691,0.6705299136600021,1.4684311500965153,1.1580060720443726,3.701345682144165,3.8375699520111084,0.5426775813102722,-0.4871601164340973,-0.6842339038848877,0.5381940603256226,1.3608020544052124,-0.9391791224479675
0.5428795736437201,0.6939977031773144,1.4957686946382205,1.140884280204773,3.7073512077331543,4.1022186279296875,0.547654390335083,-0.5166037082672119,-0.6581757068634033,0.44679147005081177,1.4448721408843994,-0.9334990382194519
0.5792681237636438,0.7153767163248299,1.5252727531423143,1.1613848209381104,3.6833503246307373,4.398627281188965,0.548900306224823,-0.5474116206169128,-0.6317031979560852,0.3681987524032593,1.5362269878387451,-0.95801842212677
0.618551116806837,0.7341623271455535,1.5573289099497765,1.2013710737228394,3.665006637573242,4.751368522644043,0.545833945274353,-0.5798553228378296,-0.604841411113739,0.30618637800216675,1.6235564947128296,-0.9946000576019287
0.6611639139125395,0.7498274018718653,1.5925589433038532,1.2525347471237183,3.653421401977539,5.145281791687012,0.5379028916358948,-0.6140359044075012,-0.5775988698005676,0.22760009765625,1.713355302810669,-1.028159737586975
0.7074922294568613,0.7617584470794807,1.6314043422215163,1.3643001317977905,3.611358880996704,5.558113098144531,0.5245441198348999,-0.649929940700531,-0.549949586391449,0.12898987531661987,1.8070344924926758,-1.0703506469726562
0.7582500038957963,0.768972079491901,1.6739668583392122,1.5689353942871094,3.4916651248931885,6.002049922943115,0.5048863291740417,-0.6876519322395325,-0.5217514634132385,0.027004599571228027,1.9049371480941772,-1.1408462524414062
0.8140368777446634,0.7701432381575729,1.720581436299252,1.856482982635498,3.3119561672210693,6.455300807952881,0.4780154228210449,-0.7270646691322327,-0.4928267002105713,-0.08185148239135742,2.002394199371338,-1.2092759609222412
0.8750755741821438,0.7640512441331422,1.7719045208129978,2.1890716552734375,3.1280930042266846,6.878035545349121,0.4434349834918976,-0.7675919532775879,-0.4627828896045685,-0.22248771786689758,2.0968918800354004,-1.2542885541915894
0.9408595497676145,0.7498457130000619,1.8290173226248512,2.5281598567962646,3.0264811515808105,7.208976745605469,0.40148258209228516,-0.8080647587776184,-0.4310952425003052,-0.3933190703392029,2.1781821250915527,-1.2817800045013428
1.0103940444616664,0.7263357777441951,1.893706486485351,2.8517489433288574,2.9667985439300537,7.461972236633301,0.3530055284500122,-0.8470413684844971,-0.39737647771835327,-0.5660639405250549,2.2382004261016846,-1.2760090827941895
1.0827057952657217,0.6894638291490822,1.9699911576746978,3.1400699615478516,2.8394546508789062,7.689317226409912,0.29830387234687805,-0.8832299113273621,-0.3618282079696655,-0.7056829929351807,2.293355703353882,-1.230472207069397
1.1566774381286948,0.6315289591394163,2.0648471627541127,3.441251039505005,2.630645751953125,7.8506550788879395,0.23755879700183868,-0.9154711961746216,-0.3247738480567932,-0.84548419713974,2.332249879837036,-1.1808871030807495
1.230752023796927,0.5410842736113479,2.1892667031799995,3.7931149005889893,2.4118340015411377,7.899556636810303,0.1717892587184906,-0.9427399039268494,-0.2858844995498657,-1.0307979583740234,2.3645997047424316,-1.1523784399032593
1.3022905109601688,0.39772923920814107,2.36332615833488,4.183025360107422,2.116628646850586,7.774203777313232,0.10275410860776901,-0.96416836977005,-0.24458327889442444,-1.2243361473083496,2.385814666748047,-1.124633550643921
1.3663016617197887,0.16077733352354476,2.6263042775618484,4.602031230926514,1.6200870275497437,7.480949401855469,0.03250893950462341,-0.9791637063026428,-0.2004532814025879,-1.4016190767288208,2.400153636932373,-1.063050627708435
1.4127758551471616,-0.23654580277257578,3.043750045942799,5.007755756378174,1.1104741096496582,7.061896800994873,-0.036877553910017014,-0.9875407218933105,-0.15298162400722504,-1.5405149459838867,2.3952250480651855,-0.9714690446853638
1.4246496414492034,-0.7864427100175662,-2.6728953080296507,5.2040696144104,1.0388076305389404,6.548087120056152,-0.10308123379945755,-0.9893395900726318,-0.10286610573530197,-1.6534342765808105,2.3384759426116943,-0.8746423721313477
1.397327641282696,-1.2543883261239404,-2.1865606325287654,5.027805328369141,1.5005857944488525,5.970468044281006,-0.16403113305568695,-0.9849920272827148,-0.05370504781603813,-1.7557991743087769,2.205970048904419,-0.744390606880188
1.3494115734126142,-1.5245451101927783,-1.8917267613449458,4.597104072570801,2.311049222946167,5.494661808013916,-0.21934591233730316,-0.9755943417549133,-0.010152256116271019,-1.7684775590896606,2.046227216720581,-0.5780434608459473
1.2947424173132867,-1.6637118798642163,-1.7201873981052218,4.077399730682373,3.095564603805542,5.203792095184326,-0.27138540148735046,-0.9621384739875793,0.025288740172982216,-1.7251203060150146,1.8962663412094116,-0.4077655076980591
1.2382864757075456,-1.7307787574302576,-1.6137486201214732,3.6760783195495605,3.767409324645996,5.182065963745117,-0.32224851846694946,-0.9452260732650757,0.05199848487973213,-1.6741504669189453,1.7416126728057861,-0.2515833377838135
1.18045490445677,-1.7599469105263004,-1.539796754240504,3.495373487472534,4.148591995239258,5.261175155639648,-0.373717337846756,-0.9247791767120361,0.07154412567615509,-1.6638649702072144,1.5802206993103027,-0.10508288443088531
1.122226558440498,-1.7729350485622075,-1.4805996894065783,3.4851815700531006,3.9809458255767822,5.159351825714111,-0.42484721541404724,-0.9010682702064514,0.08706717193126678,-1.8134950399398804,1.3665071725845337,0.0890955850481987
1.0664012534300942,-1.7819455189045952,-1.428351197609326,3.4704644680023193,3.4490725994110107,4.704223155975342,-0.4725445806980133,-0.8754670023918152,0.10128716379404068,-2.0738420486450195,1.08329176902771,0.3766791820526123
1.0168425474822045,-1.792364386551313,-1.3798839960361151,3.4145262241363525,2.8165688514709473,3.869533061981201,-0.5131940245628357,-0.8504512906074524,0.11560539901256561,-2.378605842590332,0.7540920376777649,0.696711540222168
0.9760372975846737,-1.805901362930993,-1.3334570300658393,3.3190271854400635,2.2616395950317383,2.923079252243042,-0.5448952913284302,-0.8282835483551025,0.13052137196063995,-2.608715057373047,0.4103909730911255,0.969728946685791
0.9439205085934396,-1.822043366210783,-1.2888587207282076,3.160770893096924,1.814944863319397,2.088796377182007,-0.5681995153427124,-0.8098641633987427,0.14584015309810638,-2.6297221183776855,0.15355312824249268,1.17451810836792
0.9190709221402314,-1.838515575998453,-1.2474945902845442,2.8446896076202393,1.5398375988006592,1.4743483066558838,-0.5849515199661255,-0.7950384020805359,0.1604546755552292,-2.5154666900634766,0.00020813941955566406,1.3668891191482544
0.8996649248347809,-1.8507622257827738,-1.2124483772384262,2.3054752349853516,1.5804566144943237,1.1271435022354126,-0.5976595282554626,-0.7831186056137085,0.17183750867843628,-2.313549518585205,-0.12767839431762695,1.5789254903793335
0.8845628731319862,-1.853215283467946,-1.1872545059352946,1.5396312475204468,1.8553324937820435,0.9128326773643494,-0.6085259318351746,-0.7736380696296692,0.176579087972641,-2.1583807468414307,-0.22271496057510376,1.8048052787780762
0.8739446606384281,-1.843114160724787,-1.174365090849265,0.6023838520050049,2.1234469413757324,0.659037709236145,-0.618155837059021,-0.7668666243553162,0.1726231873035431,-2.127586841583252,-0.28762245178222656,2.024077892303467
0.8690833037591738,-1.8208591712756592,-1.1747962320955303,-0.4026668667793274,2.230983257293701,0.2710445821285248,-0.625449001789093,-0.7637374997138977,0.1597452163696289,-2.152703285217285,-0.348796010017395,2.193251609802246
0.8710493097214053,-1.7881204709167067,-1.1880135392192381,-1.318605899810791,2.264362335205078,-0.2805405557155609,-0.6288753747940063,-0.7650051116943359,0.13886287808418274,-2.1907198429107666,-0.3793277144432068,2.242561101913452
0.8802853769508535,-1.747186332703148,-1.2121555672012234,-2.0336430072784424,2.181755304336548,-0.9248162508010864,-0.6270482540130615,-0.7709206938743591,0.11176659911870956,-2.234966516494751,-0.35790926218032837,2.1545755863189697
0.8959147107562014,-1.7006447500703072,-1.2452163926868607,-2.5241971015930176,1.9766260385513306,-1.510115146636963,-0.6195449233055115,-0.7807809114456177,0.08090212941169739,-2.1654586791992188,-0.30131131410598755,1.976470947265625
0.9162715877012763,-1.6502689091794385,-1.285822969611239,-2.848883628845215,1.6770578622817993,-1.9950214624404907,-0.6068608164787292,-0.793337345123291,0.04833059012889862,-2.026073694229126,-0.19271612167358398,1.7879579067230225
0.9399173649448441,-1.5970624464837966,-1.333684272949179,-3.1049673557281494,1.2850780487060547,-2.401370048522949,-0.5896514654159546,-0.8075093626976013,0.015491418540477753,-1.8942506313323975,-0.05781662464141846,1.6323662996292114
0.9656792487675963,-1.5407733673685065,-1.3894079078046222,-3.311574697494507,0.886807382106781,-2.7422943115234375,-0.5686019062995911,-0.8224354982376099,-0.017076242715120316,-1.7715774774551392,0.06259363889694214,1.4927079677581787
0.9927701906589371,-1.4805910023059137,-1.4533864534071492,-3.4580514430999756,0.5243306159973145,-3.0758252143859863,-0.5441503524780273,-0.8375427722930908,-0.04921882972121239,-1.7023859024047852,0.19041752815246582,1.32334303855896
1.0207989341808175,-1.4156071593341444,-1.5262618492167843,-3.5598630905151367,0.1487378627061844,-3.4201653003692627,-0.5164036750793457,-0.8525258898735046,-0.08078987151384354,-1.6735835075378418,0.30703943967819214,1.1561836004257202
1.0495011137386325,-1.3449431446507947,-1.6088386113999515,-3.593733072280884,-0.21395350992679596,-3.790146589279175,-0.48535606265068054,-0.8671748638153076,-0.11152192950248718,-1.6599533557891846,0.4140651822090149,0.9882767200469971
1.0786305115345867,-1.267655419993531,-1.7016021285278964,-3.539421319961548,-0.5475600361824036,-4.1532440185546875,-0.4509897828102112,-0.8813114762306213,-0.14106106758117676,-1.6435537338256836,0.5223942995071411,0.7985928058624268
1.1075960266095424,-1.18283332953411,-1.8050352975377404,-3.423138380050659,-0.8553301095962524,-4.480000972747803,-0.4136071801185608,-0.8946271538734436,-0.16903120279312134,-1.602109432220459,0.637791097164154,0.6091099977493286
1.1354933782945473,-1.0884675421215562,-1.9208059726345168,-3.3228225708007812,-1.11385977268219,-4.778475284576416,-0.373578280210495,-0.9067423343658447,-0.19559602439403534,-1.5589015483856201,0.7679789066314697,0.4568723440170288
1.1611500996963071,-0.9815725928586824,-2.051195189574739,-3.2314517498016357,-1.2791054248809814,-5.045214653015137,-0.3311229348182678,-0.9172617793083191,-0.22133314609527588,-1.5193257331848145,0.8919017314910889,0.32661885023117065
1.183023842459393,-0.8602071051060248,-2.1975319187521234,-3.151489019393921,-1.4172221422195435,-5.2586822509765625,-0.28661200404167175,-0.925753653049469,-0.2466450184583664,-1.4660582542419434,1.0128049850463867,0.20376789569854736
1.1991852940842267,-0.7248385408170667,-2.3593069126042043,-3.101309299468994,-1.5588310956954956,-5.409178733825684,-0.24075204133987427,-0.9317435622215271,-0.2718319296836853,-1.3999950885772705,1.1396292448043823,0.11347627639770508
1.2079516229820295,-0.579285941935504,-2.532708880837387,-3.0332632064819336,-1.6990368366241455,-5.497405052185059,-0.19430097937583923,-0.9348909258842468,-0.29702892899513245,-1.3209577798843384,1.2539674043655396,0.036240994930267334
1.2085815818617964,-0.4310893291432095,-2.7101920451771973,-2.923689126968384,-1.8502897024154663,-5.530571937561035,-0.14806732535362244,-0.935114324092865,-0.32192739844322205,-1.2300759553909302,1.3386940956115723,-0.048967957496643066
1.2012576659711294,-0.28861658532055984,-2.8833955077858233,-2.775575637817383,-1.9975286722183228,-5.4990458488464355,-0.1028028130531311,-0.932494044303894,-0.34624606370925903,-1.1453202962875366,1.414030909538269,-0.12430441379547119
1.187165923500101,-0.1597281169213608,-3.044489335934352,-2.5721163749694824,-2.1899867057800293,-5.3748297691345215,-0.059530626982450485,-0.9273119568824768,-0.369524747133255,-1.0597015619277954,1.498997688293457,-0.19843778014183044
1.1681963338896688,-0.049927025064528355,3.094525079866875,-2.3272972106933594,-2.4884350299835205,-5.169345378875732,-0.019553877413272858,-0.9200453758239746,-0.39132368564605713,-0.9633867740631104,1.567521572113037,-0.25720536708831787
1.1463156355164992,0.038768300271197334,2.968305857812249,-2.0856101512908936,-2.8816797733306885,-4.9150004386901855,0.0159626305103302,-0.9112527370452881,-0.41153812408447266,-0.8688678741455078,1.5910165309906006,-0.29260921478271484
1.1229874129707118,0.10751403712643036,2.858228201164847,-1.8695436716079712,-3.3056719303131104,-4.675954341888428,0.046463049948215485,-0.9013980031013489,-0.43049156665802,-0.80023193359375,1.5855562686920166,-0.3100479245185852
1.0993197196321673,0.15969813262824675,2.760750946762535,-1.6549302339553833,-3.6988582611083984,-4.51040506362915,0.07222732156515121,-0.890898585319519,-0.4484226703643799,-0.7829511761665344,1.5782155990600586,-0.35000869631767273
1.075926274328829,0.19956191765553802,2.6718499744246507,-1.4674012660980225,-4.039636135101318,-4.434653282165527,0.09414759278297424,-0.8800304532051086,-0.4654918611049652,-0.8012551069259644,1.5636699199676514,-0.4037402868270874
1.0525963044809818,0.2299428347842302,2.588870941614161,-1.3863918781280518,-4.367653846740723,-4.402543067932129,0.11289363354444504,-0.8687121272087097,-0.48228025436401367,-0.8038115501403809,1.552962064743042,-0.42116212844848633
1.0283167112619631,0.2514816766983795,2.5112612755610044,-1.4666799306869507,-4.68487024307251,-4.344429969787598,0.12846606969833374,-0.8564311861991882,-0.5000220537185669,-0.7703728079795837,1.560319185256958,-0.41248393058776855
1.0026950172191313,0.26315092488725805,2.440278896536039,-1.5716609954833984,-5.016458511352539,-4.161530494689941,0.1399553418159485,-0.8429240584373474,-0.5195108652114868,-0.6751267910003662,1.5946941375732422,-0.4450886845588684
0.9769850804610377,0.2641399925207286,2.376913554305214,-1.5838414430618286,-5.330991268157959,-3.8835413455963135,0.14608006179332733,-0.8288142085075378,-0.5401182174682617,-0.5469589233398438,1.6069055795669556,-0.5725984573364258
0.9525108253290648,0.25562710145006856,2.3208940089439265,-1.53083336353302,-5.504366397857666,-3.5422067642211914,0.14656296372413635,-0.814873456954956,-0.5608034729957581,-0.4102652966976166,1.5734031200408936,-0.7356594800949097
0.9296616369335611,0.24042076768323023,2.2715939308278337,-1.4771244525909424,-5.431448936462402,-3.1945953369140625,0.1424155980348587,-0.8014175891876221,-0.5809023380279541,-0.2706199288368225,1.5135300159454346,-0.8683162927627563
0.9083540382014919,0.22143904509163517,2.2285712066992307,-1.4877201318740845,-5.1458635330200195,-2.8482587337493896,0.13508450984954834,-0.7884924411773682,-0.6000264883041382,-0.15453945100307465,1.4416296482086182,-0.9782968163490295
0.8876017017040975,0.2005301756936571,2.1916209192499054,-1.6097482442855835,-4.7729716300964355,-2.511059045791626,0.12574274837970734,-0.7755600214004517,-0.6186237931251526,-0.028116971254348755,1.3113266229629517,-1.0453777313232422
0.8665340141717917,0.1791922104276054,2.160386233529519,-1.7682034969329834,-4.2407732009887695,-2.1954092979431152,0.115401990711689,-0.7620893716812134,-0.6371044516563416,0.09664943069219589,1.158421277999878,-1.1117205619812012
0.8446781676920206,0.1596665259535838,2.134291205529347,-1.961596131324768,-3.574540138244629,-1.909504771232605,0.10556422173976898,-0.7477574348449707,-0.6555263996124268,0.1944083571434021,1.0255131721496582,-1.1753908395767212
0.8214616062645727,0.14332513549572448,2.1123786345901827,-2.1733717918395996,-2.92213773727417,-1.7002493143081665,0.09729228168725967,-0.7321422100067139,-0.6741676926612854,0.2817208170890808,0.9211986064910889,-1.2106589078903198
0.7970120572444339,0.13079391512590666,2.0935469982233528,-2.286808490753174,-2.292081594467163,-1.5373708009719849,0.09114455431699753,-0.7152711749076843,-0.6928779482841492,0.35465627908706665,0.8194887042045593,-1.2700889110565186
0.7726485587756977,0.12195313103494314,2.0768603457705295,-2.2047388553619385,-1.8419183492660522,-1.424233317375183,0.0871099978685379,-0.6980342268943787,-0.710746169090271,0.4043146073818207,0.7234095931053162,-1.382683277130127
0.7505929372535408,0.11581620006061688,2.0607846345420646,-1.8556722402572632,-1.623860478401184,-1.4122778177261353,0.08450539410114288,-0.6820724606513977,-0.7263855934143066,0.4161508083343506,0.6409043073654175,-1.5202422142028809
0.7330882761550761,0.11096337034206157,2.0438093306390335,-1.318019151687622,-1.6356942653656006,-1.472151517868042,0.08228903263807297,-0.6691677570343018,-0.7385411262512207,0.4170396327972412,0.5582058429718018,-1.6276087760925293
0.7213205858200465,0.10675907736697114,2.0253376008677106,-0.7241019606590271,-1.636588215827942,-1.5168216228485107,0.0800168439745903,-0.6603769063949585,-0.7466589212417603,0.4421237111091614,0.48168128728866577,-1.6595604419708252
0.7151878297045041,0.10338979811699155,2.0060939709300727,-0.23668304085731506,-1.50993013381958,-1.497308611869812,0.07791721820831299,-0.6557592153549194,-0.7509385943412781,0.5151309370994568,0.41727960109710693,-1.6053540706634521
0.7128889967735922,0.10277343073972613,1.986887488072591,0.058188218623399734,-1.1084728240966797,-1.4091075658798218,0.07760880142450333,-0.6540219783782959,-0.7524839639663696,0.5998204350471497,0.3563992977142334,-1.4728730916976929
0.7130875395079849,0.10472885024103441,1.9693805921360434,0.23958277702331543,-0.7930256128311157,-1.2096326351165771,0.07906649261713028,-0.6541721224784851,-0.7522016167640686,0.6614426374435425,0.3050510287284851,-1.2945361137390137
0.7149516235425071,0.10797592159891084,1.954366085793212,0.36273103952407837,-0.5221665501594543,-1.0035675764083862,0.08137696981430054,-0.6555808782577515,-0.7507272362709045,0.7076245546340942,0.23413312435150146,-1.1432088613510132
0.7180170984423502,0.11222570653472873,1.9416810159381517,0.45245054364204407,-0.30254337191581726,-0.8308848142623901,0.08434119820594788,-0.657892644405365,-0.7483741641044617,0.736352801322937,0.16829913854599,-0.989891767501831
0.7219516005957443,0.11717547085440391,1.9309097429046538,0.5057671070098877,-0.13380637764930725,-0.6934952139854431,0.08774112910032272,-0.6608506441116333,-0.7453709840774536,0.709271252155304,0.11658495664596558,-0.8314722180366516
0.7263503564146915,0.12253846051064304,1.9215319627745546,0.5315254926681519,-0.05282364413142204,-0.5976190567016602,0.09138106554746628,-0.6641455888748169,-0.7419974207878113,0.6724587082862854,0.0704108476638794,-0.6759560704231262
0.7310209179908923,0.12762990245756559,1.9131362049213556,0.5473803877830505,-0.05427459627389908,-0.5252594947814941,0.09476184099912643,-0.6676300764083862,-0.7384377717971802,0.6340437531471252,0.027096569538116455,-0.5322989225387573
0.7357665149086772,0.1319274834302949,1.9056543284396454,0.5309313535690308,-0.08818888664245605,-0.44867098331451416,0.09751656651496887,-0.671155571937561,-0.7348746061325073,0.6124749183654785,-0.00865393877029419,-0.4055367112159729
0.7403413225189179,0.13521337915688117,1.8991427848296032,0.5056861042976379,-0.13098374009132385,-0.37918785214424133,0.09951582551002502,-0.6745399236679077,-0.7315001487731934,0.5921345949172974,-0.026296257972717285,-0.29437875747680664
0.7449655708915547,0.13750503345066029,1.8934452947642864,0.5296968817710876,-0.18108978867530823,-0.3268234431743622,0.10076325386762619,-0.6779465079307556,-0.7281725406646729,0.564764142036438,-0.03508138656616211,-0.23647278547286987
0.7500254347013824,0.13903722508095978,1.8882407698413237,0.5703539252281189,-0.22034388780593872,-0.2881847620010376,0.10140213370323181,-0.6816573739051819,-0.7246108055114746,0.5296709537506104,-0.046141088008880615,-0.2188858985900879
0.7554381961784842,0.14004826361247102,1.8833805899590057,0.5903779864311218,-0.23065058887004852,-0.26151347160339355,0.10161815583705902,-0.6856077313423157,-0.7208437919616699,0.49271172285079956,-0.044555842876434326,-0.18298006057739258
0.7608456517876786,0.14115142733785263,1.878815667493263,0.559349775314331,-0.1670951247215271,-0.2396891713142395,0.10189023613929749,-0.6895341873168945,-0.7170501947402954,0.4602588415145874,-0.04223155975341797,-0.14255362749099731
0.7656721875607259,0.1430170039342605,1.8746798906325783,0.47216376662254333,-0.027409128844738007,-0.21133875846862793,0.10275222361087799,-0.6930217742919922,-0.7135564684867859,0.4340520203113556,-0.04222297668457031,-0.10390263795852661
0.7694598352149702,0.1459660366926884,1.871212695976292,0.3447192907333374,0.13723699748516083,-0.167971670627594,0.1044735386967659,-0.6957473754882812,-0.710648238658905,0.4103580713272095,-0.03412628173828125,-0.06861811876296997
0.7719951887727725,0.15001114570217391,1.8686363809579456,0.21062621474266052,0.30981993675231934,-0.12240177392959595,0.10708336532115936,-0.6975662112236023,-0.7084734439849854,0.3836088478565216,-0.026112377643585205,-0.04734015464782715
0.7733467774811017,0.15504445238412745,1.866929154898039,0.09686983376741409,0.44700556993484497,-0.07763732969760895,0.11050225794315338,-0.6985340118408203,-0.7069932818412781,0.3568134605884552,-0.019910812377929688,-0.02501654624938965
0.7738771698052556,0.1604044151463219,1.8659995302446932,0.035554010421037674,0.47859492897987366,-0.03688777610659599,0.1142309233546257,-0.6989134550094604,-0.7060250043869019,0.336193323135376,-0.01387035846710205,-0.017150044441223145
0.7741227190262332,0.1652351568414238,1.8655852011433993,0.031656987965106964,0.42167991399765015,-0.013366902247071266,0.11761196702718735,-0.6990890502929688,-0.7052956819534302,0.3154020309448242,-0.00763702392578125,-0.022472262382507324
0.7746190555205483,0.1691727501147036,1.8653297103848436,0.0761520192027092,0.3224201500415802,-0.011466470547020435,0.12032976746559143,-0.6994438767433167,-0.7044848799705505,0.29216113686561584,0.00436025857925415,-0.029661178588867188
0.7755365140928345,0.17219284581657435,1.8648257693103167,0.11641589552164078,0.20994020998477936,-0.029382752254605293,0.12234683334827423,-0.7000992894172668,-0.7034858465194702,0.26554691791534424,0.012355148792266846,-0.024816155433654785
0.7767514626993243,0.17455913512890173,1.863998545163986,0.1432560235261917,0.1605454981327057,-0.039080388844013214,0.12386330962181091,-0.7009662985801697,-0.7023561000823975,0.24872584640979767,0.017326772212982178,-0.013647317886352539
0.7783053459265579,0.1769245361885242,1.8632925935480653,0.18128323554992676,0.22652985155582428,-0.0011206225026398897,0.12533245980739594,-0.7020736336708069,-0.7009881138801575,0.24884359538555145,0.04092562198638916,-0.026886582374572754
0.7804620945284315,0.17983270106206906,1.8632263577219323,0.248769611120224,0.34542906284332275,0.07308436930179596,0.12709937989711761,-0.7036078572273254,-0.6991292238235474,0.25849026441574097,0.07988965511322021,-0.06768590211868286
0.7836250048176292,0.18317892710900888,1.8641493394860287,0.3494018018245697,0.447671115398407,0.17345832288265228,0.12903209030628204,-0.7058518528938293,-0.6965083479881287,0.27491387724876404,0.09449326992034912,-0.10213661193847656
0.7878420221867917,0.1867243598520329,1.8662484969745312,0.41136717796325684,0.5558401942253113,0.27308210730552673,0.13094694912433624,-0.7088327407836914,-0.6931154727935791,0.28366491198539734,0.0962686538696289,-0.0944821834564209
0.7923918260073719,0.19065495121934822,1.8695872801410252,0.3821260333061218,0.7033588290214539,0.3505263030529022,0.13305774331092834,-0.7120347023010254,-0.6894215941429138,0.26014605164527893,0.10127115249633789,-0.051712989807128906
0.7965178686943111,0.19549330413568802,1.8737380725380208,0.3165462017059326,0.8451743125915527,0.36743631958961487,0.13582000136375427,-0.7149257063865662,-0.6858819723129272,0.2184891253709793,0.08890348672866821,-0.0056920647621154785
0.8000750828850641,0.20147864474707827,1.8776623660105975,0.27733930945396423,0.8940483331680298,0.29858264327049255,0.13941296935081482,-0.7174084186553955,-0.6825607419013977,0.16327568888664246,0.05980038642883301,0.01228797435760498
0.803113303620373,0.20833078950822587,1.880368144822063,0.23644937574863434,0.8496185541152954,0.19116269052028656,0.14363521337509155,-0.7195216417312622,-0.6794539093971252,0.11150707304477692,0.03897970914840698,0.024531424045562744
0.8053898098088366,0.21542056498519632,1.8818609840090494,0.16043752431869507,0.7763217687606812,0.11165241152048111,0.1480982005596161,-0.7211007475852966,-0.6768165230751038,0.10866148769855499,0.03271573781967163,0.062497735023498535
0.8066141230911394,0.22205400474933393,1.8829916314331676,0.0386572889983654,0.7104607224464417,0.10261551290750504,0.15238997340202332,-0.7219484448432922,-0.6749575138092041,0.13830524682998657,0.03525722026824951,0.09825164079666138
0.8065056231221044,0.22759219718113227,1.8848869688649768,-0.1205439493060112,0.6326378583908081,0.15346600115299225,0.15614333748817444,-0.72187340259552,-0.6741794943809509,0.17660513520240784,0.04918968677520752,0.1486210823059082
0.805129563245598,0.2307437814351024,1.8882039325251494,-0.23524415493011475,0.4990449547767639,0.23545034229755402,0.15849433839321136,-0.7209204435348511,-0.6746504902839661,0.1975238025188446,0.057727694511413574,0.15374600887298584
0.8032946046750222,0.23260241938172793,1.8928049864675187,-0.2618120014667511,0.5352734327316284,0.28648173809051514,0.16005265712738037,-0.7196475863456726,-0.675640881061554,0.1697813868522644,0.06118500232696533,0.07436829805374146
0.8014250832790741,0.2347313414387019,1.897668337788483,-0.2534259855747223,0.5951389074325562,0.2811413109302521,0.16180329024791718,-0.7183482050895691,-0.6766058206558228,0.10905550420284271,0.05938220024108887,0.03274601697921753
0.7996025421874721,0.2374739452629371,1.9025859697256278,-0.27248576283454895,0.6452564001083374,0.3006684184074402,0.16396605968475342,-0.7170791029930115,-0.6774308681488037,0.09232062101364136,0.03809356689453125,0.012880146503448486
0.7972934751658212,0.24010585293897763,1.9081705505519122,-0.3604978919029236,0.6888301968574524,0.34568703174591064,0.16614173352718353,-0.7154678106307983,-0.67860347032547,0.09104517102241516,0.043806493282318115,0.035689711570739746
0.7941117654511993,0.24296147047570815,1.9144961536802998,-0.4641846716403961,0.7734903693199158,0.35467180609703064,0.16862571239471436,-0.7132412791252136,-0.6803324818611145,0.08051985502243042,0.04537934064865112,0.0582926869392395
0.78982576123332,0.24615669161902287,1.921114967895083,-0.5884144902229309,0.7977855801582336,0.34298744797706604,0.1715419888496399,-0.7102306485176086,-0.6827486753463745,0.0628177672624588,0.028010189533233643,0.06997102499008179
0.7843187142065093,0.2493152896544297,1.928089628689071,-0.7171185612678528,0.8151710629463196,0.3421316146850586,0.1746600866317749,-0.7063430547714233,-0.685983419418335,0.07099120318889618,0.012510716915130615,0.07602864503860474
0.7775095425084839,0.252280842052793,1.9354476689984195,-0.860199511051178,0.8051466941833496,0.32943686842918396,0.17789007723331451,-0.7015067338943481,-0.6901038885116577,0.07938840985298157,0.01039046049118042,0.08794635534286499
0.7691996183354247,0.2548988847763073,1.943121236557493,-1.0124855041503906,0.7882345914840698,0.31282806396484375,0.1811598390340805,-0.6955603957176208,-0.6952530145645142,0.08972945809364319,0.010242462158203125,0.10131996870040894
0.7595459647669381,0.25748580216545036,1.9510115087058626,-1.1311668157577515,0.8212209939956665,0.29958203434944153,0.18465915322303772,-0.688592255115509,-0.7012429237365723,0.10663117468357086,0.0037473440170288086,0.08802270889282227
0.7489094567586161,0.26051926954087534,1.9590969403481147,-1.2206580638885498,0.8924916982650757,0.29533734917640686,0.18866148591041565,-0.6808404326438904,-0.7077168822288513,0.12006963789463043,0.010659098625183105,0.06390279531478882
0.7374274765670603,0.26433250516945594,1.9673179181443425,-1.3032352924346924,0.9788878560066223,0.2774185240268707,0.19338855147361755,-0.6723859310150146,-0.7144913673400879,0.12252946197986603,0.021491825580596924,0.04798758029937744
0.7252878045078581,0.2691850576833995,1.9755833007982992,-1.3503758907318115,1.091323733329773,0.2732956111431122,0.19900962710380554,-0.6633508205413818,-0.721360445022583,0.12778790295124054,0.034597158432006836,0.030625641345977783
0.7130379696467373,0.275166599730944,1.9840479108652436,-1.3325632810592651,1.2135380506515503,0.2981429100036621,0.20551343262195587,-0.6541346311569214,-0.7279230952262878,0.1504283994436264,0.06000316143035889,-0.004590272903442383
0.7013432130658087,0.2823227559887186,1.9927967345258297,-1.268602728843689,1.3446468114852905,0.3353707492351532,0.212833970785141,-0.6452444791793823,-0.7337310314178467,0.1754869967699051,0.07670199871063232,-0.04313957691192627
0.6903787251487951,0.290652450655823,2.001695131739964,-1.2156304121017456,1.44220769405365,0.3514799475669861,0.22095255553722382,-0.6368291974067688,-0.7386667132377625,0.18538902699947357,0.07919681072235107,-0.04178977012634277
0.6799253797407101,0.2994082720101469,2.0107339360943874,-1.1866881847381592,1.4218789339065552,0.3818182051181793,0.22936269640922546,-0.6287350058555603,-0.7430242896080017,0.19388563930988312,0.0915340781211853,-0.013109683990478516
0.6700077393597678,0.3068028209464776,2.0201411009115287,-1.1271694898605347,1.1939115524291992,0.4301353991031647,0.23672233521938324,-0.6209920644760132,-0.7472158074378967,0.22699230909347534,0.12457787990570068,0.015038073062896729
0.6613323951581546,0.3109055462987588,2.0299534444899985,-0.9820542335510254,0.8219624757766724,0.5147749781608582,0.24142500758171082,-0.6141688823699951,-0.7513391971588135,0.28736838698387146,0.15301775932312012,0.012874841690063477
0.6544516529816619,0.3107748651113243,2.0403022092108927,-0.8265770077705383,0.41406768560409546,0.6208736896514893,0.24261337518692017,-0.6087242960929871,-0.755376398563385,0.3339705467224121,0.17766350507736206,-0.004526495933532715
0.6491277451568297,0.3065167141746593,2.0512352523772526,-0.7140120267868042,0.07040008157491684,0.7114177346229553,0.24036915600299835,-0.6044917702674866,-0.75948166847229,0.34553787112236023,0.20663410425186157,-0.008813619613647461
0.6451468749892321,0.29884240885094465,2.0629323378906355,-0.5909276604652405,-0.17791278660297394,0.8373900651931763,0.23524025082588196,-0.6013157963752747,-0.7635976076126099,0.36485743522644043,0.23954516649246216,-0.03513896465301514
0.6429563333905431,0.2886505188445818,2.075767185671812,-0.4123523235321045,-0.30393970012664795,0.9968582987785339,0.22782008349895477,-0.5995640754699707,-0.7672163248062134,0.3970273733139038,0.2792973518371582,-0.08665019273757935
0.6428742984561624,0.27698557884326763,2.0898731368863412,-0.2350454181432724,-0.3236321806907654,1.1552066802978516,0.2188687026500702,-0.599498450756073,-0.7698689103126526,0.416751503944397,0.3039509057998657,-0.12223619222640991
0.644528990825007,0.2648408591952868,2.105201648277148,-0.11003106832504272,-0.25499990582466125,1.2866543531417847,0.20924299955368042,-0.6008219718933105,-0.7715117335319519,0.42515644431114197,0.30850934982299805,-0.1226533055305481
0.6472006089583217,0.2530267381257157,2.1217613162147733,-0.057136960327625275,-0.1041552722454071,1.3998503684997559,0.19971132278442383,-0.6029554605484009,-0.7723729610443115,0.42989686131477356,0.30849140882492065,-0.09930050373077393
0.6502210350206049,0.24239073813062276,2.139827039759687,-0.0729476734995842,0.1763525754213333,1.537711501121521,0.19104723632335663,-0.6053623557090759,-0.7726819515228271,0.44725847244262695,0.3094944357872009,-0.07688164710998535
0.6529528803503771,0.23372430363433694,2.1600139366704583,-0.1597462296485901,0.5327237248420715,1.698288083076477,0.18396003544330597,-0.6075345277786255,-0.7726969122886658,0.4503631293773651,0.3339748978614807,-0.05582475662231445
0.6548265947315894,0.22698317494303383,2.1824187601430283,-0.289678156375885,0.8274341225624084,1.8391399383544922,0.1784905642271042,-0.6090217232704163,-0.7728089690208435,0.4458838701248169,0.36596447229385376,-0.026385366916656494
0.6553980747446408,0.22134274762944606,2.206952198206573,-0.462467223405838,1.0180937051773071,1.9664736986160278,0.17405234277248383,-0.6094748973846436,-0.7734637260437012,0.45546430349349976,0.37480998039245605,0.005855083465576172
0.6543978237844721,0.21647759004709746,2.2332264247887927,-0.629298985004425,1.2020090818405151,2.0404982566833496,0.1704181432723999,-0.6086815595626831,-0.7748964428901672,0.4451367259025574,0.3731011152267456,0.023965656757354736
0.6519849714273731,0.21301059748883436,2.260559371009013,-0.7559275031089783,1.4212572574615479,2.086061477661133,0.16804054379463196,-0.6067653894424438,-0.7769157886505127,0.41821742057800293,0.35377466678619385,0.012816667556762695
0.6484823229660777,0.21149321710654373,2.288642956503678,-0.8631669282913208,1.6637778282165527,2.125216007232666,0.167306587100029,-0.6039775013923645,-0.779242992401123,0.4100402593612671,0.3424418568611145,-0.0007862448692321777
0.6439053642301016,0.2120517793539239,2.317505669686773,-0.9966903924942017,1.9058301448822021,2.1791446208953857,0.1683218777179718,-0.6003233790397644,-0.7818437814712524,0.4091928005218506,0.35406172275543213,0.0021806955337524414
0.6379901889493175,0.2142932216261756,2.3474600520493936,-1.169688105583191,2.1049909591674805,2.253533124923706,0.17082606256008148,-0.5955821871757507,-0.7849205136299133,0.4193839132785797,0.36421316862106323,0.02690976858139038
0.6305870809740046,0.2176364277559047,2.3788036810325606,-1.344362735748291,2.2569923400878906,2.3501574993133545,0.17439652979373932,-0.5896190404891968,-0.7886286973953247,0.4340019226074219,0.3657573461532593,0.04071915149688721
0.6220698954845051,0.22172111139838335,2.411628101829401,-1.4551615715026855,2.393192768096924,2.4612832069396973,0.17871427536010742,-0.582718551158905,-0.7927801012992859,0.43746620416641235,0.37034666538238525,0.015177011489868164
0.6133487623860429,0.22655637027132774,2.4459861865568886,-1.4691994190216064,2.533867835998535,2.603269577026367,0.18368002772331238,-0.575609028339386,-0.7968286275863647,0.425420343875885,0.38713252544403076,-0.04823356866836548
0.605297537873741,0.23191016144176324,2.48199557099124,-1.425316572189331,2.6271040439605713,2.7684104442596436,0.18900248408317566,-0.5690068006515503,-0.8003183007240295,0.40184837579727173,0.402945339679718,-0.12296050786972046
0.5982748700731965,0.23688080971806885,2.519815484350917,-1.3864418268203735,2.6201376914978027,2.954221248626709,0.19391120970249176,-0.56321781873703,-0.8032335638999939,0.38242852687835693,0.40921080112457275,-0.15221071243286133
0.59188876084343,0.24070446691843483,2.5595952424956456,-1.4120820760726929,2.5778298377990723,3.124434232711792,0.19783446192741394,-0.5579294562339783,-0.8059629201889038,0.36019474267959595,0.40322059392929077,-0.1342226266860962
0.5854289181911743,0.2432180225117154,2.601050559738116,-1.4861773252487183,2.504577398300171,3.2351794242858887,0.20072346925735474,-0.5525569319725037,-0.8089442849159241,0.30765360593795776,0.37898820638656616,-0.11064177751541138
0.5784814811343075,0.24458814458707986,2.6434032254127855,-1.5595799684524536,2.403578042984009,3.268054485321045,0.2027563601732254,-0.5467531085014343,-0.8123735785484314,0.24161013960838318,0.3513948321342468,-0.11116456985473633
0.5710045045758488,0.24499495006727465,2.6858162529132636,-1.5964410305023193,2.2652111053466797,3.256192207336426,0.20407269895076752,-0.540477454662323,-0.816234290599823,0.18903948366641998,0.335521399974823,-0.13521212339401245
0.5634524085187703,0.24429487404945915,2.7278424240297854,-1.567456841468811,2.087146520614624,3.241183280944824,0.20448267459869385,-0.5341081023216248,-0.8203141689300537,0.16090431809425354,0.337422251701355,-0.1804792284965515
0.556392237712402,0.24211642406239833,2.7693547689833595,-1.4844841957092285,1.8643765449523926,3.2285451889038086,0.20359420776367188,-0.528126060962677,-0.8243981003761292,0.14317704737186432,0.3588907718658447,-0.23009097576141357
0.5502501139358688,0.2381571234817652,2.8102528305280994,-1.3505035638809204,1.6291911602020264,3.22353458404541,0.20109005272388458,-0.5229004621505737,-0.828334391117096,0.12177067995071411,0.38172608613967896,-0.2746776342391968
0.5454276031477407,0.23243321836750377,2.85068880678219,-1.1917387247085571,1.4364368915557861,3.251936674118042,0.19692406058311462,-0.518783688545227,-0.831916093826294,0.10011877119541168,0.39775097370147705,-0.3229910731315613
0.5419619950169442,0.22546912196478958,2.891112244089381,-1.0508681535720825,1.3573834896087646,3.3145434856414795,0.1915265917778015,-0.5158178210258484,-0.8350147008895874,0.06984120607376099,0.4218236804008484,-0.3603129982948303
0.5396506342171531,0.21825129755459924,2.9319366237546944,-0.9344373345375061,1.4007223844528198,3.392470359802246,0.18575231730937958,-0.5138363242149353,-0.8375371098518372,0.030541017651557922,0.4499629735946655,-0.38786572217941284
0.5382675210890352,0.21161905700024256,2.9732614491836418,-0.8504759073257446,1.506594181060791,3.4550435543060303,0.1803426295518875,-0.5126492381095886,-0.839444637298584,-0.011305749416351318,0.4584195017814636,-0.4079766273498535
0.5372985178610438,0.20611174567076573,3.0149530118903667,-0.8263050317764282,1.6553152799606323,3.4865779876708984,0.17581841349601746,-0.5118170380592346,-0.8409109711647034,-0.06276603043079376,0.45456600189208984,-0.41539090871810913
0.5360537187823622,0.20214631485427353,3.0568638368075898,-0.8847789168357849,1.8217756748199463,3.494478940963745,0.17261023819446564,-0.5107472538948059,-0.8422250151634216,-0.11166663467884064,0.44957470893859863,-0.40797334909439087
0.5337871561340829,0.19957082704227233,3.099044990607636,-1.0050808191299438,1.9402189254760742,3.503984212875366,0.17066960036754608,-0.508797287940979,-0.8437992334365845,-0.1579437553882599,0.441231369972229,-0.38477736711502075
0.5301449324513606,0.19797390018643435,3.1414743186035095,-1.143248200416565,2.027712106704712,3.4961962699890137,0.1696852594614029,-0.5056583881378174,-0.8458821177482605,-0.2167586237192154,0.4235660433769226,-0.3873942494392395
0.5253662115677653,0.1975365830966929,-3.099471249930752,-1.2086440324783325,2.122945547103882,3.4469456672668457,0.16978761553764343,-0.50152987241745,-0.848315954208374,-0.28285524249076843,0.40303438901901245,-0.4264184832572937
0.520281230808837,0.19856079489229272,-3.058069885551257,-1.1798423528671265,2.200073480606079,3.3613967895507812,0.17115722596645355,-0.49712416529655457,-0.8506307601928711,-0.33120667934417725,0.3754658102989197,-0.48867887258529663
0.5158589296523676,0.20123898722060857,-3.0180187182005827,-1.0477488040924072,2.291306972503662,3.262798309326172,0.17387250065803528,-0.4932821989059448,-0.8523150682449341,-0.3481126129627228,0.34231168031692505,-0.5490673184394836
0.5131593865528195,0.20583020143158295,-2.9795949005821067,-0.8106268048286438,2.3883838653564453,3.159330129623413,0.17805533111095428,-0.4909321367740631,-0.8528082370758057,-0.345184862613678,0.3071094751358032,-0.5929161906242371
0.513186092915501,0.21211928854451254,-2.9429708707069464,-0.4986974000930786,2.4353585243225098,3.0663650035858154,0.18341240286827087,-0.4909554123878479,-0.8516587615013123,-0.33154475688934326,0.2795753479003906,-0.6163740158081055
0.516425127566996,0.21923520136258434,-2.9081374099249895,-0.16771584749221802,2.387169599533081,2.9746012687683105,0.18912118673324585,-0.4937746226787567,-0.8487754464149475,-0.31758493185043335,0.26225295662879944,-0.6001075506210327
0.522662348124194,0.22625140429316004,-2.875309872088402,0.11785492300987244,2.2475390434265137,2.8350977897644043,0.19437699019908905,-0.4991888105869293,-0.8444098830223083,-0.32931047677993774,0.23537957668304443,-0.5296134948730469
0.5311736802856281,0.2326371281284696,-2.8449223353455193,0.33487555384635925,2.0668554306030273,2.645171880722046,0.1987784206867218,-0.5065456628799438,-0.8389866948127747,-0.3479636311531067,0.19404560327529907,-0.43530523777008057
0.5411095850397228,0.23835802590532904,-2.8173137319213355,0.4738997519016266,1.8849419355392456,2.417665958404541,0.20237654447555542,-0.515087366104126,-0.8329038023948669,-0.3584587275981903,0.15263009071350098,-0.3446168899536133
0.5515910670471293,0.24368613439728315,-2.7924212497501033,0.5366453528404236,1.7640469074249268,2.206238031387329,0.20549747347831726,-0.5240429639816284,-0.8265287280082703,-0.35008978843688965,0.12452203035354614,-0.25376296043395996
0.5620557780760638,0.2491040772139184,-2.769614100769446,0.5357065796852112,1.7193154096603394,2.052654504776001,0.20860905945301056,-0.5329268574714661,-0.8200434446334839,-0.31278082728385925,0.10615372657775879,-0.18052107095718384
0.5719525885396941,0.2546407639356254,-2.74802165843573,0.46170270442962646,1.6968392133712769,1.9626356363296509,0.21180716156959534,-0.541274905204773,-0.8137316703796387,-0.2585143446922302,0.08444201946258545,-0.11572688817977905
0.5806810409351918,0.259765842118349,-2.7267738762894416,0.30958667397499084,1.6301624774932861,1.9227713346481323,0.21475309133529663,-0.5485934615135193,-0.808038592338562,-0.21249482035636902,0.07888209819793701,-0.04302036762237549
0.5875566814089876,0.26437427796746904,-2.7051169760339686,0.05755705013871193,1.6881601810455322,1.918086290359497,0.21748380362987518,-0.5543290972709656,-0.8033803701400757,-0.16763335466384888,0.07172411680221558,0.03055328130722046
0.5916157595243623,0.2677374011589483,-2.682500300167946,-0.2570594847202301,1.4625773429870605,1.9078410863876343,0.21958735585212708,-0.557702898979187,-0.8004679083824158,-0.11619383096694946,0.038827717304229736,0.12963056564331055
0.5932859904512497,0.26910408833109156,-2.6592502690810402,-0.4292876720428467,1.434662103652954,1.8797966241836548,0.22043317556381226,-0.5590884685516357,-0.7992679476737976,-0.09666916728019714,0.006109952926635742,0.04922223091125488
0.5932240929677048,0.2712782254789027,-2.6365678582886445,-0.5897101163864136,1.5314586162567139,1.714511513710022,0.22217965126037598,-0.5590371489524841,-0.7988201975822449,-0.13918712735176086,-0.02751070261001587,-0.021660149097442627
0.5907886754703079,0.27571850538189463,-2.6155247011379035,-0.8363462090492249,1.6940317153930664,1.5081958770751953,0.22609440982341766,-0.5570161938667297,-0.7991334199905396,-0.17844124138355255,-0.057897746562957764,-0.005691349506378174
0.5847169835097835,0.28208321323638275,-2.5956416334524475,-1.2547664642333984,1.7537600994110107,1.3350316286087036,0.23211319744586945,-0.5519633889198303,-0.8009119033813477,-0.16058002412319183,-0.07735484838485718,0.07726383209228516
0.5738882223142171,0.288998050853548,-2.5760589024269165,-1.7475004196166992,1.7630090713500977,1.1939082145690918,0.23933522403240204,-0.5429014563560486,-0.8049699664115906,-0.13566707074642181,-0.060064852237701416,0.14952874183654785
0.5579689189572486,0.29633088859459356,-2.5564105958596244,-2.2415947914123535,1.802801489830017,1.0595357418060303,0.2477240413427353,-0.5294642448425293,-0.8113571405410767,-0.12196114659309387,-0.024017810821533203,0.16745150089263916
0.5373888785308751,0.3044200160782589,-2.5365844370430817,-2.664560317993164,1.8660318851470947,0.9574508666992188,0.25749102234840393,-0.5118946433067322,-0.8195499777793884,-0.10723775625228882,0.0369342565536499,0.1302189826965332
0.513310054083298,0.3131865048535966,-2.516323863577599,-2.9553611278533936,1.9032851457595825,0.9242521524429321,0.26838600635528564,-0.4910633862018585,-0.8287494778633118,-0.08222883939743042,0.10867813229560852,0.04334908723831177
0.4872748184056324,0.3223377659821543,-2.495214829175617,-3.1139633655548096,1.9420735836029053,0.9710295796394348,0.27991488575935364,-0.4682196378707886,-0.8381038308143616,-0.050972044467926025,0.1906622052192688,-0.05020177364349365
0.46088044735124656,0.3319974245096186,-2.4728300407163664,-3.134629487991333,2.0222039222717285,1.1078583002090454,0.29192468523979187,-0.44473686814308167,-0.8467521071434021,-0.019021272659301758,0.2628062963485718,-0.1386452317237854
0.4356813334479762,0.3423607573178295,-2.448774316565956,-3.0204732418060303,2.119100332260132,1.3208656311035156,0.30435049533843994,-0.42202818393707275,-0.8539689779281616,0.02293524146080017,0.31352290511131287,-0.21367323398590088
0.413094464518802,0.3531771010018249,-2.4227678849421546,-2.8176794052124023,2.157424211502075,1.5905232429504395,0.31678611040115356,-0.4014454185962677,-0.8593533039093018,0.07304540276527405,0.3336963653564453,-0.25388211011886597
0.3940500537171383,0.36355670221370195,-2.3946147564844464,-2.54414963722229,2.09700083732605,1.9184612035751343,0.3283480703830719,-0.3839312195777893,-0.8630089163780212,0.11038786172866821,0.3322038948535919,-0.25295788049697876
0.3793623084960398,0.3722255195789141,-2.3640349219496444,-2.214315176010132,1.9052834510803223,2.3025970458984375,0.3378314971923828,-0.3703281879425049,-0.8652900457382202,0.1400584876537323,0.3352024257183075,-0.2503257393836975
0.3695599071328074,0.3776489813444901,-2.330930440726885,-1.8545535802841187,1.5678517818450928,2.693740129470825,0.34384143352508545,-0.3612051010131836,-0.8667779564857483,0.13014227151870728,0.3550099730491638,-0.23693609237670898
0.3645257823757521,0.3785288741074955,-2.295663290724357,-1.5029710531234741,1.1140214204788208,3.0234129428863525,0.34527158737182617,-0.3565062880516052,-0.8681536912918091,0.07724422216415405,0.36135852336883545,-0.19101989269256592
0.3637172506036849,0.3739632221346191,-2.2589071344870937,-1.1700875759124756,0.5739309787750244,3.2756967544555664,0.34140950441360474,-0.3557507395744324,-0.8699890375137329,0.017049938440322876,0.3440167009830475,-0.1372436285018921
0.3663187182466971,0.3634026324287325,-2.2213148068938184,-0.8812030553817749,-0.010318082757294178,3.424860715866089,0.33187294006347656,-0.35818082094192505,-0.8726779818534851,-0.04607588052749634,0.31934717297554016,-0.07528954744338989
0.3711690003149867,0.3468549423780235,-2.1836950225285783,-0.6545805931091309,-0.5824336409568787,3.456172227859497,0.3167930543422699,-0.3627050817012787,-0.8764058351516724,-0.12027513980865479,0.2973821461200714,-0.005948901176452637
0.37719642254795205,0.32500800221034243,-2.1468235606412,-0.4758787453174591,-1.0759176015853882,3.3895246982574463,0.2968687117099762,-0.3683154284954071,-0.8810293674468994,-0.19597765803337097,0.2660662531852722,0.036836862564086914
0.38356231794355133,0.29927363800899,-2.111343507155918,-0.34013912081718445,-1.4062310457229614,3.242438793182373,0.2734033763408661,-0.37422630190849304,-0.8861180543899536,-0.24952343106269836,0.23364707827568054,0.05614680051803589
0.3897040956164,0.271546224011144,-2.0777231502041187,-0.2432381510734558,-1.5788488388061523,3.0568881034851074,0.24811048805713654,-0.37991470098495483,-0.8911262154579163,-0.2791011333465576,0.21312084794044495,0.07421648502349854
0.3952261908472396,0.24308781954687544,-2.0460230578182474,-0.18519024550914764,-1.6666145324707031,2.8731071949005127,0.22214505076408386,-0.38501694798469543,-0.8957753777503967,-0.27342990040779114,0.19165754318237305,0.09413963556289673
0.39997027672769164,0.21467031007887805,-2.0159692427932367,-0.14581488072872162,-1.670426607131958,2.724928855895996,0.1962117850780487,-0.3893909752368927,-0.8999308943748474,-0.2389059215784073,0.1740589141845703,0.09812730550765991
0.4040168785968994,0.1869157919310953,-1.9872613006077455,-0.11867442727088928,-1.621277928352356,2.5977492332458496,0.17086805403232574,-0.39311498403549194,-0.9034736752510071,-0.19818133115768433,0.16798678040504456,0.09106528759002686
0.4071570100734109,0.16029106681608202,-1.959773863079247,-0.1464003324508667,-1.516297459602356,2.4714643955230713,0.14655785262584686,-0.39600035548210144,-0.9064791798591614,-0.16845425963401794,0.15753597021102905,0.09919768571853638
0.4087284993508926,0.135391489105737,-1.9332918301653228,-0.2706053555011749,-1.344056487083435,2.373790740966797,0.12385965138673782,-0.39744287729263306,-0.9092293381690979,-0.1375773549079895,0.13853171467781067,0.1265755295753479
0.4080800196792228,0.11282869476805228,-1.9074253225479398,-0.4473620057106018,-1.1008853912353516,2.309748411178589,0.10334411263465881,-0.39684775471687317,-0.9120481610298157,-0.1038629561662674,0.12557697296142578,0.14401227235794067
0.4049735554655832,0.0929830321416183,-1.8820695100134652,-0.6514958739280701,-0.8628167510032654,2.2415459156036377,0.08533880114555359,-0.39399445056915283,-0.9151424169540405,-0.08916881680488586,0.12070953845977783,0.14808309078216553
0.3991884176432529,0.07569871194566255,-1.857584761967007,-0.8816372156143188,-0.6806727647781372,2.134483575820923,0.06968043744564056,-0.3886706829071045,-0.9187381267547607,-0.09172944724559784,0.10372805595397949,0.15332674980163574
0.39052166926737397,0.06061606593340528,-1.834449131266654,-1.1383888721466064,-0.5618202686309814,1.994971752166748,0.05601799860596657,-0.38067084550857544,-0.9230123162269592,-0.10641783475875854,0.07340461015701294,0.15615135431289673
0.3788187383005817,0.04725340592439969,-1.8129855196484974,-1.4043827056884766,-0.5002733469009399,1.841888189315796,0.043886903673410416,-0.3698232173919678,-0.9280650615692139,-0.12015038728713989,0.043147772550582886,0.15017199516296387
0.36433174357979103,0.03525013143528421,-1.7932528675791137,-1.6285412311553955,-0.46784868836402893,1.7048747539520264,0.032929565757513046,-0.3563249707221985,-0.933781623840332,-0.12202569097280502,0.035661518573760986,0.12321949005126953
0.3476268464411204,0.024205971133254425,-1.7750828845649076,-1.7905189990997314,-0.48331418633461,1.5906020402908325,0.02275584079325199,-0.34066757559776306,-0.9399083852767944,-0.12100723385810852,0.051070988178253174,0.07398736476898193
0.32962489482917534,0.013540761173216344,-1.7583685956443704,-1.8481992483139038,-0.5328488349914551,1.49175226688385,0.012811386957764626,-0.3236881494522095,-0.9460771083831787,-0.11950089782476425,0.06569251418113708,0.00042891502380371094
0.31146155877847975,0.0031555463470135927,-1.7427686837613898,-1.7852764129638672,-0.552582323551178,1.433862566947937,0.0030037176329642534,-0.3064501881599426,-0.9518819451332092,-0.10505455732345581,0.08126097917556763,-0.09627479314804077
0.29432001900165594,-0.0067267811686365165,-1.7279546307750773,-1.6162657737731934,-0.5338505506515503,1.393945574760437,-0.0064374785870313644,-0.2900891900062561,-0.9569779634475708,-0.09161555767059326,0.09877446293830872,-0.1970137357711792
0.2791956786169112,-0.015839356216709843,-1.713600857766318,-1.3684256076812744,-0.47070223093032837,1.3894493579864502,-0.015225378796458244,-0.27558255195617676,-0.9611568450927734,-0.08783254027366638,0.11649441719055176,-0.28197669982910156
0.2664553464200414,-0.024103942365518802,-1.6992321936992378,-1.122119665145874,-0.41361182928085327,1.4199227094650269,-0.023251069709658623,-0.26331353187561035,-0.9644300937652588,-0.0770450085401535,0.14229604601860046,-0.3138291835784912
0.255892028748782,-0.03197420834247596,-1.684679709332222,-0.9067490696907043,-0.41746222972869873,1.4352753162384033,-0.030927790328860283,-0.25310850143432617,-0.9669434428215027,-0.08030883967876434,0.14933344721794128,-0.3047850728034973
0.24737568626314632,-0.039836340564319894,-1.6702237076972846,-0.6903862357139587,-0.4331689178943634,1.411590337753296,-0.038613442331552505,-0.24486038088798523,-0.9687891602516174,-0.11592763662338257,0.13313552737236023,-0.28607839345932007
0.24093173567267254,-0.047592185824120434,-1.656140409224848,-0.48011136054992676,-0.4393932819366455,1.3676319122314453,-0.046200092881917953,-0.23860755562782288,-0.9700164794921875,-0.14549612998962402,0.10935033857822418,-0.258270263671875
0.23617995295324304,-0.055461822388999424,-1.6424624443767395,-0.33965209126472473,-0.4820381700992584,1.3309648036956787,-0.05389450117945671,-0.23399034142494202,-0.9707440137863159,-0.15382345020771027,0.09797348082065582,-0.20238220691680908
0.23245122271024216,-0.06343136207762308,-1.6289167685626098,-0.2498340606689453,-0.469251811504364,1.342171549797058,-0.06168396770954132,-0.23036350309848785,-0.9711476564407349,-0.13492558896541595,0.09028781950473785,-0.15476787090301514
0.22944279523285097,-0.07105783946232218,-1.6151137821508073,-0.17123153805732727,-0.4171743094921112,1.3685857057571411,-0.06913743168115616,-0.22743496298789978,-0.9713358879089355,-0.11683674901723862,0.09991724789142609,-0.13864946365356445
0.2271583566463272,-0.07813132526336791,-1.6010769450898645,-0.08084411919116974,-0.36264556646347046,1.378367304801941,-0.07604672759771347,-0.2252097874879837,-0.9713379740715027,-0.12485054135322571,0.11160808801651001,-0.13542777299880981
0.22583344344162506,-0.0843895551465357,-1.5871106570919065,0.0393574982881546,-0.25663986802101135,1.3414450883865356,-0.08214913308620453,-0.22391872107982635,-0.9711394906044006,-0.15272945165634155,0.10993558168411255,-0.1402648687362671
