attitudeX,attitudeY,attitudeZ,gyroX,gyroY,gyroZ,gravityX,gravityY,gravityZ,accX,accY,accZ
1.225255808069856,0.5597557093037961,-1.102343762070015,-0.05197376012802124,-0.37290894985198975,-0.5299462080001831,0.17984549701213837,-0.9408925175666809,-0.2870137691497803,0.11745670437812805,-0.06992596387863159,0.15279746055603027
1.2204448287770908,0.5647771844823127,-1.111047923362647,-0.4293482303619385,-0.24799229204654694,-0.4923429787158966,0.18370525538921356,-0.9392521381378174,-0.2899276316165924,0.13073261082172394,-0.11152923107147217,0.13926228880882263
1.2129961270167182,0.5662396504651023,-1.1144864453962942,-0.6789513826370239,-0.10163642466068268,-0.5138856768608093,0.18787682056427002,-0.9366694688796997,-0.29555433988571167,0.1504409909248352,-0.18456143140792847,0.04981151223182678
1.2038028123383775,0.5679429193022232,-1.1165795114609578,-0.769353449344635,0.055923908948898315,-0.5938052535057068,0.19300387799739838,-0.9334103465080261,-0.30248066782951355,0.17793719470500946,-0.2477571964263916,-0.06498149037361145
1.1941684474908612,0.5723169322516355,-1.1193891164847014,-0.7266209721565247,0.305537611246109,-0.6066936254501343,0.19918641448020935,-0.9299101233482361,-0.3091793656349182,0.22143730521202087,-0.26930856704711914,-0.19056129455566406
1.185122053112275,0.5802592359963428,-1.123094851803165,-0.6304414868354797,0.5885077714920044,-0.6114867925643921,0.20623944699764252,-0.9265449643135071,-0.31461048126220703,0.2456495463848114,-0.24597084522247314,-0.30095964670181274
1.1771025500374754,0.5923161137916891,-1.1284455387473131,-0.46694478392601013,0.8167946934700012,-0.6047601699829102,0.2141590565443039,-0.9234984517097473,-0.31825560331344604,0.2644480764865875,-0.23087477684020996,-0.36396491527557373
1.1707396742329292,0.6077895441267631,-1.135669351492896,-0.2654707729816437,0.9151380658149719,-0.5673816800117493,0.22240875661373138,-0.9210389256477356,-0.3197210729122162,0.3219790458679199,-0.23014503717422485,-0.3888208568096161
1.1662366818526062,0.6249428112952099,-1.1445835067112922,-0.06429868191480637,0.8544934988021851,-0.5130996108055115,0.23028427362442017,-0.9192758202552795,-0.3192196786403656,0.38772714138031006,-0.22726958990097046,-0.37359046936035156
1.163787768376592,0.6421098355377215,-1.1547138404220543,0.13889677822589874,0.7047812342643738,-0.41362547874450684,0.23707769811153412,-0.9183091521263123,-0.31702151894569397,0.4583110809326172,-0.22822105884552002,-0.3525342047214508
1.163434547169378,0.6581779291864751,-1.165663228254951,0.3246139883995056,0.48572391271591187,-0.31581562757492065,0.24233895540237427,-0.9181692600250244,-0.3134276568889618,0.5051432847976685,-0.23806536197662354,-0.332843154668808
1.1649492086086377,0.6727739845763886,-1.1775250507407926,0.48218950629234314,0.265851229429245,-0.23406270146369934,0.24602089822292328,-0.9187682867050171,-0.30876919627189636,0.5190394520759583,-0.24524837732315063,-0.30593112111091614
1.167833810578943,0.6865248742997371,-1.1900746099637924,0.5730273723602295,0.19442661106586456,-0.17617188394069672,0.24856258928775787,-0.9199032783508301,-0.3033061623573303,0.505999743938446,-0.24469327926635742,-0.29595232009887695
1.171384258189663,0.7009333319516435,-1.203237288485369,0.6230636239051819,0.27341729402542114,-0.16030903160572052,0.2507988214492798,-0.9212898015975952,-0.2971954345703125,0.4758552014827728,-0.22386705875396729,-0.2932587265968323
1.1751356239598758,0.7168893155390299,-1.2167847286223432,0.6175369620323181,0.4229711890220642,-0.14739440381526947,0.25323623418807983,-0.9227421283721924,-0.290548712015152,0.4705796539783478,-0.19166839122772217,-0.2886139452457428
1.178614487414962,0.7343102583611055,-1.2297949642798325,0.5532972812652588,0.6685396432876587,-0.1379859894514084,0.256106436252594,-0.9240773320198059,-0.28370848298072815,0.47825324535369873,-0.15683996677398682,-0.28266727924346924
1.1814361058220886,0.7534598367135232,-1.2415548172796682,0.4643081724643707,0.9857383370399475,-0.13977862894535065,0.25970712304115295,-0.9251521229743958,-0.2768496572971344,0.48154953122138977,-0.12872666120529175,-0.2793179750442505
1.1836058922793253,0.7745117243273063,-1.2520203053829368,0.4001709818840027,1.2688066959381104,-0.1284402310848236,0.2640727162361145,-0.9259735941886902,-0.2698858380317688,0.4801594018936157,-0.10388779640197754,-0.2934686839580536
1.1855860448418585,0.7969400372391382,-1.2617359415191942,0.4080226421356201,1.3809473514556885,-0.10560982674360275,0.2687470316886902,-0.9267194271087646,-0.26261386275291443,0.48576948046684265,-0.0604783296585083,-0.32474276423454285
1.1882215856265377,0.8199230306404386,-1.27196343925438,0.5183659195899963,1.2854951620101929,-0.03355880454182625,0.27292466163635254,-0.9277065396308899,-0.2547011971473694,0.5066620111465454,-0.006024539470672607,-0.363127201795578
1.192672599376393,0.8423473873297921,-1.2835153159621884,0.7172867655754089,1.0384912490844727,0.12491325289011002,0.2754831314086914,-0.929358959197998,-0.24576625227928162,0.5621175169944763,0.05646467208862305,-0.41525977849960327
1.1999437491509295,0.8637732813685051,-1.2965625033473005,0.9534287452697754,0.8229411244392395,0.34950271248817444,0.27553990483283997,-0.9320186972618103,-0.23541180789470673,0.6124758124351501,0.12736183404922485,-0.47923362255096436
1.2105483506896428,0.8849851842520586,-1.3111548322881208,1.2007769346237183,0.7025870680809021,0.6043587923049927,0.27280664443969727,-0.9358094334602356,-0.2232426106929779,0.6243033409118652,0.1976349949836731,-0.5457088947296143
1.2245285542920605,0.9077377888093803,-1.3279394985934503,1.4381626844406128,0.7031586170196533,0.8439175486564636,0.26747751235961914,-0.9406459331512451,-0.20890460908412933,0.5986570715904236,0.2519862651824951,-0.6037937998771667
1.24136879349502,0.9337678987441517,-1.347808544714308,1.6349400281906128,0.7453417181968689,1.023586392402649,0.2600521445274353,-0.9462276697158813,-0.19242173433303833,0.5444064140319824,0.28866541385650635,-0.623786211013794
1.2602366476570181,0.964001486032976,-1.3717126301026694,1.7686166763305664,0.7595062851905823,1.1534162759780884,0.25103768706321716,-0.9521626830101013,-0.1742599755525589,0.48048391938209534,0.30593764781951904,-0.6010086536407471
1.2802707103261313,0.9987998143890644,-1.4001032693976347,1.8291399478912354,0.7756826281547546,1.2294244766235352,0.24085809290409088,-0.9580934643745422,-0.1550617665052414,0.41642943024635315,0.3277682065963745,-0.5623149871826172
1.3005896621845412,1.0378113081394669,-1.4322375763640085,1.7953822612762451,0.8558562994003296,1.2879536151885986,0.22990567982196808,-0.9637157320976257,-0.13562913239002228,0.3690628111362457,0.353348970413208,-0.5094209909439087
1.3207234126460874,1.0801836053499512,-1.4663362672648224,1.6923519372940063,1.0317420959472656,1.352797269821167,0.2182837873697281,-0.968894362449646,-0.1166018396615982,0.3410728871822357,0.3726571798324585,-0.484106183052063
1.3405344518359343,1.1259706883401732,-1.5015713678470775,1.5791391134262085,1.2783523797988892,1.4191166162490845,0.2060222327709198,-0.9736066460609436,-0.09820856899023056,0.3156757354736328,0.4067121744155884,-0.48968207836151123
1.360176797238883,1.1761205528410865,-1.5385725174526275,1.4907785654067993,1.5121310949325562,1.5042577981948853,0.19299320876598358,-0.9779015779495239,-0.08038771152496338,0.31094351410865784,0.4345971345901489,-0.4960588812828064
1.3799115332025875,1.231299429145858,-1.5785504485643123,1.4068669080734253,1.6670464277267456,1.5947723388671875,0.17889809608459473,-0.98183673620224,-0.06318160891532898,0.3136860728263855,0.45095306634902954,-0.4875081777572632
1.399799192950324,1.2932724099763355,-1.6243032408097196,1.3695787191390991,1.7021898031234741,1.6873080730438232,0.16365434229373932,-0.9854155778884888,-0.04662109538912773,0.3030815124511719,0.48291313648223877,-0.47176581621170044
1.420200655400192,1.3673502892110576,-1.6824703978161568,1.4098657369613647,1.604622721672058,1.8255051374435425,0.14693358540534973,-0.9886819124221802,-0.03031242825090885,0.3129815459251404,0.4988746643066406,-0.4762030839920044
1.4413534869240918,1.4642946039709321,-1.7648998203765918,1.5087891817092896,1.4524586200714111,1.9809554815292358,0.1283511370420456,-0.991633951663971,-0.013721535913646221,0.3230496048927307,0.532954752445221,-0.4977684020996094
1.462679015282766,1.60411343922137,-1.8914417920874433,1.6311366558074951,1.3807399272918701,2.153871774673462,0.10784734785556793,-0.9941610097885132,0.0035944923292845488,0.3004472851753235,0.5783437490463257,-0.5166409015655518
1.4825722496299119,1.818953511607286,-2.093434134109816,1.718967080116272,1.3836368322372437,2.2999985218048096,0.0854097455739975,-0.9961107969284058,0.021641111001372337,0.23047766089439392,0.5800952315330505,-0.5256848335266113
1.4970398593587502,2.151185575447447,-2.4123218802295914,1.8310099840164185,1.487001895904541,2.354006767272949,0.061623163521289825,-0.9972812533378601,0.04040784388780594,0.11801856756210327,0.5936251878738403,-0.5227687358856201
1.4999150346927106,2.585451935907062,-2.8322854329992158,1.9612098932266235,1.5653754472732544,2.3266332149505615,0.03738808259367943,-0.9974889755249023,0.06014946848154068,0.031215399503707886,0.5810766220092773,-0.49842774868011475
1.4891474343332143,2.9785497481211096,3.0725166313332295,2.0090324878692627,1.574529767036438,2.28068208694458,0.013238770887255669,-0.9966685771942139,0.08047730475664139,-0.01926600933074951,0.5528819561004639,-0.43660223484039307
1.469780618177084,-3.0352888457787857,2.8180116268566704,1.9417064189910889,1.585466742515564,2.2190921306610107,-0.010700026527047157,-0.9949022531509399,0.10027571767568588,-0.03034612536430359,0.5473771095275879,-0.34228014945983887
1.4467881003058913,-2.8592129208965957,2.6570536258354305,1.8395307064056396,1.6494947671890259,2.201212167739868,-0.034465450793504715,-0.9923208355903625,0.11879205703735352,-0.040134817361831665,0.5477254986763,-0.2669854164123535
1.422622511310902,-2.733822262554381,2.5473713981801573,1.6823842525482178,1.648445963859558,2.217897415161133,-0.058545731008052826,-0.989042341709137,0.1355278640985489,-0.030260443687438965,0.5431194305419922,-0.23080384731292725
1.3980517757194924,-2.64060227819758,2.468149374613194,1.632236123085022,1.3180181980133057,2.1759064197540283,-0.08255639672279358,-0.985116720199585,0.1507633924484253,-0.005929350852966309,0.5287721157073975,-0.19409847259521484
1.373004103244259,-2.5740272242771667,2.412615565807887,1.634152889251709,1.0665713548660278,2.152841329574585,-0.10563724488019943,-0.9805027842521667,0.16569530963897705,0.0038610994815826416,0.4809300899505615,-0.2209932804107666
1.3468291095043157,-2.5225319485980577,2.3696047564995864,1.6915512084960938,0.815513551235199,2.248563051223755,-0.12887760996818542,-0.9750239849090576,0.18088290095329285,-0.02587701380252838,0.5572689175605774,-0.24263526499271393
1.3191947277576426,-2.482758727385195,2.3361210966015027,1.8021472692489624,0.6458461284637451,2.2990827560424805,-0.15240907669067383,-0.9685149192810059,0.19685038924217224,-0.06394530832767487,0.6049896478652954,-0.29908445477485657
1.2899492833937756,-2.452850037860878,2.3116698196424728,1.9539817571640015,0.6294088363647461,2.339496374130249,-0.1761600524187088,-0.9608210325241089,0.21398788690567017,-0.09173853695392609,0.5927636623382568,-0.3418566882610321
1.259402101060571,-2.430042745002018,2.2949070688766344,2.064457893371582,0.738070547580719,2.3159849643707275,-0.2000727653503418,-0.9519073367118835,0.23204180598258972,-0.1281285583972931,0.6025115251541138,-0.3334212303161621
1.2288136405484984,-2.4114155358314804,2.2842484680848707,2.051874876022339,0.9776373505592346,2.217184543609619,-0.22368274629116058,-0.9420915842056274,0.2498588114976883,-0.18833504617214203,0.6016985774040222,-0.2654380798339844
1.199481242705169,-2.3930372873818735,2.2766632376636147,1.9016363620758057,1.268789529800415,2.1148579120635986,-0.2469424605369568,-0.9318509697914124,0.2658434808254242,-0.22238734364509583,0.595837414264679,-0.1488392949104309
1.1721715128988068,-2.372192643925348,2.2691945675728777,1.6585773229599,1.4885765314102173,2.0379297733306885,-0.27003830671310425,-0.9215956330299377,0.2788197696208954,-0.21784618496894836,0.5741379261016846,-0.03394681215286255
1.1471086349749773,-2.348837663810632,2.260396780756389,1.3975651264190674,1.5357012748718262,1.9800797700881958,-0.29284030199050903,-0.9115790128707886,0.28856292366981506,-0.18807098269462585,0.5270421504974365,0.05685022473335266
1.124015598629898,-2.3246215360159046,2.2502065967044667,1.1856740713119507,1.440312147140503,1.9340825080871582,-0.3150079846382141,-0.9018427133560181,0.29571911692619324,-0.165537029504776,0.48582708835601807,0.11079025268554688
1.1023742127250582,-2.3011029751618994,2.2395342232211037,1.0489144325256348,1.3445924520492554,1.8827050924301147,-0.3363381326198578,-0.8922817707061768,0.3011806905269623,-0.14695346355438232,0.45983242988586426,0.10467243194580078
1.0817722948827717,-2.278706402567634,2.2292980196862535,0.9525558948516846,1.31727135181427,1.8306355476379395,-0.35689082741737366,-0.8827917575836182,0.3054633140563965,-0.13450321555137634,0.4500066041946411,0.0650964081287384
1.061941667921118,-2.2565667969213927,2.2193607878665818,0.8665101528167725,1.36681067943573,1.8323067426681519,-0.3770418167114258,-0.8733030557632446,0.3085145354270935,-0.1053953468799591,0.46532881259918213,0.03517436981201172
1.0420876088075806,-2.233303412360573,2.208647996489921,0.7891451120376587,1.4129585027694702,1.9467041492462158,-0.39771032333374023,-0.8634591102600098,0.31026574969291687,-0.048883914947509766,0.49126672744750977,0.006903409957885742
1.021192707370143,-2.2086550459887495,2.1965331924970286,0.7509574890136719,1.4229917526245117,2.1256046295166016,-0.4196414351463318,-0.8527316451072693,0.3110469579696655,-0.029638439416885376,0.5101258754730225,-0.0410274863243103
0.9990827246336138,-2.18333913971329,2.183739521466891,0.7497545480728149,1.44835364818573,2.2387380599975586,-0.4427005350589752,-0.8409750461578369,0.3110903203487396,-0.08488735556602478,0.4891531467437744,-0.09592616558074951
0.975410261776619,-2.1600292390455405,2.172389477483616,0.9075628519058228,1.2927496433258057,2.3683366775512695,-0.46625426411628723,-0.8279320597648621,0.31166544556617737,-0.18116089701652527,0.46350640058517456,-0.15434744954109192
0.9495976757645406,-2.140980457212756,2.1639833278802967,1.101790189743042,1.1391555070877075,2.4383580684661865,-0.48993751406669617,-0.8131814002990723,0.31416183710098267,-0.2627328634262085,0.45273810625076294,-0.17928937077522278
0.9231123568431078,-2.1258612540005473,2.1587299934849953,1.1687380075454712,1.0277286767959595,2.3425753116607666,-0.5127593874931335,-0.7974832653999329,0.3179599642753601,-0.40928345918655396,0.3544747233390808,-0.1401035487651825
0.8978213633323701,-2.1133441672817934,2.1554274951559353,1.1010372638702393,0.9557759165763855,2.164328098297119,-0.5338042974472046,-0.7819707989692688,0.3218296766281128,-0.5331206321716309,0.2921789884567261,-0.04056459665298462
0.8748978684191899,-2.1014193438483524,2.15246208854069,0.8977270722389221,0.9781211018562317,1.950055480003357,-0.5529223680496216,-0.7674780488014221,0.32442954182624817,-0.6224622130393982,0.25595754384994507,0.050402551889419556
0.8552040316814871,-2.088090552487202,2.1482370115087366,0.5903162360191345,1.0357497930526733,1.7250727415084839,-0.5702254772186279,-0.7547047734260559,0.3244438171386719,-0.6879075169563293,0.20898932218551636,0.11563494801521301
0.8387808789098731,-2.073264368515916,2.1425041220032575,0.3724234700202942,1.0673564672470093,1.5027068853378296,-0.5857572555541992,-0.7438288331031799,0.3218803107738495,-0.7630739212036133,0.1858912706375122,0.11786267161369324
0.8247961957562507,-2.05825444871871,2.1373449469580135,0.3762195408344269,1.1743391752243042,1.2844139337539673,-0.5996549725532532,-0.7344094514846802,0.3178935945034027,-0.853622555732727,0.18663424253463745,0.043998926877975464
0.8121846865127552,-2.044166832445238,2.1353747817920476,0.5672634243965149,1.353298544883728,1.0684934854507446,-0.6122692823410034,-0.7257918119430542,0.31361252069473267,-0.9592487215995789,0.19698315858840942,-0.014555543661117554
0.800847256997365,-2.031621852584034,2.1382815376792217,0.8156418204307556,1.567509412765503,0.7560743093490601,-0.6234856843948364,-0.7179461121559143,0.30954650044441223,-1.069644808769226,0.22227954864501953,0.025612711906433105
0.7916992284854264,-2.0210554508631513,2.1467402808258718,1.0461281538009644,1.7270749807357788,0.37044796347618103,-0.6326084733009338,-0.7115482687950134,0.30578693747520447,-1.204000473022461,0.23011821508407593,0.15791237354278564
0.7851325386284753,-2.013158212601582,2.160113290890116,1.2001280784606934,1.7061980962753296,0.007499335333704948,-0.6392126679420471,-0.7069189548492432,0.3027752935886383,-1.2310876846313477,0.17153382301330566,0.36107349395751953
0.7812073584566561,-2.0091317967435525,2.176612059814239,1.2229351997375488,1.3828657865524292,-0.27928829193115234,-0.6429340243339539,-0.7041372060775757,0.3013744652271271,-1.1813304424285889,0.08907067775726318,0.5975970029830933
0.7797405196832672,-2.009755573624545,2.1935343021061673,1.050177812576294,0.8464028835296631,-0.460723340511322,-0.643680214881897,-0.7030948996543884,0.302214115858078,-1.0900691747665405,0.0635991096496582,0.8669753074645996
0.7806326585069621,-2.0145553175377278,2.2079311854002586,0.7019346952438354,0.2060568481683731,-0.5614324808120728,-0.6416555047035217,-0.7037290334701538,0.3050307035446167,-0.9976114630699158,0.10019814968109131,1.0824661254882812
0.7837994506084887,-2.0228584623611043,2.2178589384111937,0.2913500964641571,-0.4653436541557312,-0.6114735007286072,-0.6370928287506104,-0.7059754133224487,0.3093728721141815,-0.9584119319915771,0.12785041332244873,1.1706838607788086
0.7890554913827901,-2.03432865827116,2.223306836457302,-0.054767511785030365,-1.026031494140625,-0.6699170470237732,-0.6301746964454651,-0.7096881866455078,0.31499654054641724,-0.9444713592529297,0.10504335165023804,1.132787823677063
0.7964375964154355,-2.0478937231150813,2.225615265814136,-0.31843456625938416,-1.310874104499817,-0.8037416934967041,-0.6211728453636169,-0.7148696184158325,0.3211010694503784,-0.9996768236160278,0.08016496896743774,0.986760139465332
0.8066816038415474,-2.0612592893143096,2.2260485507994408,-0.5831007957458496,-1.2506253719329834,-1.0460789203643799,-0.6103335618972778,-0.7219951748847961,0.32590773701667786,-1.1113002300262451,0.09212768077850342,0.830265998840332
0.8207657687743959,-2.0716532464767488,2.2250014826102587,-0.8805250525474548,-0.9523617029190063,-1.3556153774261475,-0.5979335308074951,-0.7316680550575256,0.3273181915283203,-1.2058537006378174,0.13730770349502563,0.7210979461669922
0.8389442213750955,-2.077488265128513,2.2224757494205076,-1.1613415479660034,-0.5956047773361206,-1.6467376947402954,-0.5842861533164978,-0.7439380288124084,0.3242926001548767,-1.2152438163757324,0.18366587162017822,0.650454044342041
0.8605160533994788,-2.079699380341101,2.21866620391823,-1.351596713066101,-0.4568668305873871,-1.8541548252105713,-0.5694186091423035,-0.7581791281700134,0.3176897168159485,-1.1225674152374268,0.2050328254699707,0.6003400087356567
0.8840600061744228,-2.0816953441110444,2.214289671418492,-1.4131056070327759,-0.6473584175109863,-1.9599459171295166,-0.5530562400817871,-0.7733193635940552,0.3100099265575409,-1.0010666847229004,0.22267532348632812,0.5420713424682617
0.9082157225623971,-2.087409077040941,2.2105142771235333,-1.3507287502288818,-1.0957807302474976,-1.9997018575668335,-0.5348742008209229,-0.7884073853492737,0.3038475215435028,-0.9012219309806824,0.24405008554458618,0.4651343822479248
0.9322268212262408,-2.0994580194785195,2.2086823368365565,-1.2249704599380493,-1.593092918395996,-2.0394129753112793,-0.5146767497062683,-0.8029492497444153,0.3006333112716675,-0.858446478843689,0.251328706741333,0.36437511444091797
0.9560487901282013,-2.1184475716609565,2.2097760391335433,-1.1023976802825928,-1.998747706413269,-2.1109392642974854,-0.49240195751190186,-0.8169190883636475,0.30030521750450134,-0.8621054291725159,0.250726580619812,0.25963112711906433
0.9800536387983475,-2.143537346357554,2.214202799046834,-1.0296603441238403,-2.245425224304199,-2.215688705444336,-0.46809467673301697,-0.8305272459983826,0.30184733867645264,-0.8870384097099304,0.25311946868896484,0.1703205108642578
1.0049623522074906,-2.1721415586925605,2.2213433509692937,-1.0921649932861328,-2.2356696128845215,-2.3514351844787598,-0.4420711398124695,-0.8441417813301086,0.30331096053123474,-0.9032657146453857,0.2607526183128357,0.11989149451255798
1.031593426308858,-2.2008174031770333,2.22958502504378,-1.2823292016983032,-2.0718226432800293,-2.480804443359375,-0.4148772060871124,-0.8581182360649109,0.3025064766407013,-0.884896993637085,0.26748090982437134,0.11112883687019348
1.0604196382059057,-2.2278524698805326,2.237897687160901,-1.5024679899215698,-1.8903146982192993,-2.6145691871643066,-0.38679584860801697,-0.8725605607032776,0.2983737885951996,-0.8690177202224731,0.2834339737892151,0.09161019325256348
1.0914423101483581,-2.2540684780396374,2.2466158110684984,-1.6820038557052612,-1.8259999752044678,-2.74176025390625,-0.3576704263687134,-0.8872930407524109,0.29117506742477417,-0.8433793783187866,0.3004552721977234,0.042916059494018555
1.1240879000246877,-2.281882741411117,2.2569230249215537,-1.7795437574386597,-1.8894582986831665,-2.8383944034576416,-0.3273056745529175,-0.9018739461898804,0.2819474935531616,-0.8131972551345825,0.31721818447113037,-0.03611326217651367
1.1576423450251834,-2.314365663900437,2.2712022542782093,-1.7701830863952637,-1.9999383687973022,-2.9477829933166504,-0.295526921749115,-0.915859043598175,0.27178314328193665,-0.79410320520401,0.3344686031341553,-0.1491178274154663
1.1914727746653904,-2.3549125095485315,2.2928208786574427,-1.6849230527877808,-2.108473300933838,-3.073241949081421,-0.2621719539165497,-0.9289153218269348,0.26150062680244446,-0.7820327877998352,0.3387356996536255,-0.2695876955986023
1.2249650291072505,-2.40709544313156,2.3255036794588397,-1.5560219287872314,-2.1974401473999023,-3.2032227516174316,-0.22718849778175354,-0.9407939910888672,0.25157931447029114,-0.7684780359268188,0.3543682098388672,-0.3629380464553833
1.2573405725594746,-2.4742669542107,2.372942556081923,-1.402142882347107,-2.2361936569213867,-3.288693904876709,-0.19083252549171448,-0.9512736797332764,0.24220076203346252,-0.7388549447059631,0.38146477937698364,-0.4323253631591797
1.287601555110696,-2.5587142020657954,2.437893844973349,-1.2687721252441406,-2.214529037475586,-3.31819224357605,-0.15380331873893738,-0.960167646408081,0.23328620195388794,-0.673955500125885,0.40473252534866333,-0.4677222967147827
1.315095135960703,-2.6621980907440497,2.522486878290723,-1.1887997388839722,-2.154841899871826,-3.330512523651123,-0.11665893346071243,-0.9674862027168274,0.2244124859571457,-0.6267187595367432,0.42842382192611694,-0.46562355756759644
1.3394277605448148,-2.7880665464336083,2.6303110667312035,-1.1517103910446167,-2.072779417037964,-3.372514486312866,-0.07938884943723679,-0.9733535051345825,0.21512867510318756,-0.6093623638153076,0.4323226809501648,-0.44651293754577637
1.3599537230880545,-2.941034424167815,2.7661771345891584,-1.1588199138641357,-1.9899091720581055,-3.4580953121185303,-0.04169267416000366,-0.9778549075126648,0.20508836209774017,-0.6124973893165588,0.41820842027664185,-0.42847707867622375
1.3755611572258668,-3.1248879503822327,2.9341334811977577,-1.1903562545776367,-1.8529472351074219,-3.5887887477874756,-0.003240514313802123,-0.9810020923614502,0.19397009909152985,-0.6365758180618286,0.4243614673614502,-0.4210820198059082
1.3844750089857711,2.9446809051606087,3.1335371471809363,-1.252647876739502,-1.7015914916992188,-3.7455427646636963,0.036241546273231506,-0.9826923608779907,0.18166473507881165,-0.6430683732032776,0.4362446665763855,-0.4188627004623413
1.3850860896127666,2.7134733931867503,-2.9312966198848365,-1.3305414915084839,-1.615525722503662,-3.859809398651123,0.07665731012821198,-0.9828053712844849,0.16798044741153717,-0.6090059876441956,0.4531421661376953,-0.4017757177352905
1.3763630012082315,2.4861318776808896,-2.71603188865905,-1.3483651876449585,-1.558573842048645,-3.968219518661499,0.11776717752218246,-0.9811573028564453,0.15317174792289734,-0.5764463543891907,0.47625911235809326,-0.4210398197174072
1.3582904224186803,2.2838851643477285,-2.5253788902870076,-1.303792119026184,-1.5381044149398804,-4.064072132110596,0.15952053666114807,-0.9775054454803467,0.13797152042388916,-0.5248159766197205,0.48492127656936646,-0.4516770839691162
1.3326589255964207,2.1179331197338063,-2.371216058808772,-1.2359973192214966,-1.588934302330017,-4.085094928741455,0.20145632326602936,-0.9717790484428406,0.12272167950868607,-0.44689399003982544,0.4951708912849426,-0.46953868865966797
1.302002669794005,1.9876816929771661,-2.2534242928822974,-1.1486378908157349,-1.6372827291488647,-4.045446872711182,0.24282380938529968,-0.964091956615448,0.1075325682759285,-0.36489415168762207,0.5189473628997803,-0.4858437776565552
1.2684225784296577,1.8872018578424652,-2.166008716918849,-1.0328068733215332,-1.6717368364334106,-3.9521007537841797,0.28300485014915466,-0.9546322822570801,0.0926571786403656,-0.29252636432647705,0.5294919610023499,-0.5022337436676025
1.2335071903753125,1.8095716119718035,-2.1021799983286886,-0.904961347579956,-1.7214125394821167,-3.8400375843048096,0.32154107093811035,-0.943655252456665,0.07826922088861465,-0.23001891374588013,0.5178892612457275,-0.519049882888794
1.1980465391403603,1.748807463227421,-2.0558602010280334,-0.774507999420166,-1.7248799800872803,-3.7440383434295654,0.3584228456020355,-0.9313294291496277,0.06448584794998169,-0.2199646532535553,0.49831557273864746,-0.5342124700546265
1.1624352167816527,1.7006433470237114,-2.0223460443598396,-0.650258481502533,-1.6920888423919678,-3.66202449798584,0.3937629759311676,-0.9177728891372681,0.0514182522892952,-0.21001660823822021,0.4746880531311035,-0.5263328552246094
1.12693989747889,1.6621806421574894,-1.9985220166789521,-0.5173299908638,-1.6504063606262207,-3.586744785308838,0.4276336133480072,-0.9031023383140564,0.03918815404176712,-0.19344177842140198,0.4404558539390564,-0.5156285762786865
1.0918858333514876,1.6312335458087315,-1.9823686638896145,-0.37941786646842957,-1.6389873027801514,-3.484339952468872,0.4599711000919342,-0.8874974846839905,0.027833271771669388,-0.1585947871208191,0.38479673862457275,-0.5006879568099976
1.0577620418640814,1.6059045335818902,-1.9724001858632805,-0.2355075478553772,-1.661109209060669,-3.3541414737701416,0.4905208945274353,-0.8712592124938965,0.0172283872961998,-0.1134762167930603,0.33819329738616943,-0.48712289333343506
1.0247975805174099,1.58492581051102,-1.9675537082520616,-0.09213093668222427,-1.6841353178024292,-3.2318806648254395,0.5192199349403381,-0.8546090722084045,0.007336798124015331,-0.09554451704025269,0.3080698847770691,-0.4785282611846924
0.9928585026895633,1.5671990042701665,-1.9666325919048229,0.018031258136034012,-1.691175103187561,-3.1442971229553223,0.5462944507598877,-0.8375909924507141,-0.0019652058836072683,-0.1130058765411377,0.2950342297554016,-0.46443498134613037
0.9614490915238626,1.5516019649442299,-1.9680896285957763,0.0643921047449112,-1.6464166641235352,-3.1270246505737305,0.5722266435623169,-0.8200218081474304,-0.010984874330461025,-0.15051966905593872,0.2955009937286377,-0.43188631534576416
0.9300070172173353,1.5377408402869284,-1.970761207066771,0.07757528126239777,-1.5449001789093018,-3.1539762020111084,0.5975016355514526,-0.8016241192817688,-0.01975790411233902,-0.1764354109764099,0.29242318868637085,-0.40048444271087646
0.8982308238215182,1.5254577829774592,-1.9740028962848033,0.06374477595090866,-1.4182769060134888,-3.1923389434814453,0.6223546266555786,-0.7822259664535522,-0.02823600359261036,-0.1672612428665161,0.29792726039886475,-0.3754963278770447
0.8663250200248072,1.5140943569383245,-1.9771798225846353,0.013705572113394737,-1.3529075384140015,-3.1887972354888916,0.6465902924537659,-0.7619540691375732,-0.03670228645205498,-0.11100685596466064,0.30774569511413574,-0.3443402647972107
0.8347268003739899,1.5024679586405447,-1.980225439462591,-0.006279438734054565,-1.4353009462356567,-3.1270527839660645,0.6698132753372192,-0.7411131262779236,-0.0458386093378067,-0.05021500587463379,0.33620595932006836,-0.33149605989456177
0.8039404874126016,1.4895929932008938,-1.983438398183795,-0.01370220072567463,-1.6036635637283325,-3.0306684970855713,0.6915880441665649,-0.7200958728790283,-0.05628301948308945,0.022767364978790283,0.3600037693977356,-0.33621883392333984
0.7739997359208921,1.4752424148137853,-1.9869594137132114,-0.014720141887664795,-1.743331789970398,-2.966444253921509,0.7118582725524902,-0.699001133441925,-0.06822862476110458,0.04935687780380249,0.38592129945755005,-0.3621302843093872
0.7444484454872069,1.460313116496734,-1.9909380819832343,-0.019968433305621147,-1.75700843334198,-2.9597554206848145,0.7309775352478027,-0.6775662899017334,-0.08109096437692642,0.036127567291259766,0.4232633113861084,-0.40401649475097656
0.7148073951740612,1.446262697250548,-1.9953168541375264,-0.0333433598279953,-1.6042511463165283,-2.9885852336883545,0.7493707537651062,-0.6554719805717468,-0.09380730241537094,0.03375595808029175,0.4634553790092468,-0.45157235860824585
0.6848433563457077,1.4345586495226093,-1.9999156373971572,-0.05019637569785118,-1.3017890453338623,-3.0269017219543457,0.7673414349555969,-0.6325516700744629,-0.10519243776798248,0.0652238130569458,0.4957261085510254,-0.484056293964386
0.6546076241047056,1.4262254043565394,-2.0046503052817224,-0.05529995262622833,-0.9499160051345825,-3.042450189590454,0.7850111126899719,-0.6088480353355408,-0.1142871156334877,0.12889868021011353,0.5402750372886658,-0.49057137966156006
0.6246588725838619,1.421010482351345,-2.0098040173496003,0.007184730377048254,-0.7310420274734497,-2.971277952194214,0.802079975605011,-0.584820568561554,-0.12104684859514236,0.2366466522216797,0.5827149152755737,-0.4742138385772705
0.596122100693136,1.4174732094448086,-2.016099389121274,0.16123457252979279,-0.7121477127075195,-2.7985174655914307,0.8178114891052246,-0.5614376664161682,-0.1263812929391861,0.3861069083213806,0.5998897552490234,-0.4697033166885376
0.5699204785427295,1.414227325406008,-2.0242048320165718,0.3635602593421936,-0.8335311412811279,-2.569395065307617,0.8316454291343689,-0.5395650863647461,-0.1312844157218933,0.5189100503921509,0.6000050902366638,-0.45961225032806396
0.5463495491460248,1.4103248933884862,-2.0340000600998307,0.5216792225837708,-0.9713978171348572,-2.3366899490356445,0.8434491753578186,-0.5195716619491577,-0.13652338087558746,0.5890915989875793,0.6094459295272827,-0.41727912425994873
0.5250433362023503,1.4057493176461187,-2.044571580645194,0.5602750778198242,-0.9970200657844543,-2.1546571254730225,0.8535433411598206,-0.5012505054473877,-0.14216803014278412,0.6186704039573669,0.6184684634208679,-0.35040098428726196
0.5051872646642748,1.401174672478498,-2.0542004576624113,0.40070512890815735,-0.8388237953186035,-2.0353376865386963,0.8625253438949585,-0.48397132754325867,-0.14772243797779083,0.633339524269104,0.6053244471549988,-0.26090800762176514
0.4859012596258692,1.3975371151399616,-2.0607031398214977,0.04961182549595833,-0.4812094569206238,-1.9511445760726929,0.8710155487060547,-0.46700549125671387,-0.1524398773908615,0.6380176544189453,0.6302134990692139,-0.18647313117980957
0.466798952365528,1.3959263240400603,-2.0628112231912508,-0.32960742712020874,-0.03385332226753235,-1.8648464679718018,0.8793942332267761,-0.45003002882003784,-0.15536658465862274,0.6752474308013916,0.6824824213981628,-0.16483913362026215
0.44818974970254394,1.3967117038135364,-2.0614098795373748,-0.5331504344940186,0.28638702630996704,-1.7415831089019775,0.8876113891601562,-0.4333347976207733,-0.1560995876789093,0.7648085951805115,0.7116855978965759,-0.22613310813903809
0.43099156512161807,1.3988813416008343,-2.058765205736465,-0.5013495683670044,0.34358689188957214,-1.5535646677017212,0.8951590657234192,-0.4177719056606293,-0.15542547404766083,0.8841836452484131,0.7285323143005371,-0.32893431186676025
0.4161463432235411,1.4011182344090911,-2.0571023869670793,-0.2779761850833893,0.22804832458496094,-1.302812099456787,0.9015184044837952,-0.4042387008666992,-0.15445303916931152,0.9929518103599548,0.7576322555541992,-0.4255640506744385
0.4046516464562408,1.402866047510719,-2.057902253211575,0.042872339487075806,0.05694122239947319,-0.9729023575782776,0.9063084721565247,-0.3936985731124878,-0.1536436378955841,1.092669129371643,0.7812107801437378,-0.4895448684692383
0.397095664118353,1.4040916375711023,-2.0613550832946177,0.3226770758628845,-0.06743957847356796,-0.6171751618385315,0.9094036817550659,-0.38674163818359375,-0.15302200615406036,1.1549272537231445,0.8056106567382812,-0.4923943281173706
0.3932282156310377,1.405355614672034,-2.0666113677883557,0.48598936200141907,-0.06578532606363297,-0.31011784076690674,0.9110649228096008,-0.38317224383354187,-0.15211760997772217,1.1667397022247314,0.8189326524734497,-0.4358951449394226
0.39222001691784075,1.4074031064004187,-2.072301058066033,0.4922989308834076,0.045125480741262436,-0.06801677495241165,0.9117550849914551,-0.38224080204963684,-0.15031465888023376,1.1492189168930054,0.8140187859535217,-0.3515164852142334
0.3932063320118262,1.4103040964017577,-2.076820946990061,0.3471512794494629,0.1914842277765274,0.12540949881076813,0.91181480884552,-0.3831520080566406,-0.14760872721672058,1.1364028453826904,0.7989692687988281,-0.2468462437391281
0.3958276171693468,1.413911415582812,-2.0790539989630155,0.1415294110774994,0.35903459787368774,0.3312622606754303,0.9113462567329407,-0.3855719566345215,-0.1441611647605896,1.1587374210357666,0.765775203704834,-0.17435085773468018
0.4004462142140875,1.418220709891206,-2.078750169371633,-0.04903469607234001,0.5202590823173523,0.5973368287086487,0.910189151763916,-0.3898293077945709,-0.1399604231119156,1.200314998626709,0.7369667291641235,-0.16294187307357788
0.40781287733093236,1.4231995342555375,-2.0763890952548243,-0.1467473953962326,0.650143563747406,0.9268468022346497,0.9080094695091248,-0.3966025114059448,-0.1350010335445404,1.237299919128418,0.7281454801559448,-0.20272177457809448
0.4185509176314789,1.4285732025977853,-2.073007029957435,-0.13885830342769623,0.6785982251167297,1.2809854745864868,0.9044538140296936,-0.40643689036369324,-0.1295086294412613,1.2297167778015137,0.7243079543113708,-0.2706379294395447
0.43287306042535595,1.433579550466677,-2.0699136722676825,-0.0013262690044939518,0.5565271973609924,1.6222498416900635,0.8992318511009216,-0.4194805920124054,-0.1241699829697609,1.180861473083496,0.722550630569458,-0.3428100347518921
0.4507706929583149,1.4373610020841978,-2.068615783170164,0.26566046476364136,0.2953938841819763,1.9390696287155151,0.892110288143158,-0.43565937876701355,-0.11975058913230896,1.1059060096740723,0.7230281233787537,-0.4110417366027832
0.47195515952798317,1.439538507987796,-2.070454793003522,0.6213935017585754,-0.02711915597319603,2.1954030990600586,0.8830195069313049,-0.454628586769104,-0.11657344549894333,1.0147924423217773,0.714790940284729,-0.47433847188949585
0.4958850748073331,1.4402708468842162,-2.07608491129284,0.9756938815116882,-0.3441423177719116,2.3965325355529785,0.8720661997795105,-0.47581028938293457,-0.11447770893573761,0.9162638187408447,0.7019608020782471,-0.5049834251403809
0.5219970171092392,1.4400987216979029,-2.084985062425189,1.2255828380584717,-0.5328861474990845,2.559128761291504,0.8594322204589844,-0.4986121952533722,-0.11296971142292023,0.8241004347801208,0.6848456859588623,-0.49750399589538574
0.5498295248122204,1.4403052543890675,-2.0958363753555047,1.3248144388198853,-0.5081121921539307,2.695020914077759,0.8453646898269653,-0.522541880607605,-0.11094296723604202,0.7467371821403503,0.6685532927513123,-0.47287359833717346
0.5789775343684923,1.4419365559703132,-2.1072474823209904,1.3221675157546997,-0.38282620906829834,2.813626527786255,0.8300828337669373,-0.5471683740615845,-0.10756028443574905,0.688899040222168,0.6483799815177917,-0.44625747203826904
0.6090963808456761,1.44478624985754,-2.1185526075603125,1.2951833009719849,-0.32738032937049866,2.9021987915039062,0.8136624097824097,-0.572126567363739,-0.10307580232620239,0.6281099319458008,0.629743754863739,-0.4409306049346924
0.6400159400419883,1.447777113189205,-2.1300497597767123,1.32317054271698,-0.43665462732315063,2.987823009490967,0.796024739742279,-0.5972082018852234,-0.09842333942651749,0.5621601343154907,0.6154729127883911,-0.459087073802948
0.6719358949202644,1.449932625191596,-2.1426968855008646,1.4448739290237427,-0.6802734136581421,3.085968255996704,0.7769088745117188,-0.6225022077560425,-0.09436000138521194,0.4948044419288635,0.6080368161201477,-0.5115818381309509
0.7050546826742078,1.4516107883148626,-2.1578507706965584,1.6721155643463135,-0.8845210671424866,3.1932928562164307,0.7561734914779663,-0.6480754613876343,-0.0905541256070137,0.4049440622329712,0.6159404516220093,-0.5955878496170044
0.7396430278442326,1.4552303634475432,-2.176801543697968,1.9506897926330566,-0.8627659678459167,3.326315402984619,0.7337817549705505,-0.6740242838859558,-0.08517973870038986,0.3045024871826172,0.644208550453186,-0.6966196298599243
0.775914246968152,1.46367212097308,-2.2001369072585386,2.211576461791992,-0.6353093981742859,3.487788200378418,0.7096892595291138,-0.7003689408302307,-0.07631704956293106,0.21273493766784668,0.6806851029396057,-0.7634046673774719
0.8137672282821935,1.4790355550429999,-2.2284439433748138,2.480968952178955,-0.3259274363517761,3.6195335388183594,0.6838756203651428,-0.7268795371055603,-0.0629296749830246,0.1133502721786499,0.7190060615539551,-0.797849178314209
0.852492005221956,1.5028669332993254,-2.2631222646779774,2.77665376663208,-0.05548185482621193,3.697371244430542,0.6565910577774048,-0.752922773361206,-0.04467055946588516,0.0029242634773254395,0.729851484298706,-0.8102794289588928
0.8911357426176861,1.535651789620156,-2.3056154167526928,3.0605154037475586,0.09025344997644424,3.7025535106658936,0.6281407475471497,-0.7777860760688782,-0.022084807977080345,-0.09173339605331421,0.6923522353172302,-0.7768654227256775
0.9283486745371806,1.5772800416684087,-2.356652367414346,3.284105062484741,0.1665535420179367,3.610365390777588,0.5991442799568176,-0.8006316423416138,0.0038847350515425205,-0.1888660192489624,0.6423522233963013,-0.6992888450622559
0.9626855711363842,1.6275848005526101,-2.4162467821076015,3.4372379779815674,0.22426936030387878,3.442897081375122,0.5703971982002258,-0.8207288384437561,0.032426852732896805,-0.26223069429397583,0.6014598608016968,-0.6014270782470703
0.9932772832284853,1.686058740726122,-2.483412743220825,3.4807791709899902,0.33562755584716797,3.2782645225524902,0.5423245429992676,-0.8378196954727173,0.06278793513774872,-0.28558021783828735,0.5720115900039673,-0.5060710906982422
1.0200430542744598,1.7521758209954932,-2.556349201652067,3.4028518199920654,0.5740952491760254,3.1481387615203857,0.5147445201873779,-0.8521305322647095,0.09440159797668457,-0.2757461667060852,0.568790078163147,-0.42386937141418457
1.0432527809560397,1.8249178411137104,-2.63247417944138,3.1949241161346436,0.9051703810691833,3.052637815475464,0.4872450530529022,-0.8640462756156921,0.12655547261238098,-0.2587294578552246,0.5776388049125671,-0.3447408676147461
1.0633598418489367,1.9026613898090146,-2.710031544737527,2.9823412895202637,1.1259748935699463,2.9996497631073,0.45942386984825134,-0.8739930987358093,0.15832209587097168,-0.23649299144744873,0.5847169756889343,-0.2910735607147217
1.0807468892816912,1.9845607877893092,-2.7906327658269787,2.9424335956573486,1.0455149412155151,3.0377674102783203,0.43095168471336365,-0.88230961561203,0.18923696875572205,-0.21023330092430115,0.5876774787902832,-0.2930273711681366
1.0950257140710409,2.071399753352597,-2.878479327949286,3.1105270385742188,0.7523760795593262,3.0991597175598145,0.40182095766067505,-0.8889400362968445,0.2198307365179062,-0.21450412273406982,0.5719386339187622,-0.3683445453643799
1.1048717136626631,2.1636348500518934,-2.9740253112319115,3.2141990661621094,0.7226722240447998,3.0429153442382812,0.3725883364677429,-0.8934065699577332,0.2510032653808594,-0.3230736553668976,0.5176894068717957,-0.41973498463630676
1.1099080890796829,2.2587242810742363,-3.0695831617922855,2.967280626296997,1.2587131261825562,2.8329477310180664,0.343593031167984,-0.8956578373908997,0.28238487243652344,-0.5123399496078491,0.45716583728790283,-0.34325215220451355
1.1117507913712117,2.3530883955057917,3.1273860107415277,2.4266605377197266,2.177501678466797,2.548590660095215,0.31428536772727966,-0.8964758515357971,0.31233900785446167,-0.6553499102592468,0.4313879609107971,-0.21584251523017883
1.1124869824074628,2.4450594556090506,3.0547953482085983,1.8031675815582275,3.1725902557373047,2.2693917751312256,0.28384801745414734,-0.896801769733429,0.33937716484069824,-0.7084543704986572,0.43461310863494873,-0.15317419171333313
1.1133730843419265,2.534181742812842,2.995187773820385,1.2662367820739746,3.8784823417663574,2.019414186477661,0.25206172466278076,-0.8971934914588928,0.3626411557197571,-0.6618671417236328,0.4513927102088928,-0.14413538575172424
1.1146420901288776,2.6201259952708895,2.9440987212532783,0.9622326493263245,4.047761917114258,1.9438227415084839,0.21943539381027222,-0.8977531790733337,0.38195163011550903,-0.5312336087226868,0.47358953952789307,-0.16338473558425903
1.115647264558491,2.7056680000789988,2.8929668836414515,0.9586259126663208,3.8299002647399902,2.1609785556793213,0.18561908602714539,-0.8981955051422119,0.3984854519367218,-0.3469502925872803,0.48631489276885986,-0.24652308225631714
1.1150233730440229,2.794434345165849,2.83572755442243,1.0710935592651367,3.637063980102539,2.423248767852783,0.14975328743457794,-0.897921085357666,0.41389864683151245,-0.270984411239624,0.4812186360359192,-0.34770601987838745
1.1119316577696912,2.885657807297356,2.774378725953925,1.122028112411499,3.604807138442993,2.539071798324585,0.11212778836488724,-0.8965559601783752,0.4285028278827667,-0.3837648034095764,0.49795061349868774,-0.3465632498264313
1.106294407448292,2.9770675547715726,2.713270128138499,1.1126042604446411,3.738455057144165,2.519381046295166,0.07337143272161484,-0.894044816493988,0.44192782044410706,-0.5278392434120178,0.4924488663673401,-0.3157378137111664
1.0984581377085105,3.0667918410163706,2.6563921394197254,1.0409282445907593,4.042732238769531,2.362399101257324,0.03400036692619324,-0.8905069231987,0.4536973536014557,-0.6139106750488281,0.44681185483932495,-0.28449273109436035
1.0897615844868158,-3.130239795714742,2.606923663740259,0.8170547485351562,4.363980770111084,2.098266363143921,-0.005252816714346409,-0.8865166306495667,0.4626668393611908,-0.6385918259620667,0.39439016580581665,-0.19666054844856262
1.0822094666264548,-3.048201671231744,2.5649687490637874,0.47610220313072205,4.569568634033203,1.8949253559112549,-0.04377202317118645,-0.8829970359802246,0.46733301877975464,-0.6089379787445068,0.3705306053161621,-0.06390595436096191
1.0765672874111538,-2.9676707065985815,2.5258630173926457,0.16495783627033234,4.587247371673584,1.932201623916626,-0.08208510279655457,-0.8803346753120422,0.4671967625617981,-0.4847789406776428,0.377984881401062,0.021236956119537354
1.0714850931201245,-2.885894392538378,2.484657241034575,0.014544109813869,4.485764503479004,2.116640567779541,-0.12110394239425659,-0.8779125809669495,0.4632532298564911,-0.3806661069393158,0.3969860076904297,-0.0007898807525634766
1.0648718421457453,-2.8032206321028497,2.440721122878493,0.030509646981954575,4.310503005981445,2.2991514205932617,-0.16086922585964203,-0.8747268319129944,0.4571366310119629,-0.4076884984970093,0.40075838565826416,-0.07470577955245972
1.0551936425877804,-2.722547619743539,2.39676443214291,0.18835653364658356,4.132589817047119,2.3813326358795166,-0.2006201446056366,-0.8699957132339478,0.4503989815711975,-0.5098139047622681,0.3882756233215332,-0.1508689522743225
1.0422332386394921,-2.6469294356306476,2.3566859264784616,0.36558324098587036,4.025782108306885,2.318882703781128,-0.23940560221672058,-0.8635326027870178,0.4438425898551941,-0.644841194152832,0.3732830286026001,-0.19459038972854614
1.0274396309342697,-2.5776900502095415,2.3230112136371406,0.43236199021339417,4.012607574462891,2.1147749423980713,-0.2763371467590332,-0.8559780716896057,0.4369661211967468,-0.7602229118347168,0.37013816833496094,-0.1593019962310791
1.012952725938719,-2.51421134181555,2.2959329870567,0.3637719750404358,4.0400896072387695,1.8456312417984009,-0.31074732542037964,-0.8483985662460327,0.42855104804039,-0.8309916257858276,0.3147376775741577,-0.06372880935668945
0.9998381686395713,-2.4549078901436,2.2735383593647933,0.250557541847229,4.00007438659668,1.6584908962249756,-0.34262552857398987,-0.8413835167884827,0.41794925928115845,-0.8569594621658325,0.23997360467910767,0.029896140098571777
0.9875825871596153,-2.398915268838262,2.2538235921037715,0.2023133486509323,3.860795021057129,1.5691391229629517,-0.3724241256713867,-0.8346971273422241,0.4056858420372009,-0.8486909866333008,0.19970262050628662,0.0577845573425293
0.9753731289429249,-2.3467020885367185,2.236438660834727,0.21283869445323944,3.662421226501465,1.5077154636383057,-0.400333970785141,-0.8279111981391907,0.39280495047569275,-0.8582719564437866,0.14671307802200317,0.06865131855010986
0.9630510352953628,-2.2988700000485145,2.22164774834763,0.2503693699836731,3.442288637161255,1.4243115186691284,-0.4262406527996063,-0.8209375739097595,0.3799740970134735,-0.9175550937652588,0.1063227653503418,0.09716817736625671
0.950882403452247,-2.255608467225731,2.2097759532636827,0.2884243428707123,3.2534196376800537,1.3002721071243286,-0.4499794840812683,-0.813928484916687,0.3674764037132263,-0.996416449546814,0.08672511577606201,0.1281900405883789
0.9395527747248987,-2.2164778682476642,2.2010516905850035,0.30015572905540466,3.1474297046661377,1.0944914817810059,-0.4713461101055145,-0.8072942495346069,0.3551180362701416,-1.0993478298187256,0.053326964378356934,0.16647303104400635
0.9300389918620485,-2.1807330782448346,2.1953740352092845,0.26695942878723145,3.0688211917877197,0.8307123184204102,-0.4900095760822296,-0.8016432523727417,0.34243080019950867,-1.1961476802825928,-0.0096818208694458,0.21935200691223145
0.9228684296232947,-2.148173711069623,2.1922215826145743,0.22198958694934845,2.897274971008301,0.5733524560928345,-0.5057005882263184,-0.7973361015319824,0.32942676544189453,-1.2364106178283691,-0.0798000693321228,0.2762403190135956
0.9177782865287646,-2.119893727398999,2.191098586849648,0.21666033565998077,2.5448548793792725,0.35872188210487366,-0.518268346786499,-0.7942537069320679,0.31710973381996155,-1.242946743965149,-0.11123323440551758,0.3159162402153015
0.9142753871075334,-2.097497886306529,2.1924982261273196,0.30295369029045105,2.1439831256866455,0.16298522055149078,-0.5276415944099426,-0.7921205163002014,0.306820809841156,-1.266913890838623,-0.11020779609680176,0.31589022278785706
0.9117290216666004,-2.081606820821454,2.1970115693712398,0.43011537194252014,1.7301236391067505,0.02034071832895279,-0.5342084765434265,-0.7905637621879578,0.29938286542892456,-1.2725999355316162,-0.10779738426208496,0.3014471232891083
0.9094989029961642,-2.0718982108081043,2.204057547028695,0.5376607179641724,1.3282625675201416,-0.04166608676314354,-0.5386347770690918,-0.7891960740089417,0.2950286269187927,-1.2487950325012207,-0.09323477745056152,0.3092956244945526
0.9075070961710255,-2.0669258062517537,2.212920488505529,0.6018865704536438,1.0810840129852295,-0.14094233512878418,-0.5414767265319824,-0.7879712581634521,0.2930945158004761,-1.2615933418273926,-0.0831836462020874,0.32352831959724426
0.9067455618508976,-2.0649622580574643,2.223340722176659,0.5858935713768005,0.9505146145820618,-0.34709468483924866,-0.5425792336463928,-0.7875021696090698,0.2923152446746826,-1.3384175300598145,-0.08870333433151245,0.3740055561065674
0.9084978914683448,-2.0654878206308895,2.2351002742724084,0.5124800801277161,0.7830867171287537,-0.6560857892036438,-0.5412103533744812,-0.7885809540748596,0.29194486141204834,-1.417392611503601,-0.07386124134063721,0.4563460648059845
0.9135755175989952,-2.06922240588265,2.248205302414964,0.4088716208934784,0.5239608883857727,-0.9949198961257935,-0.5365921258926392,-0.7916931509971619,0.2920459508895874,-1.4351333379745483,-0.06380611658096313,0.521766185760498
0.9220663983631824,-2.0769837462292036,2.2621202838265337,0.2493852972984314,0.11063988506793976,-1.2931969165802002,-0.5284112095832825,-0.7968518137931824,0.29293206334114075,-1.3649756908416748,-0.03315019607543945,0.5913451910018921
0.9334588677181261,-2.089683231526203,2.2761340437508344,0.10753539949655533,-0.4141925275325775,-1.4948049783706665,-0.516731321811676,-0.8036829829216003,0.29509738087654114,-1.2452774047851562,0.029528319835662842,0.6310042142868042
0.9464546041950027,-2.1079548224820437,2.290336406728035,0.043777454644441605,-0.9333243370056152,-1.5710744857788086,-0.5022371411323547,-0.8113480806350708,0.2991192042827606,-1.092581033706665,0.0632096529006958,0.5682055950164795
0.9599436060888028,-2.1310658260055235,2.3049239794664116,-0.016965799033641815,-1.268479585647583,-1.6002225875854492,-0.48587486147880554,-0.819159209728241,0.30480146408081055,-0.9839737415313721,0.07456076145172119,0.47330522537231445
0.9741169718977442,-2.1560094414230337,2.3193085518207597,-0.1573900282382965,-1.3100546598434448,-1.6619738340377808,-0.46839573979377747,-0.827206015586853,0.3103800415992737,-0.9688296318054199,0.10703694820404053,0.41189467906951904
0.9898542385581701,-2.179715404111635,2.332807067556751,-0.37497541308403015,-1.1689528226852417,-1.7776280641555786,-0.4501721262931824,-0.8359459638595581,0.31391003727912903,-1.0091021060943604,0.1546715497970581,0.39438772201538086
1.007791055410538,-2.2013428030185147,2.3453073785396326,-0.6033060550689697,-1.0690022706985474,-1.9161139726638794,-0.43109655380249023,-0.8456549048423767,0.3146798014640808,-1.0240883827209473,0.17637401819229126,0.390611857175827
1.0279280772900532,-2.2226415831430626,2.357444341242721,-0.7697667479515076,-1.1428649425506592,-2.0589420795440674,-0.4106746017932892,-0.8562304973602295,0.31339403986930847,-1.0210728645324707,0.17925894260406494,0.37077954411506653
1.0497998741109067,-2.2464590829140603,2.3705520054240843,-0.8627638220787048,-1.3667939901351929,-2.1966254711151123,-0.3883867859840393,-0.867323637008667,0.3112969994544983,-1.003230094909668,0.18629318475723267,0.3216986060142517
1.0729498464257186,-2.2754179345711507,2.3862001284494685,-0.898316502571106,-1.6924368143081665,-2.329770565032959,-0.36381298303604126,-0.8786129951477051,0.30932095646858215,-0.9893059730529785,0.2002071738243103,0.2651113271713257
1.0969794721478345,-2.311280726323621,2.405531355434838,-0.9186239242553711,-2.0423424243927,-2.4557082653045654,-0.3368036150932312,-0.8898332118988037,0.30783113837242126,-0.9742162227630615,0.2133806347846985,0.2094263732433319
1.121862222989997,-2.3543838095037675,2.4294286324568484,-0.9776731133460999,-2.2628355026245117,-2.6043708324432373,-0.30744338035583496,-0.9009101986885071,0.3063320219516754,-0.968069314956665,0.20634543895721436,0.14914274215698242
1.148085253459304,-2.4040020079015245,2.4587227415170543,-1.1130766868591309,-2.314723491668701,-2.7909724712371826,-0.2758851647377014,-0.9119800925254822,0.30361053347587585,-0.9773496389389038,0.1978689432144165,0.10486716032028198
1.1761854999238832,-2.4591921575834226,2.4938842216618773,-1.329688310623169,-2.2439589500427246,-2.967398166656494,-0.2424556463956833,-0.9231462478637695,0.2983557879924774,-0.9798038601875305,0.2038927674293518,0.08300706744194031
1.2063379774360268,-2.5200143491987457,2.535619546540032,-1.577616572380066,-2.1543493270874023,-3.128669500350952,-0.20756392180919647,-0.9343169927597046,0.2897745966911316,-0.9680647850036621,0.23581528663635254,0.05908706784248352
1.2382108957025222,-2.589616289283849,2.58690654766022,-1.7731420993804932,-2.119551658630371,-3.2971439361572266,-0.17120110988616943,-0.9452013969421387,0.278001606464386,-0.9601008296012878,0.2760270833969116,0.013776928186416626
1.2707795325025364,-2.6736791624903007,2.6527238570386733,-1.8885142803192139,-2.1773226261138916,-3.4226367473602295,-0.13329407572746277,-0.9553315043449402,0.26376911997795105,-0.9337682723999023,0.30527669191360474,-0.055776625871658325
1.3024346411518077,-2.7782469723340246,2.738307995895084,-1.9431902170181274,-2.28695011138916,-3.4999260902404785,-0.09423574805259705,-0.9642065763473511,0.2478405237197876,-0.9012476205825806,0.3529854416847229,-0.14394359290599823
1.3316701128846762,-2.91044982682294,2.8507665730389813,-1.9710279703140259,-2.351624011993408,-3.5859720706939697,-0.05426079034805298,-0.9715452790260315,0.23055443167686462,-0.8780969977378845,0.40744322538375854,-0.2309817224740982
1.3566415727077674,-3.077679979266292,2.998280271299743,-1.9654771089553833,-2.3138816356658936,-3.6744940280914307,-0.013573603704571724,-0.977156400680542,0.21208809316158295,-0.8397436738014221,0.44419729709625244,-0.30783697962760925
1.3747708750625578,3.0000441855110727,-3.098432857811247,-1.9198896884918213,-2.245795726776123,-3.7362875938415527,0.027477845549583435,-0.9808484315872192,0.19282500445842743,-0.7557493448257446,0.4589519500732422,-0.382278174161911
1.3834405948169965,2.765259018995235,-2.8820729087211467,-1.8361597061157227,-2.215787887573242,-3.74794864654541,0.06845391541719437,-0.9825001955032349,0.17322753369808197,-0.6603423357009888,0.4671192169189453,-0.43256592750549316
1.3811166102899106,2.5246130482098423,-2.6597142128111098,-1.701845645904541,-2.209562301635742,-3.7654638290405273,0.10908716171979904,-0.9820646643638611,0.15378272533416748,-0.5855581164360046,0.47608309984207153,-0.47806262969970703
1.3679493287008566,2.3054299685816706,-2.4589981654776794,-1.518812894821167,-2.233612060546875,-3.792203187942505,0.14949768781661987,-0.9794970154762268,0.13504080474376678,-0.5450512766838074,0.4919481873512268,-0.5140844583511353
1.3459489664729647,2.1244313321037334,-2.2968464321312494,-1.3430285453796387,-2.2533395290374756,-3.81927490234375,0.18965202569961548,-0.9748281240463257,0.11722730100154877,-0.49780333042144775,0.5150502920150757,-0.5239503383636475
1.3177813514267247,1.9819654727442895,-2.1734886759851206,-1.2168967723846436,-2.2466208934783936,-3.84189510345459,0.229460209608078,-0.9681621193885803,0.10004968196153641,-0.4454789161682129,0.5384899973869324,-0.5088937282562256
1.2857660041308183,1.8706900774420152,-2.081323206466913,-1.14656400680542,-2.2145042419433594,-3.8299882411956787,0.26863592863082886,-0.9596531391143799,0.08306755870580673,-0.382191926240921,0.5631689429283142,-0.476973295211792
1.25164330212168,1.7825755028180443,-2.0119868854775325,-1.1111624240875244,-2.1503467559814453,-3.785912036895752,0.3067527413368225,-0.9495015144348145,0.06595280766487122,-0.3078208267688751,0.5826038122177124,-0.44629335403442383
1.2165102841582607,1.711584649899272,-1.9594818339968914,-1.0587780475616455,-2.1284050941467285,-3.7097227573394775,0.3434881269931793,-0.9378944039344788,0.04868118464946747,-0.2404761016368866,0.5878883600234985,-0.43085289001464844
1.1812002819412628,1.6535125220366316,-1.920410521048556,-0.9630860090255737,-2.2016348838806152,-3.5938615798950195,0.3785161077976227,-0.9250625371932983,0.03138101473450661,-0.17240041494369507,0.5770858526229858,-0.43959951400756836
1.1464167005840424,1.6050907778481949,-1.892620704587818,-0.8109316229820251,-2.3724658489227295,-3.4615578651428223,0.4115135967731476,-0.9112943410873413,0.014118168503046036,-0.1120598316192627,0.5541622638702393,-0.4613685607910156
1.112297467917344,1.5644968201667897,-1.87524192510501,-0.5634198188781738,-2.5907742977142334,-3.3642518520355225,0.44259390234947205,-0.89671790599823,-0.002788160229101777,-0.09641775488853455,0.5305526256561279,-0.5120739340782166
1.0788922269385517,1.5308480594960767,-1.8680110851194307,-0.24919721484184265,-2.8323278427124023,-3.279020071029663,0.4719284474849701,-0.8814351558685303,-0.018862759694457054,-0.0864456295967102,0.5045124292373657,-0.5802125930786133
1.046382854672451,1.5027542550482145,-1.8693434010573577,0.015440522693097591,-2.980943441390991,-3.2052440643310547,0.49954691529273987,-0.8656177520751953,-0.034042760729789734,-0.09329688549041748,0.5010241270065308,-0.6226497888565063
1.0144834795959272,1.4786801901138267,-1.8758637846903752,0.12244074046611786,-2.9014596939086914,-3.1960835456848145,0.5258199572563171,-0.8492079377174377,-0.048573970794677734,-0.12558197975158691,0.509974479675293,-0.6070809960365295
0.9825750487468529,1.4576319084604963,-1.8837531626116992,0.04592461884021759,-2.5953145027160645,-3.225139617919922,0.5513330101966858,-0.8319289684295654,-0.06265898048877716,-0.15638983249664307,0.5165908336639404,-0.5404447317123413
0.9501207805864205,1.4387001239028459,-1.8897191356203593,-0.18322227895259857,-2.147559642791748,-3.2875936031341553,0.5765182375907898,-0.8134857416152954,-0.07660194486379623,-0.1655990481376648,0.5223479270935059,-0.45907318592071533
0.91651808101303,1.4216818026601745,-1.892279745574391,-0.45397520065307617,-1.6603186130523682,-3.3951497077941895,0.6018334627151489,-0.7934873700141907,-0.09041322022676468,-0.16871267557144165,0.5349881649017334,-0.4015302062034607
0.8815374063678705,1.4066533714191456,-1.891826869375452,-0.682920515537262,-1.2894026041030884,-3.4964404106140137,0.6274173855781555,-0.7717175483703613,-0.10392113775014877,-0.1459721326828003,0.5535931587219238,-0.3677128553390503
0.845319309507861,1.392989280265239,-1.8895261237334804,-0.8284634351730347,-1.107964038848877,-3.5712528228759766,0.6530317664146423,-0.748183012008667,-0.11735298484563828,-0.09089803695678711,0.561598539352417,-0.3673272132873535
0.8081516415236453,1.380380058648516,-1.886788433166059,-0.8755254745483398,-1.0108803510665894,-3.649364709854126,0.678349494934082,-0.7230114936828613,-0.13075290620326996,-0.04111200571060181,0.5715222954750061,-0.3946835994720459
0.770276507383625,1.3694327902391807,-1.8851840315411756,-0.7986368536949158,-0.9436190128326416,-3.710456609725952,0.7032164931297302,-0.6963337063789368,-0.14354757964611053,-0.0037689208984375,0.5935505628585815,-0.4455028176307678
0.7322707400942675,1.3606777124721585,-1.886000885544294,-0.6233758330345154,-0.9118834733963013,-3.730076551437378,0.7273023128509521,-0.6685600280761719,-0.15510918200016022,0.05295586585998535,0.6124839782714844,-0.5031092166900635
0.6945968035649543,1.3541209048496599,-1.8898611123679117,-0.39750418066978455,-0.8986821174621582,-3.7288260459899902,0.7503467798233032,-0.64007568359375,-0.1651747077703476,0.1031230092048645,0.6323090195655823,-0.5413835048675537
0.6575574802967112,1.3494600835317445,-1.8965796863622788,-0.1915544718503952,-0.8633869886398315,-3.700730323791504,0.772179126739502,-0.6111854314804077,-0.17375798523426056,0.15965986251831055,0.6473029851913452,-0.5356384515762329
0.6212897122334246,1.346534646426617,-1.9054171652408023,-0.03688045218586922,-0.7573294639587402,-3.664743423461914,0.7927666306495667,-0.5820843577384949,-0.18082888424396515,0.21719741821289062,0.6607432961463928,-0.5079681873321533
0.5856336780849087,1.345640107232358,-1.9152263151179851,0.004162054043263197,-0.5153591632843018,-3.6203017234802246,0.8123272061347961,-0.5527275800704956,-0.1860552430152893,0.2663317322731018,0.6852349638938904,-0.45119762420654297
0.5505567740155461,1.3470193450949046,-1.9243495226380583,-0.0818728357553482,-0.179757758975029,-3.535025119781494,0.8309840559959412,-0.5231618285179138,-0.1891225427389145,0.33297163248062134,0.7103718519210815,-0.3670145869255066
0.5162121599961176,1.35061587139553,-1.9313689835896435,-0.2622181177139282,0.18301405012607574,-3.407378911972046,0.8486987948417664,-0.4935894310474396,-0.18994635343551636,0.4217478036880493,0.7335797548294067,-0.26298031210899353
0.4826557632846269,1.3558073774777002,-1.9354695779042188,-0.4774240553379059,0.44383761286735535,-3.2833926677703857,0.8653738498687744,-0.46413320302963257,-0.18896618485450745,0.5030799508094788,0.7579107284545898,-0.16218432784080505
0.44986672343406314,1.361489757969696,-1.9369681254595505,-0.6250454783439636,0.5323325991630554,-3.162045478820801,0.880851686000824,-0.434845507144928,-0.18710841238498688,0.5621871948242188,0.7716526985168457,-0.10827124118804932
0.4182270875461485,1.3665625014919818,-1.936999764994531,-0.644364058971405,0.4577392339706421,-3.009293794631958,0.8948184251785278,-0.4061409831047058,-0.18533626198768616,0.6422145962715149,0.7767769694328308,-0.112637460231781
0.3884080658074188,1.3703322414830779,-1.9369744484106841,-0.5408360958099365,0.2903694212436676,-2.8019607067108154,0.9069790244102478,-0.37871554493904114,-0.1842920035123825,0.7301058173179626,0.7873458862304688,-0.15318666398525238
0.3613375396993412,1.3726189945733709,-1.9378601293317776,-0.3602357506752014,0.10373228043317795,-2.5139331817626953,0.9171157479286194,-0.35352572798728943,-0.18416891992092133,0.8282150030136108,0.806070864200592,-0.19063282012939453
0.33785081556116575,1.3735566929137317,-1.9400081890286598,-0.16326409578323364,-0.055856846272945404,-2.1479833126068115,0.9251765012741089,-0.331460177898407,-0.18488527834415436,0.9191074967384338,0.8301021456718445,-0.21251462399959564
0.31860157532275907,1.3734790448382144,-1.9432980528534223,0.016065752133727074,-0.1577090173959732,-1.7320256233215332,0.931246817111969,-0.31323882937431335,-0.18617355823516846,0.991894543170929,0.8558719158172607,-0.21299640834331512
0.30394272831699687,1.3727721623910356,-1.947274506558684,0.1397528052330017,-0.2141009271144867,-1.2819085121154785,0.9355167746543884,-0.29928451776504517,-0.18771502375602722,1.0443568229675293,0.8712755441665649,-0.19096234440803528
0.2938513700141063,1.371517232369317,-1.951130287824605,0.16991840302944183,-0.26446428894996643,-0.8376853466033936,0.9381934404373169,-0.2896406352519989,-0.18947719037532806,1.0783777236938477,0.8818494081497192,-0.1410129964351654
0.2879724688260007,1.3694389092714458,-1.9539513843444856,0.11421599984169006,-0.30940619111061096,-0.42247214913368225,0.939449667930603,-0.28400877118110657,-0.19176386296749115,1.09022855758667,0.8807952404022217,-0.08155161142349243
0.2857288061064643,1.366508257447659,-1.9549002161380684,-0.036086007952690125,-0.32312440872192383,-0.05886923149228096,0.9395053386688232,-0.2818567752838135,-0.19464503228664398,1.0868771076202393,0.862804651260376,-0.0390738844871521
0.2865101735684742,1.3631349827832413,-1.9533404120361415,-0.22659629583358765,-0.2465427964925766,0.2694913446903229,0.9386274218559265,-0.2826063930988312,-0.19776763021945953,1.0702683925628662,0.8515608310699463,-0.027482599020004272
0.2900576209662822,1.3599969963389142,-1.9490926376403714,-0.41599082946777344,-0.13647902011871338,0.5904548168182373,0.937015950679779,-0.28600743412971497,-0.20050102472305298,1.0635638236999512,0.8354001045227051,-0.0514826625585556
0.2963656273426267,1.357270115324153,-1.9424123277184684,-0.5581164956092834,-0.020298883318901062,0.9063877463340759,0.9346839189529419,-0.2920462191104889,-0.20266905426979065,1.056053876876831,0.8161855936050415,-0.10279665887355804
0.30556439857011286,1.3550387778653596,-1.933873799509613,-0.6273605823516846,0.07235977798700333,1.233625054359436,0.9315657615661621,-0.30083146691322327,-0.2041703462600708,1.039076328277588,0.8006026148796082,-0.17516319453716278
0.31803770750657606,1.3530382119946949,-1.9242650250630335,-0.6046033501625061,0.1116240918636322,1.590621829032898,0.9274194240570068,-0.31270328164100647,-0.2052069455385208,1.0138800144195557,0.8026629686355591,-0.25499820709228516
0.3342884520910989,1.3509596968349042,-1.9144269255360156,-0.4930020272731781,0.09638895094394684,1.9767556190490723,0.9219092130661011,-0.3280971050262451,-0.20599867403507233,0.9831199049949646,0.8182399272918701,-0.3306224048137665
0.35459666434432574,1.3486888607997054,-1.905112960873602,-0.3208276033401489,0.08046324551105499,2.353180170059204,0.9147502183914185,-0.34721216559410095,-0.20658108592033386,0.9378650784492493,0.8241408467292786,-0.3990403413772583
0.37892106259990865,1.3464719490467973,-1.8966845185973196,-0.13091446459293365,0.0788067877292633,2.7204105854034424,0.9057862758636475,-0.3699182868003845,-0.20666824281215668,0.8689481616020203,0.8286126852035522,-0.4478422999382019
0.40716051618390237,1.3445635238959073,-1.8895131759678752,0.10870639234781265,0.09102989733219147,3.061056137084961,0.8948504328727722,-0.3960035741329193,-0.20597052574157715,0.793717622756958,0.8377607464790344,-0.4813616871833801
0.439104003951498,1.3434324420139168,-1.8841204239314835,0.3701292872428894,0.12041155248880386,3.361936330795288,0.8818383812904358,-0.42512863874435425,-0.20402604341506958,0.7249425649642944,0.8234134912490845,-0.5041038990020752
0.4744042316323516,1.3432775795131058,-1.8806454166900983,0.6042682528495789,0.15844067931175232,3.6298818588256836,0.8666401505470276,-0.45680856704711914,-0.2006511092185974,0.6625040769577026,0.8053040504455566,-0.5025502443313599
0.5126770506890246,1.3444400531721428,-1.8786962742838311,0.7676445245742798,0.26549312472343445,3.8789570331573486,0.8492045998573303,-0.49051186442375183,-0.19557449221611023,0.6049273014068604,0.7991666793823242,-0.46969351172447205
0.5535375671552342,1.3473617249264025,-1.8774819093165622,0.8335542678833008,0.44981953501701355,4.106200218200684,0.8295242190361023,-0.52569979429245,-0.1884915977716446,0.5509993433952332,0.7956888675689697,-0.417434960603714
0.5965822130324057,1.3522670396195628,-1.8760881890951482,0.8141148090362549,0.68096524477005,4.314716815948486,0.8075860738754272,-0.5618183612823486,-0.17934522032737732,0.497986376285553,0.7914479374885559,-0.35823726654052734
0.6414425867244797,1.3587896370547912,-1.8739655180581973,0.759789228439331,0.8515231013298035,4.495177745819092,0.7832943797111511,-0.5983518958091736,-0.16859722137451172,0.4580691456794739,0.7734770178794861,-0.31345850229263306
0.6878620317836973,1.3659886128521648,-1.871104583149022,0.7189154624938965,0.926918625831604,4.647387981414795,0.7564578652381897,-0.6348868012428284,-0.1571315973997116,0.415798544883728,0.7443838715553284,-0.2841068506240845
0.7356550296706649,1.373134677117415,-1.8678899654818384,0.7130586504936218,0.9067664742469788,4.784516334533691,0.7269552946090698,-0.6710729598999023,-0.14559224247932434,0.3662300705909729,0.7302617430686951,-0.27135419845581055
0.7848554867368452,1.3795706421509621,-1.8646537038150728,0.7267586588859558,0.8147063851356506,4.9285993576049805,0.6945942044258118,-0.7067229747772217,-0.13446730375289917,0.3293924927711487,0.7394835948944092,-0.2610405683517456
0.8353772282621471,1.3847397378850534,-1.8616843511136212,0.7635225653648376,0.6362660527229309,5.034509658813477,0.6593191027641296,-0.7415496706962585,-0.1241060420870781,0.2960031032562256,0.7603790163993835,-0.25907278060913086
0.8867796052249646,1.3884477477000705,-1.8594292884220782,0.8256140351295471,0.44728776812553406,5.093958854675293,0.6214344501495361,-0.7750407457351685,-0.1145905926823616,0.2349650263786316,0.7562572360038757,-0.25851738452911377
0.9387912845911383,1.391189820241823,-1.85803642333986,0.8680080771446228,0.3258553445339203,5.1354241371154785,0.5812605023384094,-0.8068446516990662,-0.10553542524576187,0.16950231790542603,0.7553157806396484,-0.2605229616165161
0.9913313695699097,1.39340389770511,-1.8570808242188657,0.8860713243484497,0.28654587268829346,5.193342208862305,0.5389833450317383,-0.8367557525634766,-0.09662725031375885,0.11241436004638672,0.7583866119384766,-0.26334285736083984
1.0444460901443566,1.3963606938962128,-1.856601258664472,0.9215208888053894,0.41058048605918884,5.238372325897217,0.4947570562362671,-0.8646463751792908,-0.08718938380479813,0.05344542860984802,0.7467570304870605,-0.29106080532073975
1.0979598978047918,1.4023814807278883,-1.8573047079118443,0.9660042524337769,0.6852076053619385,5.250718116760254,0.44896993041038513,-0.8902801275253296,-0.07633629441261292,-0.02329552173614502,0.7530578374862671,-0.341739296913147
1.1511466804340709,1.4135416909689436,-1.8599256864629736,0.9733787775039673,1.0754462480545044,5.161752700805664,0.40241312980651855,-0.9132317304611206,-0.06380817294120789,-0.11986616253852844,0.7656487226486206,-0.3532145619392395
1.202957806724173,1.4314762385044217,-1.8653866799120282,0.9732346534729004,1.4872822761535645,4.98388147354126,0.35611504316329956,-0.9331067800521851,-0.04993749409914017,-0.22836852073669434,0.7775740027427673,-0.3352707028388977
1.252749206955978,1.458119217601194,-1.8762119461842466,1.0003645420074463,1.7596962451934814,4.774147987365723,0.31072959303855896,-0.949847936630249,-0.03516104072332382,-0.29658469557762146,0.7967411279678345,-0.31145763397216797
1.300614010585661,1.4951330550263855,-1.896247565606909,1.052358627319336,1.7572686672210693,4.625842571258545,0.26614370942115784,-0.9637222290039062,-0.020175820216536522,-0.2901000678539276,0.7800064086914062,-0.2574121356010437
1.3470346701136169,1.5458295983063375,-1.9313613071201918,1.1246533393859863,1.5485882759094238,4.540419101715088,0.2218296378850937,-0.9750696420669556,-0.005539511330425739,-0.25784045457839966,0.7509943842887878,-0.1760554313659668
1.392289370167138,1.619206382975469,-1.9916059859949444,1.1607600450515747,1.3096669912338257,4.515331745147705,0.17735272645950317,-0.9841098785400391,0.008592368103563786,-0.22746260464191437,0.7405032515525818,-0.10054183006286621
1.4360828027029948,1.7344446631861115,-2.0960052476265956,1.1382927894592285,1.1123408079147339,4.494240760803223,0.13251154124736786,-0.9909398555755615,0.021880973130464554,-0.23700378835201263,0.7473028302192688,-0.0174864549189806
1.4764945872200763,1.9405116531260427,-2.292636978838764,1.0537258386611938,1.0301539897918701,4.407557010650635,0.08779998123645782,-0.9955568909645081,0.03402562811970711,-0.2906961441040039,0.7400026917457581,0.06065511703491211
1.5083436595096043,2.3598825550179385,-2.7027837977855764,0.8460865616798401,1.0569655895233154,4.281809329986572,0.04397009685635567,-0.9980504512786865,0.04429562762379646,-0.33967021107673645,0.720645546913147,0.13980162143707275
1.519318523670992,3.119618242269947,2.8307628890186485,0.5395860075950623,1.1926230192184448,4.1907525062561035,0.001130567630752921,-0.9986752867698669,0.051440995186567307,-0.3628554344177246,0.698031485080719,0.19520199298858643
1.502059369558085,-2.4991770319513056,2.178609655347157,0.2278912365436554,1.4789748191833496,4.107985019683838,-0.04114966839551926,-0.9976385235786438,0.054990481585264206,-0.37614768743515015,0.6843756437301636,0.19272065162658691
1.471719282264349,-2.1562136215868755,1.8506000774740237,-0.09265012294054031,1.7017648220062256,3.9750685691833496,-0.08244278281927109,-0.9950959086418152,0.05465451627969742,-0.4012761116027832,0.6626375317573547,0.20358514785766602
1.4382330523964308,-1.961878260943216,1.6726940902433598,-0.3978275954723358,1.7829371690750122,3.819761276245117,-0.12219617515802383,-0.9912263751029968,0.050383955240249634,-0.44257739186286926,0.6455079913139343,0.1983494758605957
1.4040724381412069,-1.8307974410243766,1.5579709850112213,-0.6397585868835449,1.7254629135131836,3.727768659591675,-0.1603747308254242,-0.9861337542533875,0.0426633246243,-0.4602154791355133,0.6091501116752625,0.16873180866241455
1.3692599489539183,-1.734731525732332,1.477385139463683,-0.759537935256958,1.625098466873169,3.664015531539917,-0.19749078154563904,-0.9797601699829102,0.03266886994242668,-0.45001596212387085,0.5584040284156799,0.08583080768585205
1.3342703333499415,-1.6638385645679281,1.420677391494164,-0.7752459645271301,1.4695311784744263,3.5655927658081055,-0.23331336677074432,-0.972157895565033,0.02177085541188717,-0.49526330828666687,0.516042172908783,-0.015774250030517578
1.2995257954344552,-1.610886147575193,1.3806431684758587,-0.7624226212501526,1.3733948469161987,3.486067295074463,-0.2677401900291443,-0.9634312391281128,0.010739410296082497,-0.5551663041114807,0.47147268056869507,-0.09113812446594238
1.2652663396575023,-1.569845424204795,1.3522780961708227,-0.6997312307357788,1.4045060873031616,3.3621904850006104,-0.3007982671260834,-0.9536876678466797,-0.00028602994279935956,-0.6082440614700317,0.42521488666534424,-0.15578091144561768
1.232501581278486,-1.5379652225932905,1.334141090429089,-0.5439821481704712,1.5268762111663818,3.141509771347046,-0.3317001163959503,-0.9433220028877258,-0.010893995873630047,-0.6942245364189148,0.37850266695022583,-0.25109946727752686
1.2020359585525011,-1.5135902464478368,1.3250829197274385,-0.35230401158332825,1.6291402578353882,2.9013662338256836,-0.359870046377182,-0.9327749013900757,-0.020609240978956223,-0.7572717070579529,0.3164418935775757,-0.32033318281173706
1.1740966100108845,-1.4955582229567956,1.3233690658241728,-0.13965937495231628,1.6214898824691772,2.6524064540863037,-0.385282963514328,-0.9223411679267883,-0.02904278226196766,-0.7701125144958496,0.27034860849380493,-0.32796716690063477
1.1485089373792516,-1.4839822389276511,1.327431370603228,0.0397082082927227,1.40092933177948,2.4802730083465576,-0.4083046615123749,-0.9121538400650024,-0.035535916686058044,-0.7471671104431152,0.22279226779937744,-0.2978534698486328
1.123964852489225,-1.478693174786147,1.335200020176613,0.16498355567455292,1.0551974773406982,2.4625420570373535,-0.43027856945991516,-0.9018207788467407,-0.03974245488643646,-0.6750680208206177,0.17019248008728027,-0.2436591386795044
1.0995267595619111,-1.4787862837201153,1.3452943452595811,0.2739512324333191,0.7415613532066345,2.47174334526062,-0.45209720730781555,-0.8909925818443298,-0.041715268045663834,-0.6586968302726746,0.12504726648330688,-0.22491687536239624
1.0751365932390538,-1.482737620359811,1.3569668368213819,0.36567795276641846,0.5529219508171082,2.466571092605591,-0.4737692177295685,-0.879655122756958,-0.04182767495512962,-0.7230844497680664,0.09555172920227051,-0.23310518264770508
1.0511123827439477,-1.4889666119403797,1.3699004857458654,0.4808753430843353,0.4709811806678772,2.394606590270996,-0.49494391679763794,-0.867976188659668,-0.040591761469841,-0.8197075128555298,0.061305105686187744,-0.2577023506164551
1.0287876052897957,-1.4966334806627382,1.3845378583005215,0.6546642184257507,0.5397045612335205,2.129549503326416,-0.5144398808479309,-0.8566741943359375,-0.038222428411245346,-0.9793192744255066,0.028900146484375,-0.29811185598373413
1.0102522899983977,-1.5049409232281936,1.4016543701720439,0.8754816651344299,0.711204469203949,1.6627106666564941,-0.5304946303367615,-0.846966028213501,-0.03498653322458267,-1.1725845336914062,-0.0035283565521240234,-0.3142872452735901
0.9971260033452815,-1.5140787977718255,1.421665788702909,1.1028485298156738,0.8140437602996826,1.0731688737869263,-0.5418456792831421,-0.8399146795272827,-0.030765142291784286,-1.307519555091858,-0.04886394739151001,-0.2709621787071228
0.9899785470436413,-1.5251596204134827,1.4444927040135367,1.2948871850967407,0.7668346762657166,0.49019259214401245,-0.5481364727020264,-0.8360142111778259,-0.02503252401947975,-1.3373615741729736,-0.09274250268936157,-0.16785389184951782
0.9879178070462868,-1.5390550026643959,1.4692785414595326,1.3947796821594238,0.5764351487159729,0.049137182533741,-0.5501521229743958,-0.8348816633224487,-0.017468424513936043,-1.242114782333374,-0.10617351531982422,-0.02572929672896862
0.9891721539301053,-1.5556839610697615,1.4946148364138456,1.383921504020691,0.31663981080055237,-0.19737303256988525,-0.5493189096450806,-0.8355714678764343,-0.008302140049636364,-1.0759252309799194,-0.09585541486740112,0.11581552028656006
0.991357414791233,-1.5738049899860882,1.5187380212192514,1.2424278259277344,0.10572278499603271,-0.19218306243419647,-0.5475518703460693,-0.8367699980735779,0.0016474040457978845,-0.8909704089164734,-0.09097951650619507,0.2320561408996582
0.9925591085548292,-1.5906352152938845,1.5395343744433145,1.0174245834350586,0.023703236132860184,-0.07077842205762863,-0.5464411973953247,-0.8374273777008057,0.010842207819223404,-0.7591618299484253,-0.09306883811950684,0.29828548431396484
0.9926432357928255,-1.6040740185865439,1.5559700268051613,0.7741338610649109,0.05120090767741203,-0.0011783086229115725,-0.5461757779121399,-0.8374733924865723,0.0181821808218956,-0.7484867572784424,-0.10399401187896729,0.31595468521118164
0.9923742613648756,-1.6134102490166407,1.5680940330380546,0.5485126376152039,0.10886949300765991,-0.006141857244074345,-0.5462071895599365,-0.8373263478279114,0.023290131241083145,-0.8152278065681458,-0.1130521297454834,0.30318689346313477
0.9927085570154958,-1.6191210383917873,1.5763620674554635,0.3581136465072632,0.1252886950969696,-0.11774614453315735,-0.5457853674888611,-0.8375090956687927,0.026395469903945923,-0.8996338844299316,-0.116912841796875,0.2782003879547119
0.9948734102558077,-1.6224834593203479,1.5818309086843978,0.2222379595041275,0.11836843937635422,-0.35633230209350586,-0.5438815951347351,-0.8386900424957275,0.028136741369962692,-1.0017726421356201,-0.1275421380996704,0.2422184944152832
0.9998324810076633,-1.6242581896073727,1.5854315003449282,0.11541431397199631,0.13748754560947418,-0.6538784503936768,-0.5396708250045776,-0.8413804769515991,0.028879327699542046,-1.0783100128173828,-0.12956660985946655,0.20148253440856934
1.0078231142464138,-1.6244467181438673,1.5874998475781879,0.018756717443466187,0.1734863668680191,-0.9436476826667786,-0.5329349040985107,-0.8456720113754272,0.02861963026225567,-1.0956356525421143,-0.11644035577774048,0.17600059509277344
1.0185011083150701,-1.6229720918844825,1.5879703407654309,-0.08207588642835617,0.19572961330413818,-1.1778321266174316,-0.5239285230636597,-0.851322591304779,0.027361204847693443,-1.0607424974441528,-0.09661436080932617,0.16811907291412354
1.03130423098357,-1.6199969891478216,1.5867737476084123,-0.16761080920696259,0.18955057859420776,-1.3572865724563599,-0.5130787491798401,-0.8579697012901306,0.025264205411076546,-1.0035076141357422,-0.08023226261138916,0.16548585891723633
1.0458344778572626,-1.6160876501464372,1.584213877370796,-0.22421923279762268,0.14300037920475006,-1.5231338739395142,-0.5006659030914307,-0.8653430342674255,0.022691339254379272,-0.9547325968742371,-0.06815904378890991,0.1594679355621338
1.0621252874906908,-1.6121040691015018,1.580754605079546,-0.2566843628883362,0.0474204458296299,-1.7070331573486328,-0.4866015911102295,-0.8733925223350525,0.020111853256821632,-0.931412935256958,-0.05461651086807251,0.15064918994903564
1.0802818780486427,-1.608507255824471,1.5766185587880095,-0.28266456723213196,-0.05299084633588791,-1.8917045593261719,-0.47074511647224426,-0.8820906281471252,0.017760654911398888,-0.9094429612159729,-0.04095941781997681,0.1451725959777832
1.1002162197692837,-1.605023347880535,1.5715772161615469,-0.3268594443798065,-0.13947780430316925,-2.063145637512207,-0.4531381130218506,-0.8913053870201111,0.015515626408159733,-0.8814261555671692,-0.02191793918609619,0.13810980319976807
1.1218936072468941,-1.6010373440741155,1.5653310264500109,-0.36682870984077454,-0.17041707038879395,-2.2380101680755615,-0.4337790608406067,-0.9009238481521606,0.013121919706463814,-0.8612649440765381,0.006072044372558594,0.12152159214019775
1.1452444808046047,-1.5958197124422693,1.5575921213075037,-0.4109920263290405,-0.191195547580719,-2.3951475620269775,-0.41269415616989136,-0.9108110666275024,0.010329161770641804,-0.8380992412567139,0.03501766920089722,0.0948038101196289
1.1700802435654074,-1.589411442568822,1.5482887316352112,-0.4393695890903473,-0.23067690432071686,-2.538910388946533,-0.39001044631004333,-0.9207819104194641,0.007260928396135569,-0.8044171333312988,0.06528258323669434,0.06912446022033691
1.196392938509352,-1.581832193494201,1.5372659880755712,-0.468048095703125,-0.28861042857170105,-2.6967458724975586,-0.365695059299469,-0.9307259917259216,0.004035925958305597,-0.7702149748802185,0.08175748586654663,0.05254364013671875
1.2243217494100656,-1.5723453136265355,1.5238528051309577,-0.5138941407203674,-0.32455697655677795,-2.861635446548462,-0.3395836055278778,-0.9405757188796997,0.0005260109901428223,-0.7491614818572998,0.09549820423126221,0.0484546422958374
1.2537789256756744,-1.5594122062406206,1.5065489744417115,-0.5850709676742554,-0.3590211570262909,-3.010267972946167,-0.3117137849330902,-0.9501694440841675,-0.0035487408749759197,-0.7195057272911072,0.14011085033416748,0.05646616220474243
1.2844295377593815,-1.540666460827521,1.4830131595764648,-0.684701681137085,-0.3874213695526123,-3.1221985816955566,-0.28234025835990906,-0.9592764973640442,-0.008509448729455471,-0.6777427196502686,0.18222278356552124,0.07085680961608887
1.3158085852223766,-1.5132256743373487,1.4502318650839605,-0.7883601784706116,-0.44563212990760803,-3.199615478515625,-0.25181594491004944,-0.9676663875579834,-0.014513244852423668,-0.6329344511032104,0.2041013240814209,0.07437342405319214
1.3473631218695095,-1.4734739834533066,1.4044418806627192,-0.8737461566925049,-0.49820268154144287,-3.2335073947906494,-0.22053037583827972,-0.9751424789428711,-0.021530551835894585,-0.5949145555496216,0.2287435531616211,0.06011998653411865
1.378615316374292,-1.4172453266881826,1.3416852872921818,-0.8989547491073608,-0.5302788019180298,-3.2729713916778564,-0.1887526512145996,-0.9815899729728699,-0.029213113710284233,-0.5692429542541504,0.24382764101028442,-0.0013045649975538254
1.4096348415392106,-1.3379419186353005,1.25582449175535,-0.8622137904167175,-0.5048695802688599,-3.3758339881896973,-0.15613342821598053,-0.9870415925979614,-0.03702802583575249,-0.5941564440727234,0.2519495487213135,-0.07387292385101318
1.4403704100855597,-1.2208326295024117,1.1327330825675082,-0.7918071150779724,-0.4257250726222992,-3.5065572261810303,-0.12217352539300919,-0.9915065765380859,-0.044591791927814484,-0.615436315536499,0.29750633239746094,-0.12150013446807861
1.4696971617117325,-1.0339558085861802,0.9406029182182729,-0.7019544243812561,-0.3776414394378662,-3.641965389251709,-0.0867302268743515,-0.9948938488960266,-0.051616884768009186,-0.5916755795478821,0.33588194847106934,-0.13747012615203857
1.4941320095983681,-0.7119630564028008,0.6134111054136289,-0.6310474276542664,-0.41497278213500977,-3.7376842498779297,-0.050037529319524765,-0.9970627427101135,-0.05798442289233208,-0.5373038053512573,0.36148834228515625,-0.11939907819032669
1.5056029116872198,-0.19567496749151894,0.09118956458906362,-0.5838665962219238,-0.5273334383964539,-3.777714967727661,-0.012666590511798859,-0.9978756904602051,-0.06390451639890671,-0.45182618498802185,0.3912320137023926,-0.08608943223953247
1.4970329964656452,0.3366251156120614,-0.44856397861802105,-0.5409626364707947,-0.7154920101165771,-3.6778552532196045,0.02434239163994789,-0.9972807168960571,-0.06956078112125397,-0.34245768189430237,0.40140974521636963,-0.078174889087677
1.4747103527464962,0.6687010439028188,-0.7899375308409754,-0.536089301109314,-0.8919437527656555,-3.4684386253356934,0.0594785138964653,-0.9953873157501221,-0.075275719165802,-0.2278439998626709,0.39327549934387207,-0.09606528282165527
1.447405950582649,0.8512216995007512,-0.9828859054132466,-0.4816237986087799,-0.9490691423416138,-3.3253955841064453,0.09256536513566971,-0.9923970699310303,-0.08111646771430969,-0.2200373113155365,0.3714710474014282,-0.1465752124786377
1.4186389503679542,0.9648149100091664,-1.107250824760175,-0.3550347089767456,-0.9645439386367798,-3.2935824394226074,0.1245822161436081,-0.9884463548660278,-0.08632974326610565,-0.3077334761619568,0.3781864643096924,-0.23717188835144043
1.3889822405679568,1.046912225821332,-1.2002481699295364,-0.20026099681854248,-0.9469215273857117,-3.3544375896453857,0.15656320750713348,-0.9835172891616821,-0.09045138210058212,-0.3830341696739197,0.3910796642303467,-0.29719823598861694
1.3583602786893239,1.1129913696581346,-1.2774426313082798,-0.014394713565707207,-0.991580069065094,-3.4426472187042236,0.1891304850578308,-0.9775201678276062,-0.09318797290325165,-0.3891427516937256,0.4021265506744385,-0.31463372707366943
1.3272423354575977,1.1676600561804305,-1.3449577452990975,0.19156493246555328,-1.2470660209655762,-3.4459784030914307,0.22182130813598633,-0.9704870581626892,-0.09460568428039551,-0.3065991699695587,0.4347204566001892,-0.30190926790237427
1.296690849564092,1.2106852311599279,-1.4042089927392658,0.3408135175704956,-1.5963129997253418,-3.3165667057037354,0.25332319736480713,-0.96266770362854,-0.09538370370864868,-0.16157212853431702,0.4550384283065796,-0.2737264633178711
1.267803574909416,1.2418253743921512,-1.4551295312839396,0.4269528388977051,-1.924825668334961,-3.061654567718506,0.2823774814605713,-0.9544478058815002,-0.09639674425125122,-0.02227616310119629,0.45518022775650024,-0.24321818351745605
1.2417211979394118,1.2620101754803768,-1.497985989988605,0.45632830262184143,-2.1563289165496826,-2.7020576000213623,0.3078829348087311,-0.9463416337966919,-0.09821146726608276,0.08826568722724915,0.44579237699508667,-0.234765887260437
1.2187509209089402,1.2737807562797696,-1.5338350916426424,0.461155503988266,-2.2061767578125,-2.400698184967041,0.3297201693058014,-0.9386693835258484,-0.10091720521450043,0.11807951331138611,0.41858887672424316,-0.25954127311706543
1.1978995725758552,1.2820846413816747,-1.565855846865168,0.5159710645675659,-2.090824842453003,-2.2496047019958496,0.34923607110977173,-0.9312759041786194,-0.10372670739889145,0.057990461587905884,0.41281282901763916,-0.3271510601043701
1.1781928953506897,1.2910486950337619,-1.5972732302235841,0.6381874680519104,-1.940322995185852,-2.185744285583496,0.36772146821022034,-0.9239161610603333,-0.10563943535089493,0.0059661865234375,0.439083456993103,-0.40932947397232056
1.1592425509920417,1.3020977290581708,-1.6300735383220568,0.8000466823577881,-1.8883671760559082,-2.1441454887390137,0.3856794834136963,-0.9165003895759583,-0.10619976371526718,0.025804251432418823,0.47628432512283325,-0.4454665780067444
1.1410044075319403,1.3140381725703028,-1.6639520932199774,0.9043462872505188,-1.89478600025177,-2.0784971714019775,0.4030219316482544,-0.9090524911880493,-0.10581471771001816,0.10929185152053833,0.4713541865348816,-0.4134419560432434
1.1234301973535952,1.3250268700642598,-1.69669307062951,0.8910808563232422,-1.8026195764541626,-2.0102689266204834,0.41959303617477417,-0.9015896320343018,-0.10525088012218475,0.18236616253852844,0.44019436836242676,-0.34822511672973633
1.1060680879897358,1.3340226613361492,-1.7257547739129309,0.7451720833778381,-1.5934091806411743,-1.9602640867233276,0.4356754720211029,-0.8939433693885803,-0.10512842237949371,0.19788464903831482,0.4187542796134949,-0.26994788646698
1.0886676912396729,1.3403542405036186,-1.7493886947282535,0.5394724607467651,-1.337963581085205,-1.9161616563796997,0.45140910148620605,-0.886009931564331,-0.1059049665927887,0.21541514992713928,0.3960961699485779,-0.20230738818645477
1.0710203033498924,1.3442123069444956,-1.7677323994396825,0.34883785247802734,-1.1299457550048828,-1.9081145524978638,0.46697965264320374,-0.8776898980140686,-0.10765887796878815,0.21574431657791138,0.3553968667984009,-0.17615461349487305
1.0530526452273425,1.3457806655343432,-1.7819514095729017,0.19752450287342072,-1.0514854192733765,-1.8860763311386108,0.4824441075325012,-0.8689380884170532,-0.11042752861976624,0.2161794900894165,0.3323780298233032,-0.17556804418563843
1.035256125875642,1.3444254834682263,-1.7926872828692786,0.06342067569494247,-1.0771055221557617,-1.8142719268798828,0.49728646874427795,-0.8599931001663208,-0.11453426629304886,0.25433093309402466,0.3096085786819458,-0.17046940326690674
1.0178788693860212,1.3405711795451662,-1.8009171078233022,-0.00734989857301116,-1.082003116607666,-1.7584092617034912,0.5113154053688049,-0.8509959578514099,-0.11984255164861679,0.2663639187812805,0.28770262002944946,-0.195465087890625
1.000859883963868,1.3363000326023529,-1.8082687949240663,-0.0026862090453505516,-1.0007354021072388,-1.7326312065124512,0.5248112082481384,-0.8419352769851685,-0.1253727674484253,0.23304706811904907,0.28776657581329346,-0.266610324382782
0.9838303763200742,1.3336453134263264,-1.8164092929051585,0.08755500614643097,-0.8890581727027893,-1.7885946035385132,0.5383362174034119,-0.8326248526573181,-0.13011543452739716,0.19513851404190063,0.28756558895111084,-0.3350487947463989
0.9661603965997676,1.3340087638137945,-1.827069720070588,0.2513309419155121,-0.7949499487876892,-1.9234462976455688,0.5526004433631897,-0.8227090835571289,-0.13335053622722626,0.16747695207595825,0.2866831421852112,-0.3821219205856323
0.9476174548919761,1.3378567059306328,-1.8408299110837303,0.41928452253341675,-0.6678676009178162,-2.039677143096924,0.5678568482398987,-0.8120273351669312,-0.13472193479537964,0.20884591341018677,0.3144840598106384,-0.39619243144989014
0.9284057953298459,1.3446662310083348,-1.8564400869419657,0.48517727851867676,-0.4710436165332794,-2.1066503524780273,0.5838584899902344,-0.8006658554077148,-0.13432538509368896,0.30693429708480835,0.3541632294654846,-0.3529946208000183
0.9089015438407914,1.353242172960491,-1.871572024535441,0.43701452016830444,-0.21446776390075684,-2.0778985023498535,0.6001250743865967,-0.7888290882110596,-0.13265925645828247,0.42294609546661377,0.38416606187820435,-0.2592475414276123
0.8900459488279806,1.3621019019474505,-1.8843399542548807,0.31317219138145447,-0.030089251697063446,-1.9205623865127563,0.6157203316688538,-0.777100682258606,-0.13039597868919373,0.5691856741905212,0.39288437366485596,-0.16283220052719116
0.8728547888971846,1.3693367821280684,-1.8939113232765037,0.1777390092611313,-0.024024702608585358,-1.6833362579345703,0.6296448111534119,-0.7661666870117188,-0.1285923719406128,0.7016844153404236,0.37813568115234375,-0.07853047549724579
0.8577689474224302,1.37337813754689,-1.9005686233014325,0.07682120054960251,-0.1919097602367401,-1.435356616973877,0.6414211392402649,-0.7563850283622742,-0.12829932570457458,0.7707949876785278,0.35593336820602417,-0.021755635738372803
0.8449234676401408,1.3738606678292817,-1.9050304834464455,0.00041963765397667885,-0.3691449761390686,-1.1953421831130981,0.6509579420089722,-0.7479203343391418,-0.12988026440143585,0.7859163880348206,0.34698039293289185,-0.007143661379814148
0.8342259129229893,1.3718948643670628,-1.907883954975686,-0.04196135699748993,-0.4347579777240753,-0.9761220216751099,0.6585073471069336,-0.7407767176628113,-0.13273310661315918,0.7684335708618164,0.3515402674674988,-0.037738218903541565
0.8254377220163914,1.3690558392972265,-1.909895735739744,-0.03441954776644707,-0.42106109857559204,-0.8009305000305176,0.6644803285598755,-0.7348447442054749,-0.1359013020992279,0.7354677319526672,0.3522152900695801,-0.09253811836242676
0.8182763260288363,1.3668119660557023,-1.9119903153347722,0.029421065002679825,-0.3240640163421631,-0.6557138562202454,0.6693101525306702,-0.7299688458442688,-0.13845449686050415,0.7106947302818298,0.3422276973724365,-0.15819169580936432
0.8126000263306034,1.3662494528383797,-1.9147199469231164,0.10926156491041183,-0.1819412112236023,-0.5274829268455505,0.6732785105705261,-0.7260774374008179,-0.13967038691043854,0.6989443898200989,0.3363984227180481,-0.20031072199344635
0.8083695560776786,1.3675004182552877,-1.9180947768369048,0.16890695691108704,-0.06064486876130104,-0.39079079031944275,0.676455020904541,-0.7231619954109192,-0.1394469290971756,0.697598934173584,0.3321554660797119,-0.19511736929416656
0.8056953589576652,1.3698027094911422,-1.921554679725883,0.18657755851745605,0.015222729183733463,-0.22252695262432098,0.6786667704582214,-0.721312403678894,-0.13827474415302277,0.7102186679840088,0.32491958141326904,-0.1561589241027832
0.8048177145276816,1.3722589684425914,-1.924441407045717,0.16803395748138428,0.05360553786158562,-0.0262711551040411,0.6796246767044067,-0.7207042574882507,-0.13673216104507446,0.7283342480659485,0.31092947721481323,-0.10962104797363281
0.8058573403519962,1.374260082050818,-1.9265396084504574,0.16067218780517578,0.035475004464387894,0.17230692505836487,0.6791618466377258,-0.7214246392250061,-0.13522551953792572,0.7202979922294617,0.29549074172973633,-0.08001500368118286
0.8088521085652873,1.3752683536480614,-1.9281230158097824,0.17482046782970428,-0.07059292495250702,0.3701958656311035,0.6771754622459412,-0.7234952449798584,-0.13412030041217804,0.6964054703712463,0.2763974070549011,-0.07175137102603912
0.8137640175113814,1.3749186110564742,-1.9295679860091843,0.21360914409160614,-0.2033456414937973,0.5466872453689575,0.6736345887184143,-0.7268773317337036,-0.1336638629436493,0.6598309874534607,0.26087385416030884,-0.06964428722858429
0.8203148631068198,1.3735201699879847,-1.9311101398876205,0.24942819774150848,-0.2877553403377533,0.6880258917808533,0.6687632203102112,-0.7313606142997742,-0.13366959989070892,0.5993794202804565,0.2502356767654419,-0.07928216457366943
0.8280500033393537,1.3718679647361063,-1.9327518865481739,0.2688676714897156,-0.268684446811676,0.7740725874900818,0.6629757285118103,-0.7366139888763428,-0.13365232944488525,0.5261873602867126,0.24100852012634277,-0.09213201701641083
0.8363759008538241,1.3708040499792968,-1.9344551283277824,0.28045347332954407,-0.18957339227199554,0.804469645023346,0.6567995548248291,-0.7422192692756653,-0.13313457369804382,0.45684778690338135,0.22511422634124756,-0.10572652518749237
0.844817175030628,1.3707394956403423,-1.9362469855532116,0.2864503860473633,-0.08615060150623322,0.7949203848838806,0.6506271958351135,-0.7478497624397278,-0.13192716240882874,0.4019086956977844,0.21630984544754028,-0.11387668550014496
0.8530573559642575,1.371807900584924,-1.9382025882297365,0.2923354208469391,0.004578686319291592,0.7600149512290955,0.6447049975395203,-0.7532947063446045,-0.13000935316085815,0.3579193949699402,0.2080066204071045,-0.11013351380825043
0.8609220312419864,1.3738778046948301,-1.9403728056507725,0.2933522164821625,0.0790686383843422,0.7243523001670837,0.6391431093215942,-0.7584438323974609,-0.12751156091690063,0.33328425884246826,0.21274375915527344,-0.09628915786743164
0.8686150519646619,1.376598249526895,-1.9425630091108388,0.2847156822681427,0.12819647789001465,0.7347661256790161,0.6337435245513916,-0.7634351253509521,-0.12464260309934616,0.3478237986564636,0.2246474027633667,-0.07387427985668182
0.8767291130161431,1.379444838137469,-1.9445031094830465,0.2682163119316101,0.13804565370082855,0.8136153817176819,0.6279935836791992,-0.7686507105827332,-0.12165597081184387,0.392178475856781,0.23633265495300293,-0.051027826964855194
0.8858681399362459,1.381812225938027,-1.945882726119856,0.24580435454845428,0.11924350261688232,0.9448499083518982,0.6213540434837341,-0.77446448802948,-0.11884426325559616,0.4325857162475586,0.24055945873260498,-0.03543740510940552
0.8963605373087347,1.383553061845768,-1.9466282425363284,0.24083170294761658,0.11695104837417603,1.092118740081787,0.613541841506958,-0.7810593843460083,-0.11624325811862946,0.4411608576774597,0.23323839902877808,-0.03550540655851364
0.9082218856555203,1.3852140135453392,-1.9471912369586437,0.2666887640953064,0.12549486756324768,1.211754322052002,0.6045859456062317,-0.7884112000465393,-0.11350654065608978,0.4068276286125183,0.22810840606689453,-0.057407259941101074
0.9210371281817421,1.387274749366082,-1.9480427501415427,0.30201560258865356,0.1565936654806137,1.2757083177566528,0.5948351621627808,-0.7962294816970825,-0.11040739715099335,0.34821897745132446,0.21854698657989502,-0.06966161727905273
0.9343657911979972,1.390086080646331,-1.9492937529665064,0.3246700167655945,0.20734377205371857,1.305899739265442,0.5846508145332336,-0.8042222857475281,-0.10681768506765366,0.2890673875808716,0.21137255430221558,-0.06818544864654541
0.9478836864951371,1.393615674779654,-1.950863248556389,0.33174923062324524,0.24450471997261047,1.3081306219100952,0.5742698311805725,-0.8121826648712158,-0.10282778739929199,0.24601209163665771,0.20575261116027832,-0.06089907884597778
0.961240736454465,1.3977544444230696,-1.9524660080781686,0.3022809326648712,0.33582553267478943,1.2786704301834106,0.5639529824256897,-0.8199025392532349,-0.09857333451509476,0.20113784074783325,0.19746607542037964,-0.05139010399580002
0.9741536787805044,1.4019362746539497,-1.9527463104790432,0.15443259477615356,0.44464364647865295,1.2568801641464233,0.5538767576217651,-0.8272266387939453,-0.09442685544490814,0.1675892472267151,0.19954121112823486,0.0015313178300857544
0.9867264351067611,1.4050146033144337,-1.9503423110473024,0.005844292230904102,0.5726475715637207,1.265109896659851,0.5438632369041443,-0.8342253565788269,-0.09099777042865753,0.17149919271469116,0.19950562715530396,0.04839516431093216
0.9993615094297975,1.4069778697260389,-1.9454309973883388,-0.11597216129302979,0.6242215633392334,1.30810546875,0.5335983037948608,-0.8411258459091187,-0.08820369839668274,0.1890883445739746,0.1836552619934082,0.03192926198244095
1.0123919595634323,1.4074900905643295,-1.9385922823218598,-0.17221274971961975,0.6286694407463074,1.3749638795852661,0.5227841734886169,-0.8481016159057617,-0.08614104241132736,0.187527596950531,0.176791250705719,0.0044606998562812805
1.026041189121996,1.40716275732146,-1.9308202001334736,-0.18054258823394775,0.6199127435684204,1.4362660646438599,0.5112863779067993,-0.8552542328834534,-0.08441842347383499,0.1689961552619934,0.16220003366470337,-0.040612153708934784
1.0400423393462128,1.4065411730530195,-1.9229336519092646,-0.1539614051580429,0.60467928647995,1.443841814994812,0.49937087297439575,-0.862425684928894,-0.0827699527144432,0.11677902936935425,0.1493823528289795,-0.07344961911439896
1.0538610329745162,1.4062019216311987,-1.91567894414285,-0.10921870172023773,0.5813201665878296,1.3820412158966064,0.4875388443470001,-0.8693379163742065,-0.08097875863313675,0.03898090124130249,0.13755691051483154,-0.09060639142990112
1.0667638793844147,1.4068299753325466,-1.9096464742624981,-0.04656847566366196,0.5958278775215149,1.2475254535675049,0.4764828383922577,-0.8756421804428101,-0.0788349136710167,-0.03875398635864258,0.13052499294281006,-0.1109386682510376
1.0784488731936404,1.4091567532236529,-1.9054668015943934,0.030710864812135696,0.5971948504447937,1.1197518110275269,0.4665341079235077,-0.8812256455421448,-0.07607406377792358,-0.08654448390007019,0.13591009378433228,-0.1345735788345337
1.0892008936421758,1.4130531586897908,-1.9030883926411597,0.08478949218988419,0.6037915349006653,1.041022539138794,0.45744287967681885,-0.8862570524215698,-0.07276301085948944,-0.08163416385650635,0.13596713542938232,-0.13811349868774414
1.0994993151749142,1.4174378291741259,-1.9012686471760272,0.05928492918610573,0.5866873860359192,1.0181851387023926,0.4487135112285614,-0.8909801244735718,-0.06935863196849823,-0.05833268165588379,0.12367665767669678,-0.09012627601623535
1.1098419330551617,1.4206620855753762,-1.898472425951951,0.009927340783178806,0.5580118894577026,1.0703387260437012,0.4397997260093689,-0.8956283926963806,-0.06652961671352386,-0.030406415462493896,0.11358475685119629,-0.021849341690540314
1.1208270760925096,1.4219532348881663,-1.894259595120888,-0.050399381667375565,0.4509965181350708,1.1477975845336914,0.43012896180152893,-0.9004604816436768,-0.06449873745441437,0.007432043552398682,0.09394192695617676,-0.012542963027954102
1.132364245702822,1.4209854762801788,-1.8881563328584718,-0.12385010719299316,0.4782275855541229,1.2084293365478516,0.4197654724121094,-0.9054183959960938,-0.06336013227701187,-0.027675658464431763,0.09812164306640625,0.004583239555358887
1.1444082359662477,1.4183890897548441,-1.879509825894839,-0.22874270379543304,0.5679531693458557,1.2703723907470703,0.40879058837890625,-0.9104655385017395,-0.06278955936431885,-0.06427773833274841,0.08362239599227905,0.004394128918647766
1.1566125767396211,1.414028020017888,-1.8680582680184576,-0.30859437584877014,0.6402559876441956,1.2670221328735352,0.39750751852989197,-0.9154451489448547,-0.06283215433359146,-0.12121671438217163,0.05353724956512451,-0.0037724897265434265
1.1682152063014264,1.4086893772838134,-1.8551796773576412,-0.32482820749282837,0.640374481678009,1.1658955812454224,0.3866576552391052,-0.9200527667999268,-0.06323477625846863,-0.204254150390625,0.03225070238113403,-0.018903307616710663
1.1784620760385764,1.4032301445095874,-1.8425604405550469,-0.29515424370765686,0.5865811705589294,1.0037859678268433,0.3769911527633667,-0.9240190982818604,-0.06376893073320389,-0.2774581015110016,0.013771295547485352,-0.032605648040771484
1.1870753277792387,1.3984464868861843,-1.8312338169858609,-0.2594199478626251,0.5569761395454407,0.8402196764945984,0.36882683634757996,-0.9272780418395996,-0.06420422345399857,-0.30658626556396484,0.005738735198974609,-0.03958612680435181
1.1944277065690165,1.3943240118712374,-1.8207128971858317,-0.2527003288269043,0.5727881193161011,0.7465599179267883,0.3618377149105072,-0.9300054907798767,-0.0645255595445633,-0.2772734761238098,0.002133607864379883,-0.03227628022432327
1.2011730962612779,1.3904025188583655,-1.810110814229762,-0.26892003417015076,0.6129131317138672,0.719835638999939,0.3554019033908844,-0.932463526725769,-0.0648169219493866,-0.23276707530021667,-0.007111668586730957,-0.016192078590393066
1.2078382476697567,1.3857666567749791,-1.7984734561896956,-0.3098905086517334,0.6285406351089478,0.7428032159805298,0.3489808440208435,-0.9348506927490234,-0.06531894207000732,-0.2054261863231659,-0.008111953735351562,-0.0004922747611999512
1.214754837874869,1.3796337506685203,-1.7850710377625283,-0.3547210991382599,0.6540889143943787,0.7887952327728271,0.34221699833869934,-0.937283992767334,-0.06622777879238129,-0.20235499739646912,-0.01050037145614624,0.009892232716083527
1.2218922800535865,1.3722116916541263,-1.7700201394389732,-0.3811119496822357,0.6825338006019592,0.8020997047424316,0.3351495563983917,-0.9397479295730591,-0.06744446605443954,-0.22940614819526672,-0.02097606658935547,9.208172559738159e-05
1.2288304821023002,1.36456145046408,-1.754498548234555,-0.35809051990509033,0.6978131532669067,0.7548949122428894,0.3282339572906494,-0.9420972466468811,-0.0686696320772171,-0.2785055935382843,-0.026271402835845947,-0.025507695972919464
1.2351470705319927,1.3580589338601778,-1.7402799627236427,-0.29686176776885986,0.6744454503059387,0.6682054400444031,0.32195714116096497,-0.9441966414451599,-0.06954462826251984,-0.31774574518203735,-0.03662306070327759,-0.05243420600891113
1.2405483926647716,1.3535555690207572,-1.7286692927135354,-0.213360995054245,0.6107881665229797,0.5478004813194275,0.31665560603141785,-0.9459619522094727,-0.0698934867978096,-0.3376975357532501,-0.04897207021713257,-0.0667489692568779
1.24493145935023,1.3510556187467515,-1.719914566389231,-0.15029136836528778,0.5440710783004761,0.4327153265476227,0.31243035197257996,-0.9473742246627808,-0.06978043913841248,-0.3389349579811096,-0.05047422647476196,-0.05959891527891159
1.2484785656629784,1.3497814356947153,-1.7131029404550784,-0.12281394004821777,0.49223557114601135,0.35609644651412964,0.30906006693840027,-0.9485037922859192,-0.06944125890731812,-0.30329233407974243,-0.040097713470458984,-0.037202462553977966
1.2514681925985027,1.348323246044295,-1.7065965177300442,-0.1467302292585373,0.44965091347694397,0.31976091861724854,0.30619150400161743,-0.9494465589523315,-0.06926591694355011,-0.2494746744632721,-0.028153419494628906,-0.008721821010112762
1.2541913190429101,1.3456455092580948,-1.699173324752786,-0.1860925555229187,0.42216309905052185,0.31698617339134216,0.30348366498947144,-0.9502978920936584,-0.06950810551643372,-0.19426128268241882,-0.013416588306427002,0.01677364856004715
1.257059951384649,1.3411752839879754,-1.6902172614215076,-0.217151939868927,0.3842002749443054,0.3685894310474396,0.3005141019821167,-0.9511871337890625,-0.07024326175451279,-0.1363600790500641,0.00836193561553955,0.019248314201831818
1.260566660932875,1.3352058270046754,-1.6802697740807213,-0.20994728803634644,0.30564072728157043,0.4577653706073761,0.29684460163116455,-0.9522634744644165,-0.07125699520111084,-0.07621783018112183,0.030235886573791504,0.0040114521980285645
1.2651521047718743,1.3279233198961822,-1.6700249092108461,-0.17230568826198578,0.1823369562625885,0.5784071087837219,0.2920762002468109,-0.9536532759666443,-0.07236594706773758,-0.0315324068069458,0.04180335998535156,-0.018057703971862793
1.2709770183277276,1.3195860372255193,-1.6600656065100379,-0.11720515042543411,0.05556861311197281,0.6880319118499756,0.28607723116874695,-0.9553898572921753,-0.07341643422842026,-0.015996694564819336,0.04672902822494507,-0.03640114516019821
1.2778164355441028,1.3107705668302798,-1.650571546234446,-0.07596932351589203,0.0104250218719244,0.7673901319503784,0.2790978252887726,-0.9573875069618225,-0.07425373047590256,-0.03538444638252258,0.040563225746154785,-0.05178391933441162
1.285240501159323,1.3020968871926544,-1.6411341878965666,-0.055362313985824585,0.0743187889456749,0.7917050123214722,0.27158257365226746,-0.9595052003860474,-0.07478255778551102,-0.07587340474128723,0.038332223892211914,-0.06550680845975876
1.2926451720800332,1.2948230948957453,-1.6322526413509622,-0.017083795741200447,0.17072801291942596,0.7551752328872681,0.26418840885162354,-0.9615647196769714,-0.07481805235147476,-0.12649309635162354,0.03976607322692871,-0.07926523685455322
1.2995220012424384,1.28995384075152,-1.625102131933272,0.024100126698613167,0.22200611233711243,0.6683386564254761,0.257461279630661,-0.9634302258491516,-0.07426900416612625,-0.160140722990036,0.03542119264602661,-0.08060777187347412
1.3056875495866804,1.287136906378296,-1.6199203884890443,0.05400758609175682,0.20519611239433289,0.5923903584480286,0.2515435516834259,-0.9650639891624451,-0.0733301118016243,-0.1515985131263733,0.024085044860839844,-0.054233431816101074
1.3114739321965942,1.284730004358318,-1.6157467132502858,0.05833309143781662,0.1125418096780777,0.5888528823852539,0.2460048794746399,-0.9665639400482178,-0.07235835492610931,-0.10431180894374847,0.003383457660675049,-0.011092059314250946
1.3175800514545635,1.280326024429386,-1.610612275593102,0.03468800336122513,0.0011753235012292862,0.6576254367828369,0.24002420902252197,-0.9681116938591003,-0.071749247610569,-0.03946274518966675,-0.014950931072235107,0.024370677769184113
1.3242974807104628,1.272585240236057,-1.6030258471210246,-0.006467420607805252,-0.0643371045589447,0.7294557094573975,0.23324014246463776,-0.9697726964950562,-0.07169271260499954,-0.013330504298210144,-0.027419626712799072,0.03623122721910477
1.3314166261741995,1.2618334634246116,-1.5925365301060554,-0.047656238079071045,-0.03746090456843376,0.7724390029907227,0.2258729338645935,-0.9714852571487427,-0.07209509611129761,-0.0354585200548172,-0.02735501527786255,0.01908601075410843
1.3386230809021733,1.2492963267035482,-1.5795182856248655,-0.07790814340114594,0.07158195972442627,0.7799805402755737,0.2183033674955368,-0.973168671131134,-0.07270701974630356,-0.07509966194629669,-0.02586996555328369,-0.01735042780637741
1.345582396720958,1.2367336996209186,-1.5651985751144974,-0.08390185236930847,0.19831353425979614,0.7380879521369934,0.21096952259540558,-0.9747463464736938,-0.07322129607200623,-0.12361298501491547,-0.03915435075759888,-0.05278586596250534
1.351994110544449,1.2254729198781347,-1.5511373163691777,-0.0668104887008667,0.28693902492523193,0.6720713973045349,0.2042468786239624,-0.9761581420898438,-0.07347531616687775,-0.15976756811141968,-0.05889129638671875,-0.06684458255767822
1.35788298841067,1.216500376756219,-1.5387951771917754,-0.023971697315573692,0.32157784700393677,0.610923171043396,0.1981840580701828,-0.9774194359779358,-0.07330918312072754,-0.1700621247291565,-0.08588922023773193,-0.07360249757766724
1.3633509031350262,1.2101043516590584,-1.5291317577418868,0.031007133424282074,0.2832834720611572,0.5528382658958435,0.19270767271518707,-0.9785602688789368,-0.07268799841403961,-0.16786642372608185,-0.10017508268356323,-0.06833373755216599
1.3684298916828537,1.2059292681162803,-1.522338777039751,0.07022617012262344,0.20366933941841125,0.49411332607269287,0.18775753676891327,-0.9795936942100525,-0.07171769440174103,-0.16435056924819946,-0.10304790735244751,-0.04582083225250244
1.3730251065099006,1.2030371518310399,-1.5177999857866002,0.08933541178703308,0.1102302148938179,0.4260866045951843,0.1833467334508896,-0.980506956577301,-0.07064119726419449,-0.14741232991218567,-0.10588830709457397,-0.015418410301208496
1.3770319727218454,1.2014411493300081,-1.5153286725937114,0.10750962793827057,0.061916742473840714,0.3585429787635803,0.17956803739070892,-0.981286346912384,-0.06951465457677841,-0.1311214417219162,-0.11073929071426392,-0.008976571261882782
1.380714227264668,1.2014335240411662,-1.5144024587081073,0.12772727012634277,0.13907144963741302,0.35026800632476807,0.17619657516479492,-0.9819887280464172,-0.06821103394031525,-0.095553919672966,-0.09851658344268799,-0.033824555575847626
1.3846786061519394,1.202922248955332,-1.5137494040108384,0.1282816082239151,0.28064265847206116,0.39872318506240845,0.17266422510147095,-0.9827300310134888,-0.06654814630746841,-0.052837029099464417,-0.09072571992874146,-0.06347202509641647
1.3889285075259017,1.2044675981193547,-1.5118281564658353,0.11326698213815689,0.4001951515674591,0.40927037596702576,0.1688665896654129,-0.9835075736045837,-0.06478492170572281,-0.0804419070482254,-0.09666216373443604,-0.06375516206026077
1.3930372689276806,1.2069413459197145,-1.5100813487468439,0.1267501562833786,0.4110269844532013,0.3751698434352875,0.1652478575706482,-0.9842424392700195,-0.06292811036109924,-0.11904427409172058,-0.10038280487060547,-0.044127583503723145
1.3968074999067572,1.211356529952614,-1.5109661125868457,0.1716470569372177,0.282161146402359,0.31838458776474,0.16204947233200073,-0.9849020838737488,-0.0608922615647316,-0.13519400358200073,-0.10237812995910645,-0.030507922172546387
1.4001998478434061,1.2181910940204153,-1.5157195412766529,0.2107088565826416,0.15600065886974335,0.2556149363517761,0.15932542085647583,-0.985483705997467,-0.058629151433706284,-0.13514026999473572,-0.11345428228378296,-0.026362359523773193
1.4029388659331745,1.2266339668724906,-1.5230210290244228,0.2036016881465912,0.10272358357906342,0.1719658523797989,0.15727344155311584,-0.9859449863433838,-0.0563710518181324,-0.14778250455856323,-0.11189436912536621,-0.011225461959838867
1.404800507131412,1.235777659690112,-1.5311178545848743,0.1699507236480713,0.13707998394966125,0.09053121507167816,0.15604861080646515,-0.9862542748451233,-0.05432708188891411,-0.15401922166347504,-0.09681463241577148,0.00824546068906784
1.4057812234808416,1.2444171287945784,-1.5382106955044064,0.11234921216964722,0.19030512869358063,0.021282371133565903,0.155594602227211,-0.9864158630371094,-0.052666325122117996,-0.14285355806350708,-0.0880468487739563,0.016060423105955124
1.4059959142295415,1.2513615023821665,-1.5430119281191894,0.050467297434806824,0.2527707815170288,-0.029569070786237717,0.155756413936615,-0.9864510893821716,-0.05151834711432457,-0.11875391006469727,-0.08569246530532837,0.02458655834197998
1.405648361773552,1.2561494759605427,-1.5450588665681864,-0.007301460485905409,0.3010256886482239,-0.05413087084889412,0.15632665157318115,-0.9863940477371216,-0.0508778914809227,-0.09242285788059235,-0.08181262016296387,0.02518201619386673
1.4049833309114976,1.2586020854921163,-1.5441958041077646,-0.05772564932703972,0.3558179438114166,-0.059773556888103485,0.15707513689994812,-0.9862844944000244,-0.05069578066468239,-0.07820253074169159,-0.06716692447662354,0.01703483611345291
1.404237406671057,1.2590862334147783,-1.5411660726868521,-0.07889191806316376,0.32515591382980347,-0.05083518847823143,0.15780074894428253,-0.9861611127853394,-0.05084562674164772,-0.07039842009544373,-0.06347572803497314,0.010837078094482422
1.403562198690828,1.2584636778337748,-1.5377010268789786,-0.06883667409420013,0.2279990166425705,-0.04088504612445831,0.15840256214141846,-0.9860489368438721,-0.051148414611816406,-0.06746023893356323,-0.06677699089050293,0.01236051321029663
1.403012405862572,1.2575969837798613,-1.535012250787685,-0.049418769776821136,0.12861622869968414,-0.04048370569944382,0.15887442231178284,-0.9859572649002075,-0.0514528714120388,-0.07331839203834534,-0.07014930248260498,0.006851375102996826
1.4024284650984802,1.2577812717288013,-1.5342399378027982,-0.009470642544329166,0.060623276978731155,-0.06718308478593826,0.15943069756031036,-0.9858595728874207,-0.051600564271211624,-0.09091876447200775,-0.06615757942199707,-0.004200872033834457
1.401637471596853,1.260472828727911,-1.5366114935216277,0.03838210180401802,0.009474337100982666,-0.10551715642213821,0.16031163930892944,-0.9857267141342163,-0.051409415900707245,-0.10307596623897552,-0.059790194034576416,-0.014386530965566635
1.40063499868844,1.2656468207419609,-1.5419233692193763,0.06805163621902466,-0.014497580006718636,-0.13830791413784027,0.16151763498783112,-0.9855574369430542,-0.05087604746222496,-0.09819371998310089,-0.05234527587890625,-0.013653390109539032
1.3993018186423072,1.2726607771373752,-1.5490904016063913,0.08398506790399551,0.004242817871272564,-0.18686479330062866,0.16312676668167114,-0.9853308200836182,-0.05012797191739082,-0.09557613730430603,-0.042989492416381836,-0.006116032600402832
1.3975499173595782,1.2806031312960369,-1.55706722305997,0.07870384305715561,0.011781471781432629,-0.22427687048912048,0.1651736944913864,-0.9850303530693054,-0.04932469502091408,-0.09557837247848511,-0.031327128410339355,0.001457810401916504
1.3955615161479906,1.288415517391832,-1.5647712464222818,0.060860928148031235,0.03499145060777664,-0.23332735896110535,0.16743451356887817,-0.9846855998039246,-0.0485784076154232,-0.07215869426727295,-0.013513803482055664,0.015024304389953613
1.3934543475705738,1.2946015623047569,-1.5707023681011543,0.02551356516778469,0.03008716180920601,-0.2365463674068451,0.16972725093364716,-0.9843161106109619,-0.04810731112957001,-0.04797740280628204,-0.01606529951095581,0.024776581674814224
1.3912386126367215,1.2989296816047078,-1.574951226627017,0.000615938100963831,-0.008831741288304329,-0.2353290319442749,0.17203432321548462,-0.9839227795600891,-0.04795780032873154,-0.03436955809593201,-0.013666212558746338,0.027449972927570343
1.3891052743374857,1.3013069538243738,-1.5777821195885955,-0.016384510323405266,-0.07260258495807648,-0.2178882360458374,0.1741715371608734,-0.9835395216941833,-0.048107653856277466,-0.01642616093158722,-0.006969571113586426,0.02230500429868698
1.3870427136965935,1.3021224496721426,-1.579503155611418,-0.03428388386964798,-0.09136296063661575,-0.21275579929351807,0.17616593837738037,-0.9831647276878357,-0.04850393906235695,-0.008563429117202759,-0.008290290832519531,0.013134002685546875
1.3849157823476674,1.3018553710732452,-1.579927762341281,-0.06328554451465607,-0.0389435701072216,-0.22091786563396454,0.1781679093837738,-0.9827739000320435,-0.04910633713006973,-0.016501113772392273,-0.0016925334930419922,-0.0012172386050224304
1.3826192696322082,1.3008068026605597,-1.578883468397298,-0.09627065807580948,0.037530697882175446,-0.2337425798177719,0.18029077351093292,-0.9823468923568726,-0.04989490285515785,-0.012077957391738892,0.008607447147369385,-0.0044875070452690125
1.3802408144186804,1.2994587876949852,-1.5766825223710261,-0.11084456741809845,0.11970165371894836,-0.21386851370334625,0.18247514963150024,-0.9818991422653198,-0.05076434090733528,0.005619913339614868,0.012660861015319824,-0.008668720722198486
1.3779861080447624,1.2973044818448027,-1.5730712531536113,-0.15269720554351807,0.15062521398067474,-0.19776305556297302,0.1844959408044815,-0.9814696311950684,-0.05175500363111496,0.019864976406097412,0.01911306381225586,-0.005404472351074219
1.3756796143952827,1.2909067929387434,-1.5652689581175179,-0.272169291973114,0.09995593875646591,-0.1552327573299408,0.18633674085140228,-0.9810250401496887,-0.05355964973568916,0.042346686124801636,0.01596766710281372,0.06846737861633301
1.3737623479941226,1.2772767050415519,-1.550385009567662,-0.38761013746261597,0.09624481946229935,-0.052420102059841156,0.18738925457000732,-0.9806514978408813,-0.05663837864995003,0.08342370390892029,0.014693915843963623,0.09274065494537354
1.3722829366862288,1.2589031704749782,-1.530570062068889,-0.42986342310905457,0.11349572986364365,-0.006027351599186659,0.18769775331020355,-0.9803608655929565,-0.06051679328083992,0.07188475131988525,0.017744898796081543,0.04182469844818115
1.3710350101487807,1.2407236508256132,-1.5109251489514741,-0.3739359676837921,0.09307914227247238,0.011289054527878761,0.18772363662719727,-0.9801139831542969,-0.06431525200605392,0.023641079664230347,0.017299652099609375,-0.034790635108947754
1.3700415670776682,1.2260556843236776,-1.4954247829971996,-0.2625236511230469,0.006119819357991219,0.003600007388740778,0.18767619132995605,-0.9799163341522217,-0.06739071756601334,-0.0024345368146896362,0.017330944538116455,-0.08530401438474655
1.3693437636102057,1.2170323729440795,-1.4865336826506652,-0.11267905682325363,-0.062375884503126144,-0.014054886996746063,0.18770171701908112,-0.9797769784927368,-0.06931822001934052,-0.01967199146747589,0.021479308605194092,-0.11732732504606247
1.3689765996629608,1.2158988340915116,-1.4861097203428257,0.08134407550096512,-0.07867953181266785,-0.04872959107160568,0.18796013295650482,-0.979703426361084,-0.0696558728814125,-0.03778320550918579,0.031354546546936035,-0.16572630405426025
1.3690461829792142,1.2249815644576767,-1.4963192551278068,0.30975595116615295,-0.10997886955738068,-0.0755779817700386,0.188522070646286,-0.9797173738479614,-0.06792314350605011,-0.04724091291427612,0.044017791748046875,-0.21775197982788086
1.3695153034827425,1.2425979870972843,-1.5159424775819352,0.4378757178783417,-0.22368407249450684,-0.09804779291152954,0.1892540007829666,-0.9798112511634827,-0.06444346159696579,-0.03515547513961792,0.03054666519165039,-0.1826116442680359
1.3699212011635493,1.2617673652168861,-1.5385865309865772,0.4327278137207031,-0.3721641004085541,-0.09883102774620056,0.1900750994682312,-0.9798923134803772,-0.060682836920022964,-0.026531457901000977,-0.0007442235946655273,-0.05507040023803711
1.3703182045957774,1.2772921822601206,-1.558724081994342,0.3490521013736725,-0.45995110273361206,-0.05697409436106682,0.19062165915966034,-0.9799714684486389,-0.05761215090751648,0.008352890610694885,0.006140351295471191,0.038584355264902115
1.370867713586127,1.286267909214453,-1.5728176266471086,0.21293233335018158,-0.49839410185813904,0.0038983100093901157,0.19061437249183655,-0.980080783367157,-0.05574776604771614,0.04327228665351868,0.003945529460906982,0.07492798566818237
1.3716084865305977,1.2866132837265105,-1.578167548085836,0.02957206219434738,-0.4648023247718811,0.08028007298707962,0.18993684649467468,-0.9802275896072388,-0.05547841265797615,0.05753016471862793,0.00799858570098877,0.09200787544250488
1.3725790075610984,1.2776437121456827,-1.5733951070043448,-0.15357166528701782,-0.39274731278419495,0.15816769003868103,0.18852075934410095,-0.9804191589355469,-0.0569048747420311,0.06935274600982666,0.023693084716796875,0.10796070098876953
1.3736963246103477,1.259770841311478,-1.5589217828098862,-0.3207956850528717,-0.34233611822128296,0.22034935653209686,0.18643073737621307,-0.9806386232376099,-0.05992975831031799,0.07409778237342834,0.019640088081359863,0.1067284345626831
1.3747475152017619,1.2338161005849932,-1.535647791605871,-0.4674610495567322,-0.2819119095802307,0.26425421237945557,0.18383973836898804,-0.9808439016342163,-0.06440693885087967,0.06896784901618958,0.007211089134216309,0.0976557731628418
1.3754718790822946,1.2020759195987367,-1.5058852347991623,-0.5613454580307007,-0.2259317934513092,0.2654336392879486,0.18104013800621033,-0.9809847474098206,-0.06995242089033127,0.0458122193813324,0.011395573616027832,0.07311093807220459
