attitudeX,attitudeY,attitudeZ,gyroX,gyroY,gyroZ,gravityX,gravityY,gravityZ,accX,accY,accZ
1.4035739372070746,0.7961739533877762,-1.2758673428816916,0.0827597975730896,0.10235562175512314,0.24942518770694733,0.1189555749297142,-0.9860509037971497,-0.11641912907361984,0.1327229142189026,0.012250185012817383,-0.17569500207901
1.4066402987982112,0.7932131691394947,-1.271390889507706,0.23752902448177338,0.18089601397514343,0.2880224585533142,0.11645562946796417,-0.9865566492080688,-0.11464950442314148,0.1660608947277069,0.006560683250427246,-0.21414674818515778
1.4109612403749878,0.7963679799926012,-1.27269807282851,0.3910648226737976,0.18288831412792206,0.2990727126598358,0.11376819759607315,-0.9872535467147827,-0.11129914969205856,0.17816299200057983,-0.013860523700714111,-0.23695208132266998
1.416316565992169,0.8049592785870123,-1.2793931573350232,0.4978148639202118,0.21905972063541412,0.3215305805206299,0.11090691387653351,-0.9880917072296143,-0.1066507026553154,0.20131844282150269,-0.021917998790740967,-0.23407791554927826
1.422644193752651,0.8177932179578054,-1.2897367133398487,0.6023053526878357,0.3021269142627716,0.38555189967155457,0.10770297050476074,-0.9890455603599548,-0.10094156116247177,0.25655487179756165,-0.02114737033843994,-0.22989940643310547
1.4303592008298587,0.8338880006865993,-1.3025949920596425,0.7054581046104431,0.3624776005744934,0.4982052147388458,0.10365954041481018,-0.9901549220085144,-0.09406441450119019,0.3359309434890747,-0.01637589931488037,-0.22814005613327026
1.4394906350810284,0.8514695691636899,-1.316466369130327,0.7827715277671814,0.4080674648284912,0.6129056811332703,0.0984913632273674,-0.9913917779922485,-0.08626636862754822,0.4066661298274994,-0.004289984703063965,-0.21321779489517212
1.4499552927607948,0.870412430446193,-1.3309593082218325,0.8551670908927917,0.5074842572212219,0.7354839444160461,0.09217119216918945,-0.9927076101303101,-0.07769522815942764,0.4592204689979553,-0.0007465481758117676,-0.19829034805297852
1.4620129626775973,0.8924683118951711,-1.3474488280350825,0.9635803699493408,0.6229381561279297,0.8827894926071167,0.08453527092933655,-0.9940889477729797,-0.06812695413827896,0.5291122198104858,0.00711977481842041,-0.2006564736366272
1.475978632391017,0.9195670586609951,-1.3678719555572905,1.078721284866333,0.7238274812698364,1.0552595853805542,0.07529997825622559,-0.9955081939697266,-0.05738956853747368,0.6073324680328369,0.02138698101043701,-0.20338302850723267
1.4919699501364414,0.952121586174135,-1.3929189456153739,1.1508718729019165,0.7898097038269043,1.2553657293319702,0.06414969265460968,-0.9968948364257812,-0.0456688217818737,0.6714765429496765,0.043357789516448975,-0.18438786268234253
1.509870538349625,0.9885071285100887,-1.4211117110895044,1.1866399049758911,0.8599529266357422,1.4686610698699951,0.050855979323387146,-0.9981446266174316,-0.03348587453365326,0.7152878642082214,0.06250607967376709,-0.144858717918396
1.5296617621218231,1.029670984498167,-1.4532017958583983,1.185457706451416,0.9587681889533997,1.689915657043457,0.03524947538971901,-0.9991540908813477,-0.02118353545665741,0.7411177158355713,0.07155698537826538,-0.10752421617507935
1.5510180234355073,1.0841875826814855,-1.4974844387586648,1.1456050872802734,1.0867443084716797,1.8848577737808228,0.017487091943621635,-0.9998044371604919,-0.009251369163393974,0.7508540153503418,0.07567101716995239,-0.07326805591583252
1.5676037156135108,-2.2966203977629713,1.8948666981348818,1.108047604560852,1.2156370878219604,2.0868887901306152,-0.002399224555119872,-0.9999948740005493,0.0021291321609169245,0.7522466778755188,0.07746374607086182,-0.0474933385848999
1.5432764363258225,-2.0574775488776638,1.668634337621235,1.0695852041244507,1.359739899635315,2.255281686782837,-0.024323534220457077,-0.9996213316917419,0.01287037692964077,0.745118260383606,0.07806676626205444,-0.028251171112060547
1.5178638347889373,-2.018684656254674,1.6442945827414837,1.0388717651367188,1.5360984802246094,2.343008041381836,-0.047689780592918396,-0.9985994100570679,0.022912712767720222,0.7141784429550171,0.0765870213508606,-0.01575625129044056
1.4921893530793469,-1.992308582477715,1.6345774280768912,1.001437783241272,1.7961114645004272,2.3439974784851074,-0.07165209203958511,-0.9969120621681213,0.03212790936231613,0.6513335108757019,0.07860767841339111,-0.006904963403940201
1.4668954213607006,-1.970735874712907,1.6324124841675882,0.9778683185577393,2.068164587020874,2.2871692180633545,-0.09553081542253494,-0.994607150554657,0.04038297384977341,0.5905411839485168,0.06234085559844971,-0.004356861114501953
1.4423979664160012,-1.952970762364345,1.636632596041971,0.9810081720352173,2.305753231048584,2.1848299503326416,-0.11880863457918167,-0.9917682409286499,0.04775349423289299,0.5602148771286011,0.04874449968338013,-0.010277748107910156
1.418894177901399,-1.9385007029260681,1.6465194791572406,0.9952872395515442,2.5257458686828613,2.0829789638519287,-0.1412038952112198,-0.9884850382804871,0.05439520627260208,0.5301046967506409,0.04874199628829956,-0.015607241541147232
1.3960334291051804,-1.9242103558070764,1.6586653621513021,0.9693394899368286,2.7112791538238525,2.04972243309021,-0.16312913596630096,-0.9847677946090698,0.06017870828509331,0.5277531743049622,0.04534512758255005,-0.009946703910827637
1.373497357953399,-1.904333220280291,1.6671767275608136,0.8294385671615601,2.919595718383789,2.08842134475708,-0.18521851301193237,-0.9805996417999268,0.06417479366064072,0.5544964671134949,0.03623324632644653,0.018619529902935028
1.3505469358418336,-1.8751512404626682,1.6679747166599104,0.6326876282691956,3.0384528636932373,2.262843132019043,-0.20843210816383362,-0.9758430123329163,0.06547151505947113,0.602139413356781,0.04208141565322876,0.04484974592924118
1.3260710891912173,-1.837736198616968,1.6607181919398062,0.4157686233520508,2.98992919921875,2.516589403152466,-0.23370876908302307,-0.9702039361000061,0.06391149759292603,0.6529592275619507,0.05714845657348633,0.0518876314163208
1.2994467856733531,-1.7944981820498735,1.6461400591732627,0.1496719866991043,2.8139142990112305,2.8217856884002686,-0.2613533139228821,-0.9634100794792175,0.05946039780974388,0.6753243207931519,0.06881779432296753,0.04712235555052757
1.2698659553547278,-1.7469122402597725,1.6251000032544385,-0.14268158376216888,2.6516847610473633,3.20066237449646,-0.2918238639831543,-0.955061137676239,0.05193287134170532,0.6928553581237793,0.10697770118713379,0.026512734591960907
1.2365069248500429,-1.6966825671038737,1.5996021846979704,-0.42215263843536377,2.5399186611175537,3.61322021484375,-0.3255021870136261,-0.9446436762809753,0.04119408503174782,0.7111527919769287,0.15962469577789307,-0.02018260955810547
1.1989617141633433,-1.6464829668625027,1.5727423757167731,-0.6594080328941345,2.4381158351898193,4.021712303161621,-0.3622854948043823,-0.931662380695343,0.02747265063226223,0.7021139860153198,0.21700167655944824,-0.0871344804763794
1.1570561120368488,-1.59938169805027,1.5476226795718013,-0.810225784778595,2.3163645267486572,4.424084663391113,-0.4018726348876953,-0.9156235456466675,0.011490807868540287,0.6609821319580078,0.2744033932685852,-0.1707160472869873
1.1107470496334848,-1.5580387762422918,1.5264456263001822,-0.8984602689743042,2.0774834156036377,4.8404364585876465,-0.4439561069011688,-0.896030604839325,-0.0056640999391674995,0.6071488857269287,0.3353006839752197,-0.26287513971328735
1.0598953952959334,-1.5243102911513962,1.5099483200831683,-0.9313429594039917,1.7250497341156006,5.248768329620361,-0.48843517899513245,-0.8723043203353882,-0.022721784189343452,0.5545667409896851,0.4017537832260132,-0.34893643856048584
1.0049527108308893,-1.4992789414790346,1.4985055161644703,-0.8722623586654663,1.2923434972763062,5.621304988861084,-0.5347580313682556,-0.8441365957260132,-0.03830983117222786,0.47587424516677856,0.46393322944641113,-0.4295245409011841
0.9463594967117324,-1.483238081123563,1.4924269525288476,-0.7240344285964966,0.9211541414260864,5.956588268280029,-0.5824010968208313,-0.8112925291061401,-0.05112473666667938,0.4009130001068115,0.5475441813468933,-0.5017773509025574
0.8851218044299093,-1.474319637808821,1.491592219217805,-0.4885593354701996,0.7371882796287537,6.1742401123046875,-0.630250871181488,-0.773992121219635,-0.060993876308202744,0.29802119731903076,0.6289114952087402,-0.57783043384552
0.8227002554703366,-1.4709340063170047,1.4959395993133182,-0.15705733001232147,0.5836583375930786,6.248297691345215,-0.6768555641174316,-0.7329853177070618,-0.06781795620918274,0.12898868322372437,0.6981799602508545,-0.6467357873916626
0.7609365723217956,-1.4720046688761552,1.5051669208373482,0.2307327538728714,0.5355635285377502,6.097862243652344,-0.7206593751907349,-0.6895999908447266,-0.07142765820026398,-0.07333171367645264,0.7592258453369141,-0.6845536828041077
0.7024694901740253,-1.4748657397026859,1.518835109071622,0.6622840166091919,0.737269401550293,5.66262674331665,-0.7597396969795227,-0.6461045145988464,-0.07310666888952255,-0.3563033938407898,0.7933823466300964,-0.7240123152732849
0.6500883061434582,-1.4769088598727045,1.5365957991306947,1.1043061017990112,1.0760643482208252,4.960623741149902,-0.7925246357917786,-0.6052566766738892,-0.07462753355503082,-0.6910111904144287,0.8086563348770142,-0.752337634563446
0.6063627779862766,-1.4771073988773995,1.558546860298287,1.6159710884094238,1.4497815370559692,4.024962902069092,-0.8181226849555969,-0.5698824524879456,-0.07687409222126007,-1.0138782262802124,0.8051576018333435,-0.7479091286659241
0.5732773277613651,-1.4757872807952181,1.585114014069261,2.1429660320281982,1.735008955001831,2.947226047515869,-0.8363390564918518,-0.5423883199691772,-0.07969973236322403,-1.316737174987793,0.7957452535629272,-0.7444425821304321
0.5515663900862472,-1.473881296583969,1.6157021859895737,2.5621023178100586,1.8752113580703735,1.861187219619751,-0.8477082252502441,-0.5240219831466675,-0.08241385221481323,-1.5566803216934204,0.7832840085029602,-0.6844317317008972
0.5407657509944497,-1.472189938723254,1.648948554678609,2.8506343364715576,1.8753960132598877,0.8515961766242981,-0.8531503081321716,-0.5147926211357117,-0.08439978957176208,-1.6999046802520752,0.7717353701591492,-0.571666955947876
0.5394344142504144,-1.471954574477737,1.6834154331079079,2.9624009132385254,1.6815184354782104,0.01832650415599346,-0.853811502456665,-0.5136507749557495,-0.0846681296825409,-1.746896505355835,0.7702121138572693,-0.42810332775115967
0.5453909610391022,-1.4738731102129938,1.717038449450466,2.839432716369629,1.379772424697876,-0.6060763597488403,-0.8509122133255005,-0.51875239610672,-0.08273237943649292,-1.6922245025634766,0.7745201587677002,-0.23831242322921753
0.5561245611345809,-1.4777953707611011,1.7474601423781588,2.4785449504852295,1.0006755590438843,-1.0075489282608032,-0.8456372618675232,-0.5278987288475037,-0.07887259870767593,-1.5874683856964111,0.7591608166694641,-0.03135675936937332
0.5693808053995765,-1.4829917589860375,1.7723823886608345,1.924365758895874,0.6157667636871338,-1.2268109321594238,-0.8389905691146851,-0.5391106605529785,-0.07385710626840591,-1.4676196575164795,0.7356285452842712,0.15660560131072998
0.5837672382506459,-1.4879989049528717,1.7900912911351086,1.2659409046173096,0.322918176651001,-1.3741185665130615,-0.8315337896347046,-0.5511711835861206,-0.06900661438703537,-1.38443922996521,0.6859063506126404,0.2941959500312805
0.5989655219268912,-1.491506578765607,1.8000146330967395,0.6289945840835571,0.07261592149734497,-1.519332766532898,-0.8233243823051453,-0.5637883543968201,-0.06541833281517029,-1.3707826137542725,0.6280890107154846,0.3439066410064697
0.6155605239919409,-1.494181829856761,1.8029263795676214,0.12873974442481995,-0.2846684455871582,-1.7544970512390137,-0.8140547871589661,-0.5774162411689758,-0.06249071657657623,-1.4114700555801392,0.6025475859642029,0.3011077642440796
0.6348019187035201,-1.4973447622397607,1.8007327789367051,-0.16437281668186188,-0.5805160999298096,-2.111654043197632,-0.8030180931091309,-0.5930180549621582,-0.059089239686727524,-1.4901185035705566,0.5982823967933655,0.17761963605880737
0.6579331333291688,-1.5010842688836452,1.7960014709356233,-0.22908422350883484,-0.7183730602264404,-2.547285318374634,-0.7893358469009399,-0.6114827394485474,-0.05511553958058357,-1.5439313650131226,0.5936300158500671,-0.0018758662045001984
0.6859175971559197,-1.5057793401766935,1.7911530519600098,-0.14492672681808472,-0.8272220492362976,-3.0813329219818115,-0.7722031474113464,-0.6333833336830139,-0.05027718469500542,-1.5495436191558838,0.5896517038345337,-0.17906224727630615
0.7195459260886151,-1.5124022803515607,1.7875733050611764,0.03363758698105812,-0.9406766295433044,-3.637561798095703,-0.7508231997489929,-0.6590432524681091,-0.04389350861310959,-1.5632179975509644,0.5831001996994019,-0.31023234128952026
0.7587147228514167,-1.5218525032407912,1.7871762638010857,0.3388108015060425,-0.9995626211166382,-4.1577324867248535,-0.7248519062995911,-0.6879892349243164,-0.03550538048148155,-1.5166795253753662,0.5985727310180664,-0.4122025966644287
0.8027699775114905,-1.5356063308094028,1.791494369691773,0.6292552351951599,-1.1540570259094238,-4.57043981552124,-0.6942869424819946,-0.7192832231521606,-0.024442045018076897,-1.4010499715805054,0.6131736040115356,-0.491579532623291
0.8502740120070436,-1.5550404815947672,1.8002804130246883,0.7863801121711731,-1.444535732269287,-4.852147579193115,-0.6596956849098206,-0.7514612078666687,-0.010394923388957977,-1.2400541305541992,0.6311302185058594,-0.5018272399902344
0.8999555485158359,-1.5809320520721715,1.8129137974977065,0.8496341705322266,-1.7867989540100098,-5.035917282104492,-0.621613085269928,-0.7832992672920227,0.006300715263932943,-1.0800318717956543,0.6445357799530029,-0.48945486545562744
0.9509039485305086,-1.6138346223532196,1.8295774009108332,0.8799737095832825,-2.1091272830963135,-5.166891574859619,-0.5804097056388855,-0.8139410018920898,0.02499527856707573,-0.9422954320907593,0.6616430282592773,-0.5014966726303101
1.002689307278692,-1.6544753762756912,1.8517191294688968,0.9394848346710205,-2.319988965988159,-5.289613723754883,-0.5361550450325012,-0.8429209589958191,0.04496995732188225,-0.8394553661346436,0.675669252872467,-0.5335867404937744
1.054807702329534,-1.704511833512345,1.8817863042641754,1.0062623023986816,-2.518328905105591,-5.3699049949646,-0.4889907240867615,-0.8698053359985352,0.06577814370393753,-0.736915647983551,0.6829919815063477,-0.5679905414581299
1.1065591197854192,-1.7665613564890563,1.9223774099761546,1.0623536109924316,-2.705355167388916,-5.429171085357666,-0.43918880820274353,-0.8941633701324463,0.08709324896335602,-0.6263477206230164,0.7014753222465515,-0.5950734615325928
1.1571671663362988,-1.8438597440114752,1.976963336446922,1.0920965671539307,-2.8358640670776367,-5.448986530303955,-0.387043297290802,-0.9156681895256042,0.10839495807886124,-0.5185658931732178,0.7176395654678345,-0.6222497224807739
1.205623666949004,-1.9401629438481578,2.0499587478980787,1.105231523513794,-2.884716749191284,-5.455417633056641,-0.3330261707305908,-0.934062123298645,0.12892597913742065,-0.40260007977485657,0.7274884581565857,-0.6507002115249634
1.2506157791177803,-2.0623187797008633,2.1489380744821194,1.191144585609436,-2.8674793243408203,-5.450434684753418,-0.27747780084609985,-0.9491786360740662,0.14854644238948822,-0.27814048528671265,0.7303676009178162,-0.6939411163330078
1.2897592588692115,-2.2202630599435826,2.2843517838292984,1.3303401470184326,-2.826949119567871,-5.411235332489014,-0.22088578343391418,-0.9607683420181274,0.16773255169391632,-0.1405339241027832,0.7424301505088806,-0.7490617036819458
1.3197358410114233,-2.4219614127496607,2.4641943894842324,1.5059159994125366,-2.770129919052124,-5.367842674255371,-0.16374357044696808,-0.9686495065689087,0.1868332177400589,-0.021467670798301697,0.7557281255722046,-0.7866407036781311
1.3365536626353287,-2.6661423891172245,2.6874110625329113,1.748543381690979,-2.705174684524536,-5.32021427154541,-0.10624410212039948,-0.9726904034614563,0.20636269450187683,0.06823444366455078,0.7691534161567688,-0.8104275465011597
1.3369786445909617,-2.928033843177954,2.928772973585585,1.9151318073272705,-2.687337875366211,-5.176164150238037,-0.049104899168014526,-0.97278892993927,0.22642992436885834,0.17880460619926453,0.7879591584205627,-0.8014878034591675
1.322294153955584,3.114193212831143,-3.134189544595779,1.9485242366790771,-2.7030036449432373,-4.975170135498047,0.006738108117133379,-0.9692819118499756,0.24585983157157898,0.3032136559486389,0.7754496335983276,-0.735270082950592
1.296430769777279,2.914864468348493,-2.955540889107176,1.9873403310775757,-2.5885117053985596,-4.795919418334961,0.06090395525097847,-0.9625973105430603,0.2640022933483124,0.39505916833877563,0.7601436972618103,-0.6673071384429932
1.2628514552466783,2.7599571755182986,-2.819890176613783,2.0679078102111816,-2.386967658996582,-4.609929084777832,0.11288673430681229,-0.9529584646224976,0.2812953591346741,0.4703194499015808,0.7600719928741455,-0.6300042867660522
1.2242818166245812,2.6427580272666926,-2.720584905075043,2.169063091278076,-2.223909854888916,-4.414819717407227,0.16247577965259552,-0.9405621886253357,0.2982354462146759,0.5425718426704407,0.7494611144065857,-0.570131778717041
1.183094021724254,2.5547144051862336,-2.649346328059604,2.2224009037017822,-2.0696423053741455,-4.185651779174805,0.20935755968093872,-0.925780177116394,0.3148026466369629,0.6073386073112488,0.7375019192695618,-0.49363553524017334
1.1413373586458082,2.488630375842387,-2.599150170729395,2.243785858154297,-1.9205152988433838,-3.8921115398406982,0.2529677152633667,-0.9091911315917969,0.33072468638420105,0.6920243501663208,0.7160301804542542,-0.4041346609592438
1.1005455452207291,2.438685449607196,-2.5643747514855773,2.196427345275879,-1.8047502040863037,-3.571824312210083,0.2929075360298157,-0.8914546966552734,0.3457072973251343,0.777023434638977,0.677404522895813,-0.2832377254962921
1.0619634781452363,2.39934959111676,-2.5400469225676203,2.062453031539917,-1.7561701536178589,-3.2254538536071777,0.3292914032936096,-0.8733136653900146,0.35901373624801636,0.8343439102172852,0.6345745325088501,-0.15039536356925964
1.0266355618385283,2.3673410095844516,-2.52308672139896,1.8740445375442505,-1.6974631547927856,-2.85341477394104,0.36196646094322205,-0.8555620908737183,0.3701270818710327,0.9073511958122253,0.581437885761261,-0.019678354263305664
0.9954188728784267,2.340678153864033,-2.5108933176603334,1.6031224727630615,-1.5388381481170654,-2.4640307426452637,0.3906971216201782,-0.8389869928359985,0.3787570595741272,0.9889720678329468,0.5198646187782288,0.10689985752105713
0.9689086305496966,2.318977899688929,-2.502106736062349,1.3346271514892578,-1.3311741352081299,-2.0423309803009033,0.4149831235408783,-0.8242682814598083,0.38518965244293213,1.0767771005630493,0.46495431661605835,0.20466956496238708
0.9472616032011196,2.301800987967584,-2.4962560175536734,1.0764975547790527,-1.1395504474639893,-1.598334550857544,0.43472251296043396,-0.8118195533752441,0.38982802629470825,1.1552281379699707,0.4069427251815796,0.27348703145980835
0.9305363716064257,2.288524472147338,-2.4929407315102226,0.8540842533111572,-0.9889338612556458,-1.1652252674102783,0.4500255286693573,-0.8019405007362366,0.39289766550064087,1.2317829132080078,0.3621211647987366,0.30661115050315857
0.918257235663172,2.2784918483010954,-2.4923140970839532,0.7028992772102356,-0.9123754501342773,-0.7418923377990723,0.46139296889305115,-0.7945446372032166,0.39473533630371094,1.2862114906311035,0.3578073978424072,0.3114110827445984
0.9100476025256193,2.2717648807520074,-2.4945262478812564,0.5669161081314087,-0.7739611268043518,-0.3505285978317261,0.4690069854259491,-0.7895329594612122,0.39581629633903503,1.3228479623794556,0.3356601595878601,0.3353392481803894
0.905583944636832,2.2680560646657875,-2.4987288762644053,0.40959835052490234,-0.6202380061149597,-0.02132118120789528,0.47316864132881165,-0.7867857217788696,0.39633306860923767,1.3284671306610107,0.31585371494293213,0.37289321422576904
0.9042681871747663,2.2671432225454162,-2.5041180090552113,0.27188336849212646,-0.3958015739917755,0.2328745573759079,0.47432413697242737,-0.7859728932380676,0.3965647220611572,1.316401720046997,0.2982408404350281,0.4129905104637146
0.9056507540841291,2.269332659795513,-2.510189496450053,0.11658620834350586,-0.11559204757213593,0.45472148060798645,0.4726218283176422,-0.7868269681930542,0.39690279960632324,1.3031196594238281,0.298545777797699,0.44410067796707153
0.9099105800488978,2.2742210274901966,-2.516308548187196,-0.09755419939756393,0.12592929601669312,0.6747465133666992,0.4681156575679779,-0.7894488573074341,0.3970368206501007,1.2958308458328247,0.30829352140426636,0.48663029074668884
0.9172072280417232,2.281201340687774,-2.5219821835066467,-0.32209596037864685,0.37694448232650757,0.8781875371932983,0.46095359325408936,-0.7939066290855408,0.39652755856513977,1.2950888872146606,0.30020856857299805,0.5271328091621399
0.9275129511356441,2.290487391111281,-2.527267726966801,-0.545160710811615,0.6266791820526123,1.0920405387878418,0.45107463002204895,-0.8001306056976318,0.395376592874527,1.2906551361083984,0.3085993528366089,0.5300690531730652
0.9410080171160093,2.3018563904149785,-2.532411683923365,-0.7828167080879211,0.8109073638916016,1.3271251916885376,0.4384717345237732,-0.8081521987915039,0.39323389530181885,1.2801562547683716,0.32692039012908936,0.517609179019928
0.9577937404480107,2.315153911035305,-2.5378641455623896,-0.9949470162391663,0.9534128904342651,1.5727607011795044,0.42316552996635437,-0.8179242610931396,0.3897829055786133,1.2582309246063232,0.3299940824508667,0.4903441071510315
0.9775434484417757,2.3305870752682467,-2.5443250719581223,-1.1632133722305298,1.0602240562438965,1.795673131942749,0.40530839562416077,-0.8291265368461609,0.38506457209587097,1.2129931449890137,0.33342939615249634,0.44022244215011597
0.9998705828385771,2.348186807690253,-2.5519749228803597,-1.3290657997131348,1.1715648174285889,1.9830900430679321,0.38517630100250244,-0.8414010405540466,0.379056453704834,1.137437343597412,0.3417518734931946,0.38510388135910034
1.024570642557879,2.3676947713029795,-2.560598829690805,-1.513597011566162,1.2640483379364014,2.132260322570801,0.36306920647621155,-0.8544912338256836,0.371517539024353,1.0614608526229858,0.3490743637084961,0.3403352200984955
1.0513275366124313,2.3892034207035646,-2.57004174389205,-1.6769568920135498,1.4101115465164185,2.241826295852661,0.3392452299594879,-0.8680830001831055,0.362414687871933,0.9871860146522522,0.3387863039970398,0.29621583223342896
1.0796669425819079,2.413459693790887,-2.58055525049828,-1.8064243793487549,1.594913363456726,2.3138504028320312,0.31385406851768494,-0.8818007707595825,0.35202765464782715,0.9147989749908447,0.33208751678466797,0.23065999150276184
1.1090510350186304,2.4410779148204793,-2.5925603062790086,-1.8949190378189087,1.787060022354126,2.3479297161102295,0.2871820032596588,-0.8952763080596924,0.34059852361679077,0.8451117277145386,0.33486658334732056,0.15699079632759094
1.138874841820989,2.4724827022934637,-2.606367559744552,-1.9541752338409424,1.9838519096374512,2.332894802093506,0.2596634030342102,-0.9081630706787109,0.3283526301383972,0.7704269886016846,0.34120720624923706,0.08474883437156677
1.1688127064870333,2.507907898251966,-2.6225042372676133,-1.9999300241470337,2.131208896636963,2.324334144592285,0.23166319727897644,-0.9202867150306702,0.3152851462364197,0.7008472084999084,0.34979110956192017,0.01992011070251465
1.1987587737535126,2.5481886185727647,-2.642212095785125,-2.0251736640930176,2.2575063705444336,2.3264057636260986,0.20327231287956238,-0.9315885901451111,0.30136874318122864,0.6595969200134277,0.3547758460044861,-0.03983297944068909
1.2285209774756685,2.5947404627102033,-2.667123279355982,-2.02445387840271,2.3704051971435547,2.3389062881469727,0.17452873289585114,-0.9419934153556824,0.28668490052223206,0.6254743337631226,0.35845160484313965,-0.10710397362709045
1.2577928276267962,2.649831323169648,-2.6995649196551743,-2.0067977905273438,2.4860050678253174,2.3619229793548584,0.14539214968681335,-0.9514130353927612,0.2714298963546753,0.5876553058624268,0.3582429885864258,-0.17490270733833313
1.286376244086656,2.71580992664937,-2.742178808385949,-1.992544174194336,2.5349538326263428,2.4084067344665527,0.11589764058589935,-0.9598245620727539,0.2555476427078247,0.552422046661377,0.3632364273071289,-0.23771002888679504
1.3141000503129558,2.7957654631643654,-2.798967397219277,-1.9882053136825562,2.4831206798553467,2.481950044631958,0.08606123924255371,-0.9672340154647827,0.23885540664196014,0.5303785800933838,0.3780921697616577,-0.3031710386276245
1.340229513982531,2.8949419474403606,-2.875723419126972,-1.9006006717681885,2.4499588012695312,2.567833423614502,0.055797331035137177,-0.973537027835846,0.2216138392686844,0.5044748783111572,0.3834489583969116,-0.36677059531211853
1.363059601856325,3.0195888294742277,-2.977897953822106,-1.7562451362609863,2.5225038528442383,2.6097378730773926,0.02510039322078228,-0.9785001873970032,0.2047126740217209,0.4569247364997864,0.38917529582977295,-0.4451301097869873
1.3813205574834824,-3.1119516316931937,-3.106339887080526,-1.6441869735717773,2.6038057804107666,2.595534324645996,-0.005581908859312534,-0.9821031093597412,0.18826186656951904,0.38914209604263306,0.40516823530197144,-0.505079984664917
1.3941768223498805,-2.936557682005185,3.0254828514581606,-1.5345768928527832,2.6894092559814453,2.5546536445617676,-0.03577348589897156,-0.9844433069229126,0.1720232218503952,0.31699293851852417,0.4113536477088928,-0.5421097278594971
1.400796849067893,-2.7452569052041063,2.859340125873635,-1.4153740406036377,2.8258700370788574,2.5053744316101074,-0.06531137228012085,-0.9855848550796509,0.1560678482055664,0.25450509786605835,0.4015088677406311,-0.5747536420822144
1.4011385499200668,-2.550440160153556,2.691326112652718,-1.3187662363052368,2.999265670776367,2.4407830238342285,-0.09410043805837631,-0.9856426119804382,0.14019186794757843,0.19923348724842072,0.3910229206085205,-0.6017091274261475
1.3957418573271012,-2.3654935481966897,2.535210991526193,-1.2223331928253174,3.2087185382843018,2.3739805221557617,-0.12200135737657547,-0.984717071056366,0.12429171800613403,0.1468578726053238,0.38373422622680664,-0.6174556016921997
1.3859231138954893,-2.1981999160421446,2.3989764669915608,-1.1832070350646973,3.42704701423645,2.2848174571990967,-0.14881443977355957,-0.9829595685005188,0.10791213065385818,0.10602876543998718,0.367969274520874,-0.6233538389205933
1.3729501824088806,-2.050302947959282,2.284218165682696,-1.1676626205444336,3.5705411434173584,2.22139048576355,-0.1743905395269394,-0.9804922342300415,0.09068027138710022,0.0604684054851532,0.3531423807144165,-0.6177034378051758
1.3576070780966332,-1.9206115676128017,2.187986366988709,-1.1778287887573242,3.4816689491271973,2.165297746658325,-0.19876396656036377,-0.9773610830307007,0.0725129023194313,0.022647008299827576,0.37077850103378296,-0.6324950456619263
1.3401347789904792,-1.8095924378873653,2.109355099077027,-1.1006485223770142,3.3665823936462402,2.1815226078033447,-0.22213424742221832,-0.9735153913497925,0.054076604545116425,-0.001345992088317871,0.3394211530685425,-0.6398155689239502
1.3203242129609112,-1.716919167528251,2.0482552338430247,-0.9964609742164612,3.2736430168151855,2.257302761077881,-0.24522043764591217,-0.9687955379486084,0.03608953580260277,0.006603449583053589,0.3388516306877136,-0.6842217445373535
1.298356783495246,-1.6395311437785935,2.001553080448313,-0.9324461221694946,3.1524600982666016,2.356628656387329,-0.2684464752674103,-0.9631173014640808,0.018480733036994934,0.00044104456901550293,0.3419930338859558,-0.7022117376327515
1.2744883081351843,-1.574428751645997,1.9659875059358913,-0.8835994601249695,3.017873525619507,2.4775309562683105,-0.2919892966747284,-0.9564210176467896,0.001060633803717792,-0.034686148166656494,0.33528149127960205,-0.6967849731445312
1.2487241387441674,-1.5196621288032013,1.9396103314957085,-0.8412116765975952,2.8962509632110596,2.623228073120117,-0.31611964106559753,-0.9485815167427063,-0.01617862842977047,-0.08511027693748474,0.337207555770874,-0.6932786703109741
1.221066254143817,-1.4730480766248548,1.920490333205718,-0.8248982429504395,2.7923014163970947,2.7844347953796387,-0.3410092294216156,-0.9394652247428894,-0.033439625054597855,-0.15128517150878906,0.3290829658508301,-0.6881941556930542
1.191532020430034,-1.4332652726960093,1.9069411202809705,-0.8240945339202881,2.599560260772705,2.950223684310913,-0.366741418838501,-0.9289372563362122,-0.05075876787304878,-0.2417028546333313,0.3255436420440674,-0.6835245490074158
1.1602963418579717,-1.4003354154384433,1.897994549925357,-0.8062422871589661,2.3073387145996094,3.0927436351776123,-0.3932841122150421,-0.9169214367866516,-0.06769652664661407,-0.3555104732513428,0.3226221203804016,-0.6773137450218201
1.1279236964729886,-1.3747546620978197,1.8934760422168848,-0.7283110022544861,1.9613927602767944,3.1752967834472656,-0.42032814025878906,-0.9035243391990662,-0.08347394317388535,-0.49529072642326355,0.3111324906349182,-0.6763220429420471
1.095349305725689,-1.3568581721861945,1.8933047265932668,-0.6120733022689819,1.575978398323059,3.1662485599517822,-0.4473007917404175,-0.8890882134437561,-0.09718190878629684,-0.675150990486145,0.29457521438598633,-0.6825878620147705
1.063577451548526,-1.345416177890332,1.896358435242742,-0.4864075779914856,1.2466503381729126,3.0656321048736572,-0.47346365451812744,-0.8740988373756409,-0.10855360329151154,-0.8764967918395996,0.26676833629608154,-0.6621829867362976
1.0335787241938665,-1.3388259066506958,1.9016941034481114,-0.350763738155365,0.9920344948768616,2.8664331436157227,-0.4980406165122986,-0.8591358661651611,-0.11764853447675705,-1.0929933786392212,0.2321065068244934,-0.6236690878868103
1.0063846691623357,-1.3359483125383858,1.9087508407232132,-0.18505246937274933,0.7860679626464844,2.57047438621521,-0.5202352404594421,-0.8449034690856934,-0.12447305768728256,-1.307370901107788,0.19910573959350586,-0.5743030309677124
0.9827799476957183,-1.3361641450044979,1.917353621459486,-4.558824002742767e-05,0.6069898009300232,2.216195583343506,-0.5395126342773438,-0.8320426344871521,-0.12896230816841125,-1.4891281127929688,0.1733817458152771,-0.5315294861793518
0.963227176259767,-1.339370150720828,1.9268966838452237,0.1353658139705658,0.29755598306655884,1.8245694637298584,-0.555653989315033,-0.8210381269454956,-0.13093888759613037,-1.6293435096740723,0.15184873342514038,-0.4835782051086426
0.9479492248410001,-1.346487244796216,1.9364847032380905,0.25645893812179565,-0.17346824705600739,1.3881165981292725,-0.5687360167503357,-0.8122208714485168,-0.12975619733333588,-1.7367297410964966,0.14199382066726685,-0.4271131753921509
0.9373445367946927,-1.3583227333292769,1.946012359049363,0.3757113814353943,-0.6452862024307251,0.9194157719612122,-0.5786193013191223,-0.8059890866279602,-0.12482541799545288,-1.8125245571136475,0.1403244137763977,-0.37511342763900757
0.931434185619296,-1.3738873955461237,1.9551181356996243,0.4286441206932068,-0.9740997552871704,0.4468056261539459,-0.5851536989212036,-0.8024765253067017,-0.11673462390899658,-1.8291072845458984,0.14416640996932983,-0.31418871879577637
0.9302483135540229,-1.3903729377877967,1.9623845788825955,0.3639640510082245,-1.1302356719970703,-0.05260458588600159,-0.5879341959953308,-0.8017683625221252,-0.10724329948425293,-1.8061546087265015,0.15526866912841797,-0.24035179615020752
0.9336471095131604,-1.4053994247918442,1.9665280752180931,0.2340976595878601,-1.2006124258041382,-0.5191906690597534,-0.5867878198623657,-0.8037949800491333,-0.09794767946004868,-1.7484630346298218,0.1801224946975708,-0.1779921054840088
0.9410535144093964,-1.4185709143411849,1.967261765972392,0.08594371378421783,-1.326231598854065,-0.9135698676109314,-0.5821264982223511,-0.8081790208816528,-0.0893053188920021,-1.630382776260376,0.2122012972831726,-0.15233278274536133
0.9516211706145459,-1.4311333054913582,1.964949694288993,-0.03841472417116165,-1.5595577955245972,-1.2000781297683716,-0.5747126340866089,-0.8143574595451355,-0.08079209178686142,-1.4642583131790161,0.2306172251701355,-0.15863347053527832
0.964299893356363,-1.4444457744960948,1.960614114956663,-0.11555078625679016,-1.8013001680374146,-1.352610468864441,-0.5654487013816833,-0.8216500878334045,-0.07182738929986954,-1.254696011543274,0.25976037979125977,-0.1960558295249939
0.9777211686986155,-1.4592753697791998,1.954977369390394,-0.2004672735929489,-2.088212251663208,-1.3623943328857422,-0.555441677570343,-0.8292258381843567,-0.06220146641135216,-1.0327084064483643,0.2795432209968567,-0.2307671308517456
0.9907863455233739,-1.4759124735237854,1.9479520422405492,-0.2978852093219757,-2.3912971019744873,-1.3031816482543945,-0.5455673933029175,-0.8364571928977966,-0.05192144587635994,-0.8295090198516846,0.29522788524627686,-0.245533287525177
1.0030929360535923,-1.4941895416682731,1.9398466719159269,-0.35751497745513916,-2.5927798748016357,-1.2194463014602661,-0.5361203551292419,-0.8431380987167358,-0.04115098714828491,-0.6642123460769653,0.32324057817459106,-0.26980775594711304
1.014713410312984,-1.513673161562503,1.9315482198684557,-0.3592548966407776,-2.6809587478637695,-1.1542741060256958,-0.5270028114318848,-0.8493292927742004,-0.030136853456497192,-0.5485894083976746,0.3376408815383911,-0.30973726511001587
1.025953460352544,-1.5344941943751111,1.9242958359078628,-0.28534314036369324,-2.6987578868865967,-1.1228195428848267,-0.5179423093795776,-0.8552087545394897,-0.01881067268550396,-0.47589319944381714,0.34146058559417725,-0.34233421087265015
1.0371914349285318,-1.5569302596877408,1.9189828695324966,-0.20347966253757477,-2.6773672103881836,-1.138563871383667,-0.5085916519165039,-0.8609790802001953,-0.007052617613226175,-0.42875581979751587,0.3476581573486328,-0.35572493076324463
1.0488111974466043,-1.58036726675036,1.915326664479619,-0.17024581134319305,-2.624908208847046,-1.1795896291732788,-0.49857911467552185,-0.8668311238288879,0.004772016778588295,-0.40048402547836304,0.35473090410232544,-0.3301961421966553
1.0607958362893228,-1.6037844918190378,1.9115155366149723,-0.27518343925476074,-2.736431837081909,-1.1991316080093384,-0.4879119098186493,-0.8727442622184753,0.016101159155368805,-0.3706543445587158,0.3573330044746399,-0.2641632556915283
1.0730352117150586,-1.6264796868798694,1.9049044848560808,-0.46439093351364136,-2.928647994995117,-1.2122788429260254,-0.47671976685523987,-0.8786537647247314,0.026572827249765396,-0.3361922800540924,0.35878676176071167,-0.1836007833480835
1.0855994232015176,-1.6474761569483887,1.8950569745540415,-0.6215395927429199,-2.9707159996032715,-1.2278081178665161,-0.4650125205516815,-0.8845831155776978,0.035727132111787796,-0.30534279346466064,0.3537907600402832,-0.15123605728149414
1.0987153600614323,-1.6655747876372715,1.8822831347110474,-0.7686190605163574,-2.8942692279815674,-1.2847115993499756,-0.45270007848739624,-0.890623927116394,0.04303515702486038,-0.2776619791984558,0.3527972102165222,-0.15656042098999023
1.1128059250045728,-1.6803841127708532,1.8670316774035884,-0.8623923659324646,-2.7681045532226562,-1.3747068643569946,-0.43949416279792786,-0.8969428539276123,0.048356927931308746,-0.24850937724113464,0.3623207211494446,-0.17685115337371826
1.1280918916769707,-1.693066048000395,1.8510212800591153,-0.8544111251831055,-2.639153242111206,-1.5015153884887695,-0.42518678307533264,-0.9035964012145996,0.05224809795618057,-0.21507203578948975,0.3676772117614746,-0.22880733013153076
1.1449139124485035,-1.706349111619071,1.837172950608959,-0.7169952988624573,-2.50203537940979,-1.6769784688949585,-0.4093348979949951,-0.910674512386322,0.055828846991062164,-0.20179489254951477,0.3698878288269043,-0.29597151279449463
1.163238252841481,-1.7223356982858502,1.827867029703406,-0.5547105073928833,-2.4001195430755615,-1.8264087438583374,-0.3918262720108032,-0.9180914759635925,0.05983583629131317,-0.18190422654151917,0.37561094760894775,-0.35613083839416504
1.1827703301699073,-1.741941961771545,1.8227991545404187,-0.46620139479637146,-2.4481356143951416,-1.9541950225830078,-0.3728342056274414,-0.9256577491760254,0.06443934142589569,-0.13688567280769348,0.3885483741760254,-0.37466561794281006
1.2034404528687468,-1.764846413088848,1.8208037484357928,-0.43860143423080444,-2.4771595001220703,-2.073890447616577,-0.3524085283279419,-0.9332802295684814,0.06925638765096664,-0.0819176733493805,0.40088582038879395,-0.3580288887023926
1.225054494991588,-1.7900313271762358,1.8215954949579949,-0.3892500698566437,-2.376507520675659,-2.155660629272461,-0.3307834565639496,-0.9408243298530579,0.07370394468307495,-0.03368803858757019,0.38691484928131104,-0.3315315246582031
1.247551821148155,-1.8163217869383317,1.824890577846905,-0.4544506371021271,-2.2477333545684814,-2.271066427230835,-0.30811867117881775,-0.948209822177887,0.07720869779586792,0.0007761120796203613,0.3742504119873047,-0.3217306137084961
1.2716364597600782,-1.8418280244474814,1.828937927094043,-0.5172168612480164,-2.058271884918213,-2.4325788021087646,-0.2839595079421997,-0.9555844068527222,0.07890359312295914,0.004998296499252319,0.3492305874824524,-0.2819674015045166
1.2970875279838905,-1.8685915805408286,1.8364611747446078,-0.49027636647224426,-1.8472900390625,-2.551499843597412,-0.2584075927734375,-0.9627749919891357,0.07931102067232132,0.031539857387542725,0.3351350426673889,-0.29551267623901367
1.3230556504721092,-1.9006347046209746,1.850914872012592,-0.40317845344543457,-1.782841682434082,-2.5966928005218506,-0.23199638724327087,-0.969468891620636,0.07942263782024384,0.09761221706867218,0.3187577724456787,-0.3377385139465332
1.3488896771372747,-1.9417643666052822,1.874647475857427,-0.33332106471061707,-1.8050577640533447,-2.6196470260620117,-0.20511920750141144,-0.9754796028137207,0.07978670299053192,0.16556841135025024,0.3146213889122009,-0.3672773838043213
1.3743463751266576,-1.994487241438814,1.9103348031253715,-0.272923082113266,-1.7381162643432617,-2.6337809562683105,-0.17793041467666626,-0.980765700340271,0.08024783432483673,0.21697762608528137,0.30945509672164917,-0.38148677349090576
1.3993044519078224,-2.062045930487691,1.9616942399837451,-0.24664515256881714,-1.666874885559082,-2.6591243743896484,-0.15047253668308258,-0.9853312969207764,0.08050195127725601,0.2554072141647339,0.2935892343521118,-0.392788290977478
1.4237147705806568,-2.151697139826402,2.035860167843219,-0.21119165420532227,-1.5892397165298462,-2.727973461151123,-0.12251310050487518,-0.9892029762268066,0.08042454719543457,0.2914584279060364,0.26958322525024414,-0.39333629608154297
1.4469411965281722,-2.279211532454499,2.1489044806660913,-0.13456878066062927,-1.5156207084655762,-2.791749954223633,-0.09381513297557831,-0.9923397302627563,0.08037862926721573,0.3194316029548645,0.25640833377838135,-0.4152325391769409
1.4672277440393342,-2.4647659422780634,2.320088041932247,-0.06950940191745758,-1.5839636325836182,-2.7785205841064453,-0.0647520124912262,-0.9946415424346924,0.08059483021497726,0.3777555525302887,0.2301914095878601,-0.42652666568756104
1.4821044528637415,-2.7211704741410907,2.5608825075572685,-0.049318376928567886,-1.746942162513733,-2.677051305770874,-0.03615245968103409,-0.9960694313049316,0.08086369186639786,0.4763685166835785,0.20676273107528687,-0.3984752893447876
1.4896529903229039,-3.035505231976182,2.8580246928233004,-0.09001491963863373,-1.8838202953338623,-2.554670572280884,-0.008582946844398975,-0.9967097043991089,0.08060073107481003,0.5703963041305542,0.20062798261642456,-0.355304479598999
1.4895248138869555,2.9196653359899436,-3.115329402152922,-0.17149752378463745,-1.929040551185608,-2.44749116897583,0.017869427800178528,-0.9966992735862732,0.07919301837682724,0.6392045617103577,0.19658935070037842,-0.3072812557220459
1.4829299684147392,2.6283432871549492,-2.842236596461933,-0.2534453868865967,-1.878717064857483,-2.330174446105957,0.04308822378516197,-0.9961422085762024,0.07644736766815186,0.7055232524871826,0.1602962613105774,-0.2639930248260498
1.4718485269924872,2.394207983085829,-2.6250453268035927,-0.33519697189331055,-1.6614340543746948,-2.2536778450012207,0.06714774668216705,-0.9951086640357971,0.07245717197656631,0.7711548805236816,0.12030702829360962,-0.23462748527526855
1.457581879310281,2.215677270373414,-2.460543863853906,-0.32103320956230164,-1.3208554983139038,-2.1978790760040283,0.09028485417366028,-0.9935981035232544,0.06790849566459656,0.8304610252380371,0.10610109567642212,-0.24753475189208984
1.440823863258994,2.089005445242334,-2.3450148046958246,-0.16391068696975708,-1.0904864072799683,-2.136072874069214,0.11259141564369202,-0.991565465927124,0.0641980767250061,0.9075349569320679,0.0989261269569397,-0.3017162084579468
1.4225784436665563,2.005884407988979,-2.271676392013693,0.04198451340198517,-1.0220956802368164,-2.032006025314331,0.13391739130020142,-0.9890358448028564,0.06224396824836731,0.9882292151451111,0.07553791999816895,-0.34276139736175537
1.4040023401308108,1.9560162859088892,-2.2317939419167767,0.2984280288219452,-1.0684301853179932,-1.8616323471069336,0.15385550260543823,-0.9861221313476562,0.062385037541389465,1.087004542350769,0.0365370512008667,-0.34383320808410645
1.3863232603259785,1.9316803203144888,-2.2180293149712274,0.5374370813369751,-1.0631215572357178,-1.604217529296875,0.1716136336326599,-0.9830330610275269,0.06476911902427673,1.2279530763626099,0.01142960786819458,-0.31438755989074707
1.3707111173949575,1.924887222906052,-2.2214089026711434,0.6702179908752441,-0.9367449879646301,-1.2771550416946411,0.18642282485961914,-0.9800496697425842,0.06891519576311111,1.3751311302185059,-0.002891063690185547,-0.2361360788345337
1.3580446022393593,1.9301978208046093,-2.2351844607226474,0.7405744791030884,-0.6743732690811157,-0.8958538174629211,0.19765999913215637,-0.9774535894393921,0.074264757335186,1.5009026527404785,-0.010705649852752686,-0.13400280475616455
1.3488983232151948,1.946158564421043,-2.2567845617909983,0.7750086188316345,-0.3562573790550232,-0.47793805599212646,0.20475861430168152,-0.9754815101623535,0.0806841105222702,1.585463523864746,-0.02142101526260376,-0.04015661031007767
1.3433299783951016,1.970331015426755,-2.2840670679624457,0.7643954157829285,-0.1372431367635727,-0.10482150316238403,0.2077498435974121,-0.9742408990859985,0.08772129565477371,1.601912021636963,-0.033449649810791016,0.05020308494567871
1.3407102625851808,2.0007229347651156,-2.315618062672835,0.7523086667060852,0.07920847088098526,0.19092147052288055,0.20730671286582947,-0.9736467599868774,0.09505680203437805,1.5378867387771606,-0.04589968919754028,0.1390742063522339
1.3401416678499347,2.0369825867222837,-2.350688148114633,0.7329449653625488,0.3453521132469177,0.3855387270450592,0.2042195200920105,-0.9735169410705566,0.10275863856077194,1.4337199926376343,-0.051248133182525635,0.207086443901062
1.3407895936751546,2.077271262072239,-2.3870039186995773,0.6606854200363159,0.6381032466888428,0.489524781703949,0.19936326146125793,-0.9736648797988892,0.1105947345495224,1.315056324005127,-0.047132909297943115,0.27418625354766846
1.342303947549048,2.1188875490327947,-2.421503645223919,0.5302603244781494,0.9611874222755432,0.5533136129379272,0.19333070516586304,-0.9740089774131775,0.11802491545677185,1.2057629823684692,-0.049306511878967285,0.3423480987548828
1.3449996443477936,2.1592700355143135,-2.4514224286447575,0.30303916335105896,1.2715809345245361,0.6215501427650452,0.18622396886348724,-0.9746160507202148,0.1242760717868805,1.1324710845947266,-0.05257517099380493,0.40033650398254395
1.3495359690109592,2.1956355804197605,-2.4743074499725477,0.009298281744122505,1.5263677835464478,0.7008686065673828,0.17799417674541473,-0.9756216406822205,0.1283765286207199,1.0886226892471313,-0.04763275384902954,0.4396930932998657
1.3563802539360728,2.2275072148440906,-2.4899696326407246,-0.27663305401802063,1.7785911560058594,0.7946826815605164,0.16852077841758728,-0.9771007895469666,0.1299039125442505,1.0621616840362549,-0.032268226146698,0.43570899963378906
1.3654187387259151,2.2573503966430732,-2.5009930667581113,-0.47375163435935974,2.0170834064483643,0.9029602408409119,0.15773239731788635,-0.9789840579032898,0.12927106022834778,1.041974663734436,-0.01163184642791748,0.37811434268951416
1.376271130493227,2.2891649533445575,-2.5117351970672224,-0.591677725315094,2.2201921939849854,1.0239609479904175,0.14553260803222656,-0.9811395406723022,0.12722252309322357,1.0211238861083984,0.014891982078552246,0.28056883811950684
1.3885757708938022,2.3259645666089446,-2.5257726394086104,-0.6662365794181824,2.3590967655181885,1.145171880722046,0.13195252418518066,-0.9834437370300293,0.12420649081468582,0.9906213283538818,0.04615730047225952,0.1831514835357666
1.4021168761930682,2.3707962814913137,-2.54665743653112,-0.7049083709716797,2.471816062927246,1.2953333854675293,0.11696376651525497,-0.9858072996139526,0.12043039500713348,0.9596658945083618,0.07124131917953491,0.09580206125974655
1.4168437121512503,2.4287884320753945,-2.5798870098399718,-0.7425863146781921,2.5421080589294434,1.4736788272857666,0.10028155893087387,-0.988172709941864,0.11601071059703827,0.9407646059989929,0.08607304096221924,0.017503857612609863
1.4326071196818486,2.5046525645351743,-2.6304632176695755,-0.7966434359550476,2.611538887023926,1.6331859827041626,0.08192510157823563,-0.9904670715332031,0.11073976010084152,0.909896194934845,0.10673904418945312,-0.04726303368806839
1.4490788591023478,2.6062217107807406,-2.705974820191394,-0.8596816062927246,2.7096924781799316,1.809966802597046,0.061942022293806076,-0.9926015734672546,0.10442811250686646,0.8677759766578674,0.13788056373596191,-0.11019577085971832
1.4657398584740762,2.749084011717715,-2.821913179840887,-0.937127411365509,2.803577423095703,2.0114712715148926,0.040111441165208817,-0.9944866299629211,0.09688977152109146,0.8364907503128052,0.18392443656921387,-0.17516720294952393
1.4810925881594572,2.957660039169284,-3.002654259420615,-0.9801527261734009,2.9196345806121826,2.2098231315612793,0.01638469658792019,-0.9959793090820312,0.08807305991649628,0.8042176961898804,0.23413848876953125,-0.2459557056427002
1.4916594313095632,-3.0243138064299226,3.0083418120608343,-0.9454389810562134,3.0513527393341064,2.4180216789245605,-0.009250126779079437,-0.9968703389167786,0.07851099222898483,0.7629274725914001,0.26602011919021606,-0.3286329507827759
1.492831441649868,-2.650054523845454,2.664039081308434,-0.8810074329376221,3.1117115020751953,2.628740072250366,-0.03676095977425575,-0.9969622492790222,0.06866516172885895,0.6998010873794556,0.2967516779899597,-0.4061894416809082
1.482353370487854,-2.295643929328251,2.3395131067779347,-0.8282033205032349,3.0484068393707275,2.849003314971924,-0.06612168997526169,-0.9960914850234985,0.0585627406835556,0.6248680353164673,0.3381173014640808,-0.45478761196136475
1.4621910026777083,-2.027909328720259,2.100909264705569,-0.8342326879501343,2.997779130935669,3.065338134765625,-0.09726253151893616,-0.994108259677887,0.04783937707543373,0.5480986833572388,0.375257670879364,-0.47545158863067627
1.4353866736033005,-1.8411082396483618,1.9430930808993112,-0.851362943649292,3.0074045658111572,3.2747862339019775,-0.13009442389011383,-0.9908460974693298,0.03604837879538536,0.46204936504364014,0.41111892461776733,-0.490531325340271
1.4039524377772346,-1.710003005302887,1.8407755612412804,-0.879589319229126,2.953401565551758,3.4682133197784424,-0.16446417570114136,-0.9861137866973877,0.02304355427622795,0.37840765714645386,0.47120600938796997,-0.5273616313934326
1.369324600600101,-1.6159506997283977,1.7750170414996498,-0.8709609508514404,2.913280963897705,3.6201281547546387,-0.19990767538547516,-0.9797731041908264,0.009032845497131348,0.2852958142757416,0.5268769860267639,-0.5670161247253418
1.3327242068241363,-1.5473653330952424,1.7349164485095738,-0.7834547162055969,2.9730427265167236,3.6929283142089844,-0.23576509952545166,-0.9717944264411926,-0.005525221582502127,0.16319428384304047,0.5683825612068176,-0.6095869541168213
1.295410579989741,-1.496446063967343,1.7136764060467944,-0.6565196514129639,3.0737364292144775,3.7009973526000977,-0.2711672782897949,-0.9623203873634338,-0.02019859105348587,0.019931286573410034,0.5891361236572266,-0.6510506272315979
1.2580783077203954,-1.4567836226796516,1.704697377186073,-0.5674623250961304,3.103372812271118,3.6601758003234863,-0.3056490123271942,-0.9515008926391602,-0.034999653697013855,-0.11302167177200317,0.5986718535423279,-0.6658516526222229
1.2213421768241486,-1.4241599077486993,1.7030244471539835,-0.49539715051651,3.084132194519043,3.5878899097442627,-0.33871084451675415,-0.9395597577095032,-0.05002642050385475,-0.23639294505119324,0.5992429256439209,-0.6540597677230835
1.1857242321102865,-1.3958440866918378,1.7054073533115979,-0.47358694672584534,2.9965293407440186,3.437289237976074,-0.36989206075668335,-0.926771342754364,-0.06538188457489014,-0.36701589822769165,0.591535747051239,-0.6432819366455078
1.1521777017558381,-1.3708143970367361,1.7105955686990486,-0.36626529693603516,2.9460363388061523,3.2002952098846436,-0.3983974754810333,-0.9136513471603394,-0.08075167238712311,-0.5239658355712891,0.5464637875556946,-0.595716118812561
1.1215912131435135,-1.3489324041559636,1.718840111509702,-0.23115433752536774,2.9116668701171875,2.900726556777954,-0.42360591888427734,-0.9007925391197205,-0.09555590897798538,-0.6646052598953247,0.5440267324447632,-0.5884191989898682
1.0946118393207322,-1.3295769946848661,1.7296523948404192,-0.055133506655693054,2.874188184738159,2.551114559173584,-0.4451201558113098,-0.8887503743171692,-0.10950376093387604,-0.7997376918792725,0.4985983371734619,-0.5575340390205383
1.071657677758838,-1.3130734524184875,1.743191841768605,0.15241765975952148,2.7850027084350586,2.199221134185791,-0.46286046504974365,-0.8779951930046082,-0.12200295925140381,-0.9197690486907959,0.44047993421554565,-0.5302338600158691
1.052591427279189,-1.2997430613614243,1.7589255954754335,0.31693390011787415,2.598820209503174,1.8729474544525146,-0.47723692655563354,-0.8687097430229187,-0.13262051343917847,-1.0195281505584717,0.3928797245025635,-0.4987727999687195
1.036959082676605,-1.2889664777218561,1.7749131473994668,0.3557266294956207,2.2983744144439697,1.5695490837097168,-0.4887656569480896,-0.8608608841896057,-0.14151550829410553,-1.1178017854690552,0.3548031449317932,-0.4250279664993286
1.024086396417732,-1.2794778620888494,1.7890023776017672,0.2895020544528961,2.007371187210083,1.3069430589675903,-0.4979751408100128,-0.8542395830154419,-0.14931745827198029,-1.1955673694610596,0.3111792206764221,-0.3352557420730591
1.0133541485580733,-1.2699424618113502,1.799504733201372,0.12512341141700745,1.6566637754440308,1.0619946718215942,-0.5052559971809387,-0.8486109972000122,-0.1567668318748474,-1.267601728439331,0.2493220567703247,-0.26104921102523804
1.004395514104722,-1.2602509681396288,1.8053241906919468,-0.06995554268360138,1.261692762374878,0.8373306393623352,-0.5109315514564514,-0.8438377380371094,-0.16397270560264587,-1.3541960716247559,0.21828830242156982,-0.22614867985248566
0.9966906747715928,-1.2507675502837694,1.806823207185416,-0.2551460564136505,0.8718124032020569,0.6799612641334534,-0.5155099630355835,-0.8396783471107483,-0.17085100710391998,-1.3991477489471436,0.20126581192016602,-0.24231112003326416
0.9895781201521472,-1.2420283894993596,1.804456689869986,-0.4312662184238434,0.4797426462173462,0.5912801623344421,-0.5196362137794495,-0.8357944488525391,-0.17727330327033997,-1.4005298614501953,0.18128401041030884,-0.28097856044769287
0.9826153142201939,-1.234393307204977,1.798734951282198,-0.6046081185340881,0.08668769150972366,0.523995041847229,-0.5237481594085693,-0.8319513201713562,-0.18315207958221436,-1.4024450778961182,0.16999465227127075,-0.3385000228881836
0.9757617714557075,-1.2290939688403208,1.7908333830243603,-0.6599693894386292,-0.3438759446144104,0.4683365523815155,-0.5281305313110352,-0.8281291127204895,-0.18783141672611237,-1.4162055253982544,0.15649813413619995,-0.4130900800228119
0.9696382984235964,-1.228042347936775,1.7825585859533155,-0.6184820532798767,-0.8167320489883423,0.35961222648620605,-0.5326985120773315,-0.8246811628341675,-0.19008733332157135,-1.4287577867507935,0.16071027517318726,-0.5181950330734253
0.9652459621120285,-1.2320187444277833,1.7745580040093645,-0.5137937068939209,-1.2744256258010864,0.14752554893493652,-0.5368615388870239,-0.8221889734268188,-0.18916964530944824,-1.4712257385253906,0.16072040796279907,-0.6010218858718872
0.9640238188364018,-1.2406744181824712,1.7678521332091104,-0.27181825041770935,-1.5268036127090454,-0.18301838636398315,-0.5394289493560791,-0.8214926719665527,-0.1848413050174713,-1.5266873836517334,0.16432708501815796,-0.6766545176506042
0.96728747686927,-1.2533954290081522,1.7634918578154173,0.009237912483513355,-1.720258116722107,-0.598548173904419,-0.5391864776611328,-0.8233492970466614,-0.1771267205476761,-1.5648937225341797,0.16975438594818115,-0.7542086243629456
0.9755100789564657,-1.2700062337280156,1.761497185149134,0.2722190022468567,-1.9283250570297241,-1.0311462879180908,-0.5355697870254517,-0.8279880285263062,-0.16613490879535675,-1.5466140508651733,0.18197667598724365,-0.7750880718231201
0.9886470769896173,-1.291263231913585,1.7620443404894996,0.5390413999557495,-2.2113897800445557,-1.4596049785614014,-0.5284788012504578,-0.8352828621864319,-0.1516992598772049,-1.4822633266448975,0.19392549991607666,-0.7710148692131042
1.0065020679686334,-1.3177457558524708,1.766104488359506,0.8152706623077393,-2.369669198989868,-1.8538193702697754,-0.5177874565124512,-0.8449662327766418,-0.13389669358730316,-1.3868756294250488,0.21001750230789185,-0.7615041732788086
1.0284437222046547,-1.348901749554851,1.7739500404335884,1.0016677379608154,-2.515900135040283,-2.1967318058013916,-0.5034974813461304,-0.8564967513084412,-0.11359386146068573,-1.2548338174819946,0.23361778259277344,-0.7343979477882385
1.0535603407637877,-1.3850202753471426,1.785464954418989,1.1442904472351074,-2.707385540008545,-2.461233377456665,-0.48597124218940735,-0.8691892623901367,-0.0913349837064743,-1.106558084487915,0.26504796743392944,-0.678623378276825
1.0808063068788218,-1.427294323720708,1.8013715450732648,1.2502025365829468,-2.9448482990264893,-2.6366186141967773,-0.4657798707485199,-0.8823375701904297,-0.06730296462774277,-0.94466632604599,0.2897776961326599,-0.6360812783241272
1.1092244174260517,-1.4765883663814618,1.8224312904921174,1.327824354171753,-3.144624710083008,-2.7517194747924805,-0.4433816075325012,-0.8953535556793213,-0.0418940894305706,-0.7852409482002258,0.30604368448257446,-0.5951449871063232
1.1381305314449865,-1.5330316276914635,1.8491695738471268,1.3393596410751343,-3.2974016666412354,-2.845400094985962,-0.41899362206459045,-0.9078512191772461,-0.015830693766474724,-0.6417821645736694,0.3412008285522461,-0.5555650591850281
1.1672113127497652,-1.5960671655238134,1.8814264248961472,1.3059821128845215,-3.376938819885254,-2.933516263961792,-0.3925929069519043,-0.9196590185165405,0.009923264384269714,-0.5357519388198853,0.3770105242729187,-0.5167437791824341
1.1963291440645714,-1.6660121604792786,1.9202682845709387,1.2740890979766846,-3.395827054977417,-3.036590576171875,-0.3641200661659241,-0.9307026267051697,0.03477514907717705,-0.4488530158996582,0.4189533591270447,-0.4986574649810791
1.2255870436261294,-1.743941629996453,1.9672852139975345,1.2159165143966675,-3.3593831062316895,-3.1897380352020264,-0.3333342373371124,-0.9410046339035034,0.05829901248216629,-0.37919023633003235,0.4504040479660034,-0.48397326469421387
1.2551869637812325,-1.8324041368143706,2.0257246696899913,1.2105902433395386,-3.2400481700897217,-3.396368980407715,-0.2998350262641907,-0.950607419013977,0.08027899265289307,-0.3318941295146942,0.4832001328468323,-0.4869256019592285
1.2849757284138417,-1.9383471442341156,2.103435781156255,1.3304888010025024,-3.0759530067443848,-3.672588348388672,-0.2631140947341919,-0.9594306349754333,0.10131160914897919,-0.2937554121017456,0.5393255949020386,-0.520317792892456
1.3135953654822379,-2.0726077297915966,2.211501824263435,1.507625937461853,-2.9415478706359863,-3.9192404747009277,-0.2230139523744583,-0.9671057462692261,0.12235813587903976,-0.24483579397201538,0.6093176603317261,-0.5473915338516235
1.3382635673733232,-2.2442878356821443,2.358039383166941,1.655537724494934,-2.9604060649871826,-4.0775370597839355,-0.18012547492980957,-0.973085880279541,0.14373165369033813,-0.16009975969791412,0.688478946685791,-0.5337613821029663
1.3557583784162144,-2.4556850942674364,2.543521678047246,1.7239625453948975,-3.135220527648926,-4.1388678550720215,-0.13515253365039825,-0.9769682884216309,0.16512644290924072,-0.07657842338085175,0.7640166878700256,-0.46866941452026367
1.3638639444117153,-2.695126874868063,2.754974055599752,1.6226921081542969,-3.365058660507202,-4.165109157562256,-0.08871341496706009,-0.9786657691001892,0.18532013893127441,-0.0204937681555748,0.8328221440315247,-0.36853229999542236
1.3624999348213918,-2.9420587821100894,2.972718141953601,1.465196967124939,-3.329530954360962,-4.223656177520752,-0.04098903387784958,-0.9783846139907837,0.20269045233726501,-0.00501621887087822,0.8944002985954285,-0.2586900293827057
1.3524031588604548,3.1066656737389047,-3.1028334593219564,1.2415862083435059,-2.909433126449585,-4.332840919494629,0.007565820589661598,-0.9762468338012695,0.21653014421463013,0.016039520502090454,0.9602859616279602,-0.2208329141139984
1.334705675969124,2.8990411552038866,-2.9169051838024953,1.102526307106018,-2.375432252883911,-4.410198211669922,0.056179311126470566,-0.9722598195075989,0.2270580381155014,0.09344837814569473,0.9984742403030396,-0.2165139615535736
1.3099936755219355,2.7249742847128804,-2.7604822458454468,1.0682265758514404,-2.146840810775757,-4.416869640350342,0.10434707254171371,-0.9661833047866821,0.23580053448677063,0.23210924863815308,0.9936490058898926,-0.2388063371181488
1.2804499751709189,2.584096131341395,-2.6369137847935615,0.9910650253295898,-2.265767812728882,-4.253569602966309,0.15146291255950928,-0.9581447839736938,0.24293634295463562,0.3816181421279907,0.9640650153160095,-0.23989960551261902
1.249319983850447,2.4712253900271453,-2.5434155057006596,0.841418981552124,-2.446181535720825,-3.885626792907715,0.19630299508571625,-0.9487699866294861,0.24759092926979065,0.5721296668052673,0.8778010606765747,-0.18606728315353394
1.219880922896401,2.381382579320532,-2.4744402636814153,0.6068815588951111,-2.460793972015381,-3.3803908824920654,0.23687461018562317,-0.9390584230422974,0.24911843240261078,0.7836332321166992,0.7671070694923401,-0.12353837490081787
1.1942270681634142,2.3088381628493364,-2.4226027383733606,0.3436482846736908,-2.332474946975708,-2.852506160736084,0.27204394340515137,-0.9299317002296448,0.247425377368927,0.9264118671417236,0.6614990234375,-0.060718655586242676
1.1728832453268436,2.2490479205395215,-2.382483891880751,0.13582025468349457,-2.194101572036743,-2.343290090560913,0.30173125863075256,-0.9218716621398926,0.24312710762023926,0.9788931608200073,0.5631070733070374,-0.013711124658584595
1.1558316207177015,2.197873409028155,-2.3507056590974464,-0.06081574782729149,-2.209676742553711,-1.887366533279419,0.32645541429519653,-0.9151305556297302,0.23656509816646576,0.9765231013298035,0.4661712050437927,0.0014415979385375977
1.1426651822338354,2.1512914365733775,-2.3241024027969277,-0.2319994866847992,-2.219831943511963,-1.51877760887146,0.34716254472732544,-0.9097432494163513,0.22769568860530853,0.9563194513320923,0.33454805612564087,0.029872730374336243
1.132433482785556,2.108559853439558,-2.3006632135524283,-0.33817192912101746,-2.0416014194488525,-1.2664997577667236,0.36454853415489197,-0.905447781085968,0.21741442382335663,0.9425652027130127,0.2365022897720337,0.03841450810432434
1.1240388922531812,2.0700231140756635,-2.2793062073764667,-0.41698551177978516,-1.7956922054290771,-1.09598708152771,0.3793140947818756,-0.9018527865409851,0.20683956146240234,0.9311870336532593,0.15736114978790283,0.03789627552032471
1.1172221797331034,2.03503642636715,-2.258970638627842,-0.516598641872406,-1.5212548971176147,-0.9248443245887756,0.39180511236190796,-0.8988867402076721,0.19619281589984894,0.9563089609146118,0.07919979095458984,0.06212341785430908
1.1122727703957898,2.0032274023067975,-2.2388143511992773,-0.655128002166748,-1.2085955142974854,-0.7313345670700073,0.40188080072402954,-0.8967069983482361,0.1854948103427887,1.0259908437728882,-0.006109714508056641,0.08992646634578705
1.1095417100582279,1.973807111277877,-2.2177144260038073,-0.8304199576377869,-0.8843550682067871,-0.5186145901679993,0.4094149172306061,-0.895494818687439,0.17455270886421204,1.1131223440170288,-0.08910906314849854,0.1025623083114624
1.109291617759275,1.9467996358335178,-2.195704377607345,-0.9474855661392212,-0.5806689262390137,-0.2710457742214203,0.41418781876564026,-0.8953834772109985,0.16351546347141266,1.2143828868865967,-0.1488977074623108,0.07346893846988678
1.1114748909004875,1.922735677258998,-2.174201367883811,-0.9706884622573853,-0.39193040132522583,0.0017256848514080048,0.41616615653038025,-0.896353542804718,0.15282778441905975,1.300874948501587,-0.19413113594055176,0.001087784767150879
1.1161573404832148,1.9026041422728928,-2.1554694626062227,-0.882465124130249,-0.27673405408859253,0.3171107769012451,0.4151853919029236,-0.8984196186065674,0.14305047690868378,1.3753114938735962,-0.22304034233093262,-0.08480751514434814
1.1235199443535226,1.887168333322413,-2.141094522218177,-0.7666498422622681,-0.22617292404174805,0.6769391894340515,0.41104599833488464,-0.9016284346580505,0.13456322252750397,1.435267448425293,-0.2471446990966797,-0.15204967558383942
1.1338938246849068,1.8768143206989518,-2.1316837640813175,-0.6224241852760315,-0.1273914873600006,1.0444296598434448,0.4034768342971802,-0.9060666561126709,0.12747547030448914,1.4710960388183594,-0.25233495235443115,-0.18146084249019623
1.1469599246973987,1.8737089442302197,-2.12863298192733,-0.3932172358036041,0.07041403651237488,1.3590388298034668,0.3925366997718811,-0.9115179181098938,0.1226796805858612,1.4678606986999512,-0.22631478309631348,-0.207167387008667
1.162165310889907,1.8794131779898846,-2.1330760002239977,-0.18427306413650513,0.2525545656681061,1.6309335231781006,0.3785805404186249,-0.9176656603813171,0.1206926554441452,1.4146475791931152,-0.18202006816864014,-0.20920884609222412
1.1789153878435055,1.8932155911416468,-2.1444147946122865,-0.022595364600419998,0.4233799874782562,1.8008644580841064,0.36224785447120667,-0.9241923093795776,0.12101849913597107,1.3257099390029907,-0.14776825904846191,-0.1507425159215927
1.196301635668173,1.914252677896124,-2.1612423660691555,0.06602584570646286,0.674333930015564,1.8804301023483276,0.34443843364715576,-0.9306926131248474,0.12318168580532074,1.2001324892044067,-0.11236780881881714,-0.06699860095977783
1.2138612805178557,1.941918099873378,-2.1819543954496616,0.08566279709339142,0.9888116121292114,1.911081075668335,0.3256177306175232,-0.9369721412658691,0.1267155259847641,1.087971806526184,-0.08216255903244019,0.019662275910377502
1.231403380579513,1.9750101234351967,-2.204877611290013,0.026044746860861778,1.3083806037902832,1.9123852252960205,0.30608612298965454,-0.9429569244384766,0.1309342086315155,0.9990134239196777,-0.04855930805206299,0.0966661125421524
1.2489552643116777,2.011578625823129,-2.228177504867791,-0.0901758074760437,1.57282292842865,1.8931623697280884,0.2860800325870514,-0.9486546516418457,0.13495440781116486,0.9230722188949585,-0.009246349334716797,0.1526128053665161
1.266484084650999,2.0499336395746397,-2.2508433794089235,-0.2106659859418869,1.7743432521820068,1.853958249092102,0.26589643955230713,-0.9540532827377319,0.13813713192939758,0.8638644218444824,0.027630984783172607,0.17421044409275055
1.2838613426431236,2.0904070678794247,-2.2732376444622364,-0.30635765194892883,2.03283953666687,1.812934398651123,0.2456599324941635,-0.9591158032417297,0.14052854478359222,0.8210972547531128,0.07581502199172974,0.15021252632141113
1.301248094111827,2.133854028017584,-2.295981612109287,-0.4114917814731598,2.255216598510742,1.808364987373352,0.22518697381019592,-0.963891327381134,0.1421419233083725,0.8056052327156067,0.1308835744857788,0.09885558485984802
1.3189994632401931,2.181232963629701,-2.320827789947768,-0.4811408519744873,2.4009757041931152,1.8469533920288086,0.2041487693786621,-0.9684662818908691,0.14281614124774933,0.8069138526916504,0.17433786392211914,0.04816305637359619
1.337118913029532,2.234805676301991,-2.350484882525769,-0.5250169634819031,2.5375001430511475,1.9038861989974976,0.18235726654529572,-0.9728214740753174,0.1427035629749298,0.795685350894928,0.22224164009094238,-0.011706724762916565
1.3556577291731933,2.2969365682263483,-2.3874493753816175,-0.5795971155166626,2.661587953567505,1.9896986484527588,0.15963046252727509,-0.9769468307495117,0.14175032079219818,0.7821114659309387,0.2795743942260742,-0.07717491686344147
1.3747441215662617,2.371521304096275,-2.436040195414409,-0.6211658716201782,2.706108570098877,2.127819538116455,0.13561606407165527,-0.9808432459831238,0.13983823359012604,0.7878763675689697,0.33420634269714355,-0.1439274698495865
1.3939358982612775,2.4644524175775815,-2.5031965114632317,-0.5899271368980408,2.65985369682312,2.258051633834839,0.11023837327957153,-0.9844009280204773,0.1371222287416458,0.762610137462616,0.38441002368927,-0.20676326751708984
1.4119223666091174,2.5835285334220877,-2.5971331777621147,-0.5247476100921631,2.6097092628479004,2.3652031421661377,0.08377787470817566,-0.9874060750007629,0.13420435786247253,0.6873098015785217,0.4105779528617859,-0.2632629871368408
1.4277500067995021,2.7350117078719096,-2.7240969412455662,-0.5104193687438965,2.5699543952941895,2.466912269592285,0.05637833848595619,-0.9897863268852234,0.13093814253807068,0.6085081100463867,0.4413853883743286,-0.2854790687561035
1.4405892445862385,2.9243123889815807,-2.88897752753526,-0.5486370325088501,2.615493059158325,2.5676310062408447,0.027990281581878662,-0.9915350079536438,0.1267874389886856,0.5462132096290588,0.481921911239624,-0.27441608905792236
1.44916805035608,-3.1313266978086944,-3.0914423210111655,-0.6293243765830994,2.697608709335327,2.639293909072876,-0.001245546038262546,-0.9926124215126038,0.12132356315851212,0.49831587076187134,0.5188726782798767,-0.27024924755096436
1.452301189517277,-2.8761592990897102,2.962184720029737,-0.7333812713623047,2.7302889823913574,2.69423508644104,-0.03101233020424843,-0.9929876327514648,0.11407972127199173,0.43869662284851074,0.5663670301437378,-0.2766619920730591
1.4487844884226588,-2.6152430675906895,2.7271095714361966,-0.7836733460426331,2.7533481121063232,2.752256155014038,-0.061145391315221786,-0.9925658106803894,0.10523732006549835,0.3638339638710022,0.5984920859336853,-0.30050384998321533
1.4381982700134417,-2.375665580573095,2.5134120095177095,-0.7889205813407898,2.739739179611206,2.8236982822418213,-0.0916488766670227,-0.9912217259407043,0.09528923034667969,0.3023727238178253,0.6236069798469543,-0.3431527614593506
1.4214362010986707,-2.1739862968067007,2.337282304615822,-0.8201951384544373,2.699943780899048,2.8992562294006348,-0.12254676222801208,-0.9888665080070496,0.08441389352083206,0.244113489985466,0.6557211875915527,-0.3813955783843994
1.400215863825245,-2.010619381186521,2.1991831091282164,-0.8830784559249878,2.693293333053589,2.9365234375,-0.15359929203987122,-0.9854863882064819,0.07227835059165955,0.17598390579223633,0.6681035161018372,-0.3930180072784424
1.3765071708640777,-1.8766139293369546,2.090468489072563,-1.0839283466339111,2.701247453689575,2.8844423294067383,-0.18411125242710114,-0.9811851382255554,0.0581279881298542,0.09573231637477875,0.6785270571708679,-0.39540815353393555
1.3517081895426517,-1.759637455793429,1.9988174297838113,-1.3046090602874756,2.761984348297119,2.8501017093658447,-0.21347640454769135,-0.9760960340499878,0.04079926013946533,-0.009118854999542236,0.6511753797531128,-0.3504762649536133
1.3253206232119534,-1.6581841374790984,1.9241233468854637,-1.3774657249450684,2.9562747478485107,2.8145740032196045,-0.24209068715572357,-0.9700218439102173,0.02120979316532612,-0.05710369348526001,0.6729026436805725,-0.36119067668914795
1.29809862908469,-1.5689218171890789,1.8626838140385444,-1.5269612073898315,2.989116907119751,2.7414817810058594,-0.2693302631378174,-0.9630478024482727,-0.0005048627499490976,-0.1404293179512024,0.6575973629951477,-0.4058060050010681
1.2703928938594364,-1.489373900129406,1.811224091710545,-1.5734398365020752,3.031031370162964,2.653228998184204,-0.294925719499588,-0.955217182636261,-0.024066774174571037,-0.23165518045425415,0.6157547831535339,-0.39045339822769165
1.2426215323960887,-1.421434479793494,1.7719706080778632,-1.4520691633224487,3.044435501098633,2.5724143981933594,-0.31872764229774475,-0.9466322064399719,-0.04796294867992401,-0.2883433401584625,0.6291881799697876,-0.46796709299087524
1.2148842134749278,-1.3662611172273278,1.7449851853895006,-1.281458854675293,2.857774019241333,2.5684866905212402,-0.34118273854255676,-0.9373290538787842,-0.07077357918024063,-0.345890074968338,0.6010251641273499,-0.5383113622665405
1.1868328044056478,-1.324636251749485,1.7294941624878688,-1.0607213973999023,2.5525929927825928,2.6387171745300293,-0.3633062541484833,-0.9271872043609619,-0.09128274023532867,-0.3919122815132141,0.5643789768218994,-0.5652875900268555
1.1582348556396806,-1.2945780830800349,1.7229162548763306,-0.9189338684082031,2.236501693725586,2.7412266731262207,-0.385758638381958,-0.9160968065261841,-0.10934879630804062,-0.46615487337112427,0.5165758728981018,-0.5695756673812866
1.1289073716702123,-1.2723896750228219,1.7218911245917259,-0.820749819278717,2.000351905822754,2.834336042404175,-0.4087487459182739,-0.9039454460144043,-0.1257275491952896,-0.5771522521972656,0.448089063167572,-0.518071174621582
1.0990946649280942,-1.2559392792453603,1.7244958604002973,-0.7582457065582275,1.7389873266220093,2.898707866668701,-0.43206456303596497,-0.8907963633537292,-0.1407196819782257,-0.7345919013023376,0.36696213483810425,-0.47016584873199463
1.069012487239975,-1.2443590720639035,1.7294450909705146,-0.6969668865203857,1.4337621927261353,2.927826404571533,-0.4555894732475281,-0.876725971698761,-0.15423934161663055,-0.9173353314399719,0.2886064648628235,-0.4151269793510437
1.0392652123507988,-1.2372900505162996,1.7355162991944835,-0.6589564085006714,1.0179588794708252,2.8622353076934814,-0.47892647981643677,-0.8620320558547974,-0.16592276096343994,-1.136033296585083,0.2049580216407776,-0.3728954792022705
1.0109701569591927,-1.2341920607912937,1.7412432944084644,-0.6462904214859009,0.5737208127975464,2.629094362258911,-0.5012380480766296,-0.8473474383354187,-0.17539362609386444,-1.3855417966842651,0.13279354572296143,-0.3432372808456421
0.9856448133990251,-1.233352782386409,1.7449372189686372,-0.6434860825538635,0.23537670075893402,2.255213975906372,-0.5211769342422485,-0.8336284160614014,-0.18286177515983582,-1.6575188636779785,0.06809490919113159,-0.33261048793792725
0.9645916447954505,-1.2334379502340935,1.7467305477459256,-0.5474303960800171,0.06323635578155518,1.7527779340744019,-0.5376369953155518,-0.8218163251876831,-0.1885855793952942,-1.8853518962860107,-0.00145643949508667,-0.36295849084854126
0.9493347286808678,-1.2333208613095596,1.7471274094491243,-0.4143122136592865,0.03141819313168526,1.1196194887161255,-0.5493830442428589,-0.8130283355712891,-0.19277796149253845,-2.0555667877197266,-0.023580610752105713,-0.4245467782020569
0.9406962064224615,-1.2323122725234632,1.7455923328484944,-0.3295198082923889,-0.1190543994307518,0.44958069920539856,-0.5557926297187805,-0.8079684972763062,-0.195656880736351,-2.1835873126983643,-0.025008797645568848,-0.460776150226593
0.938429737807369,-1.2319913371523634,1.7415476708606505,-0.26416751742362976,-0.48394685983657837,-0.17412355542182922,-0.5574554800987244,-0.8066309690475464,-0.1964433491230011,-2.2076964378356934,0.005880236625671387,-0.47236454486846924
0.942021885448411,-1.2338507969989858,1.7356314023411155,-0.14277797937393188,-0.8259111046791077,-0.7267374396324158,-0.5550814867019653,-0.8087489604949951,-0.19444721937179565,-2.1327390670776367,0.04040789604187012,-0.5024978518486023
0.951031385096554,-1.238165304287083,1.7290848467735367,0.01999533176422119,-1.0885584354400635,-1.2121636867523193,-0.5490058064460754,-0.8140150308609009,-0.18966351449489594,-2.0086114406585693,0.07504713535308838,-0.5576508045196533
0.9647697987977586,-1.2452335827246654,1.7226774834965701,0.1700223833322525,-1.3781622648239136,-1.6033666133880615,-0.5396851897239685,-0.8219178318977356,-0.18218396604061127,-1.8331632614135742,0.1338685154914856,-0.5868741869926453
0.982190264478951,-1.2559241687243297,1.7168461560956263,0.2981809675693512,-1.7179585695266724,-1.886924386024475,-0.5279062390327454,-0.8317154049873352,-0.1719433069229126,-1.6245291233062744,0.1728866696357727,-0.5761034488677979
1.0024488685855661,-1.2709353123876186,1.7119482799163208,0.4131845235824585,-2.09537672996521,-2.1174814701080322,-0.5142225027084351,-0.8427916169166565,-0.15898935496807098,-1.426588773727417,0.200686514377594,-0.5553049445152283
1.0250473312385828,-1.2907306342649876,1.7084063953362798,0.5158806443214417,-2.4369544982910156,-2.300055742263794,-0.4988345503807068,-0.8547387719154358,-0.14347751438617706,-1.258672833442688,0.2365289330482483,-0.5265968441963196
1.0493690529883783,-1.3146754114548285,1.7062867021367678,0.5448949933052063,-2.6912922859191895,-2.4265193939208984,-0.48186957836151123,-0.8671091198921204,-0.1261882483959198,-1.0866882801055908,0.26774388551712036,-0.48396480083465576
1.0747375934377936,-1.3412275308841561,1.7045686315408115,0.5007301568984985,-2.8986780643463135,-2.5212204456329346,-0.4634760916233063,-0.8794652819633484,-0.1083090603351593,-0.9209691286087036,0.2925664186477661,-0.42867809534072876
1.1007277569245504,-1.3694159964244352,1.7024924498008365,0.41981959342956543,-3.081655979156494,-2.5738096237182617,-0.4437938928604126,-0.8915372490882874,-0.0905994102358818,-0.7827075719833374,0.31196272373199463,-0.37798261642456055
1.126938964983937,-1.398520250397739,1.69995892207142,0.32880038022994995,-3.1607000827789307,-2.6025516986846924,-0.4230693578720093,-0.903101921081543,-0.0736144408583641,-0.6557270288467407,0.32947838306427,-0.34996944665908813
1.153283459433711,-1.4272839776848922,1.6965960126913933,0.2162168323993683,-3.183523654937744,-2.6298155784606934,-0.40131986141204834,-0.9141002893447876,-0.05799304321408272,-0.5580154657363892,0.3452678322792053,-0.34100890159606934
1.1797749949216012,-1.4548636666905796,1.691724452154276,0.09117300808429718,-3.1989946365356445,-2.6566693782806396,-0.37857457995414734,-0.9245202541351318,-0.04408685117959976,-0.48063260316848755,0.35986876487731934,-0.3373979926109314
1.2064776365798253,-1.4810996349026464,1.6854810339491633,0.0050679538398981094,-3.1872620582580566,-2.689713478088379,-0.3548804223537445,-0.934366762638092,-0.03191724419593811,-0.411705881357193,0.36970001459121704,-0.35348910093307495
1.2336622966724822,-1.506870829974701,1.678970560071415,-0.030872857198119164,-3.1697962284088135,-2.751560688018799,-0.33010852336883545,-0.9437065720558167,-0.02113114297389984,-0.36770641803741455,0.3814048767089844,-0.3922445774078369
1.2615661178011366,-1.5332056494246835,1.672956568853726,-0.07130923122167587,-3.2242202758789062,-2.8262696266174316,-0.30411088466644287,-0.9525681138038635,-0.011437121778726578,-0.34798872470855713,0.40081024169921875,-0.43297499418258667
1.290520569075367,-1.5605829499822708,1.6676868351486795,-0.08964338898658752,-3.2200260162353516,-2.961928129196167,-0.27660664916038513,-0.9609792232513428,-0.0028251861222088337,-0.33417218923568726,0.425639808177948,-0.4561743140220642
1.3212233146164534,-1.590793922282279,1.6661302125289184,-0.014288980513811111,-3.089998722076416,-3.1658072471618652,-0.24694126844406128,-0.9690179824829102,0.0049388897605240345,-0.3268502652645111,0.4486169219017029,-0.49379992485046387
1.3540313077988388,-1.627957867341553,1.6734805724857553,0.0987737625837326,-2.890799045562744,-3.381274700164795,-0.21472084522247314,-0.97659832239151,0.012287159450352192,-0.30297937989234924,0.49437475204467773,-0.5343970060348511
1.3887938015942598,-1.6790197882833067,1.6967878048469005,0.25567150115966797,-2.734588384628296,-3.6033787727355957,-0.17994050681591034,-0.9834831953048706,0.019550170749425888,-0.26199981570243835,0.5623406767845154,-0.5509220361709595
1.4251377176146311,-1.761158593218908,1.7528706064813897,0.4759020209312439,-2.604189395904541,-3.8342652320861816,-0.14252214133739471,-0.9894105195999146,0.027463380247354507,-0.23069258034229279,0.6318971514701843,-0.5642673969268799
1.4618439399373098,-1.913341841175327,1.880742700176059,0.7270908355712891,-2.4236037731170654,-4.058684349060059,-0.10242150723934174,-0.9940705299377441,0.03652386739850044,-0.18493203818798065,0.6927245259284973,-0.564874529838562
1.494723724858888,-2.2341006222983224,2.179630512718997,0.9362825751304626,-2.1888089179992676,-4.257749080657959,-0.05988555774092674,-0.9971078634262085,0.04679536074399948,-0.11725372821092606,0.7534096837043762,-0.5511287450790405
1.511161170157195,-2.87977624774602,2.8054380763011824,1.0460550785064697,-2.036785840988159,-4.400282382965088,-0.015427079983055592,-0.9982223510742188,0.05757072940468788,-0.04769853502511978,0.8054580092430115,-0.5055228471755981
1.4960909890595575,2.7208339300565996,-2.8134005749655393,1.0887898206710815,-1.8613170385360718,-4.521543979644775,0.030485665425658226,-0.9972108602523804,0.06812699884176254,0.026856865733861923,0.8166840672492981,-0.4400140047073364
1.460575827016599,2.3613623662141046,-2.470226395328759,1.1098488569259644,-1.663296103477478,-4.600948333740234,0.07737778127193451,-0.9939318895339966,0.07818170636892319,0.10304214805364609,0.803959846496582,-0.40655064582824707
1.4178441552613825,2.18503425994614,-2.308335145753063,1.148815631866455,-1.4912201166152954,-4.601751327514648,0.12450870126485825,-0.9883255958557129,0.0878092348575592,0.19681090116500854,0.7949813008308411,-0.38671350479125977
1.3726999537885543,2.0883695900704824,-2.224957756202968,1.2290297746658325,-1.41802978515625,-4.543481349945068,0.17102709412574768,-0.980443000793457,0.09737324714660645,0.3042231798171997,0.7914780974388123,-0.3690863847732544
1.326933304047782,2.0304604378432343,-2.1798167055373203,1.314691424369812,-1.3326655626296997,-4.447224140167236,0.21639105677604675,-0.9704124927520752,0.10712017118930817,0.39756160974502563,0.7743827700614929,-0.3390383720397949
1.2816936105822332,1.9937558654637464,-2.1548078595736686,1.344434380531311,-1.1611149311065674,-4.2769670486450195,0.2599700391292572,-0.9585000872612,0.11701952666044235,0.4986359775066376,0.7713508605957031,-0.3041532039642334
1.2380432380983957,1.969941123728591,-2.1410614213528367,1.3682551383972168,-0.9846055507659912,-4.02820348739624,0.30097031593322754,-0.9451466202735901,0.1269449144601822,0.6448457837104797,0.7550678253173828,-0.28418660163879395
1.1970367119094723,1.9544924416427236,-2.135001326849912,1.3520575761795044,-0.9954062700271606,-3.6808207035064697,0.3385694921016693,-0.9309612512588501,0.13668213784694672,0.7990647554397583,0.7100139260292053,-0.26679372787475586
1.1598056105174677,1.9417947904176314,-2.1331805147853764,1.243516206741333,-1.218034267425537,-3.261587619781494,0.3723371624946594,-0.9167254567146301,0.14484372735023499,0.9037706851959229,0.6336291432380676,-0.20610761642456055
1.1273563100317683,1.9283093030317013,-2.1330685429613347,1.0396922826766968,-1.4307411909103394,-2.7787210941314697,0.4019208252429962,-0.9032810926437378,0.15014401078224182,0.9692645072937012,0.527670681476593,-0.11594891548156738
1.1005437724743747,1.9127885596427887,-2.1325135367112185,0.741730809211731,-1.561462640762329,-2.257918357849121,0.42687109112739563,-0.8914538621902466,0.15195755660533905,1.0291683673858643,0.4494982957839966,-0.04696168005466461
1.0796770636010153,1.8947831784600586,-2.130402825648821,0.4373759627342224,-1.6518988609313965,-1.7447012662887573,0.447077214717865,-0.8818055391311646,0.15013745427131653,1.0748497247695923,0.3767853379249573,-0.00752866268157959
1.0641447224967224,1.8746232768334605,-2.1267118373336835,0.19900928437709808,-1.7090245485305786,-1.3209037780761719,0.46302729845046997,-0.8743742108345032,0.14517498016357422,1.0598151683807373,0.31611597537994385,0.00018037855625152588
1.0526243916931683,1.8541198093580658,-2.1225944596124653,0.09721902012825012,-1.6467946767807007,-1.010162353515625,0.47554653882980347,-0.8687260746955872,0.1384582668542862,0.9931119680404663,0.2588627338409424,-0.03202807903289795
1.0438047572155813,1.83590235240667,-2.1195179162675277,0.08864672482013702,-1.4407260417938232,-0.7711109519004822,0.4853656589984894,-0.8643240332603455,0.13177502155303955,0.9270185232162476,0.22610974311828613,-0.0864105075597763
1.0371850440587898,1.8210032686649116,-2.1177680269324863,0.07263074070215225,-1.2453422546386719,-0.5522076487541199,0.4928075969219208,-0.8609758019447327,0.12594307959079742,0.8830469846725464,0.20290988683700562,-0.11149285733699799
1.0326949094238165,1.8079554390122694,-2.116757977989917,0.04683982953429222,-1.1999093294143677,-0.34345874190330505,0.49816155433654785,-0.8586832880973816,0.1204095184803009,0.8303755521774292,0.15316247940063477,-0.09041057527065277
1.03025923686004,1.7953861420124047,-2.1163172708596742,0.020139509811997414,-1.2333780527114868,-0.14790920913219452,0.5016732215881348,-0.8574324250221252,0.11460410058498383,0.7639824748039246,0.11265075206756592,-0.06067940592765808
1.029698718191363,1.782588389243968,-2.1159823277513485,-0.028294434770941734,-1.2499829530715942,0.02836618758738041,0.5035681128501892,-0.8571438193321228,0.10827551782131195,0.6933923363685608,0.08771944046020508,-0.02169705182313919
1.0308783869370068,1.7698758620143156,-2.1154523750778944,-0.07078757137060165,-1.188942551612854,0.1850506067276001,0.5039123892784119,-0.8577508926391602,0.10166529566049576,0.6458526253700256,0.06255435943603516,0.01399647444486618
1.0335332039135199,1.7574752658428654,-2.1144993232015725,-0.12344998866319656,-1.1222647428512573,0.3038168251514435,0.5028951168060303,-0.8591126203536987,0.09498588740825653,0.5975688099861145,0.056637585163116455,0.0358431339263916
1.0372165344053763,1.7451574067023958,-2.11298171779761,-0.14685650169849396,-1.0682140588760376,0.37265661358833313,0.5009070038795471,-0.8609918355941772,0.08823467046022415,0.5337304472923279,0.048598647117614746,0.0570443794131279
1.0413602710928993,1.733752424003127,-2.11162945001197,-0.12107881903648376,-0.9674241542816162,0.40412449836730957,0.49835601449012756,-0.8630920052528381,0.08193670958280563,0.4644278287887573,0.03519582748413086,0.07121586799621582
1.0456536647860644,1.7234512955364385,-2.110527275978282,-0.13120734691619873,-0.8982938528060913,0.41967469453811646,0.49550676345825195,-0.8652524352073669,0.07623466849327087,0.4069591760635376,0.021166563034057617,0.08979631215333939
1.0501168380360821,1.713147665530442,-2.108638043219424,-0.19295726716518402,-0.8247905969619751,0.4252135157585144,0.49243810772895813,-0.8674813508987427,0.07057658582925797,0.36623501777648926,0.0049477219581604,0.13373863697052002
1.0546210966780722,1.7020975210666338,-2.1049102626788527,-0.29775264859199524,-0.7297903299331665,0.4116436541080475,0.48930907249450684,-0.869713306427002,0.06461863964796066,0.32889771461486816,-0.010901987552642822,0.17402887344360352
1.05914277150218,1.6896382545173556,-2.098602467695826,-0.43459761142730713,-0.6649101376533508,0.4009791910648346,0.4861662983894348,-0.8719360828399658,0.058050487190485,0.28643202781677246,-0.02204585075378418,0.19425368309020996
1.0636780685851857,1.6751929065905131,-2.089331216922568,-0.5542183518409729,-0.5953116416931152,0.39439481496810913,0.4830159842967987,-0.8741476535797119,0.05060920864343643,0.2526712417602539,-0.027814507484436035,0.19072401523590088
1.0680454393508967,1.6595752880924795,-2.077897772589918,-0.6171528100967407,-0.5246894359588623,0.3644176423549652,0.4799402058124542,-0.8762603998184204,0.042720891535282135,0.21454831957817078,-0.031439125537872314,0.15327847003936768
1.0719841959321357,1.6437938488096953,-2.065674069547511,-0.6046138405799866,-0.4858301877975464,0.32223209738731384,0.4771088659763336,-0.8781514167785645,0.03488975763320923,0.17235106229782104,-0.03433942794799805,0.09844160079956055
1.0752794416764115,1.6289613133825864,-2.05397156645632,-0.5408111214637756,-0.4197171628475189,0.25493472814559937,0.4746825695037842,-0.879723072052002,0.027641084045171738,0.1386445164680481,-0.03377491235733032,0.0447925329208374
1.0776701174697751,1.6163262354417176,-2.043850885939015,-0.4324532151222229,-0.3242686688899994,0.1653262823820114,0.47289159893989563,-0.8808572888374329,0.02154560014605522,0.10784271359443665,-0.034258127212524414,-0.005050778388977051
1.0790456953183156,1.6067778697714517,-2.0361681745907427,-0.29616618156433105,-0.23548825085163116,0.0760272890329361,0.47186434268951416,-0.8815076351165771,0.016985738649964333,0.08541721105575562,-0.03440123796463013,-0.03753924369812012
1.079509904002632,1.6001949490804792,-2.0312837422421834,-0.17587414383888245,-0.23322376608848572,0.0038162092678248882,0.47155678272247314,-0.8817266821861267,0.013867114670574665,0.07515040040016174,-0.027956485748291016,-0.04984724521636963
1.0793469965281146,1.5947497600364953,-2.0279973608026665,-0.1430853009223938,-0.26766395568847656,-0.04091465473175049,0.471768856048584,-0.8816498517990112,0.011302645318210125,0.0700402557849884,-0.03338921070098877,-0.015391827560961246
1.0789056465605587,1.5892602628593733,-2.024659336313488,-0.16597729921340942,-0.23821339011192322,-0.05312285199761391,0.47221294045448303,-0.8814414739608765,0.008719900622963905,0.07580652832984924,-0.05381554365158081,0.031044602394104004
1.078479315574527,1.5834467920102593,-2.020908781609889,-0.1857353001832962,-0.26964062452316284,-0.03363103047013283,0.4726312756538391,-0.8812400698661804,0.005979324225336313,0.09331727027893066,-0.06330955028533936,0.031038641929626465
1.0782932900970004,1.5765146993467252,-2.016535741452156,-0.23197495937347412,-0.3478717803955078,-0.006767991464585066,0.4728252589702606,-0.8811520934104919,0.0027038203552365303,0.10352978110313416,-0.05807214975357056,0.02650165557861328
1.078355842017014,1.568101097931916,-2.011167145931135,-0.27243009209632874,-0.37122732400894165,0.01867702603340149,0.47277629375457764,-0.8811816573143005,-0.0012742433464154601,0.08947962522506714,-0.05325132608413696,0.02506279945373535
1.0785874371868263,1.5593022631062023,-2.0049873542821377,-0.3105369806289673,-0.28187987208366394,0.030460447072982788,0.47254255414009094,-0.8812911510467529,-0.005431673489511013,0.07250142097473145,-0.056376636028289795,0.028533577919006348
1.0788211231291187,1.5510151304626079,-1.997918898880399,-0.3524382710456848,-0.12570197880268097,0.021601343527436256,0.47227543592453003,-0.881401538848877,-0.009343392215669155,0.04312071204185486,-0.04430341720581055,0.030415892601013184
1.0788723027565024,1.543660354406214,-1.9903421801628407,-0.35677894949913025,-0.014193558134138584,0.008371824398636818,0.4721486270427704,-0.8814257383346558,-0.012815358117222786,0.01591894030570984,-0.021192550659179688,0.017820360139012337
1.0788674015824644,1.5376215249590688,-1.9831557882250817,-0.3099803328514099,0.07232628017663956,0.013034384697675705,0.4720671772956848,-0.8814234137535095,-0.015666482970118523,0.01964735984802246,-0.0065618157386779785,-0.018665671348571777
1.0789493625038016,1.5336215741655237,-1.977548482254625,-0.2117973119020462,0.10306661576032639,0.01974581740796566,0.47192859649658203,-0.8814620971679688,-0.01755191572010517,0.028452903032302856,0.0006942152976989746,-0.06089341640472412
1.0791916578711895,1.5315763154396806,-1.9742857526736641,-0.09412936866283417,0.05276358127593994,0.04109250009059906,0.47167840600013733,-0.8815765380859375,-0.018508723005652428,0.042451292276382446,0.012344300746917725,-0.09941107034683228
1.0798300549709714,1.5310300888173347,-1.9734300120271149,0.016159318387508392,-0.01045986171811819,0.0932140201330185,0.4711059629917145,-0.8818777203559875,-0.01874399371445179,0.07056587934494019,0.017696022987365723,-0.12291842699050903
1.081111151686619,1.5314908283928246,-1.9744303229266564,0.0805930569767952,-0.07569576799869537,0.15988025069236755,0.46998491883277893,-0.8824809789657593,-0.0184825100004673,0.09228622913360596,0.008304953575134277,-0.11030155420303345
1.0831030543519353,1.5319669987557842,-1.97616594707254,0.09027710556983948,-0.12599489092826843,0.2273508906364441,0.4682360291481018,-0.8834161162376404,-0.018190434202551842,0.10128304362297058,-0.006110191345214844,-0.07368260622024536
1.0856492090048218,1.531825444112599,-1.97757638447998,0.05688363313674927,-0.14986969530582428,0.2728746831417084,0.4659847021102905,-0.8846063613891602,-0.018169034272432327,0.08079880475997925,-0.007208883762359619,-0.03960061073303223
1.088532003565541,1.5306198498338452,-1.9779675974766422,0.00034179259091615677,-0.15746183693408966,0.2994016110897064,0.4634125530719757,-0.885947048664093,-0.018628308549523354,0.05544742941856384,-0.013299345970153809,-0.013384522870182991
1.0916030305337472,1.5283028967163015,-1.977077198510391,-0.05823342874646187,-0.14689701795578003,0.3132960796356201,0.46064767241477966,-0.8873671293258667,-0.019586289301514626,0.03585818409919739,-0.020698845386505127,0.002771196886897087
1.0946892973254052,1.5248667465286696,-1.9748479647886943,-0.11943420022726059,-0.15257859230041504,0.3104313015937805,0.4578394591808319,-0.8887858986854553,-0.02104317396879196,0.013718187808990479,-0.015724658966064453,0.00970602035522461
1.0977441011618283,1.5199916280573171,-1.9711468623355584,-0.191280335187912,-0.15937326848506927,0.3194969892501831,0.455017626285553,-0.890181839466095,-0.023136943578720093,0.0057367682456970215,-0.00935429334640503,0.01327991671860218
1.1009272645819868,1.5138761863914447,-1.9659247340267443,-0.2456168234348297,-0.13337069749832153,0.3460092842578888,0.4520362317562103,-0.8916276097297668,-0.025757789611816406,0.01869744062423706,-0.0008131265640258789,0.013321999460458755
1.104376140511945,1.5069040138807468,-1.9594753972199297,-0.2926079332828522,-0.10515101253986359,0.37438976764678955,0.4487743079662323,-0.8931838274002075,-0.028712309896945953,0.029695570468902588,0.0039321184158325195,0.007212759926915169
1.108019671669614,1.4995367849128407,-1.952134786797282,-0.30458977818489075,-0.05321405082941055,0.3922462463378906,0.44530168175697327,-0.8948163390159607,-0.031785812228918076,0.02619495987892151,0.004755854606628418,0.0027179718017578125
1.1117381447972883,1.4929587981899537,-1.9451504199056262,-0.25132063031196594,-0.019268130883574486,0.39220237731933594,0.4417627453804016,-0.8964701890945435,-0.03445533290505409,0.01661139726638794,0.006287574768066406,-0.023115936666727066
1.1154501987682572,1.4876391223249779,-1.9395796972199202,-0.1736825704574585,-0.051280658692121506,0.385665625333786,0.43825387954711914,-0.8981088399887085,-0.03652820363640785,0.004434168338775635,0.005988419055938721,-0.05104184150695801
1.1190612788950531,1.483428846481616,-1.9358694313896418,-0.08918184787034988,-0.1210717037320137,0.3569766581058502,0.43486231565475464,-0.8996910452842712,-0.03808978945016861,-0.010957866907119751,0.00548022985458374,-0.057521700859069824
1.122454257836149,1.4802518591348663,-1.9339126890600205,-0.027221012860536575,-0.15303468704223633,0.3305663764476776,0.431696355342865,-0.9011670351028442,-0.03919488564133644,-0.02646869421005249,0.010221660137176514,-0.04947381839156151
1.1255651488537477,1.4779430893519132,-1.9327741219463508,-0.017337482422590256,-0.08885348588228226,0.2931418716907501,0.4288111627101898,-0.9025111198425293,-0.03993132710456848,-0.03087720274925232,0.017699837684631348,-0.02209555357694626
1.1283009561964585,1.4767460511502828,-1.9317230402194114,-0.01917027123272419,0.03930315375328064,0.2594824433326721,0.4263036251068115,-0.903685986995697,-0.04021260887384415,-0.030597418546676636,0.018798232078552246,-0.0015048347413539886
1.1308037438769356,1.4768389791082728,-1.9309512722470388,0.001665417104959488,0.10518745332956314,0.24224336445331573,0.4240539073944092,-0.9047548174858093,-0.03996064141392708,-0.026745587587356567,0.012726128101348877,-0.0036793872714042664
1.133100837366497,1.4777154945666306,-1.9310337069079813,0.04983001574873924,0.04613931104540825,0.2132497876882553,0.4220185875892639,-0.9057308435440063,-0.03939568251371384,-0.03121045231819153,0.019073128700256348,-0.012743469327688217
1.1351685213615448,1.4787963439212533,-1.9322748970797485,0.08729512989521027,-0.05651041120290756,0.18763720989227295,0.4201955199241638,-0.9066053032875061,-0.03876741603016853,-0.04237252473831177,0.022846579551696777,-0.009831730276346207
1.1369629868869333,1.4794072645048224,-1.9338962541948064,0.07026714086532593,-0.0998339131474495,0.15849769115447998,0.41859811544418335,-0.9073610901832581,-0.03836214914917946,-0.045139193534851074,0.02360248565673828,0.015001058578491211
1.1385297507415633,1.4791590920697597,-1.9344907227986978,0.0031538684852421284,-0.051828064024448395,0.1501999795436859,0.4171726405620575,-0.9080185294151306,-0.03833591565489769,-0.03558078408241272,0.01589810848236084,0.05335068702697754
1.1400528206225562,1.4776864934302192,-1.933247111276623,-0.07539873570203781,-0.02815629169344902,0.16883544623851776,0.41573798656463623,-0.9086555242538452,-0.03882154822349548,-0.015301525592803955,0.006006598472595215,0.07321500778198242
1.1418359859984086,1.4743523768808606,-1.9302738830216026,-0.13526551425457,-0.10563866049051285,0.20773915946483612,0.41399291157722473,-0.9093986749649048,-0.04005136713385582,0.011635780334472656,-0.00686115026473999,0.07618427276611328
1.1439169772973676,1.4685961686033198,-1.9258408671352067,-0.18796654045581818,-0.237605482339859,0.24035143852233887,0.41187208890914917,-0.9102622270584106,-0.04224056005477905,0.024147868156433105,-0.002945840358734131,0.0698896050453186
1.1462347231183663,1.4601315327027127,-1.919794980463206,-0.2554666996002197,-0.3455292880535126,0.27317896485328674,0.40940162539482117,-0.9112194180488586,-0.04549220949411392,0.02724391222000122,0.0006054043769836426,0.06889927387237549
1.1489088331432402,1.4494259564347935,-1.912116039483745,-0.30525049567222595,-0.383005827665329,0.3293687403202057,0.4064710736274719,-0.91231769323349,-0.049577221274375916,0.03536248207092285,-0.015828728675842285,0.07092440128326416
1.152082851675292,1.437057983854259,-1.9029572878539847,-0.35213503241539,-0.42072340846061707,0.39240095019340515,0.4029547870159149,-0.9136127829551697,-0.05421411618590355,0.05198600888252258,-0.029288828372955322,0.0651700496673584
1.1556681215830313,1.4228172701127166,-1.892333508514857,-0.39655575156211853,-0.4873429238796234,0.43319231271743774,0.3988993763923645,-0.9150646328926086,-0.05946342647075653,0.0580098032951355,-0.016362309455871582,0.05604559928178787
1.1594775427647683,1.4068268698043092,-1.8804116078435489,-0.4255152642726898,-0.5160994529724121,0.4698914885520935,0.39445576071739197,-0.9165943264961243,-0.06526464968919754,0.05161970853805542,-0.009492099285125732,0.04600822925567627
1.16365773242018,1.390029287527969,-1.867581609237147,-0.429496169090271,-0.4783773124217987,0.5218364596366882,0.3895317018032074,-0.9182576537132263,-0.07119162380695343,0.055307865142822266,-0.023850679397583008,0.026239387691020966
1.1682497909872132,1.3736215294821739,-1.8546695070796695,-0.38992568850517273,-0.43008533120155334,0.5652506947517395,0.38417208194732666,-0.9200663566589355,-0.07674621790647507,0.057630956172943115,-0.02957969903945923,-0.002950310707092285
1.1732106967459632,1.358244879490402,-1.8425559833886687,-0.32761651277542114,-0.416698157787323,0.5928045511245728,0.3784800171852112,-0.9219985008239746,-0.08168025314807892,0.060255974531173706,-0.02537393569946289,-0.03591912239789963
1.1784895004528435,1.3439443077347344,-1.8315859827216974,-0.2609867751598358,-0.4131098687648773,0.6168807148933411,0.37252554297447205,-0.9240295886993408,-0.08598829060792923,0.05627700686454773,-0.017666518688201904,-0.06034337729215622
1.18408446327405,1.3311332325628047,-1.8221684009404235,-0.1694456934928894,-0.3988414704799652,0.6388017535209656,0.3663654923439026,-0.9261541962623596,-0.08952493965625763,0.0502757728099823,-0.01938718557357788,-0.07879465073347092
1.190214714679664,1.3203830899640405,-1.8149842135975096,-0.055679284036159515,-0.4250567853450775,0.6800485849380493,0.3598746359348297,-0.9284487366676331,-0.0920495092868805,0.061695218086242676,-0.024111628532409668,-0.09679310768842697
1.1970523576348415,1.310666205147833,-1.8095736197183039,0.01400685403496027,-0.5148487091064453,0.7364945411682129,0.35282063484191895,-0.9309669137001038,-0.09390705078840256,0.08231431245803833,-0.030947208404541016,-0.1009933352470398
1.204569932211636,1.3008593324070925,-1.8053399663552867,0.08795374631881714,-0.6504467129707336,0.7901341915130615,0.3451273441314697,-0.933685302734375,-0.095493383705616,0.07888394594192505,-0.009063780307769775,-0.09696561098098755
1.2127684283491336,1.2911232292523716,-1.8024961103120143,0.1582058072090149,-0.754142165184021,0.833053708076477,0.3368121385574341,-0.9365897178649902,-0.09673259407281876,0.0841015875339508,-0.0035499930381774902,-0.09944950044155121
1.221392254486579,1.2816220317042697,-1.800708249951962,0.20459197461605072,-0.7940078377723694,0.851102888584137,0.32812410593032837,-0.9395768642425537,-0.09762144088745117,0.08139130473136902,0.01945662498474121,-0.10503041744232178
1.2303576184376892,1.273077239752519,-1.8000272330307419,0.26981863379478455,-0.7810637950897217,0.8734223246574402,0.3192117214202881,-0.9426082968711853,-0.09794655442237854,0.06370759010314941,0.0339931845664978,-0.11180059611797333
1.2398458287205103,1.2658370489732922,-1.8008518727481984,0.3449234068393707,-0.8295698165893555,0.91839599609375,0.3099493086338043,-0.945733904838562,-0.09756536781787872,0.047472625970840454,8.565187454223633e-05,-0.11405867338180542
1.2499877646085038,1.2599907163524668,-1.8038319399752836,0.4569692611694336,-0.879663348197937,0.9465956687927246,0.3002258539199829,-0.9489807486534119,-0.09643734991550446,0.016943395137786865,-0.02483522891998291,-0.11221122741699219
1.2609051583772652,1.2594128539922322,-1.81127943547502,0.6628703474998474,-0.6159616112709045,0.9772836565971375,0.29028967022895813,-0.9523667693138123,-0.0934307798743248,-0.01024511456489563,-0.01894664764404297,-0.12637197971343994
1.2721958325247509,1.2683924041699473,-1.8262592817375356,0.8365033864974976,-0.44485220313072205,0.8916974067687988,0.28083452582359314,-0.9557491540908813,-0.08761255443096161,0.022952765226364136,0.01702827215194702,-0.17685264348983765
1.282860691633804,1.2821417166358242,-1.8445418419242194,0.7758235931396484,-0.327532559633255,0.8383658528327942,0.27222537994384766,-0.9588321447372437,-0.08083683252334595,-0.009209543466567993,-0.07067853212356567,-0.11137796193361282
1.2928913257712988,1.2950899658412227,-1.8614983665567237,0.6832869648933411,-0.34488171339035034,0.8190885782241821,0.26398107409477234,-0.9616323113441467,-0.07468324154615402,-0.02167147397994995,-0.05753284692764282,-0.01204758882522583
1.3022311509641857,1.3059736575777816,-1.8766435992982802,0.5984501838684082,-0.39107435941696167,0.7460821866989136,0.25609827041625977,-0.9641526341438293,-0.06945184618234634,-0.03367084264755249,-0.01228785514831543,0.026406943798065186
1.3103383945571625,1.3154890595077842,-1.8905986944534048,0.518661618232727,-0.39093640446662903,0.6270990967750549,0.2491760551929474,-0.9662721753120422,-0.06503568589687347,-0.07922358810901642,-0.0057433247566223145,0.05316448211669922
1.3170072591107655,1.3235192798166049,-1.9028450836680573,0.4099390506744385,-0.3625240921974182,0.5081436038017273,0.24343638122081757,-0.9679680466651917,-0.061453916132450104,-0.10653449594974518,0.0010338425636291504,0.08270949125289917
1.3223584471672862,1.3289709439904518,-1.9117950178923662,0.2792987525463104,-0.2731103003025055,0.41995489597320557,0.23873530328273773,-0.9692977070808411,-0.058884602040052414,-0.11196523904800415,0.0076277852058410645,0.12429916858673096
1.3264189075964503,1.331795044093532,-1.9168860080076433,0.15692508220672607,-0.14966899156570435,0.30605852603912354,0.23507490754127502,-0.9702881574630737,-0.05727798491716385,-0.11488138139247894,0.00988471508026123,0.1496242880821228
1.3290929404529204,1.3325425232494816,-1.9186116194926084,0.05300959572196007,-0.03560713678598404,0.19296471774578094,0.2325953096151352,-0.9709316492080688,-0.05648966133594513,-0.130391925573349,0.026382148265838623,0.154771625995636
1.3304770518549247,1.331391382249315,-1.917167618415725,-0.05507854372262955,0.09051613509654999,0.09494084864854813,0.23122476041316986,-0.9712620377540588,-0.05643875151872635,-0.13060826063156128,0.03627967834472656,0.1576656699180603
1.3307463425927533,1.327852618481353,-1.91202884284924,-0.1705167144536972,0.1908818930387497,0.013333871029317379,0.23076952993869781,-0.9713261127471924,-0.057193681597709656,-0.12154707312583923,0.029889345169067383,0.1651192307472229
1.3300629473298267,1.3206188064922766,-1.9023225446601872,-0.30902621150016785,0.2443900853395462,-0.03251022845506668,0.23099291324615479,-0.9711633920669556,-0.05902585759758949,-0.1059928834438324,0.02261596918106079,0.16737860441207886
1.32865106418692,1.3095875112827051,-1.8881409616693754,-0.40421104431152344,0.3004555106163025,-0.07203793525695801,0.2316529005765915,-0.9708257913589478,-0.06192460283637047,-0.07523497939109802,0.026138722896575928,0.1393478512763977
1.3266979751665255,1.2983190388769092,-1.8730827347884063,-0.3790963888168335,0.3634628653526306,-0.1091310903429985,0.23276597261428833,-0.9703556299209595,-0.06504110246896744,-0.06142495572566986,0.025348126888275146,0.06615512818098068
1.3246918200932039,1.2907059670003882,-1.861511349294899,-0.2641056478023529,0.33974501490592957,-0.11892646551132202,0.23413391411304474,-0.9698688387870789,-0.06734912097454071,-0.05081476271152496,0.019124150276184082,-0.022860705852508545
1.3230107503201052,1.2869289335547736,-1.8547016026282441,-0.14491970837116241,0.22841322422027588,-0.10965468734502792,0.235442653298378,-0.9694579243659973,-0.0686894953250885,-0.02540537714958191,0.01988816261291504,-0.08696532249450684
1.321848228791662,1.2871770740664257,-1.852766870459853,-0.008216721937060356,0.20629407465457916,-0.08338846266269684,0.23654115200042725,-0.9691721200942993,-0.06894629448652267,-0.0008386075496673584,0.024454772472381592,-0.11579173058271408
1.3214382596181793,1.291924708047766,-1.8556408973352556,0.11472988873720169,0.1778080016374588,-0.03112543188035488,0.2372482866048813,-0.9690710306167603,-0.06793202459812164,0.016108721494674683,0.021973133087158203,-0.129730224609375
1.3217824300049044,1.2992992716603928,-1.8618653752252385,0.19261564314365387,0.09190213680267334,0.01120684389024973,0.23742182552814484,-0.9691559076309204,-0.06609123945236206,0.027516618371009827,0.017098844051361084,-0.11158198863267899
1.3226001725813863,1.3081533573498656,-1.8703945917397002,0.2529175877571106,0.035169705748558044,0.03505440056324005,0.2372317612171173,-0.9693571329116821,-0.06378059834241867,0.015179187059402466,0.031094133853912354,-0.08158975839614868
1.323632674461837,1.3184926306740055,-1.8807085337309584,0.2781313359737396,0.03671567142009735,0.029677744954824448,0.2369087040424347,-0.9696102738380432,-0.06107441708445549,-0.004257917404174805,0.02821934223175049,-0.03893154114484787
1.324383427856988,1.3284980449083177,-1.8903445018864649,0.1955154985189438,0.10112350434064865,-0.0035033354070037603,0.23680198192596436,-0.9697936773300171,-0.05852655693888664,-0.031082898378372192,0.024694621562957764,0.02622383087873459
1.3244255941594352,1.3340843193415235,-1.89456121941515,-0.005876737181097269,0.19506864249706268,-0.03748739883303642,0.23708555102348328,-0.9698039293289185,-0.05719323456287384,-0.06360830366611481,0.01757901906967163,0.1353030800819397
1.323556161798977,1.331563927860658,-1.8897461977946637,-0.26529213786125183,0.21824204921722412,-0.07404402643442154,0.2377595752477646,-0.969591498374939,-0.057990338653326035,-0.0876588225364685,-0.0070320963859558105,0.2238839864730835
1.3216996279355775,1.3196311919087937,-1.8753323496194494,-0.4992699921131134,0.18957950174808502,-0.11434484273195267,0.23879405856132507,-0.9691355228424072,-0.061270587146282196,-0.0951019823551178,-0.007213473320007324,0.27603816986083984
1.319001604135147,1.3007529080172537,-1.8541123131261488,-0.6385304927825928,0.14215514063835144,-0.13336136937141418,0.24011369049549103,-0.9684668183326721,-0.06646464020013809,-0.08770886063575745,0.007758200168609619,0.24674737453460693
1.3159421202433503,1.2794971032051479,-1.8308055658366535,-0.6281518936157227,0.1310787945985794,-0.1279250532388687,0.24148370325565338,-0.9677000641822815,-0.07240363955497742,-0.05831718444824219,0.016940176486968994,0.15016251802444458
1.3132879812923792,1.2618200718362167,-1.8109702147790938,-0.4740692377090454,0.17269611358642578,-0.0779167115688324,0.24261201918125153,-0.9670275449752808,-0.07744153589010239,-0.011334538459777832,0.02813899517059326,0.005786366760730743
1.3117119131423307,1.2510529673210438,-1.797995631043514,-0.24475884437561035,0.17202046513557434,-0.01962384395301342,0.24321065843105316,-0.9666249752044678,-0.08052816987037659,0.03471294045448303,0.03715109825134277,-0.12606048583984375
1.3114901139522595,1.2483343950272516,-1.7935337028876273,0.015295559540390968,0.14489522576332092,0.055094558745622635,0.24319449067115784,-0.966568112373352,-0.08125709742307663,0.06871047616004944,0.038787901401519775,-0.22280466556549072
1.3128174206155696,1.2532732622149079,-1.7973737015941562,0.24596737325191498,0.09629068523645401,0.1345457136631012,0.24237357079982758,-0.9669075608253479,-0.07965430617332458,0.08846752345561981,0.0350685715675354,-0.262310266494751
1.3154303514168193,1.2635889681266115,-1.8073129273623088,0.38343676924705505,0.04734594374895096,0.20273014903068542,0.24077387154102325,-0.9675709009170532,-0.07638576626777649,0.08875499665737152,0.017955362796783447,-0.23419153690338135
1.3187740344875685,1.2766584927250106,-1.8202681568176822,0.418632835149765,0.06255872547626495,0.2364601492881775,0.23865368962287903,-0.9684101343154907,-0.07229409366846085,0.06697987020015717,-0.010212361812591553,-0.1575031876564026
1.3222384628404402,1.2895796339723593,-1.8330221946122685,0.3762837052345276,0.04251619428396225,0.24340322613716125,0.23634304106235504,-0.9692682027816772,-0.0682729110121727,0.021957769989967346,-0.024384140968322754,-0.07662438601255417
1.3255608803133887,1.2999388578243711,-1.8435883361355376,0.295258104801178,-0.020016688853502274,0.2545706629753113,0.23393318057060242,-0.9700801968574524,-0.06495891511440277,0.001113206148147583,-0.03254425525665283,-0.009381763637065887
1.3286956572214803,1.305828708015296,-1.8501973501173021,0.1757236272096634,-0.0873655378818512,0.26385653018951416,0.2313758134841919,-0.9708365201950073,-0.06278331577777863,-0.006552785634994507,-0.044269680976867676,0.03901023417711258
1.3315499619497446,1.3063114719632904,-1.8518612528374008,0.052693575620651245,-0.13480070233345032,0.2680438160896301,0.2287302166223526,-0.9715168476104736,-0.06194689869880676,-0.01574799418449402,-0.04679363965988159,0.07110226899385452
1.3342058248742057,1.3021895088665412,-1.849040923665995,-0.0384242944419384,-0.13463576138019562,0.27588677406311035,0.22598499059677124,-0.97214275598526,-0.06220436468720436,-0.014894858002662659,-0.048258304595947266,0.07749378681182861
1.3366635507168778,1.295357772697032,-1.8431739500640318,-0.09241508692502975,-0.08620084822177887,0.2691124677658081,0.22325503826141357,-0.9727159142494202,-0.06309681385755539,-0.0186193585395813,-0.040864527225494385,0.06265443563461304
1.3388706681194091,1.2871429616851608,-1.8353238185698288,-0.12987783551216125,-0.029249772429466248,0.24962246417999268,0.2206670641899109,-0.9732255935668945,-0.06432753056287766,-0.0294133722782135,-0.02706432342529297,0.0410427525639534
1.340645863815646,1.2787677327774405,-1.8267475375851727,-0.1378745138645172,0.01936250552535057,0.19432778656482697,0.21846629679203033,-0.9736320972442627,-0.06567607074975967,-0.050451695919036865,-0.01910489797592163,0.01674126833677292
1.3418475810516808,1.2723535874551197,-1.8195945792677348,-0.09641149640083313,0.09193582087755203,0.12662570178508759,0.2169223129749298,-0.9739055037498474,-0.06673198193311691,-0.06723350286483765,-0.01816004514694214,-0.012781448662281036
1.3425355247633373,1.27015096218712,-1.8160715717029612,-0.014384003356099129,0.1471538096666336,0.05156530812382698,0.2161342352628708,-0.9740614295005798,-0.0670110210776329,-0.06615555286407471,-0.013151764869689941,-0.049596548080444336
1.342851360010745,1.2723382947014765,-1.8166740006804896,0.05476626753807068,0.1667599380016327,0.009059826843440533,0.21598631143569946,-0.9741328358650208,-0.0664476528763771,-0.04643060266971588,-0.0046117305755615234,-0.07271236181259155
1.3431965894509594,1.2780394167444367,-1.8208115322694476,0.15227603912353516,0.16410769522190094,-0.0008503280114382505,0.21604029834270477,-0.974210798740387,-0.06511836498975754,-0.009832948446273804,-0.005663037300109863,-0.07729179412126541
1.3436336778084248,1.288745319681254,-1.8302199183804684,0.2722751498222351,0.1321370154619217,-0.03481467813253403,0.2163158357143402,-0.9743093252182007,-0.06268318742513657,-0.01601363718509674,0.011540591716766357,-0.0885007455945015
1.3440516999911394,1.3026350175982446,-1.8434579457558264,0.3072128891944885,0.05881006643176079,-0.04390164837241173,0.21677252650260925,-0.9744033813476562,-0.05956467241048813,-0.04472962021827698,0.006675660610198975,-0.07170659303665161
1.3443354573555957,1.315117491997231,-1.8560517734108515,0.2509009838104248,-0.013507204130291939,-0.04905111342668533,0.21723097562789917,-0.9744671583175659,-0.056784145534038544,-0.03565135598182678,-0.012044072151184082,-0.01282631978392601
1.3444814733528925,1.3250287416856557,-1.866582445782875,0.21678030490875244,-0.05107907950878143,-0.03830605745315552,0.21764512360095978,-0.9744999408721924,-0.054593753069639206,-0.01610700786113739,-0.012636899948120117,0.022992916405200958
1.3447031346690694,1.3333962629284126,-1.8759283488454976,0.1981942057609558,-0.09907408058643341,-0.021354077383875847,0.2178843915462494,-0.9745496511459351,-0.05271992087364197,-0.007801353931427002,-0.01690542697906494,0.02317899838089943
1.3449124440296512,1.339488857229848,-1.8834231366788172,0.1357734501361847,-0.13554634153842926,-0.020976707339286804,0.21800340712070465,-0.9745965003967285,-0.05134480074048042,-0.01088055968284607,-0.02377086877822876,0.03643709421157837
1.3449481032602402,1.3424238590843052,-1.8878679934140818,0.07614953070878983,-0.1305241584777832,-0.02172905020415783,0.2181197702884674,-0.9746044874191284,-0.05069698020815849,-0.018687337636947632,-0.018880128860473633,0.05681585520505905
1.3448858983663832,1.343851795430687,-1.890391188561391,0.04640441760420799,-0.06510946154594421,-0.016398997977375984,0.2182503491640091,-0.9745905995368958,-0.05039895325899124,-0.017292067408561707,-0.015155494213104248,0.056044820696115494
1.3448118316857702,1.3448850114096267,-1.8917607695489427,0.027124781161546707,0.0022061774507164955,-0.016397586092352867,0.21837222576141357,-0.9745739698410034,-0.05018949881196022,-0.016300097107887268,-0.015187263488769531,0.046466536819934845
1.3447171160851383,1.3460543097720643,-1.8926658685159954,0.02353004366159439,0.055851299315690994,-0.015783727169036865,0.2185218185186386,-0.9745527505874634,-0.049954939633607864,-0.014191299676895142,-0.017375528812408447,0.03748857229948044
1.3447464288420097,1.3473963417609145,-1.89336108843783,0.00774788623675704,0.071492038667202,0.00837540440261364,0.21856069564819336,-0.9745593070983887,-0.04965527355670929,-0.004159405827522278,-0.010563433170318604,0.027347028255462646
1.344921225689231,1.3477674207109476,-1.8931189211254371,-0.011136588640511036,0.04807140305638313,0.024971425533294678,0.21841318905353546,-0.9745984673500061,-0.04953654110431671,0.006577730178833008,-0.006251871585845947,0.02361195534467697
1.345303485963597,1.347467615166046,-1.8923358075208652,-0.006880541797727346,0.04427812993526459,0.06069342419505119,0.21803462505340576,-0.9746840596199036,-0.04951941594481468,0.02049081027507782,-0.006578266620635986,0.010869026184082031
1.3461550231440622,1.3470801721969035,-1.8916312169675316,0.008646751753985882,0.00400927197188139,0.10541907697916031,0.2172061949968338,-0.9748740792274475,-0.049419768154621124,0.03566253185272217,-0.006037354469299316,-0.010364003479480743
1.347396647896506,1.3469718172481708,-1.8918105921512516,0.04310954362154007,-0.06386677920818329,0.12721437215805054,0.21602024137973785,-0.975149929523468,-0.04917455092072487,0.03722992539405823,-0.004616975784301758,-0.02626478672027588
1.3488639307746557,1.3477927797438884,-1.893522416170736,0.07865395396947861,-0.10461181402206421,0.13581743836402893,0.21466462314128876,-0.975473940372467,-0.048680633306503296,0.03077302873134613,-0.008046627044677734,-0.03988128527998924
1.350464044792216,1.349784639636045,-1.896568012423855,0.10646799206733704,-0.0869244709610939,0.13952630758285522,0.21323852241039276,-0.9758248925209045,-0.04791084676980972,0.020434647798538208,-0.010488152503967285,-0.03894210606813431
1.352133725145601,1.3533525488199751,-1.9008185907103752,0.1264888495206833,-0.03237893432378769,0.1408086121082306,0.2118169665336609,-0.9761884212493896,-0.046798184514045715,0.016546159982681274,-0.012886464595794678,-0.036087457090616226
1.3538016391909231,1.358099291305739,-1.9057277750963184,0.13932381570339203,0.017744790762662888,0.13955920934677124,0.21044446527957916,-0.9765489101409912,-0.04544835165143013,0.010304465889930725,-0.009641945362091064,-0.028373535722494125
1.3553946762103997,1.3636541329908947,-1.9111956033674518,0.14816416800022125,0.01672639697790146,0.12807033956050873,0.2091713398694992,-0.9768906235694885,-0.043958742171525955,0.0025902092456817627,-0.0101853609085083,-0.02066207304596901
1.3568655309207112,1.369567746379644,-1.9172070277404232,0.15498682856559753,-0.010621627792716026,0.11957839876413345,0.2080196738243103,-0.9772039651870728,-0.04243381321430206,-0.00693926215171814,-0.017501413822174072,-0.009018722921609879
1.358147234783279,1.375251426361573,-1.9232418126422628,0.15448136627674103,-0.02357950434088707,0.10516217350959778,0.20702864229679108,-0.9774752259254456,-0.04100741073489189,-0.01612590253353119,-0.014315605163574219,-0.0028156638145446777
1.3593679269895391,1.3810394816808529,-1.9293382402209873,0.16624751687049866,-0.004595688544213772,0.11464204639196396,0.20609065890312195,-0.9777321815490723,-0.03958335891366005,-0.006490394473075867,-0.006261467933654785,-0.0068642497062683105
1.3607141800328653,1.3873507345725513,-1.9357843049042114,0.18321585655212402,0.0008869608864188194,0.12725265324115753,0.2050410658121109,-0.978013813495636,-0.03804156929254532,0.004538416862487793,-0.004514873027801514,-0.009718295186758041
1.3621153681699383,1.3934010351879043,-1.942306593740902,0.18016450107097626,-0.06402458995580673,0.119439497590065,0.20391882956027985,-0.9783050417900085,-0.03655853495001793,-0.009155616164207458,-0.0031250715255737305,-0.0026106201112270355
1.3633866814536555,1.3983017508782443,-1.9482391157765377,0.15049529075622559,-0.09268632531166077,0.10695459693670273,0.20287035405635834,-0.9785676002502441,-0.03534528985619545,-0.018208399415016174,-0.00043642520904541016,0.018987949937582016
1.3644661898184987,1.4023702454004785,-1.95310771007358,0.1132187470793724,-0.03468498960137367,0.08358004689216614,0.2019706666469574,-0.9787893295288086,-0.03434247896075249,-0.024236246943473816,-0.009110450744628906,0.03925592079758644
1.365293264657996,1.405253460332018,-1.956191093517522,0.04338054731488228,0.0054738810285925865,0.06020015478134155,0.20127029716968536,-0.9789584279060364,-0.03362659737467766,-0.024939686059951782,0.000671684741973877,0.0472223162651062
1.3656320661799544,1.4030362312167681,-1.953629621818807,-0.14524006843566895,0.06150021404027939,0.02046520821750164,0.2008681744337082,-0.979027509689331,-0.03401738777756691,-0.03651571273803711,0.016381025314331055,0.12531083822250366
1.3650735419693305,1.3922899208140453,-1.941546998897929,-0.3410705626010895,0.14883750677108765,-0.04092145338654518,0.20102907717227936,-0.9789136052131653,-0.036271050572395325,-0.05632992088794708,0.005265474319458008,0.18258774280548096
