attitudeX,attitudeY,attitudeZ,gyroX,gyroY,gyroZ,gravityX,gravityY,gravityZ,accX,accY,accZ
0.8207253477147993,-0.4344754243945725,-0.5774616819561081,0.02578800916671753,0.06257455050945282,-0.8567339181900024,-0.28694719076156616,-0.7316404581069946,-0.618355393409729,-0.07403001189231873,-0.02110600471496582,0.2892386317253113
0.8232414878772418,-0.4255620842069478,-0.5890945802148911,-0.22204278409481049,0.01257321983575821,-0.79057776927948,-0.2806633710861206,-0.7333533763885498,-0.6192098259925842,-0.055304646492004395,0.008179545402526855,0.30330711603164673
0.823451328087117,-0.41685111923566975,-0.6013850755225495,-0.4115631580352783,-0.08422602713108063,-0.7552810311317444,-0.27519655227661133,-0.7334960103034973,-0.6214904189109802,-0.08710816502571106,0.049948155879974365,0.2855834364891052
0.8221834905633721,-0.40896988644579324,-0.6145177304793961,-0.5206857323646545,-0.2720448076725006,-0.7768632769584656,-0.27065953612327576,-0.7326337099075317,-0.6244927048683167,-0.14032068848609924,0.07101273536682129,0.2541161775588989
0.8203609126843335,-0.40249289879138933,-0.6282825779138715,-0.5434461832046509,-0.43366166949272156,-0.7973054647445679,-0.2671317160129547,-0.7313920259475708,-0.6274603009223938,-0.16215911507606506,0.10222643613815308,0.20769095420837402
0.8185459768455179,-0.39702319609988745,-0.6422364141455597,-0.5283032059669495,-0.5038016438484192,-0.8127609491348267,-0.2642085552215576,-0.7301530838012695,-0.630135178565979,-0.16790515184402466,0.1617785096168518,0.1520620584487915
0.8170353818336682,-0.3922080572625745,-0.6563177183496407,-0.4821926951408386,-0.5880893468856812,-0.8473019003868103,-0.2615925967693329,-0.7291200757026672,-0.6324185132980347,-0.1882823407649994,0.201806902885437,0.10441863536834717
0.8163940033879628,-0.38822674249522443,-0.6705251736010115,-0.36502236127853394,-0.6836816668510437,-0.8985808491706848,-0.25924965739250183,-0.7286809682846069,-0.6338877081871033,-0.22770413756370544,0.2065100073814392,0.06264448165893555
0.8171770416787196,-0.38515067774436784,-0.6847769416530142,-0.22475126385688782,-0.7716594338417053,-0.9608466029167175,-0.25708410143852234,-0.7292170524597168,-0.6341531872749329,-0.25690826773643494,0.20941120386123657,0.03703099489212036
0.8192963257533108,-0.382899640379648,-0.6990173881223746,-0.11333850026130676,-0.8486690521240234,-0.9971104264259338,-0.2550780177116394,-0.7306655645370483,-0.6332954168319702,-0.24785172939300537,0.21710056066513062,0.039621710777282715
0.8224533416410462,-0.3814004577792806,-0.7132612199784802,-0.027558881789445877,-0.9254317879676819,-1.0370184183120728,-0.25326842069625854,-0.7328173518180847,-0.6315329670906067,-0.23734748363494873,0.2050158977508545,0.05784827470779419
0.8264215650844383,-0.3802082059453573,-0.7278688679685092,0.022175056859850883,-0.9756910800933838,-1.091600775718689,-0.2514340877532959,-0.7355116605758667,-0.62912917137146,-0.24307280778884888,0.17946618795394897,0.08129286766052246
0.8309184019655086,-0.379186711706763,-0.7432142140839173,0.03490070626139641,-1.0883080959320068,-1.1603130102157593,-0.24956445395946503,-0.7385508418083191,-0.6263067722320557,-0.23996804654598236,0.16628527641296387,0.10584473609924316
0.83542751778222,-0.37887229027787883,-0.7596190628854494,-0.024049893021583557,-1.275275468826294,-1.2123360633850098,-0.24813322722911835,-0.7415834069252014,-0.6232848167419434,-0.22421789169311523,0.1705843210220337,0.12851858139038086
0.8391630256283754,-0.3798815779875364,-0.7770885380289593,-0.15290534496307373,-1.513992190361023,-1.2237024307250977,-0.24773326516151428,-0.7440842390060425,-0.620457112789154,-0.1883324682712555,0.17583167552947998,0.14700734615325928
0.8415108507814817,-0.3826693072584364,-0.7953485445287715,-0.32056283950805664,-1.750095248222351,-1.1987465620040894,-0.24880896508693695,-0.7456507086753845,-0.618141770362854,-0.14422699809074402,0.17619270086288452,0.145577073097229
0.8422013378039677,-0.38720579733629235,-0.8141438154892923,-0.484435111284256,-1.9406335353851318,-1.1676599979400635,-0.25141605734825134,-0.7461106181144714,-0.616529643535614,-0.10985109210014343,0.1758286952972412,0.11910843849182129
0.841537116840773,-0.39288401708286685,-0.8334786664235863,-0.6058681011199951,-2.0525996685028076,-1.159593105316162,-0.2551024854183197,-0.7456682324409485,-0.6155498623847961,-0.09627696871757507,0.1786821484565735,0.06293755769729614
0.8401436545124628,-0.39901740551273623,-0.8532026694460988,-0.6536076664924622,-2.097255229949951,-1.152644157409668,-0.25927647948265076,-0.7447389960289001,-0.6149304509162903,-0.09751981496810913,0.17500633001327515,-0.004759430885314941
0.8386986877817574,-0.40564301054330587,-0.8727797516073211,-0.6271236538887024,-2.127213954925537,-1.1386603116989136,-0.2637694478034973,-0.7437739372253418,-0.6141873598098755,-0.09563612937927246,0.1833186149597168,-0.06714808940887451
0.8377914314371662,-0.41279978147807694,-0.8921597199537711,-0.5663586258888245,-2.1730270385742188,-1.165138602256775,-0.26842886209487915,-0.7431671619415283,-0.6129017472267151,-0.09071731567382812,0.2209962010383606,-0.11869615316390991
0.8376959613262064,-0.4205070718227294,-0.9115295602581565,-0.49084630608558655,-2.236737012863159,-1.1912164688110352,-0.27317360043525696,-0.7431032657623291,-0.6108794808387756,-0.09685203433036804,0.2528994679450989,-0.15866702795028687
0.8385926993368094,-0.42895959931809996,-0.9309515973011597,-0.41677793860435486,-2.3242413997650146,-1.2491381168365479,-0.2780500054359436,-0.7437030673027039,-0.6079424023628235,-0.13128232955932617,0.25621527433395386,-0.177961528301239
0.840416751539154,-0.4374621022597929,-0.9513047348359871,-0.39757397770881653,-2.3822813034057617,-1.3727816343307495,-0.2826337218284607,-0.7449212074279785,-0.6043264865875244,-0.18315613269805908,0.2522760033607483,-0.17191863059997559
0.8428105519286154,-0.44446929264815704,-0.9737579094996566,-0.4553890526294708,-2.3308916091918945,-1.52665376663208,-0.2860938608646393,-0.7465161085128784,-0.6007195711135864,-0.2223290503025055,0.2304639220237732,-0.15840518474578857
0.8451230176391659,-0.44837480689692044,-0.9988800311804001,-0.5713865756988525,-2.180863857269287,-1.6751629114151,-0.287688672542572,-0.7480527758598328,-0.5980404019355774,-0.23260557651519775,0.18945902585983276,-0.14454376697540283
0.8468075913580789,-0.44821150185300856,-1.0269191323404387,-0.7386935353279114,-1.9644654989242554,-1.8071342706680298,-0.287044495344162,-0.749169647693634,-0.5969508290290833,-0.2275582253932953,0.15604525804519653,-0.13312119245529175
0.8472015855313052,-0.44333392450978787,-1.0579096254128852,-0.9603798985481262,-1.6884621381759644,-1.9109183549880981,-0.28400278091430664,-0.7494305372238159,-0.598077118396759,-0.20556026697158813,0.1303967833518982,-0.12258017063140869
0.8456870416334626,-0.43376557063191507,-1.0913605625349037,-1.1863117218017578,-1.40584135055542,-1.9596930742263794,-0.27874401211738586,-0.7484269738197327,-0.6017964482307434,-0.1703985035419464,0.10775619745254517,-0.11802160739898682
0.8422820613962085,-0.4205380864767687,-1.1263697094661334,-1.3407152891159058,-1.1845113039016724,-1.9783746004104614,-0.27179837226867676,-0.7461643815040588,-0.6077535152435303,-0.14427831768989563,0.10903370380401611,-0.13710421323776245
0.8376324763071388,-0.4053243564574672,-1.1619274080276616,-1.3879554271697998,-1.076590895652771,-1.97909677028656,-0.2638862431049347,-0.743060827255249,-0.6149997115135193,-0.1345207691192627,0.13510489463806152,-0.1846829056739807
0.8327855548448981,-0.39030940050134955,-1.1968538600222831,-1.2959303855895996,-1.112353801727295,-1.952812671661377,-0.2559899687767029,-0.7398083806037903,-0.6222158670425415,-0.1319648027420044,0.16386544704437256,-0.242484450340271
0.8289447231721117,-0.3776380112030245,-1.230239903231074,-1.0809307098388672,-1.2869313955307007,-1.921898365020752,-0.2491312175989151,-0.7372187972068787,-0.6280463337898254,-0.13015657663345337,0.18918412923812866,-0.28658074140548706
0.8270715596796194,-0.36878695611409995,-1.261436722891415,-0.7951200604438782,-1.5339081287384033,-1.852396011352539,-0.24406000971794128,-0.7359519004821777,-0.6315136551856995,-0.10292491316795349,0.20967626571655273,-0.30771052837371826
0.8273738117594818,-0.3645062756231874,-1.2898119792223373,-0.5251889824867249,-1.7685840129852295,-1.7463252544403076,-0.24127516150474548,-0.7361564636230469,-0.6323447823524475,-0.05613395571708679,0.21999746561050415,-0.29464191198349
0.8294373321195426,-0.36397902532913673,-1.3156175162372643,-0.34462985396385193,-1.904626488685608,-1.6552480459213257,-0.24040044844150543,-0.7375515103340149,-0.6310510635375977,-0.02707090973854065,0.21174895763397217,-0.24338436126708984
0.8323719582212138,-0.3652586425017522,-1.3399451329008567,-0.29052186012268066,-1.9190919399261475,-1.6109652519226074,-0.24043357372283936,-0.739530086517334,-0.6287184953689575,-0.01814192533493042,0.18232488632202148,-0.16225135326385498
0.8350166640302739,-0.36647486400752616,-1.3638935066572853,-0.380781888961792,-1.8504652976989746,-1.5757421255111694,-0.24049639701843262,-0.7413076758384705,-0.6265974640846252,-0.007962524890899658,0.15053319931030273,-0.07751929759979248
0.8361810742734581,-0.36657726056618734,-1.388154515624611,-0.571915864944458,-1.7639729976654053,-1.5413516759872437,-0.24025100469589233,-0.7420886754989624,-0.6257665753364563,-0.0056749433279037476,0.12921947240829468,-0.009761989116668701
0.8352941984494078,-0.3652891798268807,-1.4134564361780968,-0.8057665824890137,-1.7230838537216187,-1.5613466501235962,-0.23967981338500977,-0.7414939403533936,-0.6266900897026062,-0.04095989465713501,0.11493760347366333,0.0296136736869812
0.8324011413343969,-0.3622874699961161,-1.4405421223969246,-1.0173451900482178,-1.669018268585205,-1.6289643049240112,-0.2385568767786026,-0.7395496964454651,-0.6294099688529968,-0.08779819309711456,0.11712843179702759,0.029907405376434326
0.8280412288236627,-0.3574372936150169,-1.469422250994139,-1.155680537223816,-1.6187450885772705,-1.697811484336853,-0.23662717640399933,-0.7366080284118652,-0.6335740685462952,-0.11200569570064545,0.1281028389930725,-0.0035260915756225586
0.8227361898322731,-0.3516684905159331,-1.499455060778017,-1.2419265508651733,-1.6359903812408447,-1.7400343418121338,-0.23431111872196198,-0.7330097556114197,-0.6385883092880249,-0.1063108891248703,0.13706248998641968,-0.0402599573135376
0.8167736414962835,-0.34585557004850487,-1.5300813978948888,-1.2928340435028076,-1.6673352718353271,-1.7669379711151123,-0.232072651386261,-0.7289409637451172,-0.6440399289131165,-0.0933363288640976,0.1506938338279724,-0.07222282886505127
0.8105657075408138,-0.3403208061205219,-1.560918539304911,-1.2863566875457764,-1.6966220140457153,-1.7928444147109985,-0.23001053929328918,-0.7246770858764648,-0.649567723274231,-0.08746388554573059,0.15518862009048462,-0.10359084606170654
0.8045262733009563,-0.3350459393795334,-1.5917678297312632,-1.2570672035217285,-1.6835229396820068,-1.820778727531433,-0.2280159294605255,-0.7205021977424622,-0.6548933386802673,-0.08149340748786926,0.14541375637054443,-0.12260299921035767
0.7987133124396452,-0.3293772328698991,-1.6226527052165967,-1.2356399297714233,-1.600472092628479,-1.8529937267303467,-0.22565080225467682,-0.7164590358734131,-0.6601274013519287,-0.06997302174568176,0.13999730348587036,-0.1270735263824463
0.7930575961983636,-0.322642879085205,-1.65370925132867,-1.2249542474746704,-1.4721238613128662,-1.89045250415802,-0.22248144447803497,-0.7125020027160645,-0.6654644012451172,-0.05695280432701111,0.14041954278945923,-0.11638069152832031
0.7872799148786749,-0.3142986346167514,-1.6850513410334398,-1.2535171508789062,-1.2924587726593018,-1.9257800579071045,-0.21818998456001282,-0.708436131477356,-0.6712014079093933,-0.034938111901283264,0.14254868030548096,-0.09135651588439941
0.78084198889167,-0.30387410243277185,-1.7168362403914372,-1.3386505842208862,-1.1141427755355835,-1.9548441171646118,-0.2125416100025177,-0.7038777470588684,-0.6777773499488831,0.002595871686935425,0.1420491337776184,-0.07126128673553467
0.7734132843638574,-0.2920154887348168,-1.7490224482151238,-1.414495587348938,-1.0330281257629395,-1.9829245805740356,-0.20598900318145752,-0.6985816359519958,-0.6852388381958008,0.03670795261859894,0.13655465841293335,-0.06929296255111694
0.7654654653675206,-0.27996172752355386,-1.7812654745314536,-1.3942809104919434,-1.0474066734313965,-2.000854253768921,-0.1992424726486206,-0.6928727030754089,-0.692986249923706,0.058998897671699524,0.13307344913482666,-0.08946919441223145
0.7580204249143221,-0.26873138097317056,-1.813089595732474,-1.2687948942184448,-1.0872880220413208,-2.018580198287964,-0.19281189143657684,-0.6874852180480957,-0.7001340389251709,0.09230220317840576,0.1297154426574707,-0.12422198057174683
0.7519354631845109,-0.25813138349776593,-1.8442763219919458,-1.0727747678756714,-1.050532341003418,-2.039978265762329,-0.1864442378282547,-0.6830536127090454,-0.7061702013015747,0.1404237002134323,0.11620485782623291,-0.1587589979171753
0.7477147811817499,-0.24755629281133332,-1.8747377330363777,-0.8527150750160217,-0.9850580096244812,-2.0498154163360596,-0.17967094480991364,-0.6799649000167847,-0.7108910083770752,0.19662342965602875,0.08706945180892944,-0.17878788709640503
0.7454462360565105,-0.2373143071624679,-1.9042220575955373,-0.62668377161026,-0.9704331159591675,-2.022944450378418,-0.17274293303489685,-0.6782997846603394,-0.7141914367675781,0.2639141380786896,0.06155472993850708,-0.17141342163085938
0.7448758038944057,-0.22801292416603186,-1.9323166955847637,-0.44229260087013245,-0.973082423210144,-1.9541995525360107,-0.16617999970912933,-0.6778805255889893,-0.7161439657211304,0.34045058488845825,0.05378079414367676,-0.14269697666168213
0.7454299318932935,-0.21978143390439672,-1.958833637730919,-0.322733610868454,-0.9624592065811157,-1.8604400157928467,-0.16019760072231293,-0.6782878041267395,-0.7171209454536438,0.40644389390945435,0.05665993690490723,-0.1013910174369812
0.7464318929216994,-0.21220565102508646,-1.9838017628835112,-0.27321505546569824,-0.8951199054718018,-1.7542680501937866,-0.1546170860528946,-0.6790236830711365,-0.7176492214202881,0.4529415965080261,0.048393189907073975,-0.058244943618774414
0.7473378672495501,-0.2048109013849973,-2.0072741214663323,-0.26111096143722534,-0.8181326389312744,-1.6413700580596924,-0.14918087422847748,-0.6796885132789612,-0.7181702852249146,0.4800676703453064,0.02609354257583618,-0.02174365520477295
0.7480700356978295,-0.19817497304834314,-2.029148486728264,-0.2338617742061615,-0.8312907814979553,-1.5197675228118896,-0.14431390166282654,-0.6802253723144531,-0.7186564207077026,0.49538809061050415,-0.003490447998046875,0.014173388481140137
0.7488139368789143,-0.19324634108080385,-2.049146622151662,-0.19514088332653046,-0.8987225890159607,-1.3736408948898315,-0.1406729519367218,-0.6807704567909241,-0.7188621163368225,0.5106375217437744,-0.024216115474700928,0.054647088050842285
0.7495077750742695,-0.19036826356959874,-2.0669112099376803,-0.16339333355426788,-0.9309021234512329,-1.1951780319213867,-0.13851401209831238,-0.6812785267829895,-0.7188000082969666,0.52675861120224,-0.03390097618103027,0.09386110305786133
0.7500977004211135,-0.18922592326330998,-2.0822182555728066,-0.14213202893733978,-0.9164434671401978,-1.0229518413543701,-0.13761718571186066,-0.6817102432250977,-0.71856290102005,0.520597517490387,-0.046912193298339844,0.13268643617630005
0.7505128730276961,-0.1891710597482868,-2.095468461382969,-0.1463499367237091,-0.8706663846969604,-0.8965268135070801,-0.1375245302915573,-0.6820139288902283,-0.7182924151420593,0.48315131664276123,-0.07030540704727173,0.17643755674362183
0.7504959430851087,-0.18936851909391228,-2.1073970689742367,-0.187396839261055,-0.7898843288421631,-0.8140910863876343,-0.13766855001449585,-0.682001531124115,-0.7182766199111938,0.4346350431442261,-0.09386211633682251,0.22206079959869385
0.7498305526470671,-0.18920106563032071,-2.1185887355326165,-0.25456950068473816,-0.6953610181808472,-0.767113983631134,-0.13763359189033508,-0.6815147399902344,-0.718745231628418,0.3862602710723877,-0.11403274536132812,0.26298046112060547
0.7482684908296872,-0.18820088523490122,-2.129571118766402,-0.35444319248199463,-0.5955508351325989,-0.7525895833969116,-0.13711363077163696,-0.6803708076477051,-0.7199273705482483,0.33996397256851196,-0.12591886520385742,0.28706610202789307
0.7457389049005902,-0.1860769515162007,-2.1407499582480423,-0.4454977214336395,-0.49250009655952454,-0.7613700032234192,-0.13590222597122192,-0.6785147786140442,-0.7219060063362122,0.29396799206733704,-0.1313607096672058,0.29554498195648193
0.7423653390397266,-0.18262164562987904,-2.1522556779979727,-0.5274977684020996,-0.37111979722976685,-0.7753148078918457,-0.13382194936275482,-0.6760327816009521,-0.7246180772781372,0.25853198766708374,-0.13671141862869263,0.291360080242157
0.7382125606062042,-0.17781885788415763,-2.164116532092965,-0.5994380116462708,-0.270048588514328,-0.793293833732605,-0.13083568215370178,-0.6729668378829956,-0.7280093431472778,0.2358924299478531,-0.14365297555923462,0.2790195345878601
0.7334420992550043,-0.17189401042653638,-2.1761911889442707,-0.6451994776725769,-0.1623031347990036,-0.7954152822494507,-0.12706777453422546,-0.669430673122406,-0.7319265007972717,0.22443407773971558,-0.15861809253692627,0.2660146951675415
0.7282115777398575,-0.1650083060548794,-2.188055416594178,-0.6747959852218628,-0.04587559401988983,-0.764921247959137,-0.12259844690561295,-0.6655358672142029,-0.7362279295921326,0.22229935228824615,-0.16744142770767212,0.24744319915771484
0.7227178087836219,-0.15751554981257881,-2.1993347431090204,-0.6725675463676453,0.04535980150103569,-0.7180013060569763,-0.11765046417713165,-0.6614254713058472,-0.7407258152961731,0.22157804667949677,-0.16653168201446533,0.22661149501800537
0.7171977030502052,-0.14999209635009586,-2.209765370978733,-0.6549965739250183,0.07586391270160675,-0.6596024632453918,-0.11261825263500214,-0.6572753190994263,-0.74518883228302,0.21703410148620605,-0.16564643383026123,0.20783531665802002
0.7116711090108033,-0.1432303164205471,-2.219278306527229,-0.6443120241165161,0.018704984337091446,-0.5945219993591309,-0.10809376835823059,-0.6531001925468445,-0.7495171427726746,0.2084050178527832,-0.17041665315628052,0.19363951683044434
0.7061532505213524,-0.13821826907853477,-2.227777246242975,-0.6256672739982605,-0.12941017746925354,-0.5222728252410889,-0.10483073443174362,-0.648911714553833,-0.7536073923110962,0.20621009171009064,-0.1741626262664795,0.18245571851730347
0.7006839744824533,-0.13564953460830306,-2.235138533331733,-0.608018159866333,-0.3032466173171997,-0.4397222697734833,-0.10337299108505249,-0.644740641117096,-0.757379412651062,0.2204994112253189,-0.18166011571884155,0.162713885307312
0.6953482835975231,-0.13525131110819033,-2.2413341197586236,-0.5736077427864075,-0.3924840986728668,-0.35683324933052063,-0.10353376716375351,-0.6406528949737549,-0.760818362236023,0.23124979436397552,-0.18699908256530762,0.13317859172821045
0.6903593085798296,-0.13588791004850356,-2.2465392393203265,-0.5156335830688477,-0.3851805627346039,-0.3051694333553314,-0.10444977879524231,-0.6368142366409302,-0.7639095783233643,0.23347806930541992,-0.20124423503875732,0.10100680589675903
0.6859992528249219,-0.13658584486110636,-2.251177430222396,-0.4427412748336792,-0.3363696038722992,-0.2941993474960327,-0.10535997152328491,-0.6334465146064758,-0.7665799260139465,0.22875776886940002,-0.2217475175857544,0.07593667507171631
0.6822387496973459,-0.13647075894984165,-2.2558742868831843,-0.4016611576080322,-0.22576475143432617,-0.3269714117050171,-0.10559507459402084,-0.6305322647094727,-0.7689465284347534,0.23410457372665405,-0.23558712005615234,0.0658063292503357
0.6788813747743777,-0.13484348293983667,-2.2610445081092547,-0.36967524886131287,-0.10219515860080719,-0.37939679622650146,-0.10462765395641327,-0.6279228329658508,-0.7712107300758362,0.24671746790409088,-0.24962538480758667,0.06239426136016846
0.6759003118390798,-0.13178912892099157,-2.266860949371852,-0.3438113033771515,-0.022183474153280258,-0.4303497076034546,-0.10251713544130325,-0.6255999207496643,-0.7733789086341858,0.27376648783683777,-0.2575482130050659,0.06465399265289307
0.6730277178202378,-0.12803748845450005,-2.272926048918155,-0.3505951762199402,0.011603518389165401,-0.4240169823169708,-0.09984404593706131,-0.6233563423156738,-0.7755373120307922,0.3293209373950958,-0.24853092432022095,0.062372028827667236
0.6699602162169546,-0.12419269128703633,-2.2785821455070576,-0.37307068705558777,0.05838869512081146,-0.3694419264793396,-0.09709794074296951,-0.6209548115730286,-0.777809202671051,0.39383557438850403,-0.2401597499847412,0.0649338960647583
0.6662864524051371,-0.12026946242020253,-2.2834364592711323,-0.4588543176651001,0.12495467811822891,-0.2937628924846649,-0.09431874006986618,-0.6180709600448608,-0.7804436087608337,0.4483378827571869,-0.23401039838790894,0.07214593887329102
0.6612172116657403,-0.1161937642428254,-2.2873843824164686,-0.6285618543624878,0.20494383573532104,-0.19962768256664276,-0.09149917215108871,-0.6140779852867126,-0.7839235067367554,0.49774911999702454,-0.23585188388824463,0.08671897649765015
0.6540145522613978,-0.11188681602950283,-2.2902569613541788,-0.8543020486831665,0.3050680458545685,-0.08499803394079208,-0.08861356973648071,-0.6083774566650391,-0.7886853218078613,0.5483455657958984,-0.23587608337402344,0.0907941460609436
0.6443977884797816,-0.10727601074704461,-2.291823837367345,-1.0722041130065918,0.42813214659690857,0.05017425864934921,-0.0855986550450325,-0.6007171273231506,-0.7948659062385559,0.5904356241226196,-0.22095346450805664,0.059193968772888184
0.6329147841760281,-0.10244144699716837,-2.2918363999063116,-1.191273808479309,0.5310050249099731,0.18737977743148804,-0.08245484530925751,-0.5914974808692932,-0.8020797371864319,0.6125756502151489,-0.1966189742088318,-0.00683438777923584
0.6207690370788729,-0.09770576113757033,-2.2901860613994134,-1.1748831272125244,0.6042043566703796,0.316133588552475,-0.0793505385518074,-0.5816608667373657,-0.8095518350601196,0.609959602355957,-0.17380177974700928,-0.09173905849456787
0.6093358301937645,-0.09305322659638782,-2.286954414522195,-1.0337475538253784,0.6989936828613281,0.42352235317230225,-0.07619620859622955,-0.5723229646682739,-0.8164806365966797,0.5839018821716309,-0.14566415548324585,-0.1781482696533203
0.5995849885956489,-0.0881442982393729,-2.2822537133257317,-0.8235015869140625,0.8150096535682678,0.5192739963531494,-0.07267508655786514,-0.5642998814582825,-0.822364866733551,0.5561955571174622,-0.12014836072921753,-0.2420576810836792
0.5922150906359005,-0.08269363887576522,-2.2762620744480846,-0.5494250655174255,0.945240318775177,0.5830609202384949,-0.06853325664997101,-0.5582002401351929,-0.8268709778785706,0.53041672706604,-0.10694563388824463,-0.27923858165740967
0.5876892463086028,-0.07615595891964862,-2.2694821148192217,-0.2602841556072235,1.1115188598632812,0.60356205701828,-0.06331757456064224,-0.5544394254684448,-0.8298118710517883,0.5039761066436768,-0.10400784015655518,-0.2895270586013794
0.585901821486882,-0.06807187525186041,-2.2622622971611888,-0.018436364829540253,1.2994983196258545,0.6209484934806824,-0.05667462944984436,-0.5529510378837585,-0.8312840461730957,0.506503701210022,-0.12098395824432373,-0.2684778571128845
0.5861718388299253,-0.05831947803017014,-2.2545396780759206,0.14052939414978027,1.4979052543640137,0.6627560257911682,-0.04855634644627571,-0.5531759858131409,-0.8316481113433838,0.5365934371948242,-0.1404581069946289,-0.22528237104415894
0.5877180343033156,-0.04712452513597362,-2.245907246818695,0.23420368134975433,1.6862105131149292,0.7596186399459839,-0.03920289874076843,-0.5544633865356445,-0.83128422498703,0.5783416628837585,-0.14063549041748047,-0.1817924976348877
0.5899428543504772,-0.03509480076238951,-2.2357224412048198,0.275634765625,1.8347232341766357,0.916520893573761,-0.029156826436519623,-0.5563135147094727,-0.830460786819458,0.6336947679519653,-0.13007259368896484,-0.139387845993042
0.5925062133566587,-0.023130522238706517,-2.2233256051256887,0.2885849177837372,1.9165003299713135,1.1233468055725098,-0.019186068326234818,-0.5584418177604675,-0.8293218016624451,0.6821651458740234,-0.12533503770828247,-0.10239505767822266
0.5951995718413459,-0.012366577509152779,-2.2081997737389076,0.29117485880851746,1.9082300662994385,1.3692671060562134,-0.010239718481898308,-0.5606740117073059,-0.8279733061790466,0.7077646851539612,-0.11608380079269409,-0.0677785873413086
0.5981492136314703,-0.0039050675481714994,-2.189975053145183,0.3260340392589569,1.809173583984375,1.6317557096481323,-0.0032270585652440786,-0.5631139874458313,-0.8263729214668274,0.7044446468353271,-0.08744454383850098,-0.03896820545196533
0.6017471142003074,0.0013319653273771313,-2.1685960384909757,0.3962479531764984,1.635650634765625,1.8828673362731934,0.0010980024235323071,-0.566083550453186,-0.8243471384048462,0.6671453714370728,-0.036898016929626465,-0.010796904563903809
0.6062686260380958,0.0028898625393723697,-2.1442158544296053,0.495694637298584,1.43586003780365,2.1157140731811523,0.002374827628955245,-0.5698050856590271,-0.8217764496803284,0.6179864406585693,0.0206565260887146,0.025603413581848145
0.6119303863632158,0.0008896489942037406,-2.117087229838927,0.6230733394622803,1.2633516788482666,2.320552349090576,0.0007282137521542609,-0.5744486451148987,-0.8185403347015381,0.5650066137313843,0.08064371347427368,0.07023406028747559
0.6188560737066938,-0.0043446018071449915,-2.0874809665040415,0.7625505328178406,1.0984716415405273,2.491157054901123,-0.0035388520918786526,-0.5801037549972534,-0.8145349025726318,0.5135638117790222,0.13891112804412842,0.12415099143981934
0.6269231726503268,-0.012559214958305757,-2.0556959399132,0.8844607472419739,0.9666845202445984,2.6403868198394775,-0.010170641355216503,-0.5866557955741882,-0.8097724914550781,0.467659592628479,0.18565481901168823,0.1877937912940979
0.6357170874809009,-0.02316382649130576,-2.021896120655965,0.9565796852111816,0.9039364457130432,2.762742757797241,-0.01863701641559601,-0.5937546491622925,-0.8044302463531494,0.4252837002277374,0.2276199460029602,0.2574790120124817
0.6445402208142041,-0.03528533812829159,-1.986398375096773,0.952549934387207,0.9154070019721985,2.8525748252868652,-0.028200402855873108,-0.6008309721946716,-0.7988784909248352,0.380876749753952,0.26698392629623413,0.3332566022872925
0.6523799180976867,-0.04816382376271872,-1.9495653994445121,0.8341788053512573,0.9521562457084656,2.927090644836426,-0.03825816512107849,-0.6070793271064758,-0.7937197685241699,0.3492932617664337,0.30039292573928833,0.3999056816101074
0.658106419013074,-0.06156384150976134,-1.9116884220437724,0.6335107684135437,0.9733441472053528,2.983030080795288,-0.04867558553814888,-0.6116198301315308,-0.7896530032157898,0.3051605224609375,0.33133113384246826,0.44549107551574707
0.6614398316452347,-0.07520971928337981,-1.8733653178577967,0.44500795006752014,0.9897105693817139,2.9868407249450684,-0.05929270014166832,-0.6142536997795105,-0.7868778705596924,0.23145756125450134,0.3670459985733032,0.4721806049346924
0.6625606016118423,-0.0883683175356367,-1.8354474914098908,0.2624133229255676,1.0377602577209473,2.9355387687683105,-0.06958068162202835,-0.6151376962661743,-0.7853432893753052,0.15698297321796417,0.40917450189590454,0.48338717222213745
0.6615617145601037,-0.10018803040764401,-1.7986732944248782,0.07929891347885132,1.126683235168457,2.8374669551849365,-0.07891955971717834,-0.6143498420715332,-0.7850770354270935,0.09523115307092667,0.4280247092247009,0.4922914505004883
0.6584197935631185,-0.10941186164168265,-1.7636098988448394,-0.12770025432109833,1.328479290008545,2.7169573307037354,-0.08636786043643951,-0.6118677258491516,-0.7862305641174316,0.04866333305835724,0.4169061779975891,0.5073151588439941
0.6529628613511079,-0.11528185383493973,-1.7304838934711788,-0.37690022587776184,1.5304914712905884,2.609952449798584,-0.09136421978473663,-0.6075424551963806,-0.7890150547027588,0.024317055940628052,0.3830704092979431,0.5147383809089661
0.6445944461207513,-0.11763159300231875,-1.6990909141239037,-0.7137155532836914,1.783975601196289,2.540477752685547,-0.09381134808063507,-0.6008743047714233,-0.7938195466995239,0.005661271512508392,0.33360135555267334,0.4911156892776489
0.632588903604044,-0.11676636531870635,-1.6691929336625297,-1.1136424541473389,1.9126787185668945,2.490147352218628,-0.09395816922187805,-0.5912346839904785,-0.8010077476501465,-0.041021138429641724,0.2975945472717285,0.431790828704834
0.616583175357981,-0.11486457791651829,-1.6407816799729216,-1.5208297967910767,1.746294379234314,2.436286687850952,-0.09350736439228058,-0.5782508850097656,-0.8104827404022217,-0.1158890575170517,0.2578468918800354,0.3655364513397217
0.5971114830893346,-0.11432697831499652,-1.6140849319595478,-1.8237818479537964,1.3844033479690552,2.339909315109253,-0.09433837234973907,-0.5622560977935791,-0.8215645551681519,-0.1971350759267807,0.20155364274978638,0.28860557079315186
0.5753019368282117,-0.11554648128959072,-1.5896787440250975,-2.0255990028381348,1.0889912843704224,2.177313804626465,-0.09673116356134415,-0.5440881252288818,-0.8334333896636963,-0.2589665353298187,0.1281793713569641,0.1638929843902588
0.5522171440297922,-0.116473884514815,-1.5681222853215726,-2.1061928272247314,1.062742829322815,1.9548324346542358,-0.09893756359815598,-0.5245761275291443,-0.8455951809883118,-0.2974095344543457,0.04912745952606201,-0.012055516242980957
0.5295145355137945,-0.11439097192032595,-1.5497172249780882,-2.0076169967651367,1.25425124168396,1.6862504482269287,-0.09851023554801941,-0.5051144361495972,-0.8574119210243225,-0.32550105452537537,-0.04691803455352783,-0.2135719656944275
0.5091125583558344,-0.1083732623911456,-1.5344005267127516,-1.7190420627593994,1.450903058052063,1.4049463272094727,-0.09444395452737808,-0.4874025583267212,-0.8680547475814819,-0.3348315954208374,-0.1408170461654663,-0.3954949975013733
0.4926817247383378,-0.09984060618662156,-1.5214610773292523,-1.2971978187561035,1.4616236686706543,1.2002817392349243,-0.08782025426626205,-0.47299036383628845,-0.8766799569129944,-0.2932070195674896,-0.19992223381996155,-0.5340103507041931
0.48061997307643445,-0.0915149540915639,-1.5095929266648211,-0.9106152653694153,1.2877895832061768,1.12788724899292,-0.0810338631272316,-0.4623290002346039,-0.8829979300498962,-0.21507826447486877,-0.23356333374977112,-0.608243465423584
0.47199073822875925,-0.08555166404724256,-1.4974235207223219,-0.6296511888504028,1.011085867881775,1.1857974529266357,-0.07610495388507843,-0.4546602666378021,-0.8874074816703796,-0.12164900451898575,-0.273290753364563,-0.6230142116546631
0.4658617937208095,-0.08271661229996456,-1.4839733250104978,-0.38737350702285767,0.7817949652671814,1.3068492412567139,-0.0738176554441452,-0.44919291138648987,-0.8903800845146179,-0.03226150572299957,-0.30147844552993774,-0.6213234066963196
0.4622359034753193,-0.08230201873251772,-1.4688380184078054,-0.10512134432792664,0.6591475009918213,1.4389395713806152,-0.07358191162347794,-0.4459504783153534,-0.8920279741287231,0.026462718844413757,-0.3260526657104492,-0.6176613569259644
0.46124191821822924,-0.08343298481586561,-1.4521439157714002,0.13553494215011597,0.6042996644973755,1.5450276136398315,-0.07462762296199799,-0.4450605809688568,-0.8923854231834412,0.05877368897199631,-0.3557511270046234,-0.5858402252197266
0.46176500012836125,-0.08552701920750723,-1.43399226818707,0.22083163261413574,0.593110203742981,1.6789653301239014,-0.07647624611854553,-0.44552895426750183,-0.8919951319694519,0.09362707287073135,-0.3865022659301758,-0.5097534656524658
0.46231627790730806,-0.08840310868602541,-1.414197176313396,0.17770759761333466,0.5902358889579773,1.8271653652191162,-0.0790196880698204,-0.4460224211215973,-0.8915266990661621,0.13927659392356873,-0.3927684426307678,-0.4098953604698181
0.46154121129370146,-0.09188679696951274,-1.393029705371676,-0.013702241703867912,0.6042699813842773,1.938847541809082,-0.082156702876091,-0.44532859325408936,-0.8915899991989136,0.14921902120113373,-0.37675395607948303,-0.3220025300979614
0.4580653515909135,-0.09512493043355505,-1.3714629564500485,-0.3235945701599121,0.6642049551010132,1.948767066001892,-0.08518986403942108,-0.4422137439250946,-0.8928548097610474,0.0996246188879013,-0.3768627941608429,-0.26650798320770264
0.4513526630976658,-0.09715311922394444,-1.3506712921718045,-0.6451703906059265,0.7557912468910217,1.8785786628723145,-0.08728653937578201,-0.4361831247806549,-0.895614504814148,0.049826160073280334,-0.3967331051826477,-0.26774609088897705
0.44204061754617335,-0.09752619850662322,-1.331017433365229,-0.8401105999946594,0.8707758784294128,1.8245515823364258,-0.08801236748695374,-0.42778483033180237,-0.8995854258537292,0.06138572096824646,-0.41160112619400024,-0.34769850969314575
0.4316214752464662,-0.09621245793142623,-1.3118666196511763,-0.8755649328231812,1.008026361465454,1.8276891708374023,-0.08725392073392868,-0.418344110250473,-0.9040879011154175,0.1168406531214714,-0.406637579202652,-0.467021107673645
0.4214814181906108,-0.0934203693102099,-1.2925044152671175,-0.784874439239502,1.1341462135314941,1.864907145500183,-0.08512064069509506,-0.4091126620769501,-0.9085049629211426,0.16881504654884338,-0.35196518898010254,-0.5816378593444824
0.41281695142381564,-0.0900599746625143,-1.272512663379919,-0.5936229228973389,1.1303976774215698,1.927018642425537,-0.08238295465707779,-0.40119123458862305,-0.9122821092605591,0.19223091006278992,-0.27974748611450195,-0.6651715040206909
0.40617862343718375,-0.08769892662296824,-1.251472908854227,-0.3898058831691742,1.0018303394317627,2.025965929031372,-0.08046028017997742,-0.39510175585746765,-0.9151069521903992,0.21110597252845764,-0.22347426414489746,-0.7017753720283508
0.40121348573593274,-0.08721240387390168,-1.2291251174261348,-0.2466149777173996,0.8525805473327637,2.144115447998047,-0.0801849365234375,-0.39053574204444885,-0.9170889854431152,0.21685785055160522,-0.17677074670791626,-0.7025551795959473
0.3974003533906969,-0.08819687106637668,-1.2053870904511554,-0.13283461332321167,0.8044260740280151,2.2621896266937256,-0.08121831715106964,-0.38702258467674255,-0.9184862971305847,0.21105530858039856,-0.13986337184906006,-0.6864178776741028
0.3945075551922158,-0.08989781135610089,-1.1805558724603322,-0.042386818677186966,0.7589346170425415,2.3278398513793945,-0.0828806534409523,-0.3843536078929901,-0.9194580316543579,0.17592869699001312,-0.1149139404296875,-0.6680511236190796
0.3920165697392247,-0.09219578352194557,-1.1553061031070901,-0.0452294796705246,0.7251707911491394,2.3434884548187256,-0.08508120477199554,-0.38205277919769287,-0.9202156662940979,0.11669736355543137,-0.09684428572654724,-0.6424674391746521
0.38884421888188464,-0.09398014330500097,-1.13010529396632,-0.16399337351322174,0.8506666421890259,2.3398966789245605,-0.08683636784553528,-0.3791191577911377,-0.9212644100189209,0.0608658492565155,-0.07043525576591492,-0.6225283145904541
0.38415846441168455,-0.09379457528610184,-1.105237629690353,-0.3386610448360443,1.0571774244308472,2.3152048587799072,-0.08683083206415176,-0.37477907538414,-0.9230390191078186,0.011040374636650085,-0.029243111610412598,-0.6383470892906189
0.37792578982251235,-0.09165846369583773,-1.080936211698477,-0.4700758457183838,1.1518927812576294,2.2774951457977295,-0.08507107943296432,-0.3689934313297272,-0.9255305528640747,-0.032604753971099854,0.01175469160079956,-0.6843937635421753
0.37110062830720986,-0.0888210539268784,-1.0570194817974174,-0.4578931927680969,1.1498932838439941,2.2697832584381104,-0.08266609907150269,-0.3626413643360138,-0.9282550811767578,-0.0697234719991684,0.03167828917503357,-0.7632426619529724
0.3655431238639966,-0.08618947605471493,-1.0328415100135164,-0.2169789969921112,1.0996360778808594,2.3136777877807617,-0.08039528876543045,-0.35745659470558167,-0.9304630160331726,-0.09175442159175873,0.061756521463394165,-0.8668239712715149
0.3637124464863367,-0.08482613208422063,-1.0077665312565576,0.28379034996032715,0.9352378249168396,2.370728015899658,-0.0791819840669632,-0.3557462692260742,-0.9312222003936768,-0.11780904233455658,0.1169615089893341,-0.9502017498016357
0.3678359130436353,-0.08599800750439536,-0.9817323255586902,0.9594135284423828,0.6863791942596436,2.384131908416748,-0.08014652878046036,-0.35959693789482117,-0.929659366607666,-0.17359192669391632,0.16819074749946594,-0.9618964195251465
0.37871642252576565,-0.08972552749365484,-0.9551685527979584,1.6198418140411377,0.510843813419342,2.330054759979248,-0.08325576037168503,-0.369728147983551,-0.9254024028778076,-0.25791555643081665,0.1982956826686859,-0.8903782367706299
0.3955222233256991,-0.09490214297859309,-0.9289054389574145,2.1399624347686768,0.4459662437438965,2.1801884174346924,-0.08744387328624725,-0.38529014587402344,-0.918643057346344,-0.35036134719848633,0.20924952626228333,-0.7444276213645935
0.41662438554597553,-0.1001561615327542,-0.903846359955613,2.4666430950164795,0.4921920895576477,1.9710991382598877,-0.09143576771020889,-0.4046759009361267,-0.9098774194717407,-0.4126078486442566,0.2022223174571991,-0.5471690893173218
0.44012707429570797,-0.1040106741929033,-0.8806118359617823,2.5999979972839355,0.6860077977180481,1.745552897453308,-0.09392862766981125,-0.4260544180870056,-0.8998083472251892,-0.42854762077331543,0.1954941749572754,-0.3404412865638733
0.4641312719664138,-0.10470381290140121,-0.8592883041184972,2.5375688076019287,1.0424543619155884,1.5660479068756104,-0.09345629811286926,-0.4476461410522461,-0.8893136978149414,-0.417484313249588,0.19856169819831848,-0.1715536117553711
0.48697824237493725,-0.10180777811437183,-0.839454513888723,2.3453707695007324,1.3202160596847534,1.4693025350570679,-0.08981737494468689,-0.4679575562477112,-0.8791749477386475,-0.4011647403240204,0.18562421202659607,-0.03717637062072754
0.5075611304668604,-0.09748876825394101,-0.8204218298451866,2.062192678451538,1.3040595054626465,1.4484922885894775,-0.08506371825933456,-0.48604729771614075,-0.8697828650474548,-0.3961222469806671,0.19452816247940063,0.06874221563339233
0.5250906757699745,-0.09542765916270364,-0.8014687785219754,1.7241207361221313,0.9176362156867981,1.494775414466858,-0.08244623988866806,-0.5012914538383484,-0.8613417148590088,-0.3855561316013336,0.22645020484924316,0.133711040019989
0.5390446042307808,-0.09958796555776524,-0.781567057655868,1.3877818584442139,0.25564971566200256,1.64749276638031,-0.08532513678073883,-0.5133163332939148,-0.8539472818374634,-0.34697166085243225,0.2530624270439148,0.14432203769683838
0.5499112344450116,-0.1116733884919802,-0.759641559803904,1.1771682500839233,-0.3910934329032898,1.8379567861557007,-0.09501171857118607,-0.5226115584373474,-0.8472602963447571,-0.2912493348121643,0.2746410369873047,0.0876624584197998
0.5589846876071564,-0.1308589209372826,-0.7357750753281218,1.1260992288589478,-0.9087712168693542,1.9432448148727417,-0.11062505096197128,-0.530325710773468,-0.8405454754829407,-0.2899792492389679,0.3027561902999878,-0.014465510845184326
0.5676601185733309,-0.15506721558790665,-0.7110554799049502,1.1895347833633423,-1.2683823108673096,1.9167112112045288,-0.1302233338356018,-0.5376605987548828,-0.8330444097518921,-0.34270763397216797,0.3186360001564026,-0.10852968692779541
0.5768232712559846,-0.18202060396865222,-0.6868604844587793,1.2865588665008545,-1.4695204496383667,1.7608106136322021,-0.15172846615314484,-0.5453639626502991,-0.8243522644042969,-0.41501352190971375,0.33802759647369385,-0.16092300415039062
0.5864977397376309,-0.20895674452458118,-0.6644907121049122,1.3164477348327637,-1.40974760055542,1.5099502801895142,-0.17277301847934723,-0.553447425365448,-0.814767062664032,-0.45781174302101135,0.3663442134857178,-0.16017800569534302
0.5960197275537088,-0.23232031872532694,-0.6450374849427185,1.2269456386566162,-1.0507677793502808,1.2135695219039917,-0.19053800404071808,-0.5613529682159424,-0.805343508720398,-0.4682602286338806,0.3890202045440674,-0.12474071979522705
0.604686881759337,-0.24939194817959898,-0.6291719094990486,1.0620667934417725,-0.5620723962783813,0.9141618013381958,-0.20304961502552032,-0.5685045123100281,-0.7972286343574524,-0.44798192381858826,0.39395928382873535,-0.07282751798629761
0.6119814889674154,-0.2598622048333665,-0.6169793250141485,0.8400572538375854,-0.14416226744651794,0.6555350422859192,-0.2103143334388733,-0.574490487575531,-0.7910300493240356,-0.3902411162853241,0.3908509612083435,-0.022538065910339355
0.6173702760187467,-0.26445399589522023,-0.6081677007348236,0.56707364320755,0.2352704256772995,0.4562419056892395,-0.21313205361366272,-0.5788928866386414,-0.7870563864707947,-0.32367217540740967,0.39284253120422363,0.006691396236419678
0.6206894098581723,-0.2642330777987618,-0.6023460986061966,0.3282861113548279,0.4553450345993042,0.28551411628723145,-0.21245519816875458,-0.5815961360931396,-0.7852444052696228,-0.2711721658706665,0.39099860191345215,-0.0015140175819396973
0.6225229701054735,-0.26144783600873645,-0.5989240007503565,0.18151260912418365,0.47567951679229736,0.16298840939998627,-0.20999127626419067,-0.5830867290496826,-0.7848016023635864,-0.2227785438299179,0.3757808208465576,-0.030094027519226074
0.6235793444336594,-0.2584201651561343,-0.5968200435831736,0.12431855499744415,0.3543698489665985,0.12466712296009064,-0.20745667815208435,-0.58394455909729,-0.7848378419876099,-0.13977235555648804,0.3524993062019348,-0.05790507793426514
0.6246428078236254,-0.257503194239631,-0.594581440526786,0.18064115941524506,0.07042451202869415,0.18223199248313904,-0.20657864212989807,-0.5848075747489929,-0.784426748752594,-0.04535923898220062,0.3426048755645752,-0.08405768871307373
0.6261760639180617,-0.260867846754872,-0.5910090593293736,0.26009124517440796,-0.3323967158794403,0.30214136838912964,-0.20898528397083282,-0.5860506296157837,-0.7828600406646729,0.03344812989234924,0.34900540113449097,-0.09551215171813965
0.628039876656875,-0.26939046080721896,-0.5855997412596841,0.3254564702510834,-0.725382387638092,0.43976297974586487,-0.21535854041576385,-0.5875598192214966,-0.7799962759017944,0.08118796348571777,0.3410083055496216,-0.08546698093414307
0.630006604642405,-0.28243062548820347,-0.5785332473571277,0.3550335168838501,-1.0233969688415527,0.5413018465042114,-0.225188747048378,-0.589150071144104,-0.7760104537010193,0.0903773158788681,0.32236552238464355,-0.06969267129898071
0.6316525026571593,-0.2978636807799852,-0.5705210754399906,0.3222448229789734,-1.0790987014770508,0.5955373644828796,-0.236852765083313,-0.5904791951179504,-0.7715147733688354,0.0928555428981781,0.3051551580429077,-0.05152904987335205
0.6324672583688218,-0.3129432668132601,-0.5622989666970915,0.2246895134449005,-0.9340746998786926,0.6119429469108582,-0.24831132590770721,-0.5911365747451782,-0.7673975825309753,0.10640455782413483,0.288921058177948,-0.044919371604919434
0.6321722636566074,-0.32570693633609993,-0.5544363449475738,0.12285212427377701,-0.6760343909263611,0.6052998900413513,-0.258141428232193,-0.5908986330032349,-0.7643309831619263,0.12279590964317322,0.28140461444854736,-0.06463325023651123
0.6312976436541041,-0.3354677631760448,-0.5470311172843723,0.11739584058523178,-0.4027509391307831,0.5759752988815308,-0.26575952768325806,-0.5901927947998047,-0.7622625827789307,0.12072470784187317,0.27108579874038696,-0.11260008811950684
0.6310946590999458,-0.34276648104771235,-0.5397596646789746,0.24441403150558472,-0.2140236347913742,0.5396873950958252,-0.2713562250137329,-0.5900289416313171,-0.7604154944419861,0.09688720107078552,0.24926972389221191,-0.1639009714126587
0.6324095838391491,-0.3488885227016833,-0.5321379442879114,0.4169013798236847,-0.11794450879096985,0.5300424695014954,-0.27574095129966736,-0.5910900831222534,-0.7580102682113647,0.08348017930984497,0.23510253429412842,-0.18197691440582275
0.6350045199584923,-0.3547815226244418,-0.5237940170814039,0.5198765397071838,-0.07842618972063065,0.5543501973152161,-0.27966931462287903,-0.5931811332702637,-0.7549312710762024,0.09004831314086914,0.23983341455459595,-0.1593601107597351
0.6381316742391442,-0.36136153802882265,-0.5146240240819515,0.5783103108406067,-0.16687296330928802,0.6053845882415771,-0.28397345542907715,-0.5956958532333374,-0.751335859298706,0.10448426008224487,0.2453693151473999,-0.11630940437316895
0.6415698582209212,-0.37034042383475135,-0.5044770353892158,0.6442257165908813,-0.4363129436969757,0.6624040007591248,-0.28996509313583374,-0.5984538793563843,-0.7468422055244446,0.08619916439056396,0.24094051122665405,-0.0681450366973877
0.6453354624901103,-0.38346329028171383,-0.4933358543780467,0.7016584277153015,-0.8650062680244446,0.7142413854598999,-0.29889529943466187,-0.6014664769172668,-0.7408776879310608,0.04875794053077698,0.23575913906097412,-0.013593196868896484
0.6489919687823259,-0.4018872455337143,-0.4814268141679647,0.6874036192893982,-1.3793494701385498,0.752360463142395,-0.31163138151168823,-0.604383647441864,-0.7332164645195007,0.027527928352355957,0.2463362216949463,0.05317801237106323
0.6519574371353327,-0.4251515056304081,-0.4693603040641255,0.6197715401649475,-1.7767647504806519,0.7597088813781738,-0.32786253094673157,-0.6067435145378113,-0.7241328358650208,0.01795649528503418,0.26455003023147583,0.10293233394622803
0.6542701631404406,-0.4513889156260124,-0.45760825882834905,0.5989983677864075,-2.0206384658813477,0.7225160002708435,-0.34613385796546936,-0.6085802912712097,-0.7140178084373474,0.004275918006896973,0.273390531539917,0.10487169027328491
0.6568323706020602,-0.4794853019467311,-0.44633479450892777,0.668964147567749,-2.2052712440490723,0.6371765732765198,-0.3653353750705719,-0.6106113791465759,-0.7026264071464539,-0.008504986763000488,0.2743229866027832,0.08318054676055908
0.6605837707346621,-0.5089973153241415,-0.43518368122049683,0.8305490016937256,-2.3033130168914795,0.5588083863258362,-0.38479024171829224,-0.6135779023170471,-0.6895350813865662,0.008294850587844849,0.28659743070602417,0.06035411357879639
0.6661214118533073,-0.5393327879701982,-0.4234652271575258,1.0517213344573975,-2.295684814453125,0.47583281993865967,-0.4037761986255646,-0.6179412007331848,-0.6746209859848022,0.04238700866699219,0.3045562505722046,0.051986098289489746
0.6738229841586373,-0.5696183932864846,-0.41098237583618635,1.2807892560958862,-2.1822237968444824,0.36869773268699646,-0.4214400351047516,-0.6239779591560364,-0.6580575704574585,0.06850418448448181,0.31687963008880615,0.0669320821762085
0.6836661217763771,-0.5987606830792668,-0.3977377645723107,1.4824669361114502,-1.9538230895996094,0.26011666655540466,-0.43695271015167236,-0.6316394805908203,-0.6403936147689819,0.10148817300796509,0.3265247344970703,0.09959161281585693
0.6953370806043712,-0.625709292203951,-0.38386966448953747,1.6427096128463745,-1.6563684940338135,0.1460265815258026,-0.4497013986110687,-0.6406443119049072,-0.6223693490028381,0.14318278431892395,0.3351786732673645,0.14098507165908813
0.7085437168654062,-0.650065130117031,-0.3696303036557276,1.754910945892334,-1.3765267133712769,0.022894257679581642,-0.45956361293792725,-0.650728702545166,-0.604444682598114,0.16993650794029236,0.3419671654701233,0.19309818744659424
0.7229191428057842,-0.6720899000638851,-0.3555390077768458,1.8004151582717896,-1.1878911256790161,-0.1079564243555069,-0.46689093112945557,-0.661576509475708,-0.5867959260940552,0.1832757592201233,0.3516858220100403,0.2570992708206177
0.7380307355683964,-0.6927030687988306,-0.34192000690940205,1.8152692317962646,-1.123056411743164,-0.22307369112968445,-0.47244754433631897,-0.6728323698043823,-0.5692889094352722,0.1991320550441742,0.3599967360496521,0.3177782893180847
0.7537388085604642,-0.7132330031015137,-0.32876867061636467,1.8194626569747925,-1.211072325706482,-0.32832205295562744,-0.4770601689815521,-0.6843696236610413,-0.5514088869094849,0.20466023683547974,0.35975420475006104,0.37066853046417236
0.7698726462671427,-0.735313685049457,-0.3158560847643004,1.823702335357666,-1.4296594858169556,-0.4095149338245392,-0.48164820671081543,-0.6960437893867493,-0.532482922077179,0.21838825941085815,0.35240066051483154,0.41701966524124146
0.7861814406900655,-0.7600364959611016,-0.3029243817885101,1.8049418926239014,-1.6879010200500488,-0.4466283321380615,-0.4867779612541199,-0.707660436630249,-0.5121170282363892,0.2542034685611725,0.3487890362739563,0.45048677921295166
0.8021041286899634,-0.7874542320869437,-0.28961829295210506,1.7616369724273682,-1.867966890335083,-0.440874308347702,-0.49258723855018616,-0.7188204526901245,-0.49056580662727356,0.30459895730018616,0.34501075744628906,0.47440680861473083
0.8172847073461413,-0.8160536980461439,-0.27616049498708267,1.6675150394439697,-1.8614091873168945,-0.4512331485748291,-0.49840694665908813,-0.7292907238006592,-0.46874895691871643,0.34447625279426575,0.32857972383499146,0.48493850231170654
0.8316849181886515,-0.8431317605192118,-0.26333604286268975,1.547774314880371,-1.6361039876937866,-0.495172917842865,-0.503020703792572,-0.7390674352645874,-0.448050856590271,0.37431275844573975,0.2965167760848999,0.4741128087043762
0.8454577339191911,-0.8666487378349633,-0.25145584254714237,1.4550937414169312,-1.2776356935501099,-0.5393831729888916,-0.5056108832359314,-0.7482748627662659,-0.4294676184654236,0.4076341986656189,0.24949562549591064,0.4464048743247986
0.8589342592692182,-0.8858422898580952,-0.24023450135191118,1.4055650234222412,-0.8679469227790833,-0.5824819207191467,-0.5059041380882263,-0.7571467757225037,-0.41326704621315,0.4502705931663513,0.22276878356933594,0.40371501445770264
0.8723391153337839,-0.901090519987806,-0.2290008086283385,1.400646448135376,-0.455204039812088,-0.5850018858909607,-0.5041437149047852,-0.765835165977478,-0.39916858077049255,0.49645328521728516,0.22863435745239258,0.34693774580955505
0.8854013318487216,-0.912775074008476,-0.21702101423317968,1.4070748090744019,-0.04495977610349655,-0.5201544165611267,-0.5008153915405273,-0.7741690874099731,-0.3870998024940491,0.5624303221702576,0.25857460498809814,0.2800288796424866
0.8979621925892368,-0.922117177809631,-0.2034322489383047,1.4861156940460205,0.2681436240673065,-0.43769240379333496,-0.49662116169929504,-0.7820585370063782,-0.37649956345558167,0.6174707412719727,0.26052844524383545,0.21207082271575928
0.9109871443551679,-0.9321145734802558,-0.18679100016459943,1.7298802137374878,0.3196784555912018,-0.4199349880218506,-0.49213966727256775,-0.7901092171669006,-0.3654121458530426,0.6156595349311829,0.25303035974502563,0.16803967952728271
0.925426799827799,-0.9447256061116871,-0.16666933463143144,1.9085187911987305,0.3816468417644501,-0.47116371989250183,-0.4874120056629181,-0.7988775372505188,-0.3524543344974518,0.5710606575012207,0.22876352071762085,0.18527904152870178
0.940712363564977,-0.9569417140224299,-0.1456265634273873,1.8715264797210693,0.5563110709190369,-0.5692748427391052,-0.48164239525794983,-0.8079780340194702,-0.33939987421035767,0.5896897912025452,0.17914801836013794,0.23130658268928528
0.9564970617634931,-0.9665562426707901,-0.12632058424639445,1.7669146060943604,0.6327841281890869,-0.7391798496246338,-0.47432756423950195,-0.8171775341033936,-0.32746607065200806,0.595757007598877,0.0862206220626831,0.27952298521995544
0.9732036721817908,-0.9737173914824427,-0.11006364938040651,1.6304875612258911,0.6076539754867554,-0.9717159271240234,-0.4653043746948242,-0.826692521572113,-0.31634047627449036,0.5803709030151367,0.0064411163330078125,0.33071431517601013
0.9907785395406232,-0.9770624727627722,-0.09828804749844391,1.3995258808135986,0.6979721784591675,-1.192054271697998,-0.4542461037635803,-0.8364529013633728,-0.30660566687583923,0.6194987297058105,-0.07454252243041992,0.36356669664382935
1.008375305899347,-0.9741002886296766,-0.09226011866053609,1.1078218221664429,0.9152917265892029,-1.341746211051941,-0.4410909116268158,-0.845966637134552,-0.29963189363479614,0.7058002948760986,-0.19683420658111572,0.37696343660354614
1.025381780602267,-0.9637082062527098,-0.09182728239242022,0.8531078696250916,1.2408963441848755,-1.4255528450012207,-0.4260745942592621,-0.854912281036377,-0.2959485948085785,0.7774081230163574,-0.3461986184120178,0.3786969482898712
1.041608976117576,-0.9453702148407104,-0.09655901371354825,0.616533100605011,1.6007200479507446,-1.4957529306411743,-0.40927422046661377,-0.8632175922393799,-0.29555025696754456,0.813723623752594,-0.45157116651535034,0.37677276134490967
1.056611911085898,-0.9184600311191089,-0.10714863049302656,0.3076654076576233,1.93252432346344,-1.5267773866653442,-0.39083731174468994,-0.8706941604614258,-0.29855960607528687,0.8398424386978149,-0.5018338561058044,0.3906311094760895
1.069191181410167,-0.8821729558553947,-0.1245250862533372,-0.0775320753455162,2.2782821655273438,-1.4796875715255737,-0.37126195430755615,-0.8768118619918823,-0.30555763840675354,0.8852237462997437,-0.5232734680175781,0.39335671067237854
1.0783213925263955,-0.8366418213379042,-0.14860738686611716,-0.4636416435241699,2.5639517307281494,-1.3923194408416748,-0.3510114252567291,-0.8811653852462769,-0.3167622983455658,0.9173871278762817,-0.5324392318725586,0.3703053891658783
1.0836536139165678,-0.7843944109270481,-0.1778812304968106,-0.7818960547447205,2.676063060760498,-1.2634320259094238,-0.3306664526462555,-0.8836739659309387,-0.33133092522621155,0.9294518232345581,-0.5259787440299988,0.31880342960357666
1.0852312222171638,-0.7303184740656801,-0.2091897816723338,-0.9744199514389038,2.5592737197875977,-1.0664143562316895,-0.31134432554244995,-0.8844113349914551,-0.34767991304397583,0.9416238069534302,-0.5150026679039001,0.24636149406433105
1.0836737249599964,-0.6798102412940482,-0.2385488446075773,-1.0201025009155273,2.338762044906616,-0.8151600360870361,-0.29425954818725586,-0.8836833834648132,-0.3640260100364685,0.9457792639732361,-0.4995105266571045,0.1581849455833435
1.0799516617025828,-0.6354908805877569,-0.2630548652645773,-0.9613444805145264,2.202147960662842,-0.5492872595787048,-0.2797929346561432,-0.8819350004196167,-0.3793501555919647,0.9410783052444458,-0.4747238755226135,0.06337115168571472
1.074893710301657,-0.5968883919601098,-0.28176532845058194,-0.8846220374107361,2.2349045276641846,-0.3175294101238251,-0.2674480974674225,-0.8795396089553833,-0.39354994893074036,0.9168010950088501,-0.4558942914009094,-0.025364845991134644
1.0691678638231594,-0.5616027153437252,-0.2953254932847378,-0.7747403383255005,2.449042797088623,-0.1478324681520462,-0.25607559084892273,-0.8768006563186646,-0.4069960415363312,0.8618341684341431,-0.4571378231048584,-0.10582131147384644
1.0636532183151426,-0.5278040703096523,-0.3043159247996989,-0.6084379553794861,2.7175869941711426,-0.0330510213971138,-0.24460764229297638,-0.8741356134414673,-0.41958799958229065,0.7924286723136902,-0.46128302812576294,-0.17268192768096924
1.0591346472189884,-0.4949013337420202,-0.30951851585246287,-0.4350038468837738,2.933894157409668,0.02904493734240532,-0.2325456589460373,-0.8719320893287659,-0.4308791160583496,0.7312028408050537,-0.4618690609931946,-0.2044510543346405
1.055248171920352,-0.46190238069067396,-0.3123965416133012,-0.40730324387550354,3.1501455307006836,0.07391946762800217,-0.21971167623996735,-0.8700225949287415,-0.44134730100631714,0.6970828771591187,-0.45569145679473877,-0.20487767457962036
1.0506132033866142,-0.42721609419783596,-0.314704998742142,-0.5419405102729797,3.352724075317383,0.11832715570926666,-0.20594260096549988,-0.8677281737327576,-0.4523667097091675,0.6793769598007202,-0.4516688585281372,-0.1985122561454773
1.0441051437285627,-0.3912200716180816,-0.31712914418193866,-0.7473258972167969,3.380530595779419,0.17789727449417114,-0.19167855381965637,-0.8644750714302063,-0.4646957218647003,0.668271541595459,-0.4418755769729614,-0.20885774493217468
1.0355139934626145,-0.3562296255991577,-0.31900712681052806,-0.9047239422798157,3.260425329208374,0.27983587980270386,-0.17788821458816528,-0.8601246476173401,-0.4780600070953369,0.6688702702522278,-0.40711772441864014,-0.261091023683548
1.025559222432559,-0.32485875806229464,-0.3185044517744514,-0.9316884875297546,3.0744433403015137,0.43746012449264526,-0.1655307412147522,-0.8550043702125549,-0.49149471521377563,0.6831851005554199,-0.35729116201400757,-0.34793704748153687
1.0154374592854905,-0.29900133129617595,-0.3139001128052641,-0.8268865346908569,2.8605411052703857,0.643122673034668,-0.15530939400196075,-0.8497112989425659,-0.5038548111915588,0.7006431818008423,-0.3078356385231018,-0.43834495544433594
1.0062296210703074,-0.27960473008520065,-0.304101329090523,-0.6359253525733948,2.673786163330078,0.8807727694511414,-0.1476607769727707,-0.844820499420166,-0.5142709612846375,0.7118239402770996,-0.2604956030845642,-0.5045278668403625
0.9982494861930132,-0.26575445346285775,-0.2888620545247575,-0.46506381034851074,2.6717004776000977,1.1248524188995361,-0.14229021966457367,-0.840523898601532,-0.5227553844451904,0.7252216935157776,-0.21774935722351074,-0.5474961400032043
0.991106005528725,-0.25519204166312154,-0.26864777237369647,-0.3526246249675751,2.8233273029327393,1.3636703491210938,-0.1382729560136795,-0.8366323113441467,-0.5300254225730896,0.7367684245109558,-0.1950143575668335,-0.5709725618362427
0.9845430392592861,-0.24659711968852213,-0.24397619167968335,-0.24367447197437286,2.988102912902832,1.5770866870880127,-0.13504981994628906,-0.8330193758010864,-0.5365074276924133,0.7257633209228516,-0.1653478741645813,-0.5720435976982117
0.9785923353137026,-0.23956544759784984,-0.21582423479024693,-0.16437457501888275,3.0731637477874756,1.7298970222473145,-0.13244783878326416,-0.829712450504303,-0.5422496795654297,0.6807724237442017,-0.11477601528167725,-0.5534992218017578
0.9727157752365295,-0.2336560863693959,-0.18567200741317264,-0.20590472221374512,3.0768795013427734,1.8131259679794312,-0.13036790490150452,-0.8264179229736328,-0.5477569103240967,0.6153532266616821,-0.05712699890136719,-0.5172607898712158
0.9657053598817062,-0.2280804913272623,-0.15509567591476645,-0.3666427433490753,3.0623574256896973,1.8620535135269165,-0.12861864268779755,-0.8224503397941589,-0.554105281829834,0.566820502281189,0.009752035140991211,-0.4888635277748108
0.957199498981658,-0.22236597370636302,-0.12465166390059888,-0.5033141374588013,3.0528934001922607,1.9041078090667725,-0.12698838114738464,-0.8175821900367737,-0.5616344809532166,0.5253342986106873,0.07872116565704346,-0.4985462427139282
0.9476150948880192,-0.21695168115535204,-0.09400042822697212,-0.5874412655830383,2.9925336837768555,1.9743186235427856,-0.12562669813632965,-0.8120259046554565,-0.5699401497840881,0.516755223274231,0.14402669668197632,-0.5306457877159119
0.9372723536547234,-0.2130805806847122,-0.06258162826589726,-0.6365478038787842,2.8438780307769775,2.0668413639068604,-0.1251889020204544,-0.8059463500976562,-0.5786002278327942,0.5393733978271484,0.18476110696792603,-0.5653969645500183
0.9265772121635296,-0.21147044532522527,-0.029896238065759372,-0.6238833665847778,2.719451904296875,2.1803340911865234,-0.12605923414230347,-0.7995690107345581,-0.5871954560279846,0.553106963634491,0.20975583791732788,-0.6111688017845154
0.9159347392837487,-0.2114285824212049,0.004257510653776811,-0.5764651894569397,2.7247655391693115,2.294069290161133,-0.12781323492527008,-0.7931322455406189,-0.5954872369766235,0.5575159788131714,0.24023008346557617,-0.6788963675498962
0.9059803210709612,-0.2120930926137688,0.0401214988881646,-0.43016257882118225,2.796058416366577,2.4082939624786377,-0.12986451387405396,-0.7870302796363831,-0.6030908226966858,0.5494354367256165,0.27096283435821533,-0.738889217376709
0.8976249224720487,-0.21338702618911412,0.07794674135482658,-0.20327085256576538,2.856713056564331,2.513110637664795,-0.13203275203704834,-0.7818483114242554,-0.6093278527259827,0.5260452032089233,0.2997012138366699,-0.7611860632896423
0.8911449252640085,-0.21525357601507483,0.11748949430209164,-0.023030778393149376,2.919281244277954,2.579887628555298,-0.1342492401599884,-0.7777918577194214,-0.6140170693397522,0.4874596893787384,0.31580156087875366,-0.7355160713195801
0.8855609665161647,-0.2169298005908594,0.1577034572183319,-0.0003592618741095066,2.9620630741119385,2.5894362926483154,-0.13621094822883606,-0.7742701172828674,-0.6180228590965271,0.43235349655151367,0.331521213054657,-0.6715889573097229
0.8795175641394608,-0.21754958502071994,0.19704636161444666,-0.11299366503953934,2.9653561115264893,2.5287106037139893,-0.13760142028331757,-0.770431399345398,-0.6224960088729858,0.36672738194465637,0.3403777480125427,-0.6029679179191589
0.8723680065206625,-0.2169476534703884,0.2344171118463447,-0.24248018860816956,2.8654141426086426,2.433305263519287,-0.1384088397026062,-0.765853762626648,-0.627941906452179,0.3148919939994812,0.35649096965789795,-0.581317126750946
0.864521083016387,-0.2159303186510814,0.2698309867648368,-0.290348082780838,2.731238603591919,2.3598532676696777,-0.13905327022075653,-0.7607845067977905,-0.6339330673217773,0.2860412001609802,0.3669247031211853,-0.6099329590797424
0.8570135647337128,-0.21461476572422905,0.3040930071505831,-0.200466126203537,2.7295186519622803,2.311358690261841,-0.13943170011043549,-0.7558907270431519,-0.6396781206130981,0.2975279986858368,0.36753928661346436,-0.6725624799728394
0.8513613824325984,-0.2125628808369169,0.33814040750702395,0.06049703061580658,2.7964444160461426,2.2857141494750977,-0.1390179544687271,-0.7521781921386719,-0.6441287994384766,0.3016614019870758,0.35451894998550415,-0.7376003265380859
0.8486284843327849,-0.20987432827307062,0.37270496844069234,0.3553014099597931,2.9263622760772705,2.280197858810425,-0.13771341741085052,-0.7503744959831238,-0.6465082764625549,0.3002347946166992,0.3400200605392456,-0.7493199706077576
0.8485182602638334,-0.2059882345611933,0.4079451042121888,0.5656006336212158,3.116428852081299,2.2664589881896973,-0.13521693646907806,-0.7503016591072083,-0.6471196413040161,0.29303860664367676,0.3430904150009155,-0.7021693587303162
0.8499549600737046,-0.2007491295255143,0.4433786498943317,0.6376362442970276,3.216292381286621,2.2463574409484863,-0.13160966336727142,-0.751250684261322,-0.6467621326446533,0.2627894878387451,0.3483882546424866,-0.6039702892303467
0.8515529382826516,-0.1948070598566538,0.478641931633323,0.5673322677612305,3.247408390045166,2.239192247390747,-0.12753170728683472,-0.7523044347763062,-0.6463541388511658,0.2331683486700058,0.3485416769981384,-0.47496849298477173
0.8519417749809799,-0.18855192544505556,0.5133903317629278,0.36211028695106506,3.1932308673858643,2.2239482402801514,-0.12343138456344604,-0.752560555934906,-0.6468518972396851,0.19794008135795593,0.353604257106781,-0.3575579524040222
0.8499627993220081,-0.18259989378897132,0.5471515217959523,0.058765050023794174,3.049124240875244,2.206897497177124,-0.11984934657812119,-0.7512558698654175,-0.6490384340286255,0.1617041826248169,0.3593185544013977,-0.26279622316360474
0.8448580995810526,-0.17726804736742197,0.5797098502006315,-0.2890564799308777,2.879451036453247,2.205841064453125,-0.11706181615591049,-0.7478769421577454,-0.6534345149993896,0.14866280555725098,0.35889989137649536,-0.21363097429275513
0.8367426944289628,-0.17287163300414177,0.611568210841796,-0.5462155342102051,2.7402236461639404,2.250852346420288,-0.11522815376520157,-0.7424650192260742,-0.6599001288414001,0.15439748764038086,0.3561888337135315,-0.23052656650543213
0.8269123177356394,-0.1695890350666735,0.6435589337111428,-0.6322471499443054,2.624971866607666,2.317647695541382,-0.11428770422935486,-0.735844075679779,-0.6674367189407349,0.15432679653167725,0.36172914505004883,-0.30134379863739014
0.8170385692589999,-0.167850192196592,0.6762678076726396,-0.5468550324440002,2.502944231033325,2.391711950302124,-0.11433525383472443,-0.7291222810745239,-0.6747652888298035,0.13633844256401062,0.3668176531791687,-0.3843015432357788
0.8084120952926824,-0.16762353886338335,0.7100639565561325,-0.36549749970436096,2.443674325942993,2.4640743732452393,-0.11522743105888367,-0.7231913805007935,-0.6809675693511963,0.11386941373348236,0.36726492643356323,-0.4508683681488037
0.8016694132339882,-0.16831133746967436,0.7449847044585176,-0.15165285766124725,2.4350054264068604,2.5170464515686035,-0.11650998890399933,-0.7185181975364685,-0.6856799721717834,0.08228453993797302,0.3857545852661133,-0.48396730422973633
0.7968840754290897,-0.1696065036211932,0.7807174225201609,0.03894282504916191,2.411982297897339,2.5366334915161133,-0.11797700077295303,-0.7151817083358765,-0.6889097094535828,0.042400263249874115,0.40098804235458374,-0.47339802980422974
0.7935927326309167,-0.17121620522003025,0.8167020414978029,0.15773339569568634,2.3900792598724365,2.520714521408081,-0.11948619037866592,-0.7128773927688599,-0.6910346150398254,-0.007161736488342285,0.40066736936569214,-0.42944884300231934
0.791246785381671,-0.1729378646082109,0.8523500354440546,0.23400162160396576,2.313213348388672,2.4770004749298096,-0.1209631860256195,-0.7112302780151367,-0.6924734115600586,-0.0493096262216568,0.3870725631713867,-0.3810434937477112
0.7896002413956577,-0.1751893593366672,0.8875787182109381,0.2972621023654938,2.228163719177246,2.4470326900482178,-0.12272591888904572,-0.710071861743927,-0.6933515071868896,-0.0706334114074707,0.3698314428329468,-0.3347399830818176
0.7884513737063077,-0.17806586257394072,0.9227281943268564,0.3432714641094208,2.1758570671081543,2.46368408203125,-0.12486425042152405,-0.7092624306678772,-0.6937980055809021,-0.055052101612091064,0.361026406288147,-0.2997780442237854
0.7875860311927192,-0.1819170247378019,0.9586369776888944,0.39064696431159973,2.1187515258789062,2.53896164894104,-0.12764623761177063,-0.708652138710022,-0.6939154267311096,-0.013634845614433289,0.34668320417404175,-0.27050113677978516
0.7869193702840203,-0.18760849018158174,0.9958630397436784,0.4383793771266937,2.006182909011841,2.634705066680908,-0.1316816359758377,-0.708181619644165,-0.6936416625976562,0.009397745132446289,0.3231413960456848,-0.23694610595703125
0.7862309544478664,-0.19509624286437652,1.0343745105124933,0.45235058665275574,1.9386578798294067,2.7095437049865723,-0.13696618378162384,-0.7076954245567322,-0.6931142807006836,-4.245340824127197e-05,0.29708147048950195,-0.1987619400024414
0.7850361670706184,-0.20357855616114684,1.0734966727769377,0.4036869704723358,1.8900774717330933,2.7376444339752197,-0.14301124215126038,-0.7068507671356201,-0.6927551627159119,-0.02471330761909485,0.2772396206855774,-0.1580749750137329
0.7829459908159846,-0.21204535318197548,1.112348102546503,0.3151829242706299,1.899074673652649,2.707184314727783,-0.14918209612369537,-0.7053707242012024,-0.6929624676704407,-0.06222836673259735,0.2536953091621399,-0.1219332218170166
0.7797498679308164,-0.21916556730178577,1.1500549266762794,0.20302435755729675,1.9846432209014893,2.640005350112915,-0.15460166335105896,-0.7031015753746033,-0.694079577922821,-0.09265169501304626,0.24195045232772827,-0.10918885469436646
0.7754924917965025,-0.2239837233892736,1.186147942013795,0.10021355748176575,2.1054179668426514,2.541619300842285,-0.15860748291015625,-0.7000678181648254,-0.6962389349937439,-0.11132045090198517,0.2407631278038025,-0.1087537407875061
0.7704310682943583,-0.2257292126734113,1.2201810965724802,-0.0010211644694209099,2.297793388366699,2.4147191047668457,-0.1606135368347168,-0.6964446306228638,-0.6994055509567261,-0.12298627197742462,0.23788750171661377,-0.11799252033233643
0.7647579391282975,-0.2236727147820915,1.2520555092330528,-0.07292891293764114,2.514937162399292,2.296187162399292,-0.1600486934185028,-0.692362368106842,-0.7035757303237915,-0.10720895230770111,0.23739111423492432,-0.143088698387146
0.7589995147479002,-0.21845407964200456,1.2821661994028537,-0.08932685106992722,2.659046173095703,2.1969728469848633,-0.1572362780570984,-0.6881958842277527,-0.7082818150520325,-0.09099364280700684,0.24410414695739746,-0.16946476697921753
0.7534350385418137,-0.21103773441950924,1.3109890419725985,-0.10537639260292053,2.753349781036377,2.1262524127960205,-0.15277893841266632,-0.6841481328010559,-0.7131619453430176,-0.0639110803604126,0.2574055790901184,-0.1877933144569397
0.7479125281117696,-0.2021231400364558,1.3388750109381675,-0.14020390808582306,2.8170456886291504,2.077984094619751,-0.14717164635658264,-0.6801099181175232,-0.7181859016418457,-0.04045036435127258,0.2751111388206482,-0.1987452507019043
0.7423450609733613,-0.19192875894684425,1.3659363659850963,-0.17525403201580048,2.871752977371216,2.0296478271484375,-0.1405627727508545,-0.6760178208351135,-0.723354697227478,-0.03671376407146454,0.3020859956741333,-0.21170389652252197
0.7367275532683553,-0.18069259370949653,1.3923394333608303,-0.20325124263763428,2.913172960281372,2.0021958351135254,-0.13310670852661133,-0.6718677282333374,-0.7286126613616943,-0.022593915462493896,0.3225330114364624,-0.22941046953201294
0.7312965896656997,-0.16886141133041063,1.418353092606589,-0.18534602224826813,2.904801845550537,1.9775867462158203,-0.125088632106781,-0.6678352355957031,-0.7337226271629333,-0.007662758231163025,0.3318520784378052,-0.25233083963394165
0.7266059368247828,-0.15734114894689977,1.4441990327388878,-0.10524756461381912,2.8203113079071045,1.9697322845458984,-0.11711742728948593,-0.664336621761322,-0.7382007837295532,0.00372941792011261,0.345031201839447,-0.2721446752548218
0.7230552274202772,-0.14630919547149301,1.470170541094267,-0.011548507958650589,2.8372256755828857,1.9686452150344849,-0.1093098595738411,-0.6616785526275635,-0.7417768239974976,0.028789281845092773,0.358471155166626,-0.27935659885406494
0.7206020935570042,-0.1345649981107293,1.4963793002813393,0.08088990300893784,2.9505679607391357,1.9841777086257935,-0.10080841928720474,-0.6598371863365173,-0.7446157336235046,0.05033239722251892,0.3695082664489746,-0.28861796855926514
0.7194181876364177,-0.12253457943881912,1.522952881597523,0.1965280920267105,2.9177348613739014,1.993181586265564,-0.09193871915340424,-0.6589471697807312,-0.7465493679046631,0.03751067817211151,0.3766900897026062,-0.2733175754547119
0.719488421223953,-0.11159310170633323,1.549688649488009,0.27748024463653564,2.771735668182373,1.9862089157104492,-0.08375987410545349,-0.6589999794960022,-0.7474645972251892,0.01459183543920517,0.372226357460022,-0.2256188988685608
0.7202911938835783,-0.10204486284022492,1.5763900575552254,0.3071441054344177,2.639566421508789,1.9773433208465576,-0.07656527310609818,-0.6596035361289978,-0.7477037310600281,-0.0075868964195251465,0.3674893379211426,-0.18071728944778442
0.7214268716475207,-0.09379542501299633,1.6030555247023572,0.30549800395965576,2.5158188343048096,1.9753468036651611,-0.07032439857721329,-0.6604567170143127,-0.7475636601448059,-0.025546513497829437,0.35834801197052,-0.13961291313171387
0.7224962503676297,-0.08680667459304937,1.629690077043491,0.26304855942726135,2.3838443756103516,1.9744540452957153,-0.06503691524267197,-0.6612592935562134,-0.7473328113555908,-0.03766992688179016,0.3394514322280884,-0.10091853141784668
0.7230991600555203,-0.0810139415695902,1.6561722262411795,0.17927108705043793,2.2655904293060303,1.9583600759506226,-0.060674481093883514,-0.6617114543914795,-0.7472995519638062,-0.06891836225986481,0.3269946575164795,-0.07125818729400635
0.7228825639670593,-0.07615711331289007,1.682188557760721,0.08593661338090897,2.130385637283325,1.9206714630126953,-0.05705517530441284,-0.6615490317344666,-0.7477282881736755,-0.11716961860656738,0.32049989700317383,-0.05787479877471924
0.7219516192528567,-0.07217467831106372,1.7074715021559748,0.014605972915887833,2.0053648948669434,1.862868309020996,-0.054121337831020355,-0.6608506441116333,-0.7485634684562683,-0.15982207655906677,0.2989427447319031,-0.05508643388748169
0.7205606053157478,-0.06843020669156775,1.7318991114628495,-0.033640384674072266,1.9717987775802612,1.8052724599838257,-0.05138079822063446,-0.6598060131072998,-0.749677300453186,-0.19048620760440826,0.2743995785713196,-0.06561505794525146
0.7188158504722221,-0.06397195951135523,1.7555369240790377,-0.07593217492103577,2.030155897140503,1.7549656629562378,-0.04811157286167145,-0.6584939360618591,-0.7510465979576111,-0.20661859214305878,0.25328153371810913,-0.08721023797988892
0.7169711657284629,-0.05850600205813717,1.7783655230538766,-0.07872290164232254,2.0359537601470947,1.6852490901947021,-0.04407663643360138,-0.6571045517921448,-0.7525096535682678,-0.23753951489925385,0.23538219928741455,-0.1143878698348999
0.7152664599945334,-0.052745317336272794,1.8001478774337096,-0.08271633833646774,1.961633324623108,1.6053470373153687,-0.03979995474219322,-0.6558185815811157,-0.7538686394691467,-0.2840677797794342,0.223949134349823,-0.13066810369491577
0.7134307142335476,-0.04670712365931773,1.8208033434438815,-0.1352250874042511,1.956993818283081,1.5208021402359009,-0.035303402692079544,-0.6544316411018372,-0.755296528339386,-0.3093162775039673,0.21546685695648193,-0.1380903124809265
0.7110777666230249,-0.03952704834819497,1.8402857358470956,-0.2049323320388794,2.0085816383361816,1.4386197328567505,-0.029940221458673477,-0.6526507139205933,-0.757067084312439,-0.31889089941978455,0.19804567098617554,-0.15896373987197876
0.7082668291548355,-0.031426908613440524,1.8587071657460523,-0.2527365982532501,1.984271764755249,1.3673250675201416,-0.0238645076751709,-0.6505184173583984,-0.7591153979301453,-0.3224183917045593,0.1705227494239807,-0.18116164207458496
0.7051267246979341,-0.02332897190526197,1.8762552533166739,-0.2974700927734375,1.8983806371688843,1.3092793226242065,-0.01776408776640892,-0.6481303572654724,-0.7613222002983093,-0.3265809416770935,0.1444682478904724,-0.1967008113861084
0.7016676666781964,-0.015675068647877117,1.8929267213108854,-0.3423004150390625,1.7722283601760864,1.2369790077209473,-0.011971606872975826,-0.6454923152923584,-0.7636730074882507,-0.339590847492218,0.1289060115814209,-0.21450692415237427
0.6978867526512573,-0.008599727972218687,1.9086160175605613,-0.3791261911392212,1.6666237115859985,1.1671943664550781,-0.006589046213775873,-0.6425999402999878,-0.7661734819412231,-0.3501155972480774,0.12026113271713257,-0.23779374361038208
0.6940072789932475,-0.0014940789177319783,1.9234429172032963,-0.37249651551246643,1.652571201324463,1.1097017526626587,-0.0011484816204756498,-0.639622688293457,-0.7686882019042969,-0.3565327227115631,0.12151050567626953,-0.28158944845199585
0.690624441595696,0.005943113640569972,1.9375948159772445,-0.2965785264968872,1.6211826801300049,1.0618146657943726,0.004581212531775236,-0.6370186805725098,-0.770834743976593,-0.35615891218185425,0.11521387100219727,-0.3288661241531372
0.6883445703233398,0.013196236898191546,1.9511486567461063,-0.17818394303321838,1.541448950767517,1.020841360092163,0.010191140696406364,-0.6352595686912537,-0.77223140001297,-0.35421574115753174,0.09706681966781616,-0.35415709018707275
0.687317888589741,0.019965302827000406,1.964231111464935,-0.06363078206777573,1.4642581939697266,0.990896999835968,0.01543116569519043,-0.6344663500785828,-0.7727964520454407,-0.34808796644210815,0.09230625629425049,-0.35711681842803955
0.6872495713215263,0.02619812385460741,1.9769291054080456,-0.0021935226395726204,1.38643217086792,0.9708202481269836,0.020248671993613243,-0.6344135403633118,-0.7727285623550415,-0.3437044024467468,0.09329110383987427,-0.3382638692855835
0.6875956478771157,0.03179343071812005,1.989585974284073,0.012833408080041409,1.3245106935501099,0.9861008524894714,0.02456500381231308,-0.634680986404419,-0.7723836898803711,-0.3239118754863739,0.09024739265441895,-0.3099527359008789
0.6880782715424352,0.036254246713625884,2.002468485246458,0.017650799825787544,1.1895761489868164,1.0031847953796387,0.02799910493195057,-0.6350538730621338,-0.7719602584838867,-0.30663979053497314,0.08839249610900879,-0.2878389358520508
0.6887055959742924,0.0391115142526163,2.0155763618058766,0.03204252943396568,1.0387786626815796,1.0190448760986328,0.03018910251557827,-0.6355383396148682,-0.7714788913726807,-0.30539655685424805,0.08744263648986816,-0.27535033226013184
0.6896259913409644,0.04038805177307058,2.0287861482791625,0.0753902718424797,0.8941472768783569,1.0172442197799683,0.031150266528129578,-0.6362487077713013,-0.7708548903465271,-0.3069223165512085,0.08558952808380127,-0.2715798020362854
0.6910465573049825,0.04052217543179022,2.041820061532306,0.12689785659313202,0.7969152331352234,0.9944435954093933,0.03121700882911682,-0.6373440027236938,-0.769946813583374,-0.30883535742759705,0.08830225467681885,-0.2684290409088135
0.692961040355514,0.04021326155490609,2.0544811603929425,0.1750459372997284,0.7591026425361633,0.9615445137023926,0.0309300497174263,-0.638818085193634,-0.7687358856201172,-0.3083500266075134,0.09337735176086426,-0.2617664337158203
0.6952614539048617,0.04014529050969487,2.066626998818058,0.20890070497989655,0.7821328639984131,0.9189790487289429,0.03081873618066311,-0.640586256980896,-0.7672675251960754,-0.3034474849700928,0.092124342918396,-0.24945610761642456
0.697925881342281,0.04048346033722536,2.0782733987738053,0.2497890144586563,0.769218921661377,0.8823390007019043,0.031009012833237648,-0.6426299214363098,-0.7655489444732666,-0.2917053699493408,0.09285581111907959,-0.23345917463302612
0.700917137574203,0.04076720332485501,2.089492223825693,0.2739315629005432,0.7250058054924011,0.8546679615974426,0.031147748231887817,-0.6449188590049744,-0.7636160850524902,-0.27692100405693054,0.09244388341903687,-0.20499658584594727
0.7038256077287854,0.04020676947610133,2.100507491030091,0.22307929396629333,0.5772368311882019,0.8479844927787781,0.030644258484244347,-0.6471389532089233,-0.7617558836936951,-0.24652555584907532,0.10458213090896606,-0.14464664459228516
0.7056822284483597,0.03837992769995331,2.111707440103856,0.07434201240539551,0.5152466893196106,0.8621514439582825,0.029206451028585434,-0.6485532522201538,-0.7606087327003479,-0.20770370960235596,0.10939919948577881,-0.046810030937194824
0.7060070704853993,0.03594251619634773,2.1229844385398944,-0.06559111922979355,0.45597410202026367,0.8424246311187744,0.027344876900315285,-0.6488004922866821,-0.7604671120643616,-0.22033798694610596,0.10157454013824463,-0.05125468969345093
0.7052767056177677,0.03322725314639153,2.133951947219659,-0.1251998096704483,0.4282432794570923,0.8226107358932495,0.025295646861195564,-0.6482445597648621,-0.7610119581222534,-0.21528278291225433,0.09201592206954956,-0.06551086902618408
0.7043600004678356,0.030557465623173127,2.1449310729199365,-0.10345722734928131,0.4630153775215149,0.8390666246414185,0.023281963542103767,-0.6475462913513184,-0.7616704106330872,-0.18079839646816254,0.10341787338256836,-0.12170666456222534
0.703877085544372,0.028406445932081255,2.1559277241690964,-0.03847942128777504,0.5215357542037964,0.8267514109611511,0.021652422845363617,-0.6471781730651855,-0.7620311975479126,-0.16313186287879944,0.10193592309951782,-0.16851073503494263
0.7041336730600296,0.02695619811124825,2.1665594924594815,0.04867012798786163,0.560278058052063,0.7860437035560608,0.02054278925061226,-0.6473737955093384,-0.7618957757949829,-0.17010939121246338,0.09187757968902588,-0.2068542242050171
0.7054241484537649,0.026458201689214127,2.176361775564193,0.1769528090953827,0.6040948033332825,0.7026038765907288,0.020141247659921646,-0.6483567953109741,-0.7610701322555542,-0.18818624317646027,0.0799517035484314,-0.2536240220069885
0.7082149635597682,0.02705731675067133,2.1847800356044695,0.34874802827835083,0.5984315872192383,0.5853217244148254,0.020548179745674133,-0.6504790186882019,-0.7592461705207825,-0.21070316433906555,0.0835844874382019,-0.30784666538238525
0.7126649139182181,0.02862956630732709,2.191554735477012,0.5000351071357727,0.6128129363059998,0.46808508038520813,0.021658804267644882,-0.6538524031639099,-0.7563120722770691,-0.2141941636800766,0.08158677816390991,-0.3103840947151184
0.7181695842818292,0.032045921753905866,2.1970526203083427,0.5495789647102356,0.8035221695899963,0.39073994755744934,0.0241268128156662,-0.6580074429512024,-0.7526247501373291,-0.17592118680477142,0.06978118419647217,-0.2591549754142761
0.7234200959332758,0.03807322087169359,2.201640293882859,0.4655388295650482,0.9821571707725525,0.34003371000289917,0.028530744835734367,-0.6619520783424377,-0.749002993106842,-0.15691813826560974,0.004832327365875244,-0.17464196681976318
0.7277758992796935,0.045192433150442794,2.206192399625094,0.3748760223388672,1.0283966064453125,0.38486164808273315,0.03373170271515846,-0.6652106642723083,-0.7458933591842651,-0.12095087766647339,-0.04696279764175415,-0.09320265054702759
0.7311887013964432,0.051426782910348835,2.2119009276151242,0.24961358308792114,0.9563427567481995,0.4990999698638916,0.038264259696006775,-0.6677549481391907,-0.743397057056427,-0.0877179354429245,-0.059250056743621826,-0.024715065956115723
0.7329899367465558,0.05518190331774328,2.2195062454751793,0.042870793491601944,0.8018128275871277,0.6471288800239563,0.040989119559526443,-0.6690946817398071,-0.7420459389686584,-0.07170499861240387,-0.08732926845550537,0.04845774173736572
0.7325556946610134,0.05581530369070304,2.229239160637614,-0.21217556297779083,0.6202471852302551,0.78022700548172,0.0414753295481205,-0.6687719225883484,-0.7423098683357239,-0.08481024205684662,-0.1330012083053589,0.10383641719818115
0.7295941793812921,0.053635068672226685,2.2406259847493057,-0.4675966501235962,0.4706140160560608,0.8673685193061829,0.03996282443404198,-0.6665671467781067,-0.7443730235099792,-0.1163330078125,-0.15615618228912354,0.12012070417404175
0.724208172186287,0.04995729757127744,2.2527999718262373,-0.691876232624054,0.42314592003822327,0.8761783838272095,0.037403665482997894,-0.6625425815582275,-0.7480897903442383,-0.13736394047737122,-0.15723586082458496,0.09614282846450806
0.7168053644553456,0.046471966644289354,2.264491004944897,-0.8601009249687195,0.42413076758384705,0.7895809412002563,0.03502299636602402,-0.6569795608520508,-0.753094494342804,-0.16576023399829865,-0.13222026824951172,0.038784801959991455
0.7079718691516915,0.04420110198338639,2.2745837950609,-0.9556816220283508,0.43717512488365173,0.6468995809555054,0.03356786072254181,-0.6502943634986877,-0.7589403390884399,-0.18612517416477203,-0.08440107107162476,-0.03001534938812256
0.6986422161499568,0.043520170547792704,2.2825476042766,-0.9418255090713501,0.45715761184692383,0.48023226857185364,0.033313583582639694,-0.6431785821914673,-0.7649912238121033,-0.18452812731266022,-0.029611945152282715,-0.10295921564102173
0.6899828850296688,0.04468907791679668,2.2883283263370227,-0.8088423609733582,0.5173959732055664,0.33608004450798035,0.03445529192686081,-0.636523962020874,-0.7704868912696838,-0.16365142166614532,0.019504308700561523,-0.1696985960006714
0.6831168987348266,0.04718498864658968,2.292400629314064,-0.5748634338378906,0.46758711338043213,0.23487567901611328,0.03658352419734001,-0.6312136054039001,-0.774745762348175,-0.12487083673477173,0.05066239833831787,-0.21733486652374268
0.6789520064223405,0.04869128650895752,2.2953684194264916,-0.27376246452331543,0.18081724643707275,0.19676165282726288,0.03787811100482941,-0.6279777884483337,-0.7773089408874512,-0.08577540516853333,0.06077808141708374,-0.21962404251098633
0.6777681475439412,0.04691327862242458,2.298180804978073,0.00700557604432106,-0.1827617734670639,0.23583874106407166,0.03653082996606827,-0.6270560026168823,-0.7781171202659607,-0.03688174486160278,0.07354342937469482,-0.1718798279762268
0.6790335529533938,0.04147425094865918,2.3015152728098722,0.2134149819612503,-0.4648166000843048,0.28743600845336914,0.032265182584524155,-0.6280412673950195,-0.7775108814239502,-0.005348622798919678,0.08931446075439453,-0.1011817455291748
0.6819815988196068,0.03353730852462672,2.305126145913531,0.3427481949329376,-0.6649717688560486,0.28488603234291077,0.026030976325273514,-0.6303326487541199,-0.7758886218070984,-0.02065982110798359,0.08858460187911987,-0.028783559799194336
0.6858742237806018,0.0238093874380851,2.3083894807931653,0.4075513482093811,-0.8633267283439636,0.23825852572917938,0.018423525616526604,-0.6333497762680054,-0.7736462950706482,-0.04581299424171448,0.06888139247894287,0.05620861053466797
0.6899638432311737,0.012659425980739982,2.3110156090094316,0.3929029107093811,-1.0184420347213745,0.18167167901992798,0.009763562120497227,-0.6365092992782593,-0.7712072134017944,-0.04382111132144928,0.05008351802825928,0.1426672339439392
0.6935310422210954,0.0007357392328424512,2.3130041674631734,0.3122534155845642,-1.1004493236541748,0.129215806722641,0.0005657786969095469,-0.6392565369606018,-0.7689933776855469,-0.03080865740776062,0.04208850860595703,0.20673751831054688
0.6960642977557528,-0.011306829986555997,2.314223579225646,0.1938231736421585,-1.140156865119934,0.051619820296764374,-0.008676356635987759,-0.6412025094032288,-0.7673226594924927,-0.02536594867706299,0.03016430139541626,0.25087374448776245
0.6973598862155692,-0.02294583132954533,2.3142995602636027,0.06412073969841003,-1.1710550785064697,-0.0500614270567894,-0.017587361857295036,-0.6421961784362793,-0.7663385272026062,-0.03937363624572754,0.016585826873779297,0.2740747928619385
0.6974307835771564,-0.03382820969534454,2.3128149127251403,-0.05353691801428795,-1.1842247247695923,-0.18186260759830475,-0.025924202054739,-0.6422505378723145,-0.7660562992095947,-0.05744977295398712,0.0010762214660644531,0.2778818607330322
0.6964876552585553,-0.04332929965546626,2.3093659928387473,-0.15051189064979553,-1.1451932191848755,-0.33998891711235046,-0.03322751447558403,-0.6415273547172546,-0.7663801908493042,-0.06949460506439209,-0.004972279071807861,0.261680543422699
0.6947427304133129,-0.050743031617256455,2.3037143897134404,-0.23800471425056458,-1.0495128631591797,-0.5061941742897034,-0.03896500542759895,-0.6401877999305725,-0.7672296166419983,-0.07398051023483276,0.0012565255165100098,0.23697149753570557
0.6922490444085481,-0.055664395133243894,2.2957511925082934,-0.3235531151294708,-0.9491408467292786,-0.6907157301902771,-0.04282902181148529,-0.6382701396942139,-0.7686201333999634,-0.07647940516471863,0.011393308639526367,0.20845472812652588
0.689062338959987,-0.05788332034788081,2.285154176815742,-0.4018196761608124,-0.8314988613128662,-0.9028509259223938,-0.04465186595916748,-0.6358137130737305,-0.7705498933792114,-0.08172136545181274,0.012843132019042969,0.17435848712921143
0.6853240661182322,-0.056884077126054505,2.2717447413402807,-0.4563748836517334,-0.6645455360412598,-1.116193175315857,-0.04401669651269913,-0.63292396068573,-0.7729616761207581,-0.0833178460597992,0.00842750072479248,0.12417328357696533
0.6812450463490403,-0.05272685148073427,2.2557881521490946,-0.48914188146591187,-0.5222099423408508,-1.299096941947937,-0.04093867540359497,-0.6297606229782104,-0.7757096886634827,-0.07785093784332275,0.0012969374656677246,0.08001577854156494
0.6769570086197426,-0.04620394553100001,2.2377356189725983,-0.5032616853713989,-0.45026788115501404,-1.4514000415802002,-0.03600235655903816,-0.6264239549636841,-0.7786506414413452,-0.059914350509643555,0.003682255744934082,0.045877814292907715
0.6726059754696655,-0.03831582367595917,2.217922946181815,-0.48925909399986267,-0.44798901677131653,-1.592339038848877,-0.029963331297039986,-0.6230264902114868,-0.7816265821456909,-0.05136597156524658,0.024424195289611816,0.013010919094085693
0.668589883055138,-0.029656018547745282,2.196413619879332,-0.4199869632720947,-0.4912342131137848,-1.7399643659591675,-0.023267565295100212,-0.6198800802230835,-0.7843515276908875,-0.06440937519073486,0.051703810691833496,-0.024211645126342773
0.665443077203129,-0.020396041200073604,2.173085782576941,-0.2929166257381439,-0.5369670987129211,-1.897483229637146,-0.016043297946453094,-0.6174077391624451,-0.7864797115325928,-0.09000523388385773,0.08403676748275757,-0.05376076698303223
0.6632974654938895,-0.010432353667262329,2.1477959038853336,-0.209016352891922,-0.5786420106887817,-2.0668845176696777,-0.008220192976295948,-0.6157184839248657,-0.7879233360290527,-0.10623592138290405,0.11457407474517822,-0.05883258581161499
0.6612516609331206,0.0008279437931260471,2.120429352820961,-0.231002077460289,-0.5097103714942932,-2.229647159576416,0.000653433206025511,-0.6141051650047302,-0.7892239093780518,-0.10702238976955414,0.144744873046875,-0.04588955640792847
0.6586078327176577,0.01452303664777405,2.0912572384131627,-0.25384196639060974,-0.32682332396507263,-2.36440372467041,0.011485067196190357,-0.6120164394378662,-0.7907615900039673,-0.0897931158542633,0.1789720058441162,-0.05932074785232544
0.6558674393270679,0.030496843894277655,2.0605997403679304,-0.16786552965641022,-0.243037611246109,-2.483175754547119,0.02416558936238289,-0.6098469495773315,-0.7921507358551025,-0.07430592179298401,0.20034682750701904,-0.09125685691833496
0.6539388741434534,0.04744822838100165,2.028674980663453,-0.016649311408400536,-0.255307674407959,-2.573451519012451,0.037645239382982254,-0.6083173751831055,-0.7928006649017334,-0.06772024929523468,0.20598888397216797,-0.1015627384185791
0.6529052152587731,0.06493512869893416,1.995704321795531,0.09878859668970108,-0.24182702600955963,-2.645002603530884,0.05154317617416382,-0.6074966192245483,-0.7926481366157532,-0.05999648571014404,0.20838773250579834,-0.07989513874053955
0.6521066051600614,0.08368986389053161,1.9619162227232578,0.12796971201896667,-0.08956612646579742,-2.696676731109619,0.0664396807551384,-0.6068620681762695,-0.7920253872871399,-0.04234600067138672,0.21382617950439453,-0.04202002286911011
0.6507540180087944,0.10438781850956974,1.9278249119808268,0.10620024055242538,0.0840006023645401,-2.702572822570801,0.08290304243564606,-0.6057865023612976,-0.7912963032722473,-0.012559965252876282,0.2085849642753601,-0.0027405619621276855
0.6484464791694864,0.12610340646510157,1.8939917119590592,0.04896264150738716,0.1561293601989746,-2.684138298034668,0.10024114698171616,-0.6039489507675171,-0.7906942367553711,0.0010620057582855225,0.1989806890487671,0.039748191833496094
0.6446441030931835,0.14769663519265822,1.8607917548708603,-0.09523475170135498,0.14742961525917053,-2.6474602222442627,0.11762718856334686,-0.6009140014648438,-0.7906112670898438,-0.0033082887530326843,0.19464880228042603,0.07791906595230103
0.6383780583726913,0.1675984206619037,1.8288723953121342,-0.3438849151134491,-0.00982256606221199,-2.583977699279785,0.13396292924880981,-0.5958936810493469,-0.7918109893798828,-0.015600442886352539,0.1794966459274292,0.11062812805175781
0.6293351345987284,0.18399030154236615,1.798653894588416,-0.5737665295600891,-0.30336469411849976,-2.5117013454437256,0.1479034721851349,-0.5886073708534241,-0.7947741150856018,-0.035415634512901306,0.15904200077056885,0.11375916004180908
0.6182894520012737,0.19605743986906385,1.7701061384149988,-0.7068600058555603,-0.609312891960144,-2.4419305324554443,0.15874001383781433,-0.579642117023468,-0.7992600202560425,-0.05848973989486694,0.1494969129562378,0.06721967458724976
0.606196106743773,0.20434099193022326,1.7430432605575765,-0.765846312046051,-0.8231175541877747,-2.3615059852600098,0.16676552593708038,-0.5697454810142517,-0.8047232031822205,-0.0532706081867218,0.14004266262054443,-0.010233461856842041
0.5939757194584144,0.21031155900088627,1.7173500338338752,-0.7373979687690735,-0.8609089851379395,-2.277155637741089,0.17300786077976227,-0.5596601963043213,-0.8104620575904846,-0.03418333828449249,0.10821366310119629,-0.09531491994857788
0.5825007216156661,0.21559983937301805,1.6926802133478547,-0.6300656199455261,-0.8128581047058105,-2.205110788345337,0.1786535680294037,-0.5501139760017395,-0.8157557845115662,-0.03897455334663391,0.079426109790802,-0.17936134338378906
0.5722123338853585,0.22056402698609362,1.6688870039903803,-0.5130333304405212,-0.7946683764457703,-2.1135759353637695,0.1839294731616974,-0.54149329662323,-0.8203383088111877,-0.041595444083213806,0.05389869213104248,-0.23935401439666748
0.5630937602420117,0.22445446931267724,1.6462207564777669,-0.4237634241580963,-0.8789880275726318,-2.0028164386749268,0.18821075558662415,-0.5338048338890076,-0.8243961930274963,-0.039178118109703064,0.043814659118652344,-0.2749537229537964
0.5548342643010904,0.22609186897863773,1.6247178265430609,-0.3724939227104187,-1.0758346319198608,-1.9091912508010864,0.19054225087165833,-0.5268024206161499,-0.8283555507659912,-0.03893086314201355,0.0444415807723999,-0.2974379062652588
0.5473027029032064,0.22493740744826637,1.6042526335624103,-0.3053535223007202,-1.2890393733978271,-1.8125829696655273,0.19046540558338165,-0.5203858017921448,-0.8324190974235535,-0.014958754181861877,0.017776548862457275,-0.31473660469055176
0.5409235611333174,0.22098145180416792,1.5847772872658497,-0.19375021755695343,-1.5118978023529053,-1.70639967918396,0.18789470195770264,-0.5149279236793518,-0.8363879919052124,0.012514293193817139,-0.013148248195648193,-0.3368297815322876
0.5361165850940557,0.21419118451460775,1.5663536359922168,-0.05288418382406235,-1.719110369682312,-1.5759268999099731,0.1827351450920105,-0.5108012557029724,-0.8400535583496094,0.03656423091888428,-0.020311355590820312,-0.3552436828613281
0.5333445698537416,0.2048934682244988,1.5489357368347763,0.13867104053497314,-1.9055755138397217,-1.4674657583236694,0.17520420253276825,-0.5084162354469299,-0.8430992960929871,0.06681551039218903,-0.01946157217025757,-0.36788398027420044
0.5328706177923483,0.19350152271497573,1.532091792499504,0.3401801884174347,-2.0622305870056152,-1.3943465948104858,0.16563481092453003,-0.5080080628395081,-0.8452768325805664,0.08888183534145355,-0.03918737173080444,-0.3554067611694336
0.5344470480650763,0.1810818115198712,1.5153506884476509,0.4949590265750885,-2.0954129695892334,-1.3761274814605713,0.15497979521751404,-0.5093652606010437,-0.8464799523353577,0.09560009837150574,-0.0596044659614563,-0.30638259649276733
0.5386834494590265,0.16897095510082932,1.497734906862744,0.8222314119338989,-2.068629264831543,-1.4559168815612793,0.14435289800167084,-0.513006329536438,-0.8461599946022034,0.07604511082172394,-0.08735072612762451,-0.39181607961654663
0.5440328314421271,0.15889935463565644,1.4789070827021824,0.7341835498809814,-1.8762940168380737,-1.5493478775024414,0.1353873759508133,-0.5175908207893372,-0.8448491096496582,0.06961452960968018,-0.12777966260910034,-0.4313807487487793
0.5476815598660889,0.15121087805318378,1.4592288022178619,0.47411227226257324,-1.6980483531951904,-1.6419755220413208,0.12860248982906342,-0.5207092761993408,-0.8439924120903015,0.12663133442401886,-0.12147212028503418,-0.2734391689300537
0.5478967240605637,0.14520387024794293,1.4395208730351021,0.06300801038742065,-1.5353410243988037,-1.6679694652557373,0.12351411581039429,-0.5208929777145386,-0.8446388244628906,0.156194806098938,-0.11187368631362915,-0.2617301344871521
0.5446685534985727,0.141636027255057,1.419897886935905,-0.1936195194721222,-1.1823469400405884,-1.736661434173584,0.12073653936386108,-0.5181346535682678,-0.8467344045639038,0.1720491647720337,-0.08181041479110718,-0.2462526559829712
0.5399468253188143,0.1423686602856663,1.3995639189285645,-0.21723152697086334,-0.7729355096817017,-1.8292664289474487,0.12170262634754181,-0.514090359210968,-0.8490580320358276,0.14145050942897797,-0.06769669055938721,-0.37372028827667236
0.5359744498748205,0.14709773221689226,1.3784228855316853,-0.02820754610002041,-0.46506181359291077,-1.855621337890625,0.1260148286819458,-0.5106790661811829,-0.8504863977432251,0.09499350190162659,-0.04478657245635986,-0.4897540211677551
0.5343953529379781,0.15409416439579451,1.3571083592427058,0.27189216017723083,-0.3337146043777466,-1.7919572591781616,0.1320856809616089,-0.5093207955360413,-0.8503797650337219,0.11541193723678589,0.05125194787979126,-0.5151750445365906
0.5359285069323505,0.16029841468777448,1.3365637154369232,0.5766978859901428,-0.5689969062805176,-1.632030963897705,0.13723427057266235,-0.5106396079063416,-0.8487720489501953,0.17808866500854492,0.15553706884384155,-0.4721508026123047
0.5404484140209512,0.16283505965007,1.317578461374373,0.8183655738830566,-0.8376860022544861,-1.4345548152923584,0.13901126384735107,-0.514520525932312,-0.8461350202560425,0.2431909441947937,0.2174014449119568,-0.4386855363845825
0.5466817868235635,0.1621959419341964,1.3001013224944604,0.8758350014686584,-1.0977401733398438,-1.315995216369629,0.1379498541355133,-0.5198554992675781,-0.8430421948432922,0.31879153847694397,0.24753189086914062,-0.34425950050354004
0.5534280220739674,0.15932418130732942,1.2837101125775423,0.8888179063796997,-1.1533807516098022,-1.222619652748108,0.13496878743171692,-0.525606632232666,-0.8399530053138733,0.34037303924560547,0.2372460961341858,-0.2079901099205017
0.560061082066629,0.1557359953060121,1.2682171771927797,0.8175833821296692,-1.2276784181594849,-1.1649664640426636,0.1314103603363037,-0.5312379598617554,-0.836969256401062,0.32522422075271606,0.19198930263519287,-0.07689487934112549
0.565863323069575,0.15064815606036563,1.2530551945731507,0.7191755771636963,-1.4026572704315186,-1.1867119073867798,0.12668557465076447,-0.5361447930335999,-0.8345655202865601,0.2915731370449066,0.22314125299453735,0.06585824489593506
0.5709546722120277,0.14413806961763367,1.2376287041502179,0.6717652082443237,-1.5345051288604736,-1.235177755355835,0.12085617333650589,-0.5404355525970459,-0.8326603174209595,0.2693416476249695,0.2577054500579834,0.12536966800689697
0.5758900695425817,0.1376979084453865,1.2214637513863595,0.6909214854240417,-1.4764845371246338,-1.3068833351135254,0.11512371897697449,-0.5445815324783325,-0.8307692408561707,0.2419930398464203,0.24453270435333252,0.12012165784835815
0.5813661562170194,0.13282858872863126,1.2045493200836253,0.7851685881614685,-1.337770938873291,-1.3315367698669434,0.1106804683804512,-0.5491661429405212,-0.8283515572547913,0.22286145389080048,0.21573114395141602,0.09261852502822876
0.5884735586227389,0.12903914283116774,1.1876845464296937,1.001225471496582,-1.2957464456558228,-1.247812271118164,0.10703571140766144,-0.5550919771194458,-0.8248734474182129,0.21963974833488464,0.19152086973190308,0.05024576187133789
0.5985189469565209,0.12435349081391069,1.1720778713150835,1.32166588306427,-1.389343500137329,-1.0406972169876099,0.10247266292572021,-0.5634194612503052,-0.819791316986084,0.22458428144454956,0.20790499448776245,0.005612850189208984
0.6122866910565472,0.11714345406481806,1.1588005285842855,1.66218101978302,-1.5560537576675415,-0.7955821752548218,0.09564359486103058,-0.5747402310371399,-0.8127275109291077,0.2220902144908905,0.24327361583709717,-0.003617703914642334
0.6294786374766418,0.10727758105309533,1.1476519550625297,1.9342201948165894,-1.6903715133666992,-0.6302728056907654,0.08654994517564774,-0.5887234210968018,-0.8036876916885376,0.17648111283779144,0.24437838792800903,0.017463266849517822
0.6488889478454124,0.09611867146356638,1.1377487089384775,2.0548837184906006,-1.6986976861953735,-0.5612154603004456,0.07646522670984268,-0.6043015122413635,-0.7930780053138733,0.1157040074467659,0.2323838472366333,0.06308221817016602
0.6687337471821735,0.08530319155560012,1.1284020732539604,1.9946010112762451,-1.5847655534744263,-0.5537047982215881,0.06684836745262146,-0.6199929714202881,-0.7817543745040894,0.07690472155809402,0.22363072633743286,0.13305753469467163
0.6872240606842941,0.07621410802959812,1.1191314303409274,1.7778189182281494,-1.3855559825897217,-0.5913881659507751,0.058857254683971405,-0.6343938112258911,-0.7707660794258118,0.04595541954040527,0.2109013795852661,0.19808846712112427
0.7028882364468226,0.06955255801346005,1.1093463847562997,1.4315874576568604,-1.190471887588501,-0.6779462099075317,0.05302432179450989,-0.6464240550994873,-0.76113361120224,0.012222308665513992,0.1921393871307373,0.24941486120224
0.714452099550676,0.06557129989882385,1.0987364058605753,0.9639228582382202,-0.9784531593322754,-0.7679036259651184,0.04950049892067909,-0.6552035808563232,-0.7538288235664368,0.01005459949374199,0.1671971082687378,0.28987008333206177
0.7209367247890601,0.06443279509054314,1.0875081316930877,0.4359045624732971,-0.7194263935089111,-0.8275927901268005,0.04836764186620712,-0.6600885987281799,-0.7496289610862732,0.04735078662633896,0.1443873643875122,0.2869977355003357
0.7223607093586394,0.06596104225453835,1.076137838532118,-0.02226526290178299,-0.48534277081489563,-0.8468098044395447,0.04945119842886925,-0.6611576080322266,-0.7486155033111572,0.08854933828115463,0.12507063150405884,0.22401833534240723
0.7200106475338343,0.06922628663328848,1.0651866932306833,-0.30699285864830017,-0.3143947422504425,-0.8165197968482971,0.0520026721060276,-0.6593926548957825,-0.7499979734420776,0.11657647788524628,0.12203919887542725,0.11620891094207764
0.7157616656963254,0.07326941751687645,1.055082906836955,-0.40435054898262024,-0.21566878259181976,-0.7556319832801819,0.05523918569087982,-0.6561923623085022,-0.7525690793991089,0.12847667932510376,0.1445956826210022,0.0013636350631713867
0.7114239596253211,0.07738259934156862,1.0458869552283097,-0.33603033423423767,-0.16621121764183044,-0.6882731914520264,0.058553650975227356,-0.652912974357605,-0.7551662921905518,0.12365159392356873,0.16438764333724976,-0.07832980155944824
0.7083215645077856,0.08122929673141253,1.0375463118168486,-0.1761300414800644,-0.15059153735637665,-0.6188004612922668,0.061622168868780136,-0.6505600214004517,-0.7569507360458374,0.11554768681526184,0.17498934268951416,-0.1232677698135376
0.7068679284435014,0.08475636868825291,1.0298062061707758,-0.01785358414053917,-0.1536531001329422,-0.5771943926811218,0.06437158584594727,-0.6494553089141846,-0.7576701641082764,0.10550455749034882,0.18065959215164185,-0.12219738960266113
0.7067369895440795,0.087960194228071,1.022323501912088,0.08221112191677094,-0.1791919469833374,-0.5539364814758301,0.06680615991353989,-0.6493557691574097,-0.7575446963310242,0.0861327275633812,0.18905925750732422,-0.08118516206741333
0.707390951998827,0.09062323611794204,1.0151391275590036,0.13672815263271332,-0.2102241814136505,-0.5202205777168274,0.06878484785556793,-0.6498529314994812,-0.756941020488739,0.07541075348854065,0.18076729774475098,-0.038148701190948486
0.7084092954963956,0.09306086873242361,1.0083281216366722,0.15873192250728607,-0.1770218461751938,-0.4905257523059845,0.0705682560801506,-0.6506265997886658,-0.7561118602752686,0.06877505779266357,0.17201948165893555,-0.01169520616531372
0.7096424770739648,0.09594192914144825,1.0018263301510808,0.17989607155323029,-0.0947331041097641,-0.4688505530357361,0.07266944646835327,-0.6515625715255737,-0.7551061511039734,0.04544888436794281,0.169888436794281,-0.0028589367866516113
0.711136146485481,0.09945257048036905,0.9955839227061363,0.2149931788444519,-0.01415284164249897,-0.44024285674095154,0.07522319257259369,-0.6526949405670166,-0.7538771629333496,0.017290890216827393,0.16329985857009888,0.0003981590270996094
0.7132048692981011,0.10361534357970888,0.9897653020481247,0.28890496492385864,0.08746805787086487,-0.386974573135376,0.0782209187746048,-0.6542608737945557,-0.7522128224372864,0.006999462842941284,0.16141730546951294,0.001358330249786377
0.7161663977498014,0.10850322987617131,0.9845280163722752,0.385297954082489,0.201340451836586,-0.3333510756492615,0.08168652653694153,-0.6564977169036865,-0.7498920559883118,0.00838613510131836,0.1538427472114563,0.0033863186836242676
0.7202409449207944,0.11423989436667861,0.9798374077745392,0.5011497139930725,0.33170589804649353,-0.2750542163848877,0.08568140864372253,-0.659565806388855,-0.7467474341392517,0.0035367757081985474,0.13850873708724976,0.008923947811126709
0.7255067706796123,0.12098438887220397,0.9756794875257155,0.6120598316192627,0.45940572023391724,-0.21973001956939697,0.09029541909694672,-0.6635146737098694,-0.7426944375038147,-0.008019991219043732,0.13260042667388916,0.019015848636627197
0.7317393673993231,0.12850128555356688,0.9720207788798442,0.6790050268173218,0.5441173911094666,-0.1662745177745819,0.09534376859664917,-0.6681647300720215,-0.7378790378570557,-0.01740182936191559,0.12928539514541626,0.05352228879928589
0.7382323149895845,0.1363327417745289,0.9688945755729728,0.6366376876831055,0.6330921053886414,-0.11707521975040436,0.10052768886089325,-0.6729815006256104,-0.7327960729598999,-0.025118708610534668,0.11116814613342285,0.1051257848739624
0.7423932280507511,0.14523054119432993,0.9670630858520611,0.21568459272384644,0.773813009262085,-0.044288359582424164,0.10663773864507675,-0.6760532855987549,-0.7290955781936646,-0.0029694736003875732,0.04720813035964966,0.36520397663116455
0.7420419857449462,0.15232608386113483,0.9666013235713996,-0.30490347743034363,0.6101728677749634,-0.03205356374382973,0.11184435337781906,-0.6757944226264954,-0.7285552024841309,-0.01180768758058548,-0.005327343940734863,0.44611501693725586
0.7360458911062473,0.15807136709942327,0.9677073929002649,-0.8756524324417114,0.6971892714500427,0.012664373964071274,0.11666401475667953,-0.6713626384735107,-0.7318891286849976,-0.04836563766002655,0.04968911409378052,0.38681161403656006
0.7255815037489497,0.16375376973843264,0.9704069273055861,-1.2113579511642456,0.7857469916343689,0.048948414623737335,0.12195966392755508,-0.6635705828666687,-0.7381056547164917,-0.0648002028465271,0.04870247840881348,0.2943800687789917
0.7133607319036214,0.16927956400580957,0.9740145302018564,-1.2432160377502441,0.7787841558456421,0.08052551746368408,0.12739315629005432,-0.6543787121772766,-0.7453586459159851,-0.05370841920375824,0.04855906963348389,0.08964270353317261
0.7021332368653497,0.17422262382636128,0.977895314974348,-1.0463486909866333,0.7048324346542358,0.11693544685840607,0.132341206073761,-0.6458477973937988,-0.751908540725708,-0.039170995354652405,0.0731397271156311,-0.08558541536331177
0.6932376026649855,0.17837215693543806,0.9817533918408579,-0.811758816242218,0.621959388256073,0.14994613826274872,0.1364741176366806,-0.6390308141708374,-0.7569771409034729,-0.016097471117973328,0.09801524877548218,-0.1545981764793396
0.6862066654628359,0.18200633580870865,0.9854558614791844,-0.6902640461921692,0.5760960578918457,0.15954068303108215,0.14003399014472961,-0.633607029914856,-0.7608762383460999,-0.0022775977849960327,0.09098929166793823,-0.11970847845077515
0.679571620410954,0.185519026386895,0.9891402098196131,-0.7346823811531067,0.6049250960350037,0.15720322728157043,0.1434781551361084,-0.6284598708152771,-0.7644947171211243,0.007522851228713989,0.042690277099609375,-0.04606735706329346
0.6719013820482721,0.190154428704965,0.9928583414968032,-0.8791018724441528,0.8044723272323608,0.12349328398704529,0.14792712032794952,-0.6224752068519592,-0.7685325145721436,0.04715654253959656,0.018730759620666504,0.015846967697143555
0.6627196916292206,0.1973091820387799,0.996499244985626,-1.0171633958816528,1.068009376525879,0.08787164837121964,0.15453585982322693,-0.6152631044387817,-0.7730265259742737,0.07941192388534546,-0.012239277362823486,0.03155618906021118
0.6527720492892553,0.20611911329895044,0.9999507222164754,-0.9982008934020996,1.0082216262817383,0.034084953367710114,0.16258470714092255,-0.6073908805847168,-0.7775877118110657,0.11482012271881104,-0.0442814826965332,0.0214688777923584
0.6442389854094496,0.21141712738027926,1.0022702597242135,-0.7245664596557617,0.29961279034614563,0.003720121458172798,0.16778358817100525,-0.6005901098251343,-0.7817544937133789,0.13347071409225464,-0.11336851119995117,0.04269510507583618
0.6385667285040556,0.20983835336408457,1.0046770649112033,-0.4760738015174866,-0.2877006232738495,0.13764332234859467,0.16725611686706543,-0.596045196056366,-0.7853378653526306,0.22788552939891815,-0.05455905199050903,0.05930936336517334
0.6350382585295233,0.20416455160414873,1.0075415166595003,-0.3139551877975464,-0.4475637972354889,0.14071901142597198,0.16322298347949982,-0.5932083129882812,-0.7883287072181702,0.19557222723960876,0.02091217041015625,0.038542330265045166
0.6324578398978701,0.19880726542659807,1.0094320382110313,-0.27508947253227234,-0.3976362347602844,0.0615011602640152,0.15929916501045227,-0.5911290049552917,-0.7906898260116577,0.07237507402896881,0.007510840892791748,0.031122565269470215
0.6293590858853133,0.1940678387140404,1.010663397250011,-0.37233585119247437,-0.4046054780483246,-0.013465224765241146,0.15590247511863708,-0.5886267423629761,-0.7932294011116028,0.0611080676317215,0.016223907470703125,0.07731759548187256
0.6248336178044348,0.18963694276079263,1.0096117899331447,-0.490809828042984,-0.6336557865142822,-0.3065038025379181,0.15288680791854858,-0.5849623084068298,-0.7965204119682312,0.0511690229177475,0.07080221176147461,0.12195980548858643
0.6185453348539696,0.18389530939227733,1.0062520961102723,-0.6366122961044312,-0.8807806372642517,-0.4465107023715973,0.14898069202899933,-0.5798506140708923,-0.8009856343269348,0.08699652552604675,0.09547567367553711,0.15555411577224731
0.6108065280796311,0.17727229556701807,1.0017527377937205,-0.7399377226829529,-0.9323505759239197,-0.5530239343643188,0.144459530711174,-0.5735283493995667,-0.8063477277755737,0.15740513801574707,0.09211355447769165,0.15797126293182373
0.6021989443499328,0.17160477865858173,0.9963597864931238,-0.7896637320518494,-0.7890413403511047,-0.610474705696106,0.1407250612974167,-0.5664559602737427,-0.8119876980781555,0.1536933183670044,0.11272066831588745,0.09299355745315552
0.5933039956600625,0.1682501724160722,0.9904644127011464,-0.7890294790267944,-0.5317878723144531,-0.640531063079834,0.13883864879608154,-0.5591034293174744,-0.817390501499176,0.12893787026405334,0.11598825454711914,0.011787474155426025
0.584612974633944,0.16763382099795737,0.9844584617313301,-0.7495473027229309,-0.2574995458126068,-0.624476432800293,0.13914035260677338,-0.5518766641616821,-0.8222360610961914,0.1187637448310852,0.1474425196647644,-0.060988426208496094
0.5764218577816491,0.17026679318438623,0.9789425783406578,-0.7022530436515808,0.1976650357246399,-0.5524808168411255,0.14206601679325104,-0.5450274348258972,-0.8262943625450134,0.16756537556648254,0.186873197555542,-0.12228357791900635
0.5688948960861011,0.17690314420303518,0.9746238336244905,-0.6553888916969299,0.6607580780982971,-0.4003452956676483,0.14826418459415436,-0.5387013554573059,-0.8293483257293701,0.24445129930973053,0.18829858303070068,-0.15449261665344238
0.5614140692159744,0.18706923288394228,0.9733780004947667,-0.8224902153015137,1.275002360343933,-0.047548722475767136,0.1574327051639557,-0.5323837399482727,-0.8317345976829529,0.2921370267868042,0.16765296459197998,-0.17461299896240234
0.5516716014199343,0.20056332268603105,0.9778304068828086,-1.2274664640426636,1.8224537372589111,0.4099445343017578,0.1696668267250061,-0.5241115689277649,-0.8345779180526733,0.31269407272338867,0.13040435314178467,-0.11688387393951416
0.5393212876880937,0.21411679247589355,0.9879673191093851,-1.516084909439087,1.8845046758651733,0.7520545721054077,0.1823238879442215,-0.5135537385940552,-0.8384632468223572,0.3032108247280121,0.12225735187530518,-0.05249744653701782
0.5255272206423667,0.22556505282453373,1.0016108565655146,-1.6677429676055908,1.7712827920913696,0.91036057472229,0.19347675144672394,-0.50166916847229,-0.8431457877159119,0.30571457743644714,0.16451102495193481,-0.07938534021377563
0.5108616047503293,0.23534088872712466,1.0162276013181513,-1.752475380897522,1.61312997341156,0.8652940988540649,0.20340360701084137,-0.48892903327941895,-0.8482779264450073,0.2896079123020172,0.20726704597473145,-0.11761868000030518
0.4952802896179707,0.2438111456349944,1.029821586652479,-1.8270032405853271,1.3716737031936646,0.6946682929992676,0.21239475905895233,-0.4752782881259918,-0.8538143634796143,0.24077604711055756,0.2310309112071991,-0.11862820386886597
0.4786084902477885,0.2504107309019429,1.0415054182687014,-1.8988710641860962,1.0174187421798706,0.48754745721817017,0.21995803713798523,-0.4605444669723511,-0.8599518537521362,0.19276171922683716,0.24153509736061096,-0.10620415210723877
0.4608235245927407,0.25383901972311795,1.051298728476143,-1.9704943895339966,0.5345490574836731,0.3190859854221344,0.2249264270067215,-0.4446858763694763,-0.8669847846031189,0.1578555852174759,0.2524099349975586,-0.0845227837562561
0.44197842609952365,0.25266632937547345,1.0597121584682356,-2.042234420776367,-0.04234885424375534,0.2070242464542389,0.22596460580825806,-0.4277286231517792,-0.8752075433731079,0.12976357340812683,0.25736427307128906,-0.05965268611907959
0.42225149507558174,0.24609284040250595,1.0672045624243889,-2.0996813774108887,-0.6412032246589661,0.14035306870937347,0.22221919894218445,-0.4098152220249176,-0.8846864104270935,0.10633307695388794,0.2521614730358124,-0.03198528289794922
0.4018546467647273,0.23396217431544655,1.0740293605543336,-2.161104202270508,-1.2714508771896362,0.10395502299070358,0.21336504817008972,-0.3911259174346924,-0.8952630162239075,0.07476671040058136,0.23885849118232727,-0.006378829479217529
0.3796245878896132,0.21322075352029785,1.0807268746412995,-2.3812458515167236,-2.200651168823242,0.13381679356098175,0.19654306769371033,-0.3705718219280243,-0.907770574092865,0.049840644001960754,0.21186518669128418,0.027170538902282715
0.35683469828586134,0.1873725123230045,1.087522026395743,-2.3001811504364014,-2.4268906116485596,0.18690726161003113,0.1745438575744629,-0.3493100702762604,-0.920606791973114,0.0332198441028595,0.20099467039108276,0.035124003887176514
0.33496398306446973,0.1610350578302326,1.0930740766443274,-2.1917412281036377,-2.440598964691162,0.06526258587837219,0.15142861008644104,-0.3287351429462433,-0.9322030544281006,-0.05111728608608246,0.20036301016807556,0.03449803590774536
0.31341619816703026,0.1360121757998295,1.0963258685144,-2.146674871444702,-2.305055856704712,-0.0885082334280014,0.12898790836334229,-0.30831021070480347,-0.9425003528594971,-0.13046795129776,0.17688632011413574,0.05602574348449707
0.292172400765744,0.1137067523353101,1.097485562213573,-2.0850861072540283,-2.0833301544189453,-0.21220754086971283,0.10865341871976852,-0.28803324699401855,-0.951436460018158,-0.16607218980789185,0.13903120160102844,0.05351775884628296
0.2712781938425743,0.09369846089728454,1.0971247579937058,-2.0503549575805664,-1.920206069946289,-0.2823614180088043,0.09013979882001877,-0.26796311140060425,-0.9592031240463257,-0.1633056402206421,0.11194202303886414,0.06894433498382568
0.25076752285720116,0.0760771025832923,1.095692580337787,-1.9989811182022095,-1.648152470588684,-0.34112831950187683,0.07362651079893112,-0.24814754724502563,-0.9659202694892883,-0.14810460805892944,0.09043274819850922,0.06510239839553833
0.23076683942314521,0.06197545045488271,1.0930559191354468,-1.9464094638824463,-1.283552885055542,-0.4405587911605835,0.06029394641518593,-0.22872410714626312,-0.9716223478317261,-0.14269135892391205,0.07250465452671051,0.0435522198677063
0.21117022677813355,0.052102590465529515,1.0893143412820083,-1.9175013303756714,-0.8353497982025146,-0.4946976602077484,0.050922151654958725,-0.20960427820682526,-0.9764593839645386,-0.11967821419239044,0.05047042667865753,0.02321237325668335
0.19183997253388715,0.047277129772960565,1.085281027558192,-1.8932360410690308,-0.28231489658355713,-0.4736367464065552,0.04639254882931709,-0.19066543877124786,-0.9805582165718079,-0.07521635293960571,0.01607440412044525,-0.02144068479537964
0.1728176871479592,0.04807033375715564,1.0817207649235743,-1.8552476167678833,0.31284299492836,-0.40102219581604004,0.04733604937791824,-0.17195874452590942,-0.9839662313461304,-0.03969135135412216,-0.008049145340919495,-0.08675825595855713
0.15434027769559888,0.054703608901172575,1.078952993337042,-1.791018009185791,0.9189164042472839,-0.3318948745727539,0.05402640253305435,-0.15372824668884277,-0.9866350889205933,-0.024851549416780472,-0.013523295521736145,-0.15728580951690674
0.13675712132550114,0.06698624653941912,1.0768918340144507,-1.6787916421890259,1.4600309133529663,-0.2917839288711548,0.06631120294332504,-0.1363312304019928,-0.988441526889801,-0.024059563875198364,-0.01276235282421112,-0.23316186666488647
0.12050484501800023,0.08405631250205202,1.0751534901304942,-1.5196398496627808,1.8808307647705078,-0.3011953830718994,0.08334851264953613,-0.12021340429782867,-0.9892430305480957,-0.02480049431324005,-0.013270445168018341,-0.3139033317565918
0.10599172114076642,0.10452255251995167,1.073204092728341,-1.320717692375183,2.1375486850738525,-0.3614265024662018,0.10374683886766434,-0.10579337924718857,-0.9889612793922424,-0.02519454061985016,-0.0019031241536140442,-0.37410634756088257
