attitudeX,attitudeY,attitudeZ,gyroX,gyroY,gyroZ,gravityX,gravityY,gravityZ,accX,accY,accZ
0.3160032324736293,0.12017876557092082,-0.9053140511989294,-0.28735363483428955,-0.5175900459289551,-0.2289486676454544,0.1139533594250679,-0.310770183801651,-0.9436294436454773,0.04579084366559982,0.02388972043991089,0.1361343264579773
0.3125358127913311,0.11488161483674181,-0.9071362815214575,-0.34813016653060913,-0.6468865275382996,-0.1912470906972885,0.10907609760761261,-0.3074725866317749,-0.9452846050262451,0.06023537367582321,0.02799263596534729,0.09047198295593262
0.30882603193234803,0.10847113778019635,-0.908545250061329,-0.3538224399089813,-0.7124474048614502,-0.1545884758234024,0.10313694924116135,-0.30394041538238525,-0.9470918774604797,0.06391621381044388,0.04191654920578003,0.023141682147979736
0.30522487727945635,0.10168890983778725,-0.9095562702942468,-0.34228724241256714,-0.6910926103591919,-0.10863883793354034,0.09682171791791916,-0.30050766468048096,-0.9488523006439209,0.06905652582645416,0.049012333154678345,-0.0257265567779541
0.3016823916623483,0.09542320960963957,-0.9101553330109304,-0.3555367588996887,-0.5914615988731384,-0.07619527727365494,0.09097549319267273,-0.29712703824043274,-0.9504940509796143,0.06667827069759369,0.04642516374588013,-0.05145907402038574
0.2979540961564152,0.090258506027744,-0.9105381406846282,-0.38038378953933716,-0.46416008472442627,-0.06563983857631683,0.08616453409194946,-0.2935650646686554,-0.9520478844642639,0.05728328973054886,0.03509646654129028,-0.056909024715423584
0.2939388649171266,0.08636925033797155,-0.9108534424947874,-0.40966448187828064,-0.33658528327941895,-0.0640411227941513,0.0825621485710144,-0.2897243797779083,-0.9535424709320068,0.051226869225502014,0.023885786533355713,-0.057947397232055664
0.2896808471620683,0.08367126913458023,-0.9111573972464331,-0.4316118657588959,-0.22432665526866913,-0.06647791713476181,0.08009158074855804,-0.28564637899398804,-0.9549824595451355,0.05088981240987778,0.015779465436935425,-0.050159752368927
0.2852374810768322,0.08194315874203972,-0.9115262302271258,-0.4454261064529419,-0.14779284596443176,-0.07600544393062592,0.0785442665219307,-0.2813853323459625,-0.9563749432563782,0.04825621843338013,0.0092906653881073,-0.03309643268585205
0.28063871919338756,0.08072488912231907,-0.9120080508475716,-0.4600790739059448,-0.1314397007226944,-0.09046614170074463,0.07748261094093323,-0.27696943283081055,-0.9577496647834778,0.0423751100897789,-0.0007557272911071777,-0.013563811779022217
0.27588416814962213,0.07947315920824981,-0.9127820902114533,-0.46853217482566833,-0.1686864197254181,-0.13428710401058197,0.07638739049434662,-0.2723977863788605,-0.9591477513313293,0.029676400125026703,-0.011415660381317139,0.0013077855110168457
0.27115807702182443,0.07784328750372663,-0.9141062888271647,-0.4438856840133667,-0.23531657457351685,-0.1962444931268692,0.07492327690124512,-0.2678473889827728,-0.9605437517166138,0.012173838913440704,-0.021901726722717285,-0.0024231672286987305
0.2668582032083166,0.07576171480191266,-0.9161969400186217,-0.3788810968399048,-0.2907644510269165,-0.26704686880111694,0.07301017642021179,-0.2637021541595459,-0.961837112903595,0.0036956965923309326,-0.030502498149871826,-0.016342759132385254
0.26326741397981346,0.07337833702456427,-0.9190695101518224,-0.2928077280521393,-0.33306261897087097,-0.33506959676742554,0.07078651338815689,-0.2602367699146271,-0.9629465937614441,0.009077928960323334,-0.03683653473854065,-0.030293762683868408
0.260584660079698,0.07095363183316139,-0.9225720536292322,-0.1956181526184082,-0.32806116342544556,-0.370870977640152,0.06850069016218185,-0.25764551758766174,-0.9638082981109619,0.024654164910316467,-0.03721529245376587,-0.040097951889038086
0.25878918523695954,0.06881507903085424,-0.9263546955939995,-0.11660482734441757,-0.2967698276042938,-0.377258837223053,0.06647108495235443,-0.2559102475643158,-0.96441251039505,0.03832622617483139,-0.031092286109924316,-0.03273409605026245
0.2576153981672566,0.06688245954142238,-0.9300871939511136,-0.07281888276338577,-0.28806641697883606,-0.3545933663845062,0.06462714821100235,-0.25477537512779236,-0.9648382663726807,0.05890796333551407,-0.022156357765197754,0.004999339580535889
0.25683623228599184,0.06483486641028649,-0.9335364660643443,-0.03898528218269348,-0.29886844754219055,-0.316057950258255,0.06266426295042038,-0.2540218234062195,-0.9651663303375244,0.07854050397872925,-0.021063566207885742,0.05049353837966919
0.256410047957692,0.06258495212148808,-0.9366404435521569,-0.008081916719675064,-0.3049581050872803,-0.2876633107662201,0.06049932911992073,-0.2536095976829529,-0.9654128551483154,0.08561878651380539,-0.023138999938964844,0.09033656120300293
0.2562352896471092,0.06032323690103171,-0.9395325086172075,0.004432542249560356,-0.2904268503189087,-0.2756870687007904,0.0583183579146862,-0.2534405589103699,-0.9655914306640625,0.06825323402881622,-0.02860283851623535,0.13218694925308228
0.2560164053646789,0.058376607769853366,-0.9424125472048835,-0.021895121783018112,-0.24142765998840332,-0.28492724895477295,0.056441836059093475,-0.2532288134098053,-0.9657585024833679,0.03878822177648544,-0.036505043506622314,0.19128340482711792
0.2553117146742161,0.05712374750528211,-0.9453920953785929,-0.09091201424598694,-0.16278211772441864,-0.29675647616386414,0.05524200573563576,-0.252547025680542,-0.9660063982009888,0.012659545987844467,-0.04051321744918823,0.26573479175567627
0.25376076171896456,0.05656146398690742,-0.9484034073347041,-0.1858951598405838,-0.11045348644256592,-0.29911208152770996,0.05472090467810631,-0.2510460615158081,-0.966427206993103,-0.0034972093999385834,-0.030951589345932007,0.3441890478134155
0.2512983382741946,0.05664709979296093,-0.9515259433903573,-0.26748350262641907,-0.020241836085915565,-0.3298654556274414,0.05483849719166756,-0.24866172671318054,-0.967036783695221,-0.033064261078834534,-0.01914525032043457,0.40594053268432617
0.24801929135677758,0.057870064066033226,-0.9550045195489402,-0.35079842805862427,0.07860943675041199,-0.38158920407295227,0.05606796592473984,-0.2454843372106552,-0.9677777886390686,-0.07506521791219711,-0.0118093341588974,0.4478955864906311
0.24376072926345588,0.059765878993884095,-0.9590573484402402,-0.44855162501335144,0.0873161107301712,-0.4527701735496521,0.0579645074903965,-0.2413538694381714,-0.9687045216560364,-0.10145211219787598,0.0010584890842437744,0.5200350880622864
0.23850185963390813,0.061583327710400426,-0.964012532495298,-0.543825626373291,0.03079761378467083,-0.5724164247512817,0.05980227142572403,-0.23624716699123383,-0.969851016998291,-0.1467926800251007,0.01011192798614502,0.5992608070373535
0.2319431266358972,0.06289752284158155,-0.9702229629936607,-0.6946681141853333,-0.07664522528648376,-0.7135546803474426,0.06117287278175354,-0.2298690527677536,-0.9712971448898315,-0.21458479762077332,0.02460785210132599,0.696959376335144
0.22339327857790447,0.06299548735005368,-0.9778001485911737,-0.9211813807487488,-0.2555588483810425,-0.8580484390258789,0.061389509588479996,-0.22153985500335693,-0.9732170701026917,-0.2562137842178345,0.06590023636817932,0.8112602829933167
0.21218083491582224,0.06151030197183049,-0.9865988531286168,-1.2099766731262207,-0.41201287508010864,-0.9878008365631104,0.06009295955300331,-0.2105923295021057,-0.9757252335548401,-0.2917977273464203,0.1132717877626419,0.8952351212501526
0.19777716648191943,0.05914146090919516,-0.9964929586374482,-1.5480862855911255,-0.45633992552757263,-1.1111565828323364,0.05795474350452423,-0.1964903175830841,-0.9787914752960205,-0.3489093780517578,0.1673613339662552,0.9401257634162903
0.17965778219140743,0.056620861233466845,-1.007385414583598,-1.9404995441436768,-0.4551164507865906,-1.2229470014572144,0.05567977949976921,-0.17869287729263306,-0.9823281764984131,-0.3933873474597931,0.23133572936058044,0.9715402126312256
0.15750518647168793,0.05426844838169135,-1.019100606488494,-2.34122633934021,-0.4152557849884033,-1.3206543922424316,0.05357039347290993,-0.1568547636270523,-0.9861677289009094,-0.4119688868522644,0.2868902087211609,0.9760053753852844
0.13148721701085106,0.05211920742091334,-1.031749745033111,-2.6931052207946777,-0.38748353719711304,-1.4487053155899048,0.051645923405885696,-0.13110867142677307,-0.990021824836731,-0.42756152153015137,0.31844085454940796,0.936646580696106
0.10243094769413723,0.04998287526242942,-1.0456688820583961,-2.9387898445129395,-0.3706521689891815,-1.602078914642334,0.04970019310712814,-0.10225192457437515,-0.993516206741333,-0.4683709144592285,0.34663671255111694,0.8654186725616455
0.07134935975504872,0.04780449064103613,-1.0611454582034698,-3.096580982208252,-0.34271347522735596,-1.7736165523529053,0.04766470193862915,-0.07128883898258209,-0.9963161945343018,-0.5145379304885864,0.3919828236103058,0.7936031818389893
0.03862323591229131,0.04522261229579092,-1.0784618938145556,-3.268526554107666,-0.39674094319343567,-1.975448489189148,0.045173484832048416,-0.03861363232135773,-0.9982326030731201,-0.5666731595993042,0.4361966550350189,0.7763088345527649
0.0037217174238287996,0.0406670920024041,-1.097837423711761,-3.5245025157928467,-0.6359604597091675,-2.18692946434021,0.040655601769685745,-0.0037217088975012302,-0.9991663098335266,-0.6164460778236389,0.4794297218322754,0.8114526867866516
-0.03403810785176215,0.03240320119120851,-1.1195480365312984,-3.8369998931884766,-0.953134298324585,-2.41144061088562,0.03237876668572426,0.03403153643012047,-0.9988961219787598,-0.6596066355705261,0.5130571126937866,0.8460641503334045
-0.07461795194102618,0.020732416741446085,-1.1436660090105788,-4.106008529663086,-1.154844880104065,-2.5992815494537354,0.020673245191574097,0.07454872876405716,-0.9970030784606934,-0.6720099449157715,0.5495815277099609,0.7809996604919434
-0.11739856217580445,0.006810278296886211,-1.1699727433718052,-4.296888828277588,-1.299641728401184,-2.7561230659484863,0.006763348821550608,0.11712907254695892,-0.9930936694145203,-0.7089728713035583,0.5969059467315674,0.6381894946098328
-0.16127696850026885,-0.010010923473820965,-1.198820976739866,-4.421637535095215,-1.3453484773635864,-2.9410507678985596,-0.009880847297608852,0.16057872772216797,-0.9869735836982727,-0.7594215869903564,0.6695756912231445,0.4633072018623352
-0.20552304382584383,-0.028757654604294625,-1.2304676362759845,-4.4904069900512695,-1.2557955980300903,-3.0827765464782715,-0.028148552402853966,0.20407922565937042,-0.978549599647522,-0.7558633685112,0.7513956427574158,0.24074137210845947
-0.24965800704441013,-0.04713932713248773,-1.2640171286480644,-4.53169059753418,-0.9106147885322571,-3.0853559970855713,-0.04566095024347305,0.24707257747650146,-0.9679205417633057,-0.7138453125953674,0.806470513343811,0.0018256306648254395
-0.2937188796996471,-0.06277844615803128,-1.2981340153936711,-4.5625691413879395,-0.41735488176345825,-2.982081651687622,-0.06005042418837547,0.28951382637023926,-0.955288290977478,-0.650124192237854,0.8162600994110107,-0.19491922855377197
-0.3376452521264265,-0.07405063424608023,-1.3321372511201988,-4.494945526123047,0.0986325815320015,-2.9222054481506348,-0.06980569660663605,0.33126622438430786,-0.9409515857696533,-0.6081576347351074,0.7638876438140869,-0.3554656505584717
-0.37972206769721356,-0.08370889058501221,-1.3674450127375621,-4.344331741333008,0.3766063153743744,-3.0205612182617188,-0.07765534520149231,0.3706623613834381,-0.9255155920982361,-0.6616330146789551,0.6842693090438843,-0.4883332848548889
-0.4193410472038875,-0.09398690283360758,-1.405159725753113,-4.109973430633545,0.47015810012817383,-3.1902592182159424,-0.08571730554103851,0.40715867280960083,-0.9093263149261475,-0.7265233397483826,0.6298285722732544,-0.5939085483551025
-0.45536952007714065,-0.10649146615281337,-1.4456673714375678,-3.740730047225952,0.42153286933898926,-3.3893182277679443,-0.09545917063951492,0.4397942125797272,-0.8930109739303589,-0.7514342069625854,0.5945075750350952,-0.7168523073196411
-0.4860658266858352,-0.12373865827680358,-1.4895162428024478,-3.200403928756714,0.06336911022663116,-3.6603009700775146,-0.1091279610991478,0.467151015996933,-0.8774172067642212,-0.769778311252594,0.5601164102554321,-0.8607876896858215
-0.5093825396704635,-0.14855186344704888,-1.5367210473739035,-2.5031304359436035,-0.5245518088340759,-3.8921046257019043,-0.12921610474586487,0.4876382648944855,-0.8634304404258728,-0.7273207902908325,0.5293142795562744,-1.01283597946167
-0.5241203338143655,-0.1810367341311495,-1.585815771193519,-1.7988009452819824,-1.1046345233917236,-4.012016296386719,-0.15588043630123138,0.5004516243934631,-0.8516157865524292,-0.6136966347694397,0.5003113150596619,-1.1408311128616333
-0.5312742594524784,-0.21948953775077332,-1.6352200511528359,-1.3135257959365845,-1.5790404081344604,-4.033480167388916,-0.18771980702877045,0.506632387638092,-0.8414778113365173,-0.5072875618934631,0.47958892583847046,-1.1778550148010254
-0.5330617138030826,-0.26119280751620194,-1.6835757652411312,-1.0193777084350586,-1.8061275482177734,-3.9457008838653564,-0.2224045991897583,0.5081726312637329,-0.8320437073707581,-0.4083022475242615,0.4427855610847473,-1.1697567701339722
-0.5309536114377925,-0.3028191334616581,-1.7301743661590576,-0.8144394159317017,-1.7416218519210815,-3.873823404312134,-0.25715574622154236,0.506355881690979,-0.8230884671211243,-0.36544865369796753,0.390555739402771,-1.2009289264678955
-0.5259359940470311,-0.34180204840667966,-1.775694379528854,-0.7432712316513062,-1.4251471757888794,-3.8952114582061768,-0.28988659381866455,0.5020227432250977,-0.8148244619369507,-0.39744555950164795,0.34755605459213257,-1.2253518104553223
-0.519540969143756,-0.37652218637248486,-1.8219206640050154,-0.900623619556427,-0.8670317530632019,-4.044559001922607,-0.3191709518432617,0.496481716632843,-0.8072395920753479,-0.43938925862312317,0.3040858805179596,-1.1990470886230469
-0.5132992749670628,-0.4060958096568096,-1.8706353152476234,-1.1691973209381104,-0.24304959177970886,-4.227380275726318,-0.3441183865070343,0.4910539984703064,-0.8002802729606628,-0.443372517824173,0.28471803665161133,-1.1468174457550049
-0.5072272072606938,-0.4309775397640021,-1.9216480266496863,-1.304513931274414,0.22093139588832855,-4.368995666503906,-0.36516109108924866,0.48575544357299805,-0.7941656708717346,-0.34457099437713623,0.30228471755981445,-1.1656122207641602
-0.499607400368676,-0.45286927716606556,-1.973621373990447,-1.1653547286987305,0.36935973167419434,-4.477369785308838,-0.38406628370285034,0.4790809750556946,-0.7892873883247375,-0.19688165187835693,0.3472129702568054,-1.2755320072174072
-0.488074413034489,-0.4737203906785864,-2.0241017146583355,-0.692089855670929,0.2187901735305786,-4.4561262130737305,-0.4029330313205719,0.46892601251602173,-0.7859728932380676,0.01767909526824951,0.43706458806991577,-1.4425885677337646
-0.47062001696069544,-0.4940611718352227,-2.069582407860903,0.05833166092634201,-0.09777073562145233,-4.261843204498291,-0.4226531982421875,0.45343899726867676,-0.7847021222114563,0.3071441054344177,0.5406711101531982,-1.632000207901001
-0.44634485133160484,-0.5135760969758607,-2.1070134135925547,0.9594721794128418,-0.48799368739128113,-3.9227707386016846,-0.4431633949279785,0.4316713809967041,-0.7856627702713013,0.588350772857666,0.6338498592376709,-1.7645844221115112
-0.4154223655954139,-0.5319629334305006,-2.1349265261919146,1.846740484237671,-0.8336735367774963,-3.530010461807251,-0.46408435702323914,0.40357640385627747,-0.7885123491287231,0.809345006942749,0.6967805624008179,-1.8153998851776123
-0.37937551854067714,-0.5485715941498605,-2.15358171336192,2.5215911865234375,-1.0148448944091797,-3.1025753021240234,-0.4843904376029968,0.3703404664993286,-0.7925993800163269,0.9596864581108093,0.7302300930023193,-1.7721588611602783
-0.3407417251664177,-0.5628409582758607,-2.1643395219794033,2.9422972202301025,-1.0566333532333374,-2.6714022159576416,-0.5029133558273315,0.33418625593185425,-0.7971183657646179,1.049605131149292,0.755840539932251,-1.6392676830291748
-0.3010626468549087,-0.574913169831412,-2.1687930259548125,3.266066312789917,-1.073226809501648,-2.31205677986145,-0.5193045735359192,0.2965352237224579,-0.8014921545982361,1.0725576877593994,0.7744333744049072,-1.5131134986877441
-0.26027575359344973,-0.5860136034199537,-2.168146851869104,3.609184980392456,-1.2055294513702393,-2.058964729309082,-0.5344170928001404,0.2573470175266266,-0.805090606212616,1.0583581924438477,0.7822799682617188,-1.4546139240264893
-0.21741411910821717,-0.5990800489754599,-2.1627857343234087,4.086385726928711,-1.697433590888977,-1.8561975955963135,-0.5506083369255066,0.21570533514022827,-0.8064128756523132,1.0391794443130493,0.8111042976379395,-1.4425647258758545
-0.17081137778538738,-0.6177316654815667,-2.15182191296335,4.7983198165893555,-2.456892967224121,-1.6948983669281006,-0.5707587003707886,0.1699819713830948,-0.8033309578895569,1.0336188077926636,0.8653420805931091,-1.5100387334823608
-0.11879432735693228,-0.6439586794386354,-2.1337885262698655,5.6872124671936035,-3.2886791229248047,-1.5507198572158813,-0.5961347818374634,0.11851511895656586,-0.794089138507843,1.0163160562515259,0.924392580986023,-1.6370785236358643
-0.06104163346728511,-0.6788652506435319,-2.1077785396727227,6.568798065185547,-4.130414009094238,-1.450394868850708,-0.6267408132553101,0.061003733426332474,-0.7768362164497375,0.9950422048568726,0.9874734282493591,-1.7040597200393677
0.0016813200927520361,-0.7230467328568673,-2.07358985674334,7.368976593017578,-4.842696666717529,-1.4120748043060303,-0.6616712212562561,-0.0016813193215057254,-0.749792218208313,0.9474683403968811,1.0468320846557617,-1.70389723777771
0.06781070003018558,-0.7754046646792838,-2.0314820100129256,7.968538761138916,-5.257848262786865,-1.42532217502594,-0.6983962655067444,-0.06775874644517899,-0.7124965190887451,0.8915420770645142,1.0913335084915161,-1.6793797016143799
0.13495708212751722,-0.8341017807461777,-1.9821423184631008,8.344807624816895,-5.4189133644104,-1.4338451623916626,-0.7339583039283752,-0.13454778492450714,-0.6657342910766602,0.8299208283424377,1.1286578178405762,-1.6173925399780273
0.20110106386422824,-0.8979104908637455,-1.9260160920253797,8.593057632446289,-5.401000499725342,-1.4672402143478394,-0.7662663459777832,-0.19974832236766815,-0.6106852293014526,0.7660984992980957,1.148005723953247,-1.5652027130126953
0.26517605446662706,-0.9659605318618422,-1.8634844879960604,8.746492385864258,-5.268343448638916,-1.556856632232666,-0.7938427925109863,-0.2620791792869568,-0.5487514138221741,0.6628308296203613,1.185312271118164,-1.527801752090454
0.32623417635706436,-1.0379397920602735,-1.794905430603223,8.825101852416992,-5.079908847808838,-1.6596565246582031,-0.8159278631210327,-0.3204781115055084,-0.4812021255493164,0.5494788885116577,1.2093178033828735,-1.479308009147644
0.3837076638934235,-1.113473907689958,-1.7205594867023162,8.836104393005371,-4.808006286621094,-1.8270219564437866,-0.8319935202598572,-0.3743610978126526,-0.4094392657279968,0.44284868240356445,1.2066669464111328,-1.451965093612671
0.43729703843298356,-1.1916012933748936,-1.6411378497525613,8.756776809692383,-4.422776699066162,-2.042109251022339,-0.8415471911430359,-0.4234924018383026,-0.33533942699432373,0.34021973609924316,1.2094879150390625,-1.4093047380447388
0.4866715857618032,-1.2708405328588293,-1.557671733877374,8.553085327148438,-3.9530959129333496,-2.274583339691162,-0.8444280624389648,-0.4676865041255951,-0.2611713111400604,0.2717810273170471,1.209736704826355,-1.3391857147216797
0.5314906583298399,-1.3506507443279252,-1.4711923710634942,8.286829948425293,-3.563506603240967,-2.482499837875366,-0.8412474989891052,-0.506818950176239,-0.18824787437915802,0.23200982809066772,1.2314589023590088,-1.251067876815796
0.5715781534119111,-1.4317509702968698,-1.3819858923670278,8.052777290344238,-3.2922704219818115,-2.6671838760375977,-0.8329313397407532,-0.5409600138664246,-0.11656742542982101,0.22140467166900635,1.2589927911758423,-1.2012578248977661
0.6066184635938162,-1.5151496340932222,-1.28951481094198,7.894125461578369,-3.085740804672241,-2.779848098754883,-0.8203089237213135,-0.570092499256134,-0.04569465294480324,0.23167049884796143,1.2932064533233643,-1.2052513360977173
0.6357803666026156,-1.600460152460719,-1.193571957555698,7.719618320465088,-2.7540242671966553,-2.8181803226470947,-0.8042546510696411,-0.5938056111335754,0.023864269256591797,0.26673322916030884,1.3261206150054932,-1.2329707145690918
0.658384108050655,-1.6841485171128179,-1.096125848206231,7.3922624588012695,-2.1815874576568604,-2.7742576599121094,-0.7859058976173401,-0.6118395328521729,0.08946766704320908,0.2847462296485901,1.3628313541412354,-1.2093406915664673
0.6745286623395849,-1.7611624762541171,-1.0006463821369038,6.888779163360596,-1.3747891187667847,-2.667721748352051,-0.7668925523757935,-0.624529242515564,0.14777985215187073,0.28949081897735596,1.383272647857666,-1.1367629766464233
0.6853207275682215,-1.8267766912123478,-0.9104896109107715,6.24915885925293,-0.38167670369148254,-2.5222160816192627,-0.7489884495735168,-0.6329213380813599,0.1960267722606659,0.2849229574203491,1.384584665298462,-1.0597505569458008
0.6922522132528163,-1.8770281577026176,-0.8282867175932829,5.507791519165039,0.8061474561691284,-2.3095767498016357,-0.7339959144592285,-0.6382725834846497,0.2320731282234192,0.2775292992591858,1.3843358755111694,-0.9990713596343994
0.6965575560935258,-1.9085402586860694,-0.7560962433495991,4.703608989715576,2.125079393386841,-2.0024211406707764,-0.7237202525138855,-0.6415809392929077,0.2541709244251251,0.2867390513420105,1.3948616981506348,-0.9581503868103027
0.6992808344048601,-1.9201678539902336,-0.6949145601100611,3.922447443008423,3.369652509689331,-1.6673451662063599,-0.719071626663208,-0.643667459487915,0.2619696259498596,0.3079236149787903,1.3916229009628296,-0.9285802841186523
0.7012947978314623,-1.9140441232692835,-0.64390127494162,3.282092809677124,4.369497776031494,-1.3563255071640015,-0.7194403409957886,-0.6452074646949768,0.2571246027946472,0.3101080656051636,1.370335578918457,-0.9273821115493774
0.7025359010030827,-1.893908136726899,-0.6009653491902325,2.8373820781707764,5.143857479095459,-1.0099356174468994,-0.7237116098403931,-0.6461551785469055,0.242332324385643,0.32594555616378784,1.3612279891967773,-0.9656140804290771
0.7020112490044454,-1.863069886581356,-0.5641527030247211,2.554347038269043,5.711095809936523,-0.5767258405685425,-0.7311639785766602,-0.6457546949386597,0.22000029683113098,0.36196237802505493,1.3945035934448242,-1.017043113708496
0.6984730521597077,-1.824727722643149,-0.5317224719525931,2.413489580154419,6.071028232574463,-0.06374497711658478,-0.7412667870521545,-0.6430490612983704,0.19238384068012238,0.40561914443969727,1.4390238523483276,-1.0782175064086914
0.6909166775676027,-1.7818828368814685,-0.5021992843957247,2.335304021835327,6.206002712249756,0.48352450132369995,-0.7535564303398132,-0.637243926525116,0.16147099435329437,0.44630545377731323,1.4591891765594482,-1.1513237953186035
0.6793835551072054,-1.7370295288357593,-0.47463777169230426,2.281424045562744,6.1982808113098145,0.9695062637329102,-0.767236053943634,-0.6283136010169983,0.12872803211212158,0.43131381273269653,1.4568507671356201,-1.217717170715332
0.6645417015914294,-1.6920214107219926,-0.447814234271956,2.3056514263153076,6.087385177612305,1.3496341705322266,-0.7814225554466248,-0.6166984438896179,0.09519478678703308,0.3520248532295227,1.4478751420974731,-1.325541377067566
0.6471749819015046,-1.6490028208045433,-0.41930473909304544,2.562379837036133,5.959716320037842,1.6487284898757935,-0.7953518629074097,-0.6029350161552429,0.06232880800962448,0.21858477592468262,1.4496147632598877,-1.52012300491333
0.627447568438905,-1.609311963224208,-0.38562418555735234,3.090228796005249,5.960402011871338,1.981720209121704,-0.8089284300804138,-0.5870804190635681,0.031171808019280434,0.09998971223831177,1.4815964698791504,-1.7773418426513672
0.6048026621792747,-1.5728207595723778,-0.3440427738248472,3.7818105220794678,6.111673831939697,2.4196853637695312,-0.8226125836372375,-0.5685997605323792,0.0016653260681778193,-0.003666102886199951,1.5860865116119385,-1.990968942642212
0.5786311119247033,-1.53868943576856,-0.29349788061696896,4.505703449249268,6.300902366638184,2.9399502277374268,-0.8367806077003479,-0.5468783974647522,-0.026875659823417664,-0.10850143432617188,1.719638466835022,-2.0873515605926514
0.5489003884299475,-1.5064361349396211,-0.23419061334706184,5.187778949737549,6.422736167907715,3.474959135055542,-0.8513326048851013,-0.5217494964599609,-0.054867710918188095,-0.23426932096481323,1.839956283569336,-2.075808525085449
0.5159784255967041,-1.4759655442474624,-0.1670856023516614,5.7653350830078125,6.415304183959961,3.9943907260894775,-0.8659023642539978,-0.4933861196041107,-0.08236123621463776,-0.380496621131897,1.939095377922058,-2.002065658569336
0.48041828068747433,-1.446969546049037,-0.09387217779902095,6.191287517547607,6.311996936798096,4.449652194976807,-0.8800117373466492,-0.4621501564979553,-0.10952940583229065,-0.5601891279220581,2.026130199432373,-1.8897382020950317
0.44337060461924355,-1.4190552355530854,-0.016296481560355076,6.49558162689209,6.123354434967041,4.7590861320495605,-0.8929312825202942,-0.4289866089820862,-0.13654397428035736,-0.7729927897453308,2.0571603775024414,-1.7374794483184814
0.40657920957819255,-1.3918794169189488,0.06400594366282578,6.674875736236572,5.870068550109863,4.865525245666504,-0.9038172960281372,-0.3954697251319885,-0.16345606744289398,-1.0274722576141357,2.0572283267974854,-1.5601462125778198
0.37204879305571126,-1.365291379108469,0.14544645209208978,6.749756336212158,5.580203056335449,4.752263069152832,-0.9119821786880493,-0.36352482438087463,-0.1901005506515503,-1.2962545156478882,2.005797863006592,-1.3718501329421997
0.3414344775044369,-1.3388696668832225,0.22700460683136195,6.807736873626709,5.358193397521973,4.513893127441406,-0.9170461893081665,-0.3348391056060791,-0.21658481657505035,-1.5253061056137085,1.9268344640731812,-1.2205642461776733
0.31541876856924156,-1.3124003515303408,0.30889400931460254,6.937005996704102,5.166129112243652,4.287375450134277,-0.9191055297851562,-0.3102146089076996,-0.24292394518852234,-1.6670150756835938,1.865420937538147,-1.1280783414840698
0.293778815418142,-1.2866983450198335,0.391698583397744,7.072950839996338,4.890931129455566,4.103277206420898,-0.9187887907028198,-0.28957119584083557,-0.26828303933143616,-1.7242166996002197,1.8372244834899902,-1.0389832258224487
0.2760427513093515,-1.262282628152038,0.47474812096333774,7.067497730255127,4.628945827484131,3.9280786514282227,-0.9167149066925049,-0.2725503444671631,-0.2921473979949951,-1.7659938335418701,1.809812307357788,-0.9054691791534424
0.2617037250060593,-1.238575609307582,0.5563031432815975,6.894222259521484,4.411642074584961,3.722783088684082,-0.9131327867507935,-0.2587266266345978,-0.31503814458847046,-1.789976954460144,1.733702301979065,-0.738962709903717
0.25067553106939605,-1.2153718186096563,0.6349543274353635,6.645728588104248,4.174387454986572,3.4575963020324707,-0.9081974625587463,-0.24805843830108643,-0.33711203932762146,-1.806692123413086,1.628429651260376,-0.6027989387512207
0.24341649825055958,-1.193099685091757,0.710282903959103,6.441413879394531,3.9464681148529053,3.1053805351257324,-0.9021145701408386,-0.24101980030536652,-0.35790887475013733,-1.8462984561920166,1.52153742313385,-0.5447553396224976
0.24091029917664789,-1.1710020371612986,0.7823868746560798,6.288779258728027,3.936283588409424,2.6386022567749023,-0.8945395946502686,-0.23858673870563507,-0.37798836827278137,-1.927176594734192,1.4285739660263062,-0.5624566078186035
0.24384336119157735,-1.1467836676940437,0.8510528577759116,6.120720386505127,4.196924209594727,2.157588005065918,-0.8844823837280273,-0.24143406748771667,-0.3992501199245453,-1.9845972061157227,1.360635757446289,-0.5607566237449646
0.2515565980490732,-1.1184356438593197,0.9159666715853371,5.887955665588379,4.6418256759643555,1.7892627716064453,-0.871109664440155,-0.24891187250614166,-0.4233331084251404,-1.9540245532989502,1.340571403503418,-0.4846717119216919
0.2626178721547718,-1.0843902279189441,0.9767153038703082,5.544404983520508,5.2312846183776855,1.5530949831008911,-0.8537088632583618,-0.25960955023765564,-0.45142465829849243,-1.8884024620056152,1.340023398399353,-0.3513861298561096
0.2754335817409728,-1.043475224019737,1.0324456359463505,5.041187763214111,5.881399631500244,1.4161193370819092,-0.8315858244895935,-0.2719641923904419,-0.4842524528503418,-1.8319730758666992,1.3103249073028564,-0.1685338318347931
0.28852855567519875,-0.9948549139557636,1.0820652312204577,4.407106399536133,6.565065860748291,1.3396835327148438,-0.804011881351471,-0.28454190492630005,-0.522111713886261,-1.7996561527252197,1.2478750944137573,0.016374409198760986
0.3008697260324341,-0.9382320207194457,1.1249839737567702,3.738247871398926,7.193458557128906,1.2795898914337158,-0.7702848315238953,-0.29635098576545715,-0.5646569728851318,-1.778497576713562,1.1682686805725098,0.14873284101486206
0.31245044568787833,-0.874806345929512,1.161663367629079,3.1965830326080322,7.633800983428955,1.1905113458633423,-0.7302634119987488,-0.30739134550094604,-0.6101033091545105,-1.7710182666778564,1.0736420154571533,0.21071970462799072
0.32408995203547375,-0.8067872014566758,1.19318662576805,2.8171379566192627,7.865977764129639,1.0516680479049683,-0.6844779849052429,-0.31844624876976013,-0.6558062434196472,-1.7678534984588623,0.96271812915802,0.23107784986495972
0.3365191730734824,-0.7361829728037202,1.2201955437254066,2.51920485496521,7.937559604644775,0.8639206886291504,-0.6338016986846924,-0.33020350337028503,-0.6994720101356506,-1.7655360698699951,0.8801760673522949,0.27225637435913086
0.3500573103651667,-0.6645042624452542,1.2427123307453556,2.2810633182525635,7.841620445251465,0.6253962516784668,-0.5792698860168457,-0.3429516553878784,-0.7394799590110779,-1.7541193962097168,0.8017987012863159,0.3431786298751831
0.36490232511520654,-0.5934728699988537,1.2608006806422025,2.110369920730591,7.559290885925293,0.3697053790092468,-0.5224220752716064,-0.3568580448627472,-0.7744207978248596,-1.7136008739471436,0.7310188412666321,0.40685176849365234
0.38091778200684745,-0.5246580812782864,1.2748174551080775,1.9734917879104614,7.177385330200195,0.15207022428512573,-0.4650132656097412,-0.3717726171016693,-0.803459882736206,-1.6369459629058838,0.6865614652633667,0.46459269523620605
0.39721053079782187,-0.4579870383660376,1.2849442807152578,1.7544302940368652,6.912520408630371,-0.040793709456920624,-0.40771982073783875,-0.3868475556373596,-0.827111542224884,-1.5561625957489014,0.6504431962966919,0.519433319568634
0.41217526944963734,-0.39059863813253143,1.2905503897263646,1.3632769584655762,7.015612602233887,-0.2599926292896271,-0.34885549545288086,-0.40060335397720337,-0.847240686416626,-1.5456910133361816,0.6038199663162231,0.575206995010376
0.42350810654318355,-0.31786476872465175,1.2906744844618303,0.7399436235427856,7.537124156951904,-0.5142441987991333,-0.2849270701408386,-0.4109611511230469,-0.8659835457801819,-1.6068575382232666,0.5562858581542969,0.6372847557067871
0.42893376818173695,-0.2362270537919016,1.2847173917825396,0.003349801991134882,8.25384521484375,-0.8434481620788574,-0.21283473074436188,-0.41590139269828796,-0.8841534852981567,-1.6756234169006348,0.49655938148498535,0.7054730653762817
0.42760952255725915,-0.1452565462139996,1.2726857754943781,-0.6488865613937378,8.847429275512695,-1.263417363166809,-0.13171327114105225,-0.41469675302505493,-0.9003767371177673,-1.7625126838684082,0.4117213189601898,0.7250684499740601
0.4204542478765878,-0.04805833375020467,1.2554327487387826,-1.0299780368804932,9.065186500549316,-1.7283389568328857,-0.04385574162006378,-0.40817517042160034,-0.9118496179580688,-1.8147867918014526,0.3461329936981201,0.6901394128799438
0.40950168205595544,0.0507383109683935,1.2338678371563625,-1.1087735891342163,8.840449333190918,-2.208313226699829,0.04652326554059982,-0.39815226197242737,-0.9161388278007507,-1.8146811723709106,0.31128400564193726,0.6095592379570007
0.3965746215648483,0.14626881686622709,1.2086123783105964,-0.977373480796814,8.186294555664062,-2.652801513671875,0.1344362497329712,-0.38626107573509216,-0.9125400185585022,-1.7621521949768066,0.30429089069366455,0.5442691445350647
0.3826548865804351,0.23463309709246358,1.1800092389365024,-0.735398530960083,7.231057167053223,-3.0424959659576416,0.21567195653915405,-0.37338465452194214,-0.9022579789161682,-1.6642192602157593,0.3176290988922119,0.508581280708313
0.36823630107477756,0.3128499561144205,1.1485587286826544,-0.44622156023979187,6.041910171508789,-3.339240550994873,0.2871396243572235,-0.3599705398082733,-0.8876779079437256,-1.555999517440796,0.3600315749645233,0.4904458522796631
0.353694233941253,0.3788468973649666,1.114849903937151,-0.14371100068092346,4.738439559936523,-3.549739122390747,0.3469555377960205,-0.34636572003364563,-0.8715805411338806,-1.450394868850708,0.3975284993648529,0.4835801124572754
0.33939162697205033,0.4320227937870561,1.0793080409528748,0.15430550277233124,3.4753551483154297,-3.692152261734009,0.394824355840683,-0.33291348814964294,-0.8563190698623657,-1.3752624988555908,0.43107330799102783,0.4586445093154907
0.3255819347316239,0.47349110823554474,1.0423704882550704,0.41338837146759033,2.431652784347534,-3.7589995861053467,0.4320402145385742,-0.31986019015312195,-0.8432263731956482,-1.3211240768432617,0.4788415729999542,0.4026593565940857
0.31243831001153877,0.5060944704613434,1.0048988956169551,0.6019899845123291,1.7816344499588013,-3.7171883583068848,0.461296021938324,-0.307379812002182,-0.8323001861572266,-1.2663192749023438,0.5370551347732544,0.32737165689468384
0.2998140456225459,0.5333853118977671,0.9680576432283221,0.6767839193344116,1.4849344491958618,-3.610924482345581,0.48577001690864563,-0.2953425645828247,-0.8226786851882935,-1.1997287273406982,0.590890109539032,0.26394766569137573
0.2870337234020383,0.5579318022758356,0.9323614650788745,0.6724458932876587,1.365587830543518,-3.5478568077087402,0.5077725648880005,-0.28310856223106384,-0.8136440515518188,-1.166158676147461,0.6050995588302612,0.23484766483306885
0.27335449855520677,0.5809530406377272,0.8973551747420969,0.6489720344543457,1.301261305809021,-3.5885608196258545,0.5284435749053955,-0.2699629068374634,-0.8049021363258362,-1.1865246295928955,0.5865523219108582,0.20861923694610596
0.2583391311541119,0.6031151942198947,0.862100375454412,0.6478199362754822,1.278157114982605,-3.727642297744751,0.5483883023262024,-0.25547516345977783,-0.796242892742157,-1.2418086528778076,0.5720493197441101,0.16718411445617676
0.24135268715515426,0.624763393674754,0.8259024650128811,0.6007974147796631,1.244958519935608,-3.9531755447387695,0.5679522156715393,-0.2390163242816925,-0.7875922322273254,-1.3130083084106445,0.5809963941574097,0.14373236894607544
0.2214226255552358,0.6452070439325582,0.7886643869702655,0.4768989384174347,1.1137562990188599,-4.228541851043701,0.5866822004318237,-0.21961773931980133,-0.7794691324234009,-1.3611571788787842,0.6055583357810974,0.16183912754058838
0.19798614796254707,0.6629943539174523,0.7505557410510103,0.33763694763183594,0.8278986215591431,-4.515459060668945,0.6034560203552246,-0.1966952234506607,-0.7727559804916382,-1.3718581199645996,0.6352328658103943,0.16660058498382568
0.171480679772747,0.6760821357175487,0.71157472606141,0.27637091279029846,0.3286038339138031,-4.749456882476807,0.616564154624939,-0.17064149677753448,-0.7685897350311279,-1.3345359563827515,0.6912866830825806,0.11191248893737793
0.1437117347877969,0.6824246812721937,0.6715474352079048,0.3948782980442047,-0.32600080966949463,-4.846845626831055,0.6241750717163086,-0.1432175636291504,-0.7680457830429077,-1.216414451599121,0.7584519982337952,-0.032140374183654785
0.11751409130496987,0.6810862800821129,0.6300155860388932,0.7530777454376221,-1.0016114711761475,-4.804694175720215,0.6252948045730591,-0.11724381148815155,-0.7715311050415039,-1.061818242073059,0.8333083391189575,-0.2434835433959961
0.09591219705023254,0.6728249932495325,0.5863379412035714,1.3358992338180542,-1.542572259902954,-4.631998062133789,0.6203335523605347,-0.09576521068811417,-0.7784698605537415,-0.9303921461105347,0.9116527438163757,-0.46922606229782104
0.08138215689629834,0.659436995969628,0.5402708926012657,2.0394866466522217,-1.916831135749817,-4.352157115936279,0.6106442213058472,-0.08129235357046127,-0.7877215147018433,-0.8418148756027222,0.9772274494171143,-0.6358929872512817
0.07487310461198822,0.6423229181955572,0.492109845613316,2.707887649536133,-2.2363882064819336,-4.057780742645264,0.597378671169281,-0.07480316609144211,-0.7984630465507507,-0.7975128889083862,1.0143173933029175,-0.6710498929023743
0.0753036805757391,0.621899655846165,0.4425374263155315,3.142111301422119,-2.566412925720215,-3.871710777282715,0.580929160118103,-0.07523252815008163,-0.8104698061943054,-0.8150143027305603,1.017020344734192,-0.5574500560760498
0.07933251511696757,0.5987224938396754,0.3921012909425558,3.201359510421753,-2.8047306537628174,-3.917534828186035,0.561815083026886,-0.07924932986497879,-0.823458194732666,-0.9160478115081787,0.9795942306518555,-0.3438849449157715
0.08243566111917153,0.5741220463690069,0.3413026659354459,2.8435893058776855,-2.8969550132751465,-4.1767096519470215,0.5412535071372986,-0.08234232664108276,-0.8368179798126221,-1.0559020042419434,0.920644998550415,-0.10712116956710815
0.08059462889786642,0.5494734757690622,0.2905159978013617,2.1886560916900635,-2.819364547729492,-4.5772929191589355,0.520543098449707,-0.08050740510225296,-0.8500314354896545,-1.1927995681762695,0.8874837756156921,0.07908111810684204
0.07157406779502744,0.526112088585604,0.23948248476368336,1.4545159339904785,-2.592402935028076,-5.067114353179932,0.5008893013000488,-0.07151297479867935,-0.8625519275665283,-1.2985272407531738,0.8826550245285034,0.14226078987121582
0.05523578647563357,0.505017270347229,0.18728493519776873,0.8379656076431274,-2.260817050933838,-5.5770392417907715,0.48308467864990234,-0.05520770326256752,-0.8738313913345337,-1.3608312606811523,0.9144454598426819,0.07837545871734619
0.033161763545333275,0.4864560071509502,0.1329723838868738,0.4472945034503937,-1.9168392419815063,-6.029792785644531,0.4672389328479767,-0.033155687153339386,-0.8835091590881348,-1.3713221549987793,0.9930556416511536,-0.060582637786865234
0.007760959248572896,0.46976151243702274,0.07592102612411056,0.29687705636024475,-1.650469422340393,-6.3933305740356445,0.4526600241661072,-0.007760881446301937,-0.8916494250297546,-1.3301167488098145,1.1018619537353516,-0.20980626344680786
-0.01830864916618793,0.453669903444942,0.01596012808176393,0.37146419286727905,-1.4970178604125977,-6.619208335876465,0.4381937086582184,0.018307626247406006,-0.8986940979957581,-1.2456430196762085,1.2122679948806763,-0.34347814321517944
-0.04263220793940815,0.43678832206056456,-0.04656240798964336,0.601900041103363,-1.492301106452942,-6.711135387420654,0.4226471483707428,0.04261929541826248,-0.9052916765213013,-1.142205834388733,1.3161301612854004,-0.43012702465057373
-0.06353913785573816,0.4176505537652535,-0.11102178343920127,0.891585648059845,-1.6403381824493408,-6.703752517700195,0.4047955870628357,0.06349639594554901,-0.9121999740600586,-1.058680534362793,1.4142868518829346,-0.4498758316040039
-0.08067206197092988,0.39501746295162216,-0.1770415961330181,1.1126691102981567,-1.9192842245101929,-6.721188068389893,0.3835727572441101,0.0805845856666565,-0.9199880957603455,-1.0231449604034424,1.4745302200317383,-0.40751129388809204
-0.09535270119322159,0.3682422712829297,-0.24458328046321914,1.110933780670166,-2.206214666366577,-6.835089206695557,0.358340859413147,0.09520827233791351,-0.9287233948707581,-1.049686074256897,1.4994268417358398,-0.31604278087615967
-0.10974365008940702,0.33829938688901257,-0.3136050296772269,0.8779065012931824,-2.31659197807312,-7.017731189727783,0.329886794090271,0.10952349752187729,-0.9376456141471863,-1.1054911613464355,1.5090526342391968,-0.22377711534500122
-0.1257618863862884,0.3072707857226413,-0.3842203300047874,0.48694223165512085,-2.174994468688965,-7.267883777618408,0.3000696897506714,0.1254306435585022,-0.9456349015235901,-1.1754053831100464,1.539623737335205,-0.1790751814842224
-0.14440793118803352,0.2772105779437652,-0.4568505123074633,0.06114807352423668,-1.8388811349868774,-7.547469615936279,0.27082520723342896,0.14390654861927032,-0.9518112540245056,-1.2409943342208862,1.5983420610427856,-0.18718105554580688
-0.1654446033481743,0.24932799288215793,-0.5319158592950302,-0.27040377259254456,-1.3953663110733032,-7.822301864624023,0.24338343739509583,0.16469088196754456,-0.9558458924293518,-1.2743741273880005,1.6591922044754028,-0.2468518614768982
-0.18752379716363063,0.22372039719068984,-0.6098717279906202,-0.4270431697368622,-0.9911799430847168,-8.08333683013916,0.2179694026708603,0.18642666935920715,-0.9579845666885376,-1.2769293785095215,1.7267813682556152,-0.3321460485458374
-0.2087959425002071,0.1987975652459776,-0.6908845020356911,-0.389100581407547,-0.8223248720169067,-8.276548385620117,0.1932014673948288,0.2072821408510208,-0.9590137004852295,-1.2315011024475098,1.8140497207641602,-0.4034130573272705
-0.22680905575387622,0.17208427890024527,-0.7742629651648434,-0.13247469067573547,-0.9405002593994141,-8.31861686706543,0.16685067117214203,0.22486945986747742,-0.9599971771240234,-1.1168171167373657,1.9113914966583252,-0.47698402404785156
-0.23922689685187964,0.14142293638640102,-0.8587150700621382,0.24043869972229004,-1.2974910736083984,-8.240286827087402,0.13693788647651672,0.23695160448551178,-0.9618222117424011,-0.9873865246772766,1.999666452407837,-0.5463107228279114
-0.24558217267548677,0.1058269844195863,-0.9431052325748148,0.48385244607925415,-1.7493488788604736,-8.1279878616333,0.10246025025844574,0.24312107264995575,-0.9645693302154541,-0.9151739478111267,2.0614748001098633,-0.5540615916252136
-0.24757338228716083,0.06609675175753946,-1.0269051230197512,0.47775888442993164,-2.0626943111419678,-8.049772262573242,0.06403480470180511,0.2450520545244217,-0.9673929214477539,-0.9000181555747986,2.0873301029205322,-0.5205678939819336
-0.24734638935246717,0.02447631668070156,-1.1100476072422352,0.2725532054901123,-2.1446549892425537,-8.008587837219238,0.023729022592306137,0.24483197927474976,-0.9692751169204712,-0.9259660243988037,2.106318473815918,-0.5034574270248413
-0.24659723532060285,-0.016876364968912136,-1.1928658966001102,-0.08037659525871277,-2.042320489883423,-8.000125885009766,-0.01636505499482155,0.24410554766654968,-0.9696105718612671,-0.9724350571632385,2.1416518688201904,-0.5208526849746704
-0.24644390947979763,-0.05664337768298166,-1.2755638566487577,-0.47389841079711914,-1.867880940437317,-7.974548816680908,-0.054902590811252594,0.24395686388015747,-0.9682307243347168,-0.9821152687072754,2.1825110912323,-0.5571445822715759
-0.24627025090599,-0.09494698803533894,-1.358008568401787,-0.6539078950881958,-1.763169765472412,-7.918001651763916,-0.09194400161504745,0.2437884509563446,-0.9654602408409119,-0.9362542629241943,2.2171642780303955,-0.6806120872497559
-0.24268377225723958,-0.1318501219570328,-1.4395801900915786,-0.359853059053421,-1.6435863971710205,-7.829556465148926,-0.12761594355106354,0.24030861258506775,-0.9622712135314941,-0.8894892334938049,2.2509329319000244,-0.9759916663169861
-0.23116596230691566,-0.16622424380747078,-1.5187311108150054,0.3992442786693573,-1.5034942626953125,-7.675140857696533,-0.16105857491493225,0.2291126251220703,-0.9599831104278564,-0.8354624509811401,2.2891063690185547,-1.3147361278533936
-0.20850254559568357,-0.19758102320608542,-1.5936140249728938,1.4221867322921753,-1.4987881183624268,-7.480029106140137,-0.19204656779766083,0.20699511468410492,-0.9593076109886169,-0.7832647562026978,2.3365840911865234,-1.5029726028442383
-0.17407589919827893,-0.2263164363169196,-1.6635008474952988,2.3654160499572754,-1.5760884284973145,-7.35343074798584,-0.22099822759628296,0.17319807410240173,-0.959771990776062,-0.7531381845474243,2.379643201828003,-1.4811612367630005
-0.13133038800010421,-0.2529280241740653,-1.7295742788100774,2.733119249343872,-1.720521092414856,-7.3233962059021,-0.24808496236801147,0.13095319271087646,-0.9598463773727417,-0.7270585298538208,2.4024481773376465,-1.2035140991210938
-0.08652847914382812,-0.27760539380601196,-1.7938129951090485,2.4858036041259766,-1.7907795906066895,-7.30087423324585,-0.2730281949043274,0.08642054349184036,-0.9581164121627808,-0.6224033832550049,2.3604483604431152,-0.785581648349762
-0.04456432599734559,-0.2994587542849125,-1.8577624686827914,1.877747654914856,-1.712086796760559,-7.270519733428955,-0.2947102189064026,0.04454957693815231,-0.954547643661499,-0.4950389564037323,2.30592942237854,-0.4937402606010437
-0.008270984390505604,-0.3171003531290987,-1.922243674728153,1.1055997610092163,-1.4433115720748901,-7.152430057525635,-0.31180211901664734,0.008270890451967716,-0.9501110315322876,-0.35581570863723755,2.2871391773223877,-0.3598712086677551
0.021285793623047986,-0.3288191860956997,-1.9870739144226996,0.39742445945739746,-0.9625091552734375,-6.976003646850586,-0.32285255193710327,-0.021284185349941254,-0.9462099075317383,-0.16114100813865662,2.2375621795654297,-0.3735074996948242
0.04522989366933532,-0.33367282197334236,-2.051935846878101,-0.05723465606570244,-0.4522506892681122,-6.792077541351318,-0.32718053460121155,-0.04521447420120239,-0.9438795447349548,0.0020309388637542725,2.2045466899871826,-0.5045762658119202
0.06559381319839445,-0.3327727126158755,-2.115600555196356,-0.22008126974105835,-0.0921909511089325,-6.495146751403809,-0.3259623944759369,-0.06554678827524185,-0.9431077241897583,0.2263835072517395,2.1734416484832764,-0.6623610258102417
0.08448001605770927,-0.32821844268312456,-2.175982862422771,-0.07970686256885529,0.06484286487102509,-6.065348148345947,-0.3212074637413025,-0.08437956124544144,-0.9432421922683716,0.5054877996444702,2.1350386142730713,-0.8235576748847961
0.10427064988534936,-0.32286910861830337,-2.231045436630526,0.36670923233032227,-0.06955103576183319,-5.534865379333496,-0.31556543707847595,-0.10408180952072144,-0.9431783556938171,0.7793105244636536,2.0847489833831787,-0.9834421277046204
0.12750310250636826,-0.31976041805671696,-2.27887383874303,1.062833547592163,-0.427664190530777,-4.903106212615967,-0.311787486076355,-0.12715791165828705,-0.941604733467102,1.024433970451355,2.0071170330047607,-1.1427916288375854
0.1555777498419505,-0.3207970490653385,-2.3180747197683784,1.8046077489852905,-0.8752351999282837,-4.202284336090088,-0.31151464581489563,-0.15495090186595917,-0.9375227093696594,1.2070834636688232,1.9386422634124756,-1.2378007173538208
0.18793948126350105,-0.326594567896548,-2.348691045485354,2.371946096420288,-1.3184189796447754,-3.5619394779205322,-0.3151702582836151,-0.18683505058288574,-0.9304624199867249,1.294631838798523,1.8636233806610107,-1.2178834676742554
0.22278351271718588,-0.3371585983615147,-2.3718569449381914,2.69646954536438,-1.714727759361267,-2.97951340675354,-0.32263150811195374,-0.22094519436359406,-0.9203760623931885,1.3219295740127563,1.7558114528656006,-1.1299779415130615
0.25805931779312935,-0.351773107883013,-2.3884791778207015,2.8150031566619873,-1.951215386390686,-2.4314348697662354,-0.3331533968448639,-0.25520461797714233,-0.9076780676841736,1.3254629373550415,1.6507734060287476,-1.0532746315002441
0.29200130280719955,-0.3683856065943329,-2.3994697661003745,2.7590110301971436,-1.921566367149353,-1.9344810247421265,-0.34486624598503113,-0.287869393825531,-0.8934195637702942,1.2803215980529785,1.5701111555099487,-1.0174691677093506
0.3234975477574703,-0.3844104202843876,-2.405830236562127,2.635641574859619,-1.617671251296997,-1.5104151964187622,-0.3555605113506317,-0.317884624004364,-0.8789346218109131,1.2082369327545166,1.4779492616653442,-1.0209524631500244
0.3526517223638286,-0.3969348061161382,-2.4085243726006773,2.558115243911743,-1.0205578804016113,-1.190839171409607,-0.3628023862838745,-0.3453875482082367,-0.8654951453208923,1.113214373588562,1.3768510818481445,-1.0850205421447754
0.3805200979585255,-0.4032503965586233,-2.4085421054604454,2.5647239685058594,-0.23029541969299316,-0.9919886589050293,-0.3643416166305542,-0.37140342593193054,-0.8539991974830627,0.9941939115524292,1.2908523082733154,-1.1709641218185425
0.4080564290883934,-0.4023560285399629,-2.406698791280667,2.6221039295196533,0.5349647402763367,-0.8591548204421997,-0.3594355583190918,-0.3968260884284973,-0.8445916771888733,0.8962550163269043,1.228506326675415,-1.1909459829330444
0.43586826553851565,-0.3952280640908208,-2.403555692454964,2.7129013538360596,1.111432433128357,-0.7690672874450684,-0.34902089834213257,-0.4221976399421692,-0.8366203308105469,0.8432072997093201,1.1959402561187744,-1.1234016418457031
0.4643546860060898,-0.38435651001917176,-2.3992690585203973,2.8375494480133057,1.3840750455856323,-0.6751328706741333,-0.3352581560611725,-0.4478459060192108,-0.8288763761520386,0.8431926965713501,1.1956486701965332,-1.0016289949417114
0.49396994558582263,-0.3733280566417647,-2.393523131208645,3.0403034687042236,1.3026454448699951,-0.5603843927383423,-0.3211171627044678,-0.4741249978542328,-0.8198104500770569,0.8858754634857178,1.2204170227050781,-0.8865493535995483
0.5255780684754687,-0.3658460338469316,-2.38542545069844,3.362483263015747,0.9473704099655151,-0.3900415897369385,-0.30945682525634766,-0.5017131567001343,-0.8077873587608337,0.9642419815063477,1.2502024173736572,-0.829160213470459
0.5599449711269942,-0.36499261045182596,-2.373454415076419,3.7744247913360596,0.44834405183792114,-0.13712012767791748,-0.3024316728115082,-0.5311395525932312,-0.7914706468582153,1.057757019996643,1.2917444705963135,-0.8127163052558899
0.5971836432262038,-0.37253415132426876,-2.3559561442188346,4.199227333068848,-0.028241537511348724,0.1945718377828598,-0.30098074674606323,-0.562315821647644,-0.7702022790908813,1.133500337600708,1.355299711227417,-0.7971652150154114
0.6366770173854353,-0.38880704371364333,-2.3316211826120403,4.5749406814575195,-0.38899439573287964,0.5580608248710632,-0.3048129081726074,-0.5945268273353577,-0.7440611720085144,1.1720614433288574,1.4299607276916504,-0.7722504138946533
0.6776370235493788,-0.41339964602200446,-2.2997473883606108,4.904901027679443,-0.609889805316925,0.883551299571991,-0.31296631693840027,-0.6269538998603821,-0.7134289145469666,1.1650018692016602,1.4996955394744873,-0.7596087455749512
0.7193726250383069,-0.4457460064222545,-2.2597275987442207,5.19760274887085,-0.6893601417541504,1.2111073732376099,-0.32430511713027954,-0.6589128971099854,-0.6787193417549133,1.1454567909240723,1.5573656558990479,-0.7736120820045471
0.7607742156394901,-0.4858675581087922,-2.2103628521325795,5.441560745239258,-0.659184992313385,1.5843114852905273,-0.3382315933704376,-0.6894823908805847,-0.6404789686203003,1.1367087364196777,1.6287524700164795,-0.7800836563110352
0.8005975169622508,-0.5345626683641279,-2.1500403121948923,5.660092830657959,-0.5769974589347839,1.9972281455993652,-0.3547290861606598,-0.7177722454071045,-0.5991412401199341,1.1246265172958374,1.709975004196167,-0.7764843106269836
0.8376692666938598,-0.5930936120002647,-2.077407420832086,5.868837356567383,-0.514031708240509,2.4061107635498047,-0.3740333616733551,-0.7430854439735413,-0.5549082159996033,1.0939429998397827,1.7698187828063965,-0.7678608894348145
0.8708180062779978,-0.6628628689709286,-1.9918072547362626,6.052406311035156,-0.5309540033340454,2.7705237865448,-0.39642587304115295,-0.7648561596870422,-0.5077810287475586,1.0371423959732056,1.81626296043396,-0.7397927641868591
0.8987187620692596,-0.7444270731589292,-1.8937225522582832,6.194333553314209,-0.5955904126167297,3.067741870880127,-0.4218517541885376,-0.7825298309326172,-0.4579170346260071,0.9575268030166626,1.8476848602294922,-0.6945029497146606
0.9200427607676858,-0.836878994287509,-1.7846294753065561,6.28710412979126,-0.6634717583656311,3.302237033843994,-0.4498303234577179,-0.7956275343894958,-0.40574562549591064,0.8807384967803955,1.8640937805175781,-0.6621254682540894
0.9336881263144883,-0.9378862775941036,-1.666754237935884,6.3680620193481445,-0.6619299054145813,3.4933018684387207,-0.4796522557735443,-0.8038193583488464,-0.35186392068862915,0.8145063519477844,1.8713395595550537,-0.6602362394332886
0.9389784724229485,-1.0437372872587911,-1.5427739354079613,6.471271991729736,-0.49369725584983826,3.6472017765045166,-0.5104604959487915,-0.8069552183151245,-0.2970743477344513,0.7388235926628113,1.8844852447509766,-0.706419825553894
0.935591944504034,-1.1492318870218858,-1.415545252065439,6.574218273162842,-0.05975940078496933,3.802485466003418,-0.5413947701454163,-0.8049504160881042,-0.2427886575460434,0.639447808265686,1.907489538192749,-0.7871643304824829
0.9233833947776297,-1.248556868834426,-1.2888978466362346,6.612315654754639,0.5059164762496948,3.9395663738250732,-0.5720810294151306,-0.7976468205451965,-0.19100448489189148,0.5316452383995056,1.9370969533920288,-0.8173420429229736
0.9029877841530262,-1.3372572376098295,-1.16680303179669,6.575786113739014,1.0742279291152954,4.035847187042236,-0.6024559140205383,-0.7851806282997131,-0.14331196248531342,0.40229105949401855,1.953820824623108,-0.7725968360900879
0.8756231277358358,-1.4126791673133736,-1.0526834376873568,6.415205955505371,1.539300560951233,4.0880279541015625,-0.6325284242630005,-0.7679427862167358,-0.1008554995059967,0.2788601517677307,1.9466993808746338,-0.6606190800666809
0.8428405617129242,-1.474014064021809,-0.9490474181590265,6.138869762420654,1.859279990196228,4.100041389465332,-0.6622315049171448,-0.7465360760688782,-0.06429312378168106,0.18107599020004272,1.916351079940796,-0.5178296566009521
0.8061537791002058,-1.5219520158100088,-0.8567731116559728,5.7995147705078125,2.0705084800720215,4.098132610321045,-0.6914533972740173,-0.7216298580169678,-0.03380044922232628,0.10968160629272461,1.8756062984466553,-0.40690386295318604
0.7668778090342855,-1.5580924837366172,-0.7752637746618389,5.4666571617126465,2.1922225952148438,4.081307411193848,-0.7200227379798889,-0.693890392780304,-0.009147548116743565,0.07530826330184937,1.8304564952850342,-0.3656235337257385
0.7261910988098802,-1.5848853722568792,-0.7026628544465991,5.234338283538818,2.2270522117614746,4.040740966796875,-0.7476349472999573,-0.6640264987945557,0.01053415983915329,0.052093505859375,1.7846167087554932,-0.39787840843200684
0.6857021668290951,-1.6026877092215168,-0.6378053035555376,5.166316509246826,2.204267978668213,3.997786283493042,-0.7735810875892639,-0.6332166194915771,0.02467893809080124,0.03212594985961914,1.7513349056243896,-0.49210143089294434
0.643647403807214,-1.6198682867821494,-0.5739042251854823,5.241116046905518,2.182197093963623,4.003135681152344,-0.7989493012428284,-0.600117027759552,0.039237506687641144,0.04102998971939087,1.7483561038970947,-0.6121745109558105
0.6003088707211105,-1.6343757147308728,-0.5114775580392554,5.369558811187744,2.1517205238342285,4.0710129737854,-0.823494017124176,-0.564897358417511,0.052427906543016434,0.06572723388671875,1.7727984189987183,-0.6960741281509399
0.5551684357797338,-1.6466430341176603,-0.44975995239514965,5.555955410003662,2.097614288330078,4.200980186462402,-0.8473684191703796,-0.5270864367485046,0.06439363211393356,0.09494233131408691,1.796297311782837,-0.7306076288223267
0.5078482847252184,-1.6573184959796865,-0.3882430132516584,5.751622200012207,1.9664292335510254,4.349323749542236,-0.8705241680145264,-0.48629823327064514,0.07550815492868423,0.11591613292694092,1.8027808666229248,-0.7264328002929688
0.45845129957961483,-1.6670869366728769,-0.3270245363724123,5.907315731048584,1.734168291091919,4.472949504852295,-0.8925848603248596,-0.4425598680973053,0.08621416240930557,0.1103888750076294,1.7893922328948975,-0.6727010011672974
0.4074081185111166,-1.6765954853179235,-0.2664063795152789,6.033845901489258,1.422741413116455,4.547275066375732,-0.9130169749259949,-0.39623093605041504,0.0969584584236145,0.09712958335876465,1.746008276939392,-0.6032145023345947
0.35538689842191573,-1.6864723136576931,-0.20650397736949833,6.127999305725098,1.0360925197601318,4.525710105895996,-0.9312464594841003,-0.34795311093330383,0.10820591449737549,0.06590533256530762,1.677298903465271,-0.550817608833313
0.30327661311283577,-1.6973483910421718,-0.1473932328029587,6.201537132263184,0.5982568860054016,4.439432621002197,-0.9467310309410095,-0.2986488938331604,0.12045449763536453,0.032592177391052246,1.5992774963378906,-0.5070207118988037
0.2513988737513982,-1.7096777108136667,-0.08877603335469267,6.313579559326172,0.12615297734737396,4.327638626098633,-0.9592394828796387,-0.24875910580158234,0.13408368825912476,0.028758585453033447,1.532053828239441,-0.5018357038497925
0.1997536627795482,-1.7244125139190125,-0.03002538375472781,6.49335241317749,-0.47342580556869507,4.194758415222168,-0.9685739278793335,-0.19842790067195892,0.1499701589345932,0.044562697410583496,1.4808681011199951,-0.5230780839920044
0.14814845575728355,-1.7434308332164279,0.03008119652174676,6.850340366363525,-1.2830880880355835,4.0395636558532715,-0.9743446111679077,-0.14760711789131165,0.16989664733409882,0.043512701988220215,1.4425289630889893,-0.5861716270446777
0.09595007557095193,-1.7692672057455139,0.09392588519269406,7.524866104125977,-2.3547823429107666,3.8776841163635254,-0.9758597016334534,-0.0958029180765152,0.19626350700855255,0.00303572416305542,1.446312665939331,-0.7179157733917236
0.04135378384556835,-1.8031361551010345,0.16414747661578027,8.458121299743652,-3.413520336151123,3.7828330993652344,-0.972298264503479,-0.04134199768304825,0.2300582379102707,-0.0006478428840637207,1.488088846206665,-0.8983168601989746
-0.017324548749103278,-1.841875003811337,0.24150606547193434,9.369340896606445,-4.069543361663818,3.710083484649658,-0.9633381366729736,0.017323682084679604,0.2677307426929474,-0.011408627033233643,1.5667370557785034,-1.0510101318359375
-0.08041210601123101,-1.8797299814864532,0.32448433173422264,10.02009391784668,-4.22996187210083,3.602142095565796,-0.9495800137519836,0.08032547682523727,0.30306050181388855,-0.08513379096984863,1.6389739513397217,-1.0696773529052734
-0.14635451309146785,-1.9117767947882165,0.4105770041724376,10.287087440490723,-4.087935924530029,3.394442081451416,-0.9323520660400391,0.1458325982093811,0.3308361768722534,-0.20097923278808594,1.6533770561218262,-0.9553631544113159
-0.21256433756633064,-1.93626362767426,0.4970553733823693,10.149991035461426,-3.866138458251953,3.107715606689453,-0.9129363894462585,0.21096721291542053,0.34934213757514954,-0.3070800304412842,1.6048439741134644,-0.7497785091400146
-0.2765012063621422,-1.9534420074897207,0.5817330029039238,9.734651565551758,-3.659179210662842,2.7649779319763184,-0.8924434781074524,0.272991418838501,0.35919398069381714,-0.3880893588066101,1.5176427364349365,-0.5590994358062744
-0.33654592915424053,-1.9644606394161275,0.663883560063596,9.251016616821289,-3.4728055000305176,2.4047186374664307,-0.871701717376709,0.3302287757396698,0.36205682158470154,-0.472231388092041,1.4421406984329224,-0.4626427888870239
-0.3921305836511414,-1.9691469800041261,0.7440874302485404,8.814019203186035,-3.143568754196167,2.0573365688323975,-0.8517420887947083,0.38215816020965576,0.358456015586853,-0.5437352657318115,1.4018232822418213,-0.4830288589000702
-0.44315325498609404,-1.9663086268156758,0.8231792386698227,8.41828441619873,-2.6802468299865723,1.7599337100982666,-0.8336606025695801,0.42879024147987366,0.3480643928050995,-0.6131319999694824,1.4240692853927612,-0.5307122468948364
-0.49004138072513564,-1.95541710808945,0.9017927241651065,8.096025466918945,-2.2227964401245117,1.5795528888702393,-0.8178521394729614,0.470662385225296,0.33105066418647766,-0.6585423946380615,1.4815165996551514,-0.5420340299606323
-0.5339301286107615,-1.937636335486812,0.9810532433428444,7.956837177276611,-2.0171079635620117,1.5197142362594604,-0.8035397529602051,0.5089203715324402,0.3087458610534668,-0.6902499198913574,1.560491919517517,-0.5387263298034668
-0.5759694155699763,-1.9148000899449595,1.063194942795405,8.034455299377441,-2.0989582538604736,1.5038819313049316,-0.7895289659500122,0.5446480512619019,0.28284722566604614,-0.7560032606124878,1.6385184526443481,-0.5327861309051514
-0.61664132682378,-1.8883723993319967,1.1504575257037,8.218890190124512,-2.4348602294921875,1.499732255935669,-0.7750301957130432,0.5782983303070068,0.25475355982780457,-0.8044376969337463,1.6552526950836182,-0.48111769556999207
-0.6556385606398615,-1.8597252428528241,1.2437277840717647,8.367260932922363,-2.911943197250366,1.4629377126693726,-0.7598027586936951,0.6096655130386353,0.22584886848926544,-0.8668756484985352,1.6369012594223022,-0.359058141708374
-0.6917424722270665,-1.8296343651339964,1.3426119824008267,8.396899223327637,-3.3907830715179443,1.3300974369049072,-0.7444810271263123,0.6378800868988037,0.1971219927072525,-0.9559431672096252,1.6002027988433838,-0.18746328353881836
-0.7230219763016275,-1.7989943210585178,1.445430813263772,8.241348266601562,-3.8085732460021973,1.0712560415267944,-0.7303714752197266,0.6616535782814026,0.16962392628192902,-1.046484112739563,1.5141887664794922,-0.0027081817388534546
-0.7488927490083382,-1.768685884295723,1.5498570372552771,7.914506912231445,-4.113400936126709,0.7206629514694214,-0.7181484699249268,0.6808281540870667,0.14399868249893188,-1.1214206218719482,1.395450472831726,0.15965114533901215
-0.7680859944975243,-1.7398374529881084,1.6529851979820904,7.444632053375244,-4.258172512054443,0.32756224274635315,-0.7089899182319641,0.6947599053382874,0.12100321054458618,-1.1752872467041016,1.2821382284164429,0.282606840133667
-0.7803876949660087,-1.7133335374657983,1.7520246577792578,6.874364852905273,-4.25200080871582,-0.08989198505878448,-0.7034336924552917,0.7035549879074097,0.10095006972551346,-1.2258111238479614,1.1897706985473633,0.3691425025463104
-0.7859682531283327,-1.690349172548968,1.8445492754997828,6.218492031097412,-4.171013832092285,-0.5075276494026184,-0.7016593217849731,0.7075097560882568,0.08428731560707092,-1.2704782485961914,1.0902960300445557,0.4272482395172119
-0.7851232732393378,-1.672237057360787,1.9282389755049172,5.476411819458008,-4.008841514587402,-0.9592780470848083,-0.703665018081665,0.7069123983383179,0.07162614911794662,-1.3105103969573975,0.9760099053382874,0.4731583595275879
-0.7778494286686788,-1.6599617592017792,2.001116825810432,4.643558502197266,-3.7730822563171387,-1.4678863286972046,-0.7095940709114075,0.7017489075660706,0.06343947350978851,-1.3861395120620728,0.8822964429855347,0.5079869031906128
-0.763926472459682,-1.6539997884947641,2.0618451615719104,3.762058734893799,-3.4678146839141846,-2.046323537826538,-0.7196271419525146,0.6917621493339539,0.0600140206515789,-1.4718554019927979,0.8169810175895691,0.5067278146743774
-0.7430531681004712,-1.6539227384148734,2.110009364704673,2.872899055480957,-3.0810046195983887,-2.6845412254333496,-0.733863353729248,0.676539421081543,0.061144325882196426,-1.538811206817627,0.7739761471748352,0.45809686183929443
-0.7149302649452253,-1.6583367171106342,2.1463337841732137,2.0365686416625977,-2.6134583950042725,-3.3618416786193848,-0.7522472739219666,0.6555647850036621,0.06602075695991516,-1.5756487846374512,0.7691788077354431,0.3741648197174072
-0.6794469224776172,-1.665299371166682,2.172306180876902,1.2802574634552002,-2.09843111038208,-4.038419246673584,-0.7744492888450623,0.6283628940582275,0.07340647280216217,-1.574259877204895,0.8134400844573975,0.2739750146865845
-0.6368893025572231,-1.6730754602833846,2.18959783011651,0.6141282320022583,-1.5568256378173828,-4.659337997436523,-0.7997480630874634,0.5946974754333496,0.08208396285772324,-1.5174057483673096,0.9043106436729431,0.18405985832214355
-0.5881601290755103,-1.6797083764822955,2.200210678445693,0.10817264020442963,-0.978596031665802,-5.169539451599121,-0.8270335793495178,0.5548312664031982,0.09043176472187042,-1.4098286628723145,1.0433895587921143,0.084372878074646
-0.5344432546689823,-1.6829975337735814,2.2066788285083976,-0.18256652355194092,-0.361246794462204,-5.579206466674805,-0.8551409840583801,0.509361982345581,0.09635252505540848,-1.2878336906433105,1.2094335556030273,-0.026726745069026947
-0.47699161839074705,-1.6814400599536128,2.2111117429596536,-0.31103959679603577,0.23484806716442108,-5.876379489898682,-0.8829478621482849,0.4591086804866791,0.09809326380491257,-1.1671009063720703,1.388532280921936,-0.09070813655853271
-0.41682814167068183,-1.6749900176987988,2.2144782842092425,-0.375093936920166,0.7455124258995056,-6.109974384307861,-0.9094187617301941,0.4048622250556946,0.09510008990764618,-1.0600636005401611,1.5510245561599731,-0.0643383339047432
-0.3544028691863621,-1.6648371857444262,2.2165942888430683,-0.48276984691619873,1.0934685468673706,-6.310062408447266,-0.9337098598480225,0.3470304012298584,0.08806663751602173,-0.9916441440582275,1.6829683780670166,0.0629953145980835
-0.28993086962658987,-1.6531384308835995,2.216608109479919,-0.6465479135513306,1.2142287492752075,-6.4934868812561035,-0.9550168514251709,0.2858859896659851,0.07881630957126617,-0.9438631534576416,1.7942836284637451,0.25356578826904297
-0.2237173573258307,-1.641541409516391,2.2143480000641147,-0.7966965436935425,1.1935093402862549,-6.624011039733887,-0.9726403951644897,0.22185586392879486,0.06892455369234085,-0.9151159524917603,1.914679765701294,0.4008629322052002
-0.15667759254640645,-1.631082196890903,2.2097795257773503,-0.9773938655853271,1.0489553213119507,-6.642099857330322,-0.9859567284584045,0.1560373604297638,0.059511374682188034,-0.8394368886947632,2.0147390365600586,0.4979531764984131
-0.08971519617850413,-1.6224894330800097,2.2025178635837563,-1.2012431621551514,0.8416213393211365,-6.598784923553467,-0.9946478605270386,0.08959489315748215,0.051462285220623016,-0.7287408113479614,2.078984260559082,0.5648401975631714
-0.023553321572298495,-1.6154620898237055,2.1925335946794973,-1.416354775428772,0.6855076551437378,-6.4634199142456055,-0.9987257122993469,0.02355114370584488,0.044638533145189285,-0.6274341344833374,2.111778974533081,0.5639123916625977
0.04074260588833779,-1.6085483754869152,2.1799874136792297,-1.609541654586792,0.6960940957069397,-6.231898307800293,-0.9984581470489502,-0.04073133319616318,0.03771175816655159,-0.5353094935417175,2.127889633178711,0.49979424476623535
0.10254946193806846,-1.5995505766935971,2.1649468247964534,-1.7909834384918213,0.9062955379486084,-5.989741802215576,-0.9943351745605469,-0.10236981511116028,0.028599245473742485,-0.5101355910301208,2.128736972808838,0.4229692220687866
0.16207601759611073,-1.5862172953628138,2.1472248573610395,-1.9783613681793213,1.307449460029602,-5.811476707458496,-0.9867770075798035,-0.16136735677719116,0.015218263491988182,-0.5641720294952393,2.0929927825927734,0.37125635147094727
0.2201952765861589,-1.5662225881671508,2.126188763609671,-2.2134618759155273,1.9016345739364624,-5.769742488861084,-0.9758445024490356,-0.21842019259929657,-0.0044632889330387115,-0.6768348217010498,2.031912088394165,0.370765745639801
0.27824262261330257,-1.5373445382223336,2.1008398639074106,-2.4682254791259766,2.6025211811065674,-5.912705898284912,-0.9610016345977783,-0.27466627955436707,-0.032159220427274704,-0.8430754542350769,1.966515064239502,0.42405062913894653
0.3375518032262802,-1.4991589019524791,2.0706018724525856,-2.6315999031066895,3.1503491401672363,-6.2118682861328125,-0.9411483407020569,-0.33117803931236267,-0.06753701716661453,-0.9974961876869202,1.915086030960083,0.5005966424942017
0.39898341748564403,-1.4536922740820062,2.035778738147088,-2.6445624828338623,3.3675663471221924,-6.591982364654541,-0.9151454567909241,-0.3884817957878113,-0.10765981674194336,-1.0835880041122437,1.892815351486206,0.5584501624107361
0.4625119498198004,-1.4038688338963108,1.9966262636607,-2.583214521408081,3.2779951095581055,-6.938228130340576,-0.8824948668479919,-0.4461975395679474,-0.14869636297225952,-1.0800600051879883,1.9168548583984375,0.6210626363754272
0.5270596059695101,-1.3511271953849846,1.9525364349058414,-2.543480157852173,3.0518131256103516,-7.153346538543701,-0.8435207009315491,-0.502994179725647,-0.18833458423614502,-0.9883732199668884,1.98750638961792,0.7087965607643127
0.5907830189001217,-1.2950362648620102,1.9025862438984165,-2.5316672325134277,2.8574037551879883,-7.220702171325684,-0.7991270422935486,-0.5570114850997925,-0.2261284738779068,-0.8494324088096619,2.0744829177856445,0.7770164608955383
0.6520570209102607,-1.2336773490200659,1.8458243238629817,-2.5659611225128174,2.8015758991241455,-7.188908576965332,-0.7500969767570496,-0.606822669506073,-0.2629079818725586,-0.7138769030570984,2.1458547115325928,0.8197164535522461
0.7092295262069002,-1.1639618771794993,1.7809965234888918,-2.6607000827789307,2.9944040775299072,-7.0654120445251465,-0.6969240307807922,-0.6512492895126343,-0.30028560757637024,-0.5934202671051025,2.2198069095611572,0.8689196109771729
0.7604616668877883,-1.0820813529390287,1.7070535239875475,-2.7902324199676514,3.460256338119507,-6.8663859367370605,-0.639703631401062,-0.6892560124397278,-0.34015515446662903,-0.4493618607521057,2.294907808303833,0.9324707984924316
0.8041504457465299,-0.9856731771269032,1.6233559351941862,-2.9362032413482666,3.979438304901123,-6.674161434173584,-0.5783183574676514,-0.7202415466308594,-0.3831448256969452,-0.28567999601364136,2.322826385498047,1.03129243850708
0.8391734414525853,-0.8755671138405204,1.5296841522388904,-3.1076135635375977,4.224977970123291,-6.521205902099609,-0.5130218267440796,-0.7440911531448364,-0.4279451072216034,-0.1436554193496704,2.3017234802246094,1.1902588605880737
0.8642925700530478,-0.7573350035608067,1.4269428077142607,-3.296783924102783,3.8345417976379395,-6.3627543449401855,-0.4459773302078247,-0.7606362104415894,-0.4717380702495575,-0.027472347021102905,2.2851572036743164,1.4060336351394653
0.8788234697540555,-0.6402955155427242,1.3181083275801249,-3.452674388885498,2.8169829845428467,-6.193541526794434,-0.3811963200569153,-0.7699887156486511,-0.5116706490516663,0.06575137376785278,2.3007352352142334,1.604337215423584
0.8836864453414857,-0.5336447093119059,1.2075558786010225,-3.47755765914917,1.400197148323059,-6.0165114402771,-0.3226551115512848,-0.773082435131073,-0.5461108684539795,0.12462663650512695,2.3355674743652344,1.681623935699463
0.8810361232604594,-0.44409563876064817,1.0999698119333141,-3.363553047180176,-0.0987592563033104,-5.759153842926025,-0.2734032869338989,-0.7713986039161682,-0.5746258497238159,0.1921197772026062,2.3981380462646484,1.6359355449676514
0.873285006536675,-0.37387051195504145,0.9990202377045342,-3.153519868850708,-1.331559419631958,-5.42950963973999,-0.23458613455295563,-0.7664430737495422,-0.5979418158531189,0.3108343482017517,2.45499587059021,1.5006517171859741
0.8623798424369664,-0.3212617689147618,0.9065123248924486,-2.953674077987671,-2.2034049034118652,-5.033008575439453,-0.20544619858264923,-0.7593930959701538,-0.6173442602157593,0.4281940460205078,2.4944396018981934,1.3557018041610718
0.8489854492532157,-0.2834735316878702,0.8233091625163308,-2.8462092876434326,-2.754520893096924,-4.546939849853516,-0.1848052442073822,-0.7506104111671448,-0.6343744993209839,0.5533660650253296,2.5255889892578125,1.2874810695648193
0.8329742110683097,-0.25844058700593653,0.7500270056454804,-2.8518271446228027,-3.132481098175049,-3.9766643047332764,-0.17191851139068604,-0.7399353384971619,-0.6503382325172424,0.669019341468811,2.539633274078369,1.2910242080688477
0.8137534873047533,-0.2452291997521765,0.6869534303983027,-3.0179531574249268,-3.4453532695770264,-3.3419904708862305,-0.16673433780670166,-0.7268701195716858,-0.6662278771400452,0.7425094842910767,2.539858341217041,1.3313279151916504
0.7900384705733987,-0.24283480508577115,0.6337969832822452,-3.400165557861328,-3.6845715045928955,-2.671113967895508,-0.1692367047071457,-0.7103803753852844,-0.6831681132316589,0.7628341317176819,2.5229568481445312,1.4055345058441162
0.7601614175354076,-0.25007727629801846,0.5896519038926858,-3.99702787399292,-3.8843278884887695,-1.9840781688690186,-0.17935404181480408,-0.6890384554862976,-0.7021809816360474,0.720659613609314,2.498257875442505,1.4972554445266724
0.7224013905506929,-0.2651898225612408,0.552979628288502,-4.667718887329102,-4.0583109855651855,-1.3218492269515991,-0.19662705063819885,-0.6611881256103516,-0.7239945530891418,0.646807074546814,2.4789371490478516,1.529353380203247
0.6771173202722228,-0.2866329922714434,0.5219677428584114,-5.301002025604248,-4.194127082824707,-0.7871256470680237,-0.22035017609596252,-0.6265489459037781,-0.7475842237472534,0.4885233938694,2.4483721256256104,1.463572382926941
0.6256238764546153,-0.3122689091548396,0.4939727970538169,-5.803882598876953,-4.2971014976501465,-0.45365795493125916,-0.24903078377246857,-0.5856031179428101,-0.7713966369628906,0.23587772250175476,2.4231886863708496,1.3283424377441406
0.57004202531751,-0.3400495160642197,0.4662412532757314,-6.143064022064209,-4.340819835662842,-0.3505137264728546,-0.28079482913017273,-0.5396674275398254,-0.7936707735061646,-0.07412457466125488,2.3936409950256348,1.1406251192092896
0.5123425697478168,-0.3680895288168086,0.43657997605178783,-6.404000282287598,-4.274846076965332,-0.4291461706161499,-0.31363043189048767,-0.4902203679084778,-0.8132157921791077,-0.36779657006263733,2.3519301414489746,0.9566941261291504
0.4533138004997182,-0.39479841033334057,0.4035837216309366,-6.702706813812256,-4.09220552444458,-0.5992151498794556,-0.3457755744457245,-0.43794703483581543,-0.8298443555831909,-0.6143074035644531,2.3535964488983154,0.8346813917160034
0.39259098007524484,-0.41958455483933416,0.36659836218139813,-7.094954967498779,-3.865361213684082,-0.7697885036468506,-0.37638789415359497,-0.3825835585594177,-0.8437784314155579,-0.7977911829948425,2.416778564453125,0.7585427761077881
0.3291220829507894,-0.442818777119734,0.32577684391051254,-7.597773551940918,-3.6406285762786865,-0.8469322919845581,-0.40548959374427795,-0.3232123553752899,-0.8550508618354797,-0.9110997915267944,2.5220649242401123,0.7014405727386475
0.2617835573591081,-0.4651204454002735,0.28133004155149716,-8.19422435760498,-3.372025966644287,-0.879112184047699,-0.43324899673461914,-0.25880375504493713,-0.8633168339729309,-1.0022978782653809,2.6478724479675293,0.6546223163604736
0.19003969279529823,-0.4865271691079866,0.23285054175818534,-8.839131355285645,-3.0682358741760254,-0.9573039412498474,-0.4591412842273712,-0.18889787793159485,-0.8680477142333984,-1.1375689506530762,2.7917420864105225,0.5898189544677734
0.11489684354725242,-0.5085855903380863,0.17899740020929852,-9.357867240905762,-2.9996633529663086,-1.248049259185791,-0.483731746673584,-0.11464421451091766,-0.867675244808197,-1.3341546058654785,2.926549196243286,0.471038281917572
0.03985463693350576,-0.5350534154070066,0.11872670079859356,-9.539533615112305,-3.2228095531463623,-1.695074439048767,-0.5094820857048035,-0.0398440882563591,-0.8595582842826843,-1.5655910968780518,3.01277494430542,0.20452898740768433
-0.03115299593535965,-0.5691251594141673,0.052336075193904416,-9.426729202270508,-3.6282167434692383,-2.1520605087280273,-0.5386338233947754,0.03114795684814453,-0.8419640064239502,-1.738664150238037,3.106348991394043,-0.15556401014328003
-0.09569648236220273,-0.6122302627733621,-0.019143453470685974,-9.170759201049805,-4.034005165100098,-2.479003667831421,-0.5720645785331726,0.09555048495531082,-0.8146239519119263,-1.8176448345184326,3.2047882080078125,-0.49744874238967896
-0.15326399431755594,-0.6632353931308618,-0.09431141617744222,-8.911714553833008,-4.2399115562438965,-2.6266305446624756,-0.6084527373313904,0.1526646763086319,-0.778767466545105,-1.8142766952514648,3.279510021209717,-0.7702895402908325
-0.2043964372606702,-0.7198995383326999,-0.17207662497534718,-8.669442176818848,-4.262670516967773,-2.6058318614959717,-0.645584762096405,0.20297619700431824,-0.7362207770347595,-1.7855675220489502,3.3207054138183594,-0.965942919254303
-0.24997204927674538,-0.7798562292786412,-0.2511626561290747,-8.455584526062012,-4.127723693847656,-2.4400603771209717,-0.6813219785690308,0.24737687408924103,-0.6889157891273499,-1.7414838075637817,3.3182053565979004,-1.1307557821273804
-0.2904854735427412,-0.8421348185202587,-0.33132243575874537,-8.270554542541504,-4.006633758544922,-2.3298263549804688,-0.7148098349571228,0.2864173948764801,-0.6379749178886414,-1.73262357711792,3.271840810775757,-1.2277629375457764
-0.32524948154312977,-0.9063026181630636,-0.4130268356121245,-8.089714050292969,-3.838226079940796,-2.3224945068359375,-0.7459554672241211,0.3195452094078064,-0.5843297243118286,-1.758439064025879,3.154484272003174,-1.3102014064788818
-0.35400488173804734,-0.9719774442915365,-0.4966390339300395,-7.991152763366699,-3.695697784423828,-2.3263649940490723,-0.7747831344604492,0.3466571271419525,-0.5287153124809265,-1.7449464797973633,3.031348943710327,-1.3613908290863037
-0.37744381592784876,-1.0392618520248822,-0.5820676304175617,-7.933957099914551,-3.616257667541504,-2.230804920196533,-0.80135178565979,0.36854541301727295,-0.47117891907691956,-1.64982008934021,2.9083101749420166,-1.3923158645629883
-0.3957777986539637,-1.1076711949743612,-0.6683519344397807,-7.791312217712402,-3.4951541423797607,-2.164715528488159,-0.8255007863044739,0.38552597165107727,-0.41221141815185547,-1.5474088191986084,2.7269160747528076,-1.5217485427856445
-0.40813670463607765,-1.1751635996311294,-0.7541085688271354,-7.525185585021973,-3.2439022064208984,-2.1474430561065674,-0.8469598293304443,0.3968997597694397,-0.3537367880344391,-1.5844213962554932,2.6034207344055176,-1.7092819213867188
-0.41416089754918756,-1.2392441828824805,-0.8375726718939622,-7.1500983238220215,-2.8575479984283447,-2.1631383895874023,-0.865597128868103,0.4024219214916229,-0.29799050092697144,-1.575839638710022,2.401609420776367,-1.8960859775543213
-0.4136558847371384,-1.2977303350484701,-0.9174365882837654,-6.7340874671936035,-2.3836121559143066,-2.280456066131592,-0.8817309737205505,0.40195953845977783,-0.24693913757801056,-1.5584697723388672,2.1635618209838867,-2.019509792327881
-0.4067897353256368,-1.349319212011316,-0.9927133906038255,-6.266610622406006,-1.9203461408615112,-2.411125421524048,-0.8959630131721497,0.3956630825996399,-0.20174480974674225,-1.5311915874481201,1.9536716938018799,-2.06516170501709
-0.3946038769234993,-1.3942823074081045,-1.0624013843480544,-5.821279048919678,-1.646772027015686,-2.49703049659729,-0.9088048338890076,0.384442538022995,-0.16210386157035828,-1.4196557998657227,1.7427699565887451,-2.0493524074554443
-0.3783031061748398,-1.4345098512016554,-1.1275459378069357,-5.580053329467773,-1.4803495407104492,-2.5864837169647217,-0.9206756949424744,0.3693440854549408,-0.12625832855701447,-1.3151183128356934,1.5832773447036743,-1.928551197052002
-0.3584837189229839,-1.4707412228104306,-1.1895758799060971,-5.403740406036377,-1.2635843753814697,-2.706204891204834,-0.9317464232444763,0.350854754447937,-0.0935383290052414,-1.2438669204711914,1.3706876039505005,-1.8506907224655151
-0.33483255124827577,-1.5015492554536531,-1.2483726171267093,-5.184882164001465,-0.8749199509620667,-2.9305739402770996,-0.9422016739845276,0.32861101627349854,-0.06534919142723083,-1.249753713607788,1.209032416343689,-1.9117931127548218
-0.3069760481078305,-1.5254581946875452,-1.3038940927620803,-4.988333225250244,-0.3872251510620117,-3.2136614322662354,-0.9522721767425537,0.30217742919921875,-0.04320384934544563,-1.2665541172027588,1.0871505737304688,-1.9599089622497559
-0.27507124657581244,-1.5418000987037097,-1.3562934749305966,-4.776768684387207,0.119178406894207,-3.5104308128356934,-0.9620012044906616,0.27161550521850586,-0.027902226895093918,-1.2291913032531738,0.9918885231018066,-1.9656431674957275
-0.23964081349743327,-1.5512225454190383,-1.4055065626508,-4.5210137367248535,0.47832512855529785,-3.7697861194610596,-0.9712372422218323,0.23735371232032776,-0.019013212993741035,-1.147918701171875,0.9715391397476196,-1.9479666948318481
-0.20170454806438928,-1.5552070694367124,-1.4507677558211145,-4.131407737731934,0.6935216188430786,-3.9288978576660156,-0.9796074628829956,0.20033961534500122,-0.015272590331733227,-1.0111762285232544,0.9412924647331238,-1.9447035789489746
-0.16241774060882108,-1.5546616320868825,-1.490806292589319,-3.586062431335449,0.858978271484375,-4.025808334350586,-0.9867108464241028,0.16170459985733032,-0.015921659767627716,-0.887343168258667,0.9000477194786072,-1.9699944257736206
-0.12187234649611055,-1.5503689863786412,-1.525010790284464,-3.025569200515747,0.9479353427886963,-4.190002918243408,-0.9923756122589111,0.1215708777308464,-0.020274415612220764,-0.8208414912223816,0.851817786693573,-1.9554487466812134
-0.07927505795559653,-1.5440488962476389,-1.5543518918751136,-2.6090192794799805,0.8825295567512512,-4.443368911743164,-0.9965028166770935,0.07919204980134964,-0.026660248637199402,-0.753359854221344,0.780152440071106,-1.8438841104507446
-0.03427386900707412,-1.5374502503896728,-1.5802580575117005,-2.2827906608581543,0.7235246896743774,-4.667090892791748,-0.9988570213317871,0.034267157316207886,-0.033320315182209015,-0.6231368780136108,0.7147715091705322,-1.7149248123168945
0.012267150143874847,-1.5311576632095623,-1.6033043522731962,-1.9605222940444946,0.595304012298584,-4.7509589195251465,-0.9991394877433777,-0.012266842648386955,-0.03962530940771103,-0.47041934728622437,0.7136523127555847,-1.6651018857955933
0.05870498005924892,-1.5246000944611637,-1.6229380579035997,-1.5368149280548096,0.5897185802459717,-4.649750709533691,-0.997212290763855,-0.058671265840530396,-0.04610024765133858,-0.35312944650650024,0.7827160358428955,-1.6919214725494385
0.10371457663065203,-1.5172461803575783,-1.6381744485821956,-1.0386614799499512,0.6323907375335693,-4.458028793334961,-0.9932007193565369,-0.10352873802185059,-0.0532369427382946,-0.2952972650527954,0.8539102077484131,-1.7177743911743164
0.1469619347894753,-1.5092927313895306,-1.6487755927807106,-0.5687741637229919,0.6927416920661926,-4.277073860168457,-0.9873501062393188,-0.1464335024356842,-0.06080226972699165,-0.2995913624763489,0.8855844736099243,-1.6673928499221802
0.18901334042293472,-1.5009976865181869,-1.655604384452201,-0.24238897860050201,0.7260434627532959,-4.192947864532471,-0.9797985553741455,-0.18788990378379822,-0.06849988549947739,-0.3447253704071045,0.8835228085517883,-1.5456053018569946
0.23104076820190547,-1.4928254749303427,-1.6604216653075723,-0.09225007891654968,0.694204568862915,-4.248781204223633,-0.9704711437225342,-0.22899076342582703,-0.07582217454910278,-0.4012939929962158,0.8617116808891296,-1.3820329904556274
0.27419709789111746,-1.4849376870253692,-1.6646279524867627,-0.012848814018070698,0.680808424949646,-4.3994574546813965,-0.9590968489646912,-0.27077412605285645,-0.08254969865083694,-0.4301394820213318,0.810797929763794,-1.274597406387329
0.3188252452679744,-1.4762610566077838,-1.6685212242193495,0.07709971815347672,0.8443129062652588,-4.519548416137695,-0.9453642964363098,-0.31345123052597046,-0.08963745087385178,-0.43213826417922974,0.8048452138900757,-1.2633440494537354
0.3643128596960228,-1.4652939599152082,-1.6719929891352159,0.18045805394649506,1.1063957214355469,-4.563969135284424,-0.929173469543457,-0.35630732774734497,-0.09839534014463425,-0.3740338683128357,0.8475183248519897,-1.2661064863204956
0.41019824699740404,-1.4522126211715365,-1.6748800519063283,0.31776371598243713,1.2692749500274658,-4.5820136070251465,-0.9106016159057617,-0.3987911343574524,-0.10849152505397797,-0.2856264114379883,0.8866909146308899,-1.2496473789215088
0.45611165260199127,-1.4381654184165849,-1.6766733085584193,0.5165275931358337,1.3815301656723022,-4.528800964355469,-0.8898872137069702,-0.44046059250831604,-0.11872351914644241,-0.20212328433990479,0.9281314611434937,-1.2466939687728882
0.5012914664342845,-1.4238120537961478,-1.6765905748498118,0.7577753663063049,1.4829872846603394,-4.385010719299316,-0.8675066828727722,-0.48055851459503174,-0.1284361034631729,-0.12701547145843506,0.9932537078857422,-1.2618379592895508
0.5453102634203698,-1.410118204900688,-1.6740201698527382,1.0315706729888916,1.4833848476409912,-4.218698024749756,-0.8439536094665527,-0.5186833739280701,-0.13678404688835144,-0.08138513565063477,1.0612707138061523,-1.2640643119812012
0.5882411607224359,-1.398932070408667,-1.6682262354666373,1.3535397052764893,1.354084849357605,-4.064523220062256,-0.8196619153022766,-0.5548986792564392,-0.1422741562128067,-0.06435602903366089,1.1085180044174194,-1.267988920211792
0.6304725930449894,-1.391983815305251,-1.6583813740138416,1.7002687454223633,1.1444138288497925,-3.9480488300323486,-0.7948698997497559,-0.5895265340805054,-0.14366716146469116,-0.06680911779403687,1.1273835897445679,-1.2867984771728516
0.6724568183229156,-1.3902744182771207,-1.6442316654344533,1.9965040683746338,0.907658040523529,-3.9019267559051514,-0.7695814967155457,-0.6229098439216614,-0.14045536518096924,-0.08517009019851685,1.140228509902954,-1.3027360439300537
0.7151016168983586,-1.3939909609380474,-1.6261739527848922,2.23596453666687,0.646494448184967,-3.9890148639678955,-0.7432562112808228,-0.6556941270828247,-0.13279834389686584,-0.09240663051605225,1.1463404893875122,-1.3369433879852295
0.7593869123395751,-1.403811963938157,-1.603741252758488,2.557997226715088,0.42653995752334595,-4.139144420623779,-0.7151703834533691,-0.6884769201278687,-0.12054476886987686,-0.07203054428100586,1.1595615148544312,-1.4692074060440063
0.8050725268739474,-1.4202763665301508,-1.5740710402174605,3.0437583923339844,0.5062638521194458,-4.165837287902832,-0.6852226853370667,-0.720880925655365,-0.10392573475837708,-0.004260897636413574,1.2552895545959473,-1.7151201963424683
0.8500384132025505,-1.4431534480471737,-1.5337857138266844,3.5832359790802,0.8831376433372498,-3.9187655448913574,-0.6545854210853577,-0.7513057589530945,-0.08400990813970566,0.11768960952758789,1.4457180500030518,-1.9131977558135986
0.891107818275845,-1.4721095375311193,-1.4807165395652326,4.10629940032959,1.456484079360962,-3.426590919494629,-0.625492513179779,-0.7777685523033142,-0.06192902475595474,0.27313661575317383,1.6359686851501465,-1.9914613962173462
0.9261880931864378,-1.5071917374853916,-1.4143609931407473,4.550027847290039,1.9611464738845825,-2.8898675441741943,-0.5996704697608948,-0.799335241317749,-0.03819331154227257,0.3786774277687073,1.745730996131897,-1.9600518941879272
0.9549680797842398,-1.5493292902756168,-1.336224826218827,4.848022937774658,2.190068483352661,-2.473721504211426,-0.5775018334388733,-0.816295325756073,-0.012399157509207726,0.3950066566467285,1.7832446098327637,-1.8304200172424316
0.9784370455301685,-1.5998935456951364,-1.2484964601910251,5.0713210105896,2.0910613536834717,-2.270050287246704,-0.5580835342407227,-0.8296257853507996,0.016243262216448784,0.35608768463134766,1.7832849025726318,-1.7182695865631104
0.9978979859771644,-1.661549129145492,-1.1510864701393289,5.385086536407471,1.8317973613739014,-2.249873638153076,-0.5398388504981995,-0.8403334021568298,0.04912683367729187,0.301069438457489,1.7787950038909912,-1.7284327745437622
1.0131609044548158,-1.7368120066266834,-1.040917818146507,5.916466236114502,1.7554967403411865,-2.2629106044769287,-0.5219054818153381,-0.8485087752342224,0.08744937926530838,0.2638031840324402,1.8317852020263672,-1.908524751663208
1.021987961514318,-1.8250365463838223,-0.9154011905147292,6.579535007476807,1.9865374565124512,-2.1762185096740723,-0.5049015879631042,-0.8531467914581299,0.1312054991722107,0.22207993268966675,1.9907963275909424,-2.132899284362793
1.0211068144800144,-1.9212167414790204,-0.7771042952902572,7.193185806274414,2.36688232421875,-1.922440528869629,-0.49067410826683044,-0.8526867628097534,0.1793438345193863,0.23418909311294556,2.1675825119018555,-2.1849894523620605
1.0081316034645786,-2.016975688976092,-0.6344136004615453,7.619783401489258,2.701692581176758,-1.5049264430999756,-0.48121941089630127,-0.8458366394042969,0.23019206523895264,0.28013908863067627,2.304973602294922,-2.017331838607788
0.9827120004842639,-2.1036293827906767,-0.4976305201731908,7.8238067626953125,2.894711494445801,-1.0027891397476196,-0.4778614938259125,-0.832004964351654,0.2818087637424469,0.3137684762477875,2.3755993843078613,-1.7373446226119995
0.9467928868101719,-2.176090715311373,-0.3740321736784291,7.832054138183594,2.8974483013153076,-0.5497279167175293,-0.48048076033592224,-0.8115457892417908,0.3324626684188843,0.30488264560699463,2.349433422088623,-1.4485362768173218
0.9036521280120593,-2.233932043332137,-0.265941533677869,7.697280406951904,2.7834339141845703,-0.22472773492336273,-0.4876115024089813,-0.7855919003486633,0.38089367747306824,0.2319963574409485,2.2605066299438477,-1.2091712951660156
0.8562993909242194,-2.278774359195004,-0.17210343493842842,7.5044732093811035,2.71164608001709,-0.035701192915439606,-0.4977697730064392,-0.7554229497909546,0.42610037326812744,0.12377685308456421,2.1493592262268066,-1.0706467628479004
0.807201457338001,-2.3122702662098424,-0.0898364419394972,7.262247085571289,2.74228572845459,0.016608353704214096,-0.5099799036979675,-0.7223547697067261,0.4670375883579254,0.01966923475265503,2.0401344299316406,-1.0105403661727905
0.7584894844575262,-2.335998718161043,-0.01617375181157771,6.989760875701904,2.8954741954803467,-0.06872111558914185,-0.523532509803772,-0.6878257989883423,0.5028020739555359,-0.08613252639770508,1.9291739463806152,-0.9865512847900391
0.7118575076033867,-2.350528865169565,0.05109484926402929,6.654852390289307,3.201822280883789,-0.21175922453403473,-0.5384106040000916,-0.6532413363456726,0.5323440432548523,-0.161693274974823,1.8351411819458008,-0.9731245040893555
0.6695004546335885,-2.354575684636089,0.11255826003837188,6.253709316253662,3.667336940765381,-0.3518178164958954,-0.5553615689277649,-0.6205943822860718,0.5535664558410645,-0.19570642709732056,1.7719616889953613,-0.937752366065979
0.6300007867696146,-2.349675797583162,0.1699747591011898,5.8244194984436035,4.208958148956299,-0.4521406888961792,-0.5750738978385925,-0.5891454219818115,0.5676249265670776,-0.19673097133636475,1.7233922481536865,-0.8861519694328308
0.5941852350701602,-2.335208782065842,0.22327613695165097,5.415619373321533,4.755474090576172,-0.4776832163333893,-0.5980778932571411,-0.559833824634552,0.5734881162643433,-0.1895197033882141,1.6738324165344238,-0.8417224287986755
0.5618414841592742,-2.3119182392625124,0.2723734946387466,4.99100923538208,5.211901664733887,-0.405301958322525,-0.62430739402771,-0.5327454805374146,0.5713342428207397,-0.1591857671737671,1.6176302433013916,-0.7693015933036804
0.5326557379991601,-2.2805268619575387,0.3166848092329306,4.516426086425781,5.635076522827148,-0.23271937668323517,-0.6534507274627686,-0.5078229308128357,0.5613535642623901,-0.13635939359664917,1.5579023361206055,-0.6781138777732849
0.5066776684699557,-2.2411950613286225,0.3554789978556352,3.9576611518859863,6.031948089599609,-0.04956287145614624,-0.6851270794868469,-0.485275000333786,0.5432395339012146,-0.12549620866775513,1.4738614559173584,-0.5785331130027771
0.484371613944747,-2.1947515292218704,0.3885954917228787,3.37007212638855,6.349287509918213,0.09232713282108307,-0.7182167172431946,-0.46565234661102295,0.5170420408248901,-0.13729780912399292,1.3646240234375,-0.4815654158592224
0.46565870204997656,-2.142440094350511,0.4164010424004637,2.818218946456909,6.6102294921875,0.216735377907753,-0.7514667510986328,-0.4490114748477936,0.48341113328933716,-0.1580485701560974,1.2375400066375732,-0.43493393063545227
0.45015892062831403,-2.08465220518948,0.4393118817447211,2.2928478717803955,6.941740989685059,0.30722978711128235,-0.7840991616249084,-0.43510863184928894,0.44257065653800964,-0.20979726314544678,1.1252179145812988,-0.4358568787574768
0.4377783801276675,-2.0207523479688425,0.4576644358407756,1.7878204584121704,7.376903533935547,0.34602832794189453,-0.815548300743103,-0.4239284098148346,0.3939104974269867,-0.3059878945350647,1.0221340656280518,-0.45285525918006897
0.4281510350512197,-1.9503303981110625,0.4717087857208793,1.3199236392974854,7.830586910247803,0.3944166600704193,-0.8449957966804504,-0.4151894450187683,0.3370456397533417,-0.37996453046798706,0.9254128932952881,-0.47017860412597656
0.4202109565794668,-1.8738914318556736,0.48145542066651426,0.8869596719741821,8.188619613647461,0.521125316619873,-0.8713858127593994,-0.40795305371284485,0.2725091576576233,-0.39010417461395264,0.8473451733589172,-0.4840570390224457
0.4121941197884421,-1.7931111254713699,0.48702224870165295,0.5187420845031738,8.324761390686035,0.7790949940681458,-0.8936948776245117,-0.40062063932418823,0.2020208239555359,-0.357602059841156,0.7948620319366455,-0.5104925632476807
0.40189736340481585,-1.711441794178072,0.48924121100724655,0.2673165202140808,8.075773239135742,1.1841652393341064,-0.9112330079078674,-0.39116522669792175,0.1290125846862793,-0.32260799407958984,0.7475342750549316,-0.5825648307800293
0.3874762240670768,-1.6338445301485072,0.4902951853802428,0.25671228766441345,7.4309892654418945,1.6641663312911987,-0.9240260124206543,-0.3778529465198517,0.058335497975349426,-0.3493351340293884,0.7194973230361938,-0.740922212600708
0.36840575611277476,-1.5648506493286252,0.49416844132305304,0.6101880669593811,6.597485065460205,2.122607946395874,-0.9328861832618713,-0.36012861132621765,-0.0055467053316533566,-0.47948259115219116,0.6963104009628296,-1.0175703763961792
0.34574432426205043,-1.5062570479759363,0.5050015930864071,1.2725193500518799,5.860648155212402,2.445941686630249,-0.9388648271560669,-0.33889704942703247,-0.06067793071269989,-0.6937646865844727,0.64918452501297,-1.3401094675064087
0.3224260547837266,-1.4565407112309023,0.5247721108970693,2.0184292793273926,5.365884780883789,2.497413396835327,-0.942285418510437,-0.31686854362487793,-0.10813234001398087,-1.0066739320755005,0.5831192135810852,-1.5630102157592773
0.30142011150796183,-1.4125537260362027,0.5526610102054064,2.628864049911499,5.140420436859131,2.374098300933838,-0.942984938621521,-0.29687657952308655,-0.1504785120487213,-1.3019033670425415,0.5148637294769287,-1.603031039237976
0.2838305559469285,-1.3702510097203366,0.5858026150188838,2.925994634628296,5.2333245277404785,2.2201685905456543,-0.9407497048377991,-0.28003498911857605,-0.1912335455417633,-1.4541782140731812,0.4737911820411682,-1.4661608934402466
0.26924914667652183,-1.325466748496032,0.6203318096488801,2.8476505279541016,5.593287467956543,2.093618869781494,-0.9351070523262024,-0.2660077214241028,-0.23412545025348663,-1.5080387592315674,0.46554693579673767,-1.2130334377288818
0.25679132068370314,-1.275209040069463,0.6526490321353371,2.4535956382751465,6.1015400886535645,1.9722325801849365,-0.9252631664276123,-0.2539784014225006,-0.2817499041557312,-1.5157921314239502,0.450481116771698,-0.9449347257614136
0.24558817442412462,-1.2183686904416866,0.6802857692930588,1.888161540031433,6.566240310668945,1.868273138999939,-0.910376250743866,-0.24312689900398254,-0.33482006192207336,-1.5272915363311768,0.4233485162258148,-0.7431676387786865
0.23452994475363306,-1.1565725585559132,0.7031230250479534,1.407518744468689,6.783637523651123,1.8884902000427246,-0.8903679847717285,-0.23238582909107208,-0.3914610743522644,-1.532102108001709,0.42002320289611816,-0.6475557088851929
0.2243398294220213,-1.092382575723311,0.7235080026835188,1.1865904331207275,6.72573709487915,2.0326802730560303,-0.8654808402061462,-0.22246278822422028,-0.44883519411087036,-1.541989803314209,0.45982855558395386,-0.6784077882766724
0.21206285141597214,-1.0306518638127897,0.7446984544609498,1.2356988191604614,6.468602180480957,2.132984161376953,-0.838422417640686,-0.21047699451446533,-0.5027399063110352,-1.6196465492248535,0.48190033435821533,-0.7620611786842346
0.2017171274580425,-0.9718987587987993,0.7680006700974474,1.4880502223968506,6.197608470916748,2.0497493743896484,-0.809210479259491,-0.20035193860530853,-0.5523020029067993,-1.7909023761749268,0.4444468319416046,-0.8671621084213257
0.19584142738570492,-0.9152429064728972,0.7928815201331575,1.7432841062545776,6.10985803604126,1.7355241775512695,-0.7775574326515198,-0.1945919394493103,-0.5979451537132263,-2.00433349609375,0.3637051582336426,-0.9320994019508362
0.19550637620326158,-0.8573005459832994,0.8164528698643472,1.7379714250564575,6.40286922454834,1.2176028490066528,-0.7416748404502869,-0.19426329433918,-0.6420125961303711,-2.219186305999756,0.2802771329879761,-0.8689584732055664
0.19936238866011893,-0.7936041517625531,0.8344379798280926,1.3240188360214233,7.023807525634766,0.6009284257888794,-0.6987653374671936,-0.19804438948631287,-0.6873903274536133,-2.363093852996826,0.21089234948158264,-0.670260488986969
0.20457248584504112,-0.7214802736619284,0.8438911195425212,0.6932384967803955,7.728450775146484,0.039963819086551666,-0.6467241048812866,-0.20314857363700867,-0.7351725101470947,-2.417179584503174,0.19117048382759094,-0.4363820552825928
0.20882920088191748,-0.6413211751054448,0.8451622631016235,0.1459341049194336,8.261944770812988,-0.36647024750709534,-0.5852571129798889,-0.20731468498706818,-0.7838971018791199,-2.3517699241638184,0.21762967109680176,-0.2936022877693176
0.2113501930074472,-0.5565857769186264,0.84068417725822,-0.19685128331184387,8.385927200317383,-0.624933660030365,-0.5165351629257202,-0.2097802460193634,-0.8301708698272705,-2.1963706016540527,0.2653375267982483,-0.235884428024292
0.21249916466231356,-0.47210162254001864,0.8329852369896438,-0.3170056641101837,8.091750144958496,-0.7842109203338623,-0.44453006982803345,-0.21090351045131683,-0.8705818057060242,-2.0040173530578613,0.3001064360141754,-0.19648057222366333
0.2132833905164819,-0.3916561474994664,0.8239172371393862,-0.26464131474494934,7.548094749450684,-0.8818139433860779,-0.3730703592300415,-0.21167002618312836,-0.9033350944519043,-1.813178300857544,0.30720534920692444,-0.1757512092590332
0.21462868971002375,-0.3170642673434587,0.8143942676475187,-0.12343622744083405,6.911896228790283,-0.9467804431915283,-0.30462491512298584,-0.21298465132713318,-0.928354024887085,-1.6546034812927246,0.30873358249664307,-0.15569138526916504
0.21701206374299453,-0.24900144676902256,0.8046487539450711,0.0535443015396595,6.239373683929443,-1.0082957744598389,-0.24065619707107544,-0.21531273424625397,-0.9464275240898132,-1.5240074396133423,0.31158047914505005,-0.11868178844451904
0.22079239251943994,-0.18761354638136327,0.7945036862862066,0.25300708413124084,5.556880474090576,-1.0812355279922485,-0.18198706209659576,-0.2190028429031372,-0.9586023688316345,-1.425755262374878,0.296425998210907,-0.07830864191055298
0.22599415029701217,-0.13298345296181885,0.7835596414800322,0.42381298542022705,4.849469184875488,-1.1851754188537598,-0.12922027707099915,-0.2240753471851349,-0.965967059135437,-1.3597476482391357,0.27439889311790466,-0.01967442035675049
0.23216790171730015,-0.08506705379311978,0.7713184128817702,0.5297927260398865,4.150317192077637,-1.3145155906677246,-0.08268488943576813,-0.23008780181407928,-0.9696508646011353,-1.305712342262268,0.25431880354881287,0.061966538429260254
0.2385733732823597,-0.043470300442076046,0.7574265885408727,0.562212347984314,3.5157649517059326,-1.4497568607330322,-0.04222575202584267,-0.23631665110588074,-0.9707581996917725,-1.2598066329956055,0.235233336687088,0.13439345359802246
0.24440675307659432,-0.006860024060774239,0.7420780780607441,0.5085802674293518,3.074721336364746,-1.542510747909546,-0.006656099110841751,-0.24198074638843536,-0.9702582359313965,-1.1938748359680176,0.22977375984191895,0.19810247421264648
0.24854720505003874,0.026949232876365203,0.7258089648414372,0.32665345072746277,2.9753637313842773,-1.600335717201233,0.026117943227291107,-0.24599607288837433,-0.9689188599586487,-1.1073099374771118,0.2532593011856079,0.26005661487579346
0.2490547685649222,0.061614451718386934,0.7092258013178262,-0.11916717141866684,3.0447535514831543,-1.5723233222961426,0.05967561528086662,-0.24648800492286682,-0.9673068523406982,-1.0717147588729858,0.3335394561290741,0.39823031425476074
0.24449466826237584,0.09445200981406782,0.6939581558149965,-0.5289378762245178,2.8004515171051025,-1.4529775381088257,0.09150678664445877,-0.24206605553627014,-0.9659350514411926,-0.9214017987251282,0.31317204236984253,0.4580004811286926
0.236511832950431,0.12591808989830655,0.6799610936654097,-0.7440685629844666,2.7978436946868896,-1.427324652671814,0.1220894530415535,-0.2343129962682724,-0.9644644260406494,-0.8202705979347229,0.21197418868541718,0.3407766819000244
0.22631724432235825,0.15622339774734761,0.6664949773618613,-0.8862241506576538,2.6086716651916504,-1.448525309562683,0.15162110328674316,-0.2243902087211609,-0.9626318216323853,-0.8160040378570557,0.22323061525821686,0.29173344373703003
0.21521047072178476,0.18383090660688683,0.6532892298790217,-0.8403173685073853,2.3015975952148438,-1.4546133279800415,0.1785804033279419,-0.2135530412197113,-0.9604707956314087,-0.7863074541091919,0.2721315920352936,0.2374178171157837
0.20500099422775583,0.2072892003649107,0.6401142852002395,-0.6424973011016846,1.8019150495529175,-1.4598711729049683,0.20149843394756317,-0.20356813073158264,-0.9581014513969421,-0.7397216558456421,0.2926642596721649,0.17401331663131714
0.1970427348274565,0.22483698545381142,0.6267195874638853,-0.33391761779785156,1.1572257280349731,-1.4330896139144897,0.21863338351249695,-0.19577014446258545,-0.9559673070907593,-0.6488396525382996,0.2942046523094177,0.13480031490325928
0.19229820008635062,0.2358536916445333,0.6132259342185858,0.011652922257781029,0.5333399772644043,-1.3474737405776978,0.2293659746646881,-0.19111523032188416,-0.9543931484222412,-0.5266224145889282,0.2809132933616638,0.10852217674255371
0.19083232141764858,0.24132472594265328,0.5999005879057839,0.30943241715431213,0.07905694097280502,-1.2617566585540771,0.23465073108673096,-0.1896761655807495,-0.9533949494361877,-0.41029462218284607,0.2677096724510193,0.11316972970962524
0.19192570283743174,0.2433395210692136,0.5865720842559644,0.5115407705307007,-0.1562730222940445,-1.225297212600708,0.23652103543281555,-0.19074958562850952,-0.9527184367179871,-0.33101868629455566,0.2390437126159668,0.13362663984298706
0.1942558933630711,0.2438967536936019,0.5731081123788412,0.549619734287262,-0.23190785944461823,-1.222680687904358,0.23694391548633575,-0.19303648173809052,-0.9521525502204895,-0.27641838788986206,0.2252173125743866,0.1737712025642395
0.19603745900403993,0.24434026499345915,0.5597465427601178,0.4002210795879364,-0.18178647756576538,-1.2291545867919922,0.23728260397911072,-0.1947842240333557,-0.9517121911048889,-0.23738938570022583,0.234624981880188,0.24141556024551392
0.19550899373943,0.2453944501047881,0.5469339588828388,0.08574916422367096,-0.1169329285621643,-1.2314587831497192,0.23831072449684143,-0.19426585733890533,-0.9515612125396729,-0.19079482555389404,0.2548280358314514,0.31505608558654785
0.19153713247257423,0.24668188749407766,0.5350352340025591,-0.2921346426010132,-0.07912629097700119,-1.208030104637146,0.2397221326828003,-0.1903681457042694,-0.9519943594932556,-0.1442173421382904,0.24784806370735168,0.3364700675010681
0.18406540670163318,0.24796278508778682,0.524606842063822,-0.6403035521507263,-0.055557847023010254,-1.127480149269104,0.24128369987010956,-0.18302780389785767,-0.9530388116836548,-0.053951531648635864,0.24301016330718994,0.2941490411758423
0.1742677838180166,0.24893489235448116,0.5160462269412475,-0.8150098323822021,-0.056495774537324905,-0.9738805294036865,0.24264021217823029,-0.1733870655298233,-0.9544960260391235,0.016759216785430908,0.22552639245986938,0.17126238346099854
0.16438540529129525,0.24949663256757224,0.5093428919517531,-0.740669310092926,-0.053056299686431885,-0.7903719544410706,0.24358755350112915,-0.16364605724811554,-0.9559733867645264,0.06790536642074585,0.21265734732151031,0.001963376998901367
0.1568331522881536,0.25011248898086536,0.5039121537471257,-0.43313342332839966,0.008014339953660965,-0.6233251690864563,0.24447518587112427,-0.15619102120399475,-0.9569933414459229,0.07475395500659943,0.19565030932426453,-0.16591620445251465
0.153327199091225,0.25159484468959664,0.49889057235356604,0.005858328193426132,0.1440640538930893,-0.517697811126709,0.246028333902359,-0.1527271419763565,-0.9571543335914612,0.03116282820701599,0.16427810490131378,-0.28834426403045654
0.1542745083851348,0.2547425140886454,0.4935082095807052,0.4288038909435272,0.31110846996307373,-0.46909794211387634,0.2490033507347107,-0.1536632627248764,-0.9562347531318665,-0.034586817026138306,0.13487973809242249,-0.32188719511032104
0.158669382524571,0.25916372604737636,0.487450118480179,0.6947466731071472,0.3676396608352661,-0.4694569408893585,0.25305309891700745,-0.15800444781780243,-0.9544625282287598,-0.10299813747406006,0.11291477084159851,-0.24632787704467773
0.16470319083476398,0.2637760144977631,0.48064833529067585,0.7921894192695618,0.3228035569190979,-0.5181617736816406,0.25719940662384033,-0.1639595478773117,-0.9523475170135498,-0.13633453845977783,0.07567226886749268,-0.1102135181427002
0.17092188527898855,0.2676827499150118,0.47307922283693743,0.7826598286628723,0.19555185735225677,-0.5921347737312317,0.26064327359199524,-0.17009086906909943,-0.9503337144851685,-0.14144158363342285,0.0351269394159317,0.013230443000793457
0.17665598712837732,0.270185505385997,0.46491270347410546,0.7433182001113892,0.021958116441965103,-0.6432669162750244,0.26275625824928284,-0.17573858797550201,-0.9487228989601135,-0.12586963176727295,0.01077587902545929,0.09412389993667603
0.18200040830666328,0.2710936961961872,0.4565269372545705,0.7272636294364929,-0.13146711885929108,-0.6512452363967896,0.26336249709129333,-0.18099729716777802,-0.9475653767585754,-0.09173160791397095,-0.00047542154788970947,0.12757331132888794
0.187384363933521,0.2708257218372538,0.44830278821738956,0.7388997673988342,-0.2220739722251892,-0.6133683323860168,0.262844055891037,-0.1862896829843521,-0.9466832280158997,-0.0517539381980896,-0.010991156101226807,0.12194567918777466
0.1930829240055641,0.2697935456560481,0.4404740207628343,0.7606202363967896,-0.27451372146606445,-0.5586560964584351,0.26157957315444946,-0.19188544154167175,-0.9459154605865479,-0.027097761631011963,-0.01836538314819336,0.11322808265686035
0.19914111523803285,0.26833381452975513,0.4331327532345561,0.7810353636741638,-0.28922972083091736,-0.5070559978485107,0.2598855495452881,-0.19782748818397522,-0.945158064365387,-0.018399924039840698,-0.02855183184146881,0.11436277627944946
0.20550020369343466,0.2669596719429962,0.4261741864439204,0.7963701486587524,-0.26125800609588623,-0.4699661135673523,0.258249431848526,-0.20405685901641846,-0.9442817568778992,-0.023264050483703613,-0.04612618684768677,0.11112135648727417
0.2119011721893521,0.2659567235492257,0.41950808225637004,0.7664316296577454,-0.21333222091197968,-0.45527052879333496,0.2569536566734314,-0.210318922996521,-0.943260669708252,-0.047984570264816284,-0.060661837458610535,0.11496788263320923
0.21773896016639882,0.26548188127587086,0.4129240390923175,0.6865807175636292,-0.1579350084066391,-0.4813138544559479,0.25617921352386475,-0.2160225212574005,-0.9421817660331726,-0.09246766567230225,-0.07667149603366852,0.12438696622848511
0.2227220224739067,0.26570391651333025,0.40609209068831625,0.6216153502464294,-0.09831921756267548,-0.5458337068557739,0.2561025619506836,-0.22088523209095,-0.9410744905471802,-0.1305379867553711,-0.0931253433227539,0.11284267902374268
0.22709069763255463,0.2664896455990097,0.39862883934398036,0.6023260354995728,-0.08731157332658768,-0.6260057687759399,0.25658532977104187,-0.22514387965202332,-0.9399330615997314,-0.15398523211479187,-0.09654185175895691,0.07501912117004395
0.23131729766620537,0.2670932396956194,0.39047834851949453,0.6319096684455872,-0.1685236692428589,-0.6752525568008423,0.2568991780281067,-0.2292599380016327,-0.9388517737388611,-0.1392081081867218,-0.07562588155269623,0.051064908504486084
0.23585644227921213,0.2667556703682352,0.38196261741644727,0.6751285195350647,-0.2917651832103729,-0.674517810344696,0.2563052773475647,-0.23367580771446228,-0.9379249215126038,-0.09083899855613708,-0.046582311391830444,0.041089653968811035
0.24095999590039735,0.26524397132753175,0.37361950604652605,0.7306534051895142,-0.40069839358329773,-0.6113747358322144,0.25457116961479187,-0.23863500356674194,-0.9371482729911804,-0.01816675066947937,-0.03599262237548828,0.02674788236618042
0.2469901569333649,0.26264052694283696,0.36595262479905777,0.8101551532745361,-0.48276424407958984,-0.5055476427078247,0.2517523169517517,-0.24448657035827637,-0.9364011287689209,0.03808838129043579,-0.028828799724578857,-0.0018618106842041016
0.2540497950158528,0.25929192494031106,0.3591262487571212,0.8830286860466003,-0.5201881527900696,-0.4099194407463074,0.2481665462255478,-0.2513258159160614,-0.9355472922325134,0.04706050455570221,-0.025361716747283936,-0.016738474369049072
0.26190234666318535,0.25545170155332425,0.35287349087220965,0.9319663643836975,-0.5675389170646667,-0.3638494312763214,0.2440657913684845,-0.25891849398612976,-0.9345550537109375,0.029280155897140503,-0.044716089963912964,-0.010284483432769775
0.2701594248541132,0.2509670330592436,0.3467704977258461,0.9533527493476868,-0.6514784097671509,-0.36592042446136475,0.23933309316635132,-0.26688507199287415,-0.9335373640060425,0.0035258233547210693,-0.06864038109779358,0.01595008373260498
0.27847724714554867,0.24568898404577758,0.3404018892806658,0.9461180567741394,-0.7450491189956665,-0.41761744022369385,0.2338544726371765,-0.2748918831348419,-0.932602047920227,-0.025785639882087708,-0.08532226085662842,0.04524242877960205
0.28643581112101807,0.2397036696009601,0.3334144555844301,0.9098068475723267,-0.8356021642684937,-0.5028326511383057,0.2277417778968811,-0.28253504633903503,-0.9318302273750305,-0.04356817901134491,-0.09225127100944519,0.07184487581253052
0.2938218191599776,0.23314137009462185,0.32570119608082015,0.8640555739402771,-0.9078036546707153,-0.5849067568778992,0.22113381326198578,-0.289612352848053,-0.9312489032745361,-0.042697519063949585,-0.09062135219573975,0.08714795112609863
0.3006072805580653,0.22633904204785776,0.31733997804009567,0.8099912405014038,-0.9339462518692017,-0.6582933068275452,0.21434813737869263,-0.29610031843185425,-0.9307950735092163,-0.024528801441192627,-0.08091378211975098,0.09092080593109131
0.30679569876061846,0.21963854246257403,0.3085631402266546,0.7571001052856445,-0.9188778400421143,-0.6941863298416138,0.2077033668756485,-0.30200549960136414,-0.9304041862487793,0.009948015213012695,-0.06982061266899109,0.0871119499206543
0.31238573576631323,0.2134964901686321,0.2997399020735751,0.682709813117981,-0.8305091857910156,-0.703183650970459,0.2016240358352661,-0.30732977390289307,-0.9299979209899902,0.04189097881317139,-0.06295520067214966,0.07823705673217773
0.3171944496820452,0.20853775790464577,0.2911753902957065,0.5874802470207214,-0.6859679818153381,-0.6845793724060059,0.19670173525810242,-0.3119021952152252,-0.9295297265052795,0.07290582358837128,-0.070513516664505,0.07161951065063477
0.32120865179976654,0.2048576506749183,0.28310772377332283,0.5079999566078186,-0.5598024725914001,-0.6424703001976013,0.19302338361740112,-0.3157136142253876,-0.9290139079093933,0.10780365765094757,-0.07990092039108276,0.06809777021408081
0.3247599595533486,0.20198094283175447,0.27563347258813514,0.47359833121299744,-0.4989739954471588,-0.5968700647354126,0.19012396037578583,-0.31908130645751953,-0.9284610748291016,0.13322505354881287,-0.08085152506828308,0.05890846252441406
0.3283009758549967,0.19905060896452514,0.2686845611698033,0.47999146580696106,-0.5433326363563538,-0.5493194460868835,0.1871778517961502,-0.322435200214386,-0.9279008507728577,0.1429002732038498,-0.06973081827163696,0.057402193546295166
0.3321226757716064,0.19519596505232314,0.26215881538231783,0.5066134929656982,-0.6484066247940063,-0.5092210173606873,0.18335939943790436,-0.32605043053627014,-0.9273998141288757,0.14540648460388184,-0.05479362607002258,0.07066458463668823
0.3364596819274632,0.19018365802574144,0.2559955868718706,0.5592306852340698,-0.7501055598258972,-0.4662942886352539,0.17843970656394958,-0.3301473557949066,-0.9269099235534668,0.14680138230323792,-0.04755336046218872,0.0675806999206543
0.34132337152900977,0.18437222651838334,0.2500916340098553,0.5922512412071228,-0.7945891618728638,-0.44715067744255066,0.17275361716747284,-0.33473441004753113,-0.9263417720794678,0.13219328224658966,-0.0371069610118866,0.06307578086853027
0.34632874046821316,0.1785371117119036,0.2442784238481115,0.5773773789405823,-0.7502476572990417,-0.4477252960205078,0.16704575717449188,-0.3394468128681183,-0.9256736040115356,0.11203747987747192,-0.03482067584991455,0.06989967823028564
0.35103606885444666,0.17354615858105246,0.23847283205924227,0.5306625962257385,-0.6320176720619202,-0.45730575919151306,0.16214598715305328,-0.3438708782196045,-0.924911618232727,0.11029970645904541,-0.05249136686325073,0.07171642780303955
0.3551999714821165,0.17000189076439895,0.23273583695904143,0.4654487371444702,-0.4662988781929016,-0.45703575015068054,0.15862321853637695,-0.3477778732776642,-0.9240612387657166,0.12198591232299805,-0.06311073899269104,0.06616634130477905
0.3587675678435899,0.16799334050083953,0.2272348830237134,0.40420907735824585,-0.31925085186958313,-0.43387851119041443,0.15655842423439026,-0.3511205315589905,-0.9231488704681396,0.13718852400779724,-0.054137587547302246,0.06903815269470215
0.3618023827463553,0.16712506144662223,0.22223479596514703,0.34710851311683655,-0.2127787172794342,-0.38593143224716187,0.1555788367986679,-0.3539605140686035,-0.9222294688224792,0.1543882042169571,-0.03846493363380432,0.08276718854904175
0.3643939713463089,0.16687421335096375,0.21786194755215188,0.2928290367126465,-0.15941402316093445,-0.33487674593925476,0.15519461035728455,-0.3563831150531769,-0.9213607907295227,0.16122689843177795,-0.031159520149230957,0.0998886227607727
0.3664765890502218,0.16671923600236832,0.21406025181272428,0.23160459101200104,-0.14813770353794098,-0.29603275656700134,0.1549283117055893,-0.3583282232284546,-0.9206508994102478,0.1495608389377594,-0.030419886112213135,0.1164364218711853
0.36807662743171377,0.16645953850952266,0.2107488561999062,0.18376410007476807,-0.14243613183498383,-0.26071950793266296,0.15459401905536652,-0.3598215579986572,-0.9201245307922363,0.13486520946025848,-0.027599036693572998,0.12352418899536133
0.3692938745520395,0.1660801682047216,0.20786470118866163,0.14120984077453613,-0.14322347939014435,-0.23045460879802704,0.15417242050170898,-0.36095699667930603,-0.919750452041626,0.11787654459476471,-0.024846166372299194,0.11851143836975098
0.3702344855183574,0.16543624208391117,0.2053132170822913,0.12355148792266846,-0.17184153199195862,-0.20642755925655365,0.15352414548397064,-0.3618340492248535,-0.9195142388343811,0.10973575711250305,-0.026624172925949097,0.1150098443031311
0.37114509752532676,0.1643229592006052,0.203025314165999,0.1189093142747879,-0.22011642158031464,-0.18477798998355865,0.1524464190006256,-0.3626827895641327,-0.9193591475486755,0.10718187689781189,-0.031756848096847534,0.11410707235336304
0.371904259716207,0.16274877069456511,0.200839304392443,0.08774980157613754,-0.2464769184589386,-0.1947113275527954,0.15095432102680206,-0.363390177488327,-0.9193260073661804,0.09394924342632294,-0.0409371554851532,0.1241142749786377
0.37217552741107135,0.16121051571506975,0.19845561098834574,0.031220147386193275,-0.225134015083313,-0.2345523089170456,0.14952416718006134,-0.3636428713798523,-0.9194598197937012,0.06637245416641235,-0.06161952018737793,0.12885618209838867
0.3717890559294449,0.16030441096262033,0.19567396584224625,-0.027922267094254494,-0.14969465136528015,-0.28604453802108765,0.1487133949995041,-0.36328282952308655,-0.9197335839271545,0.037245482206344604,-0.07267597317695618,0.12070709466934204
0.37074080511481117,0.160375145992165,0.19249263447628595,-0.08552870154380798,-0.0685461014509201,-0.32662683725357056,0.14883917570114136,-0.36230599880218506,-0.9200984835624695,0.021876156330108643,-0.06513836979866028,0.10909384489059448
0.3692530153480521,0.16116478230134382,0.18907204680931616,-0.10614289343357086,-0.02819308638572693,-0.3449286222457886,0.14965200424194336,-0.36091890931129456,-0.9205117225646973,0.020269855856895447,-0.04993915557861328,0.09920740127563477
0.3676868949723549,0.1620677933105606,0.1855509169523175,-0.09519964456558228,-0.04965662211179733,-0.35530924797058105,0.1505742073059082,-0.35945791006088257,-0.9209328889846802,0.027251720428466797,-0.036568671464920044,0.08652126789093018
0.3663506527120631,0.16271414061269932,0.1818339074260278,-0.058062657713890076,-0.08909936994314194,-0.37247520685195923,0.15124709904193878,-0.35821065306663513,-0.9213085770606995,0.025449678301811218,-0.030384838581085205,0.07224851846694946
0.36528732753339377,0.1631100503393246,0.17785981093235662,-0.04139203578233719,-0.11031264066696167,-0.3941122889518738,0.1516736000776291,-0.3572176694869995,-0.921623945236206,0.017393797636032104,-0.030492812395095825,0.06700962781906128
0.3640892961733097,0.16360243613159625,0.1736357954735169,-0.08037938922643661,-0.0894065648317337,-0.41980940103530884,0.1521969735622406,-0.3560984432697296,-0.9219707250595093,0.013940706849098206,-0.04003489017486572,0.07873952388763428
0.3621151676932905,0.16449547378999171,0.1692789924287781,-0.18812990188598633,-0.04053150862455368,-0.4455220699310303,0.15313509106636047,-0.35425302386283875,-0.9225261211395264,0.016420572996139526,-0.05216476321220398,0.10405993461608887
0.3589371525500815,0.16585320738518877,0.16488343498075841,-0.29862844944000244,0.001551227644085884,-0.46726304292678833,0.15457257628440857,-0.3512793183326721,-0.9234230518341064,0.02513018250465393,-0.061272501945495605,0.11589741706848145
0.3548816544549277,0.16750473725511314,0.16041199858989139,-0.3584473431110382,0.00977663416415453,-0.49081194400787354,0.15633365511894226,-0.3474794030189514,-0.9245635867118835,0.030754372477531433,-0.06733071804046631,0.09782713651657104
0.3504621968114152,0.16902489852992825,0.15580068414235868,-0.36374276876449585,-0.026508403941988945,-0.5060896873474121,0.15799574553966522,-0.3433319330215454,-0.9258296489715576,0.04252000153064728,-0.06798392534255981,0.06787371635437012
0.34623767470069544,0.170151700910322,0.1510849061919384,-0.3129577040672302,-0.07488223910331726,-0.5043655633926392,0.15928305685520172,-0.33936116099357605,-0.9270722270011902,0.05958901345729828,-0.06261631846427917,0.027871787548065186
0.3428647588025657,0.17072825956513818,0.14635172696886417,-0.20038242638111115,-0.12523888051509857,-0.4859585762023926,0.16001111268997192,-0.3361864984035492,-0.928102970123291,0.07430286705493927,-0.04448971152305603,-0.01606518030166626
0.3406795041055098,0.17089459092120624,0.14165029042108843,-0.08807496726512909,-0.15710602700710297,-0.46205058693885803,0.16029003262519836,-0.33412763476371765,-0.9287980794906616,0.08351489901542664,-0.03258681297302246,-0.04517042636871338
0.33948249208142345,0.17086304420450663,0.13705975665784437,-0.008222481235861778,-0.15780670940876007,-0.4277980625629425,0.16032862663269043,-0.33299916982650757,-0.9291965961456299,0.09153293073177338,-0.02939698100090027,-0.04654192924499512
0.33900131282032314,0.1708508353732646,0.1327292039816612,0.04415612667798996,-0.1315142661333084,-0.39462170004844666,0.16034449636936188,-0.3325453996658325,-0.9293563365936279,0.10122166574001312,-0.036793529987335205,-0.03603672981262207
0.33897193208621523,0.17114168891211928,0.1286185941922585,0.07442508637905121,-0.08624798059463501,-0.37169960141181946,0.16061647236347198,-0.33251771330833435,-0.9293192625045776,0.09429687261581421,-0.046678394079208374,-0.026094555854797363
0.3391629301640718,0.17176977592550688,0.1246587269941732,0.08336670696735382,-0.05752025544643402,-0.3575837016105652,0.1611892729997635,-0.3326978385448456,-0.9291556477546692,0.08185271918773651,-0.04758167266845703,-0.012067556381225586
