attitudeX,attitudeY,attitudeZ,gyroX,gyroY,gyroZ,gravityX,gravityY,gravityZ,accX,accY,accZ
0.2246041335175616,0.3659918096734144,0.11731369394175187,0.2984767258167267,0.1838172972202301,-0.1463584452867508,0.3488866090774536,-0.2227204591035843,-0.910315215587616,-0.0390872061252594,-0.04024949669837952,-0.05150723457336426
0.22722136133242435,0.3680396550178683,0.11464264889589126,0.3856680691242218,0.10738005489110947,-0.14845141768455505,0.3505391478538513,-0.22527118027210236,-0.9090518355369568,-0.018278807401657104,-0.07438090443611145,-0.08560752868652344
0.23066971713861625,0.36989131579113405,0.11157171464645864,0.4792155623435974,0.14334529638290405,-0.16150517761707306,0.3519388735294342,-0.22862955927848816,-0.9076715111732483,-0.0010933279991149902,-0.05942584574222565,-0.12406671047210693
0.2349442213902958,0.37296105235118165,0.10794423211137734,0.580333948135376,0.32966724038124084,-0.18773837387561798,0.35436418652534485,-0.23278874158859253,-0.9056685566902161,-0.033822596073150635,-0.03784112632274628,-0.13897860050201416
0.24012122338435746,0.37870444523524105,0.10363191652456374,0.6950258016586304,0.620771586894989,-0.2099400758743286,0.3591095507144928,-0.23782037198543549,-0.9024865031242371,-0.07737106084823608,-0.04054570198059082,-0.18104004859924316
0.24630815934846834,0.387690541046249,0.09859872826462833,0.8174151182174683,0.9436129927635193,-0.2377120554447174,0.36664146184921265,-0.24382521212100983,-0.8978437185287476,-0.11131593585014343,-0.04458114504814148,-0.23937851190567017
0.2531070624656729,0.40041700742302305,0.09270239430539401,0.865303099155426,1.315081000328064,-0.3040478527545929,0.37738293409347534,-0.2504132390022278,-0.8915578126907349,-0.13531732559204102,-0.04189938306808472,-0.2794167995452881
0.25926011621974737,0.41689540871686476,0.08594794919486527,0.7648845911026001,1.627977728843689,-0.41213491559028625,0.39139115810394287,-0.25636547803878784,-0.8837928175926208,-0.16226497292518616,-0.04069262742996216,-0.2513999938964844
0.26314151977332506,0.4359383389452596,0.0787110046595097,0.5041782855987549,1.7888617515563965,-0.5433076024055481,0.4077259302139282,-0.26011520624160767,-0.875271201133728,-0.1892351508140564,-0.04142892360687256,-0.14674711227416992
0.2635237752402148,0.45559367256981337,0.0715370576909294,0.1628190577030182,1.7476475238800049,-0.6729276776313782,0.42480602860450745,-0.2604842782020569,-0.8669993281364441,-0.21144217252731323,-0.05041351914405823,0.006098508834838867
0.26039989166637356,0.47397072735334306,0.06471073820701281,-0.11210857331752777,1.5730479955673218,-0.7893432974815369,0.44103553891181946,-0.25746697187423706,-0.8597664833068848,-0.19953450560569763,-0.08165955543518066,0.12850439548492432
0.25502183617251545,0.4904889123566011,0.05771864582355408,-0.18854102492332458,1.3814375400543213,-0.9142753481864929,0.4558221995830536,-0.252266526222229,-0.8535735011100769,-0.17800521850585938,-0.10883265733718872,0.16898804903030396
0.2490515966281035,0.5054250399698579,0.04940828466251657,-0.07615990936756134,1.1998289823532104,-1.0811764001846313,0.46924081444740295,-0.2464849352836609,-0.8479730486869812,-0.15631335973739624,-0.12311343848705292,0.09611153602600098
0.2431307031305226,0.5192387734852068,0.038747985166583475,0.05333815887570381,0.9870482087135315,-1.3009719848632812,0.48162510991096497,-0.24074243009090424,-0.8426626920700073,-0.11654311418533325,-0.11677096784114838,0.0248984694480896
0.2373869988296207,0.5277569066504838,0.026151999226161904,0.18211829662322998,-0.007048209197819233,-1.376630187034607,0.48947376012802124,-0.23516370356082916,-0.8397104144096375,-0.019396036863327026,0.03342728316783905,-0.014720678329467773
0.23362742751070392,0.5242112586451791,0.012633658434898606,0.5314549803733826,-1.3378150463104248,-1.259345531463623,0.4869324564933777,-0.23150792717933655,-0.8422000408172607,-0.02129504084587097,0.11763161420822144,-0.015359044075012207
0.23477709555576146,0.5089197530865751,-0.0018616055313594078,1.0704295635223389,-2.3190064430236816,-1.092841386795044,0.4738675057888031,-0.23262619972229004,-0.8493142127990723,-0.1270655393600464,0.09325246512889862,-0.06332910060882568
0.24116837359056728,0.48721343122009203,-0.017847858225140522,1.512162446975708,-2.722726345062256,-1.0514910221099854,0.4546164870262146,-0.2388373464345932,-0.8580679297447205,-0.07400107383728027,0.08550183475017548,-0.11089557409286499
0.2504496868076129,0.46401585860161215,-0.035394921973679924,1.6647509336471558,-2.747371196746826,-1.1401500701904297,0.43358010053634644,-0.24783964455127716,-0.866362452507019,0.02207803726196289,0.09821198880672455,-0.08377176523208618
0.25976018454669525,0.4416770531351083,-0.0538357991901127,1.5504965782165527,-2.666825294494629,-1.253434658050537,0.4131157100200653,-0.2568487823009491,-0.873707115650177,0.09611603617668152,0.12991097569465637,0.024998068809509277
0.26758656809801884,0.4198200176305682,-0.07201254176766958,1.3480138778686523,-2.674018621444702,-1.2648518085479736,0.39309051632881165,-0.26440465450286865,-0.8806645274162292,0.15817919373512268,0.16902205348014832,0.1593053936958313
0.274709763277482,0.3969652106650311,-0.08868670458340554,1.2563345432281494,-2.830179452896118,-1.0976399183273315,0.3721245527267456,-0.2712675929069519,-0.8876582980155945,0.19780665636062622,0.1842314898967743,0.22345852851867676
0.28294226964630254,0.3708989754934314,-0.10282144256077143,1.3118669986724854,-3.21098256111145,-0.794901967048645,0.3480416238307953,-0.2791821360588074,-0.8949437737464905,0.2591668367385864,0.14722415804862976,0.12439024448394775
0.29415406450752685,0.3377844988129222,-0.11399618289926926,1.5717036724090576,-4.100334167480469,-0.45086151361465454,0.317163348197937,-0.2899303436279297,-0.9029661417007446,0.3094085156917572,0.11092954874038696,-0.007418930530548096
0.30994295176591363,0.29530618883159465,-0.12325071475016301,1.9966899156570435,-4.936209201812744,-0.2694706320762634,0.27716538310050964,-0.3050042986869812,-0.9111266136169434,0.3008377254009247,0.09664559364318848,-0.07437747716903687
0.33058512001674845,0.24705607581741093,-0.13199192760960865,2.4232516288757324,-5.076700210571289,-0.24680152535438538,0.231308713555336,-0.3245965242385864,-0.9171332716941833,0.30715885758399963,0.07511535286903381,-0.18415457010269165
0.35483074177900437,0.2035901636609703,-0.14094891984872096,2.6554815769195557,-4.289693355560303,-0.318000465631485,0.18959149718284607,-0.34743165969848633,-0.9183388948440552,0.35719209909439087,0.0807691216468811,-0.33349210023880005
0.3807678221424495,0.16715732780250414,-0.1497365319814065,2.747049570083618,-3.6087045669555664,-0.3337956666946411,0.1544637680053711,-0.3716334104537964,-0.9154395461082458,0.39703482389450073,0.11346998810768127,-0.5022392868995667
0.4075206750804718,0.1375213261183637,-0.1575337190035813,2.7507379055023193,-2.9839999675750732,-0.26789459586143494,0.12586160004138947,-0.3963342607021332,-0.9094383120536804,0.3769003748893738,0.17950689792633057,-0.3304451107978821
0.43376421275687166,0.11106829682682583,-0.1632560457163768,2.570913076400757,-2.8311471939086914,-0.10997553914785385,0.10057519376277924,-0.42028936743736267,-0.9017990231513977,0.2792162299156189,0.21231213212013245,-0.2401382327079773
0.45749224042929365,0.08540040455847152,-0.16611291825810726,2.1929755210876465,-2.4542365074157715,0.058633122593164444,0.07652498781681061,-0.4416996240615845,-0.8938934206962585,0.21912944316864014,0.19723862409591675,-0.11340028047561646
0.47702431611090657,0.06692885776444756,-0.16650873198070767,1.716084361076355,-1.2211750745773315,0.15819460153579712,0.059412881731987,-0.4591377079486847,-0.886376142501831,0.19856761395931244,0.13734513521194458,-0.051520586013793945
0.492041955969967,0.06072456900002232,-0.16542758079670108,1.263271689414978,0.040694400668144226,0.2242673933506012,0.053487926721572876,-0.4724265933036804,-0.8797454833984375,0.15929603576660156,0.05183336138725281,-0.110321044921875
0.5017607820790058,0.0650187844125778,-0.163241022263583,0.6391390562057495,0.9950363039970398,0.27687016129493713,0.056964222341775894,-0.48097002506256104,-0.8748844861984253,0.058651767671108246,0.005658775568008423,-0.03977310657501221
0.505002767895708,0.07762150073844817,-0.16024782176053165,-0.02822403982281685,1.8101375102996826,0.2872421145439148,0.0678640604019165,-0.48380985856056213,-0.8725379705429077,-0.05872390419244766,-0.02807670831680298,0.10970532894134521
0.5017315330647547,0.0979080718238793,-0.15657839682201594,-0.6794106364250183,2.6115126609802246,0.3008476793766022,0.08570393174886703,-0.4809443950653076,-0.872552216053009,-0.1007642149925232,-0.08956646919250488,0.16613131761550903
0.4923793098674833,0.125827876085646,-0.15168332472573878,-1.2691755294799805,3.4521803855895996,0.35449400544166565,0.11058850586414337,-0.47272390127182007,-0.8742438554763794,-0.08345822244882584,-0.13861945271492004,0.1653662919998169
0.47777492578898983,0.16106536365184057,-0.14464133845929394,-1.7976199388504028,4.243918418884277,0.4703359305858612,0.14241169393062592,-0.4598044157028198,-0.8765265941619873,-0.06817752122879028,-0.1659890115261078,0.1391608715057373
0.4586722590431756,0.19976093431797154,-0.13459137708365873,-2.283878803253174,4.174871921539307,0.6064260601997375,0.1779250204563141,-0.4427579939365387,-0.8788105845451355,-0.03615541756153107,-0.1657625138759613,0.09769797325134277
0.43626806254553907,0.22571832203665418,-0.12168393353289998,-2.543682098388672,1.9496722221374512,0.7142755389213562,0.20284368097782135,-0.42256003618240356,-0.8833445310592651,0.033637210726737976,-0.16775670647621155,0.07523906230926514
0.4135821361567415,0.22638085107228734,-0.10667696814942147,-2.4719676971435547,-0.4356069266796112,0.9433957934379578,0.20552797615528107,-0.4018920063972473,-0.8923234343528748,0.19799087941646576,-0.2105652391910553,-0.09513384103775024
0.3931816830000873,0.21104202106962092,-0.08991185306267997,-2.163269281387329,-1.0925791263580322,1.183505892753601,0.19349457323551178,-0.3831292390823364,-0.9032009243965149,0.18374864757061005,-0.1034582257270813,-0.2597324252128601
0.37674333233068996,0.19509790331133814,-0.07200478479881188,-1.7270383834838867,-0.7363490462303162,1.4027730226516724,0.18026654422283173,-0.36789414286613464,-0.9122268557548523,0.05000399053096771,-0.05680370330810547,-0.19719386100769043
0.364762816479329,0.18186071397375356,-0.053644119501213214,-1.2817866802215576,-0.6415959596633911,1.492545485496521,0.16896085441112518,-0.3567277193069458,-0.9188022613525391,0.23121632635593414,-0.20940381288528442,-0.24698442220687866
0.3565496574399233,0.16918131160012267,-0.03656976394048364,-0.9228419065475464,-0.6866793036460876,1.3412469625473022,0.15778572857379913,-0.34904298186302185,-0.9237276315689087,0.351827472448349,-0.24633967876434326,-0.3395475149154663
0.3504578069954418,0.15800919555930693,-0.02279465945492073,-0.7234331965446472,-0.575696587562561,1.0035549402236938,0.147787943482399,-0.3433278203010559,-0.9275153875350952,0.12035492062568665,-0.2347208559513092,-0.3764702081680298
0.3450802064340271,0.1502174999752646,-0.013025919275903816,-0.6324984431266785,-0.30194196105003357,0.6635469198226929,0.1408308744430542,-0.3382721543312073,-0.9304507374763489,-0.16390198469161987,-0.17466726899147034,-0.32504236698150635
0.3399281290771596,0.14642350792433542,-0.006121313509095612,-0.5825338363647461,-0.006832013372331858,0.5011081695556641,0.1375522017478943,-0.3334193229675293,-0.9326901435852051,-0.23604752123355865,-0.12258955836296082,-0.30948203802108765
0.33489011431050647,0.14509598886155547,2.9460959791199076e-06,-0.6000433564186096,0.1298891305923462,0.5102810263633728,0.13655506074428558,-0.3286654055118561,-0.9345222115516663,-0.17963045835494995,-0.10926184058189392,-0.30200421810150146
0.3289666228176316,0.14497595422285195,0.006524076227479814,-0.7749373912811279,0.2837383449077606,0.5381280779838562,0.13672176003456116,-0.32306525111198425,-0.9364486336708069,-0.10350321233272552,-0.10009145736694336,-0.20887601375579834
0.3206666132320929,0.14672466111471122,0.013534828487205929,-1.073627233505249,0.5165733098983765,0.535161018371582,0.13874636590480804,-0.31519925594329834,-0.9388284683227539,-0.11834518611431122,-0.11482390761375427,-0.0814352035522461
0.30923637578562085,0.1505848520920797,0.0209841018945827,-1.4009242057800293,0.720208466053009,0.5271704792976379,0.14290055632591248,-0.30433133244514465,-0.941786527633667,-0.17756834626197815,-0.12663790583610535,0.007155239582061768
0.2948681741444039,0.15638147443896772,0.029020197833098744,-1.6623228788375854,0.9155490398406982,0.56416916847229,0.14902298152446747,-0.29061371088027954,-0.9451644420623779,-0.21506285667419434,-0.11220303177833557,0.07265162467956543
0.2786633006057336,0.1640365597698086,0.03800522152835999,-1.8123397827148438,1.125920295715332,0.6075483560562134,0.15700235962867737,-0.27507075667381287,-0.9485179781913757,-0.15449975430965424,-0.08398374915122986,0.140153169631958
0.2609791841117129,0.17375116131031063,0.04693573480941964,-1.9745246171951294,1.281132459640503,0.48077353835105896,0.16702419519424438,-0.25802668929100037,-0.9515908360481262,0.04197561740875244,-0.11852967739105225,0.0963205099105835
0.24152627478704627,0.184746285297501,0.05476183409546776,-2.122663736343384,1.2977488040924072,0.3290572464466095,0.17836515605449677,-0.23918487131595612,-0.9544509053230286,0.04174304008483887,-0.1012386828660965,0.06625205278396606
0.22107958563197752,0.1956614725021272,0.06195608413309728,-2.1477081775665283,1.2032660245895386,0.28169339895248413,0.18968361616134644,-0.2192830592393875,-0.9570449590682983,-0.055055126547813416,0.0112752765417099,0.10502475500106812
0.20108398374735925,0.20544001414767865,0.06888738806514885,-2.034877061843872,1.0442674160003662,0.24806885421276093,0.19988751411437988,-0.19973158836364746,-0.9592456817626953,-0.04124170541763306,0.06298235058784485,0.09587287902832031
0.18271763986570425,0.21343546248536352,0.07530632963332301,-1.8150831460952759,0.7744275331497192,0.22639311850070953,0.208292618393898,-0.1817026436328888,-0.9610402584075928,-0.016458958387374878,0.08058269321918488,0.08816128969192505
0.16691022715385592,0.21757681871598616,0.0811491513815706,-1.5235786437988281,0.2183523178100586,0.21509040892124176,0.21286429464817047,-0.16613630950450897,-0.9628538489341736,0.01913049817085266,0.12122973799705505,0.11391592025756836
0.1536353623131407,0.21507853280975142,0.08564330818477707,-1.2813152074813843,-0.5963874459266663,0.052627261728048325,0.21091029047966003,-0.15303167700767517,-0.9654523134231567,0.0684935599565506,0.15437449514865875,0.170332133769989
0.14144440033409753,0.20454307053864962,0.08688683059659733,-1.1758073568344116,-1.4616849422454834,-0.35017237067222595,0.20109130442142487,-0.14097324013710022,-0.969375491142273,0.03627459704875946,0.1165134459733963,0.2617797255516052
0.12904121966392826,0.18765105935048132,0.08317018156660438,-1.1105618476867676,-1.953726053237915,-0.8554939031600952,0.18500065803527832,-0.12868338823318481,-0.9742768406867981,-0.05755908787250519,0.05019223690032959,0.37190568447113037
0.11712988284182005,0.16922184273648921,0.07467499276989954,-0.9303448796272278,-1.9005059003829956,-1.1971575021743774,0.16726139187812805,-0.1168622374534607,-0.9789621233940125,-0.14669238030910492,0.030741684138774872,0.3525278568267822
0.10650103988954529,0.1523816540822911,0.06338851212398751,-0.8482361435890198,-1.715736985206604,-1.350947380065918,0.15093258023262024,-0.10629982501268387,-0.9828121662139893,-0.1733475625514984,0.06502483785152435,0.12143826484680176
0.0957081212387112,0.13824861819989692,0.05067467767488152,-0.941089391708374,-1.3627864122390747,-1.4637465476989746,0.137177973985672,-0.09556207060813904,-0.9859260320663452,-0.12754949927330017,0.07918943464756012,0.042444586753845215
0.08403781825478246,0.1286951768112834,0.037261826407372745,-1.014831781387329,-0.7415693998336792,-1.4783872365951538,0.1278872936964035,-0.08393893390893936,-0.988230288028717,-0.14580094814300537,0.10113564878702164,0.17428076267242432
0.07217528823966342,0.12701600565387594,0.024747266790944623,-1.0299816131591797,0.21834459900856018,-1.2771878242492676,0.1263449639081955,-0.07211264222860336,-0.9893617630004883,-0.14267170429229736,0.15164151787757874,0.11939722299575806
0.06039810965694587,0.13416416033051914,0.01506246556776371,-1.0674172639846802,1.036130428314209,-0.9442625641822815,0.13351812958717346,-0.06036139652132988,-0.9892064332962036,-0.02457021176815033,0.16657787561416626,-0.02260380983352661
0.048460041724487896,0.14693475253975233,0.008952892094223584,-1.132891297340393,1.3954404592514038,-0.600663959980011,0.14623473584651947,-0.0484410785138607,-0.9880632162094116,0.10138507187366486,0.20745296776294708,-0.002613663673400879
0.03661011874528316,0.16160130522251048,0.006446149105684773,-1.124159574508667,1.5274543762207031,-0.2637181878089905,0.1607910394668579,-0.03660194203257561,-0.9863095283508301,0.16530472040176392,0.2479057013988495,0.12736183404922485
0.026063113750743626,0.17852057305125543,0.007244427699987589,-0.9704165458679199,1.8911025524139404,0.06515397131443024,0.17751353979110718,-0.026060163974761963,-0.9837732315063477,0.22373174130916595,0.25127995014190674,0.17902475595474243
0.01825282096235365,0.19901244562709763,0.011166474327628748,-0.7135294079780579,2.183361768722534,0.42292267084121704,0.1976684331893921,-0.018251808360219002,-0.9800990223884583,0.21000081300735474,0.19653555750846863,0.08530837297439575
0.013765065427085589,0.22125923745521753,0.018215081059966776,-0.46263670921325684,2.307778835296631,0.743986189365387,0.21943753957748413,-0.013764631003141403,-0.9755294322967529,0.1808159351348877,0.17024357616901398,0.016270458698272705
0.012447494467671726,0.2452859852030756,0.026655091337822675,-0.1773427128791809,2.5444412231445312,0.8099015951156616,0.24281494319438934,-0.012447172775864601,-0.9699927568435669,0.15308977663516998,0.20186984539031982,0.09188002347946167
0.01432605250749456,0.27227465328853206,0.03420436452483226,0.1579844206571579,2.879359245300293,0.7470225095748901,0.26889538764953613,-0.014325562864542007,-0.9630628228187561,0.0020856261253356934,0.09361028671264648,0.09354078769683838
0.01959432927146479,0.30203862135547704,0.04025653006263102,0.5101221203804016,3.0786216259002686,0.7270636558532715,0.2974100708961487,-0.019593074917793274,-0.9545487761497498,-0.12199482321739197,-0.0064536202698946,0.05949878692626953
0.028506689841382066,0.3327201658027362,0.04544389098135758,0.8613688349723816,3.0619935989379883,0.8385981917381287,0.32648253440856934,-0.028502829372882843,-0.9447733759880066,-0.11681133508682251,-0.008057178929448128,0.07754021883010864
0.041594405246216326,0.3620901234805502,0.05093126570852356,1.2305933237075806,2.8391659259796143,1.1089872121810913,0.3539232313632965,-0.041582413017749786,-0.9343496561050415,-0.06980440020561218,0.03790510073304176,0.12003391981124878
0.059599479091994596,0.3884633571056181,0.058074209038643514,1.5943893194198608,2.522564649581909,1.5632373094558716,0.3780941963195801,-0.05956420302391052,-0.9238489270210266,0.041385382413864136,0.0986114889383316,0.17041581869125366
0.08269987043649192,0.41207437085844884,0.06820360399724788,1.8601055145263672,2.3675358295440674,2.1043381690979004,0.3991421163082123,-0.08260563760995865,-0.9131603837013245,0.15896356105804443,0.12113412469625473,0.186048686504364
0.10962139677182801,0.4334326648693966,0.08164191979377493,1.930364966392517,2.152928590774536,2.522226572036743,0.41746756434440613,-0.10940197855234146,-0.9020820260047913,0.2389504611492157,0.09518082439899445,0.2075478434562683
0.13816975038792007,0.45254618750195197,0.09716566578708939,1.913904070854187,2.060091972351074,2.682056188583374,0.43308964371681213,-0.13773053884506226,-0.8907657861709595,0.2180183231830597,0.06448838114738464,0.32625168561935425
0.16711075725335708,0.4694324020072133,0.11284677339753137,1.9075111150741577,1.8159931898117065,2.671752691268921,0.44607827067375183,-0.16633404791355133,-0.8794016242027283,-0.020190000534057617,0.05613510310649872,0.41532087326049805
0.196372456720118,0.4844803687180013,0.12765605659033716,1.9527677297592163,1.711423397064209,2.6021695137023926,0.4567973017692566,-0.19511279463768005,-0.8679097294807434,-0.23755881190299988,-0.04039134085178375,0.4590047597885132
0.22516542010136398,0.4960325825477512,0.14116917287229783,1.870733380317688,1.0972367525100708,2.4432384967803955,0.4639259874820709,-0.22326761484146118,-0.8572772741317749,-0.2565283179283142,-0.15025228261947632,0.5595936179161072
0.2522637758379456,0.49960394374814193,0.15370690959178873,1.7318967580795288,0.2069074809551239,2.3078954219818115,0.46391505002975464,-0.2495967298746109,-0.8499907851219177,-0.2555561065673828,-0.2045811116695404,0.6758881211280823
0.277911175597875,0.4944272732282273,0.16609112881954494,1.6579558849334717,-0.5523879528045654,2.2612383365631104,0.45632025599479675,-0.27434757351875305,-0.8464663624763489,-0.20249012112617493,-0.24309322237968445,0.8209842443466187
0.30357855826730595,0.4827310604208063,0.1788078608551661,1.7641252279281616,-1.0425968170166016,2.324251413345337,0.44297337532043457,-0.29893702268600464,-0.8452285528182983,-0.16059398651123047,-0.23313695192337036,0.7584519386291504
0.3314728902152438,0.46555963910551573,0.19192308782682857,2.0956308841705322,-1.617722988128662,2.4486083984375,0.4244854152202606,-0.3254360854625702,-0.8449281454086304,-0.1106119155883789,-0.2240634262561798,0.5512422919273376
0.3634790174383669,0.4408301022711337,0.2044758143259291,2.6620781421661377,-2.5118961334228516,2.464961528778076,0.39881280064582825,-0.3555280864238739,-0.8453094959259033,-0.05245339870452881,-0.2033097743988037,0.40607011318206787
0.4013465082085443,0.4068565064528587,0.21442872331555932,3.532588481903076,-3.5662245750427246,2.3313329219818115,0.36427849531173706,-0.3906581997871399,-0.8453918695449829,-0.10103365778923035,-0.1539127230644226,0.3244110941886902
0.44763753891812,0.3634305918805738,0.22027416402158764,4.6674394607543945,-4.62795877456665,2.1310441493988037,0.3204578757286072,-0.43283703923225403,-0.8425905704498291,-0.16735100746154785,-0.14855334162712097,0.20396453142166138
0.5029135737389466,0.31228883356623993,0.22208267169149057,5.62416934967041,-5.449686050415039,1.8346036672592163,0.2691960334777832,-0.48198041319847107,-0.8338035941123962,-0.19068938493728638,-0.16047567129135132,0.047930240631103516
0.5645369610668929,0.253449578939937,0.22157289824720172,6.216688632965088,-6.411349773406982,1.5433932542800903,0.21183836460113525,-0.5350247025489807,-0.8178466558456421,-0.2788090109825134,-0.2015017867088318,0.053503453731536865
0.6303394040419819,0.18425197410377195,0.22208017046391604,6.629207611083984,-7.386237144470215,1.4364523887634277,0.14800307154655457,-0.5894189476966858,-0.7941539287567139,-0.22368648648262024,-0.2538885474205017,0.24502068758010864
0.7002350653642316,0.10173925289581505,0.22853950454782745,7.1114091873168945,-8.334036827087402,1.6094578504562378,0.07766492664813995,-0.6443974375724792,-0.7607365846633911,-0.05972042679786682,-0.257290244102478,0.3336583971977234
0.7750355536284214,0.001905502287410841,0.24759563473131008,7.716882705688477,-9.012720108032227,2.0034143924713135,0.0013612827751785517,-0.6997414827346802,-0.7143949270248413,0.19932246208190918,-0.1980246901512146,0.3144925832748413
0.8529336664908597,-0.11713583322808227,0.28644573602549867,8.137046813964844,-9.109820365905762,2.4345366954803467,-0.07687310874462128,-0.7532133460044861,-0.6532689332962036,0.332763135433197,-0.06102621555328369,0.2390691041946411
0.928584515163455,-0.2587505560041521,0.3517601372495801,8.268956184387207,-9.07091236114502,2.803985595703125,-0.153259739279747,-0.8007729053497314,-0.579028844833374,0.33375608921051025,-0.01456528902053833,0.22861075401306152
0.9966686797037857,-0.42770563598382594,0.44799582493776674,8.259982109069824,-8.849149703979492,2.942707061767578,-0.22527040541172028,-0.8396664261817932,-0.4941798448562622,0.3566640019416809,0.05333513021469116,0.3095637857913971
1.0523652953114158,-0.6200462675791542,0.5746576375150737,7.92613410949707,-7.929725646972656,2.887335777282715,-0.2879321575164795,-0.868597686290741,-0.40327826142311096,0.13569533824920654,0.07861953973770142,0.3346136808395386
1.090121366051663,-0.8260538147016514,0.7238601262499731,7.165399551391602,-7.11187744140625,2.864164113998413,-0.33996909856796265,-0.8866830468177795,-0.31339162588119507,-0.1698879897594452,-0.14413982629776,0.34244436025619507
1.1067455102930934,-1.0304976042547223,0.8787893708293076,6.091421604156494,-6.134639739990234,2.943415641784668,-0.38381966948509216,-0.8942468166351318,-0.23022876679897308,-0.1586301624774933,-0.2566932439804077,0.4324077367782593
1.1039142319218906,-1.2098800501649736,1.0166553818546213,4.820396423339844,-5.159566879272461,2.94036602973938,-0.4211060702800751,-0.8929759860038757,-0.1589462012052536,-0.20505356788635254,-0.33871370553970337,0.5420791506767273
1.0886595654960016,-1.3535481917847123,1.1236368243110897,3.7329037189483643,-4.563832759857178,2.756593942642212,-0.45277470350265503,-0.8860061764717102,-0.09994173794984818,-0.2658684253692627,-0.4628862142562866,0.5944027900695801
1.0684627391631099,-1.4643643288863977,1.2012775561467735,2.89158296585083,-3.9196722507476807,2.400418281555176,-0.47874775528907776,-0.876461386680603,-0.051147352904081345,-0.4231991469860077,-0.5292698740959167,0.504989504814148
1.0484164797286095,-1.5475710303361385,1.255096281872684,2.116424083709717,-3.3674278259277344,1.9464969635009766,-0.4988095164299011,-0.8666342496871948,-0.011587082408368587,-0.6745607256889343,-0.7221872806549072,0.36665910482406616
1.031066458126578,-1.6056720978282297,1.2873215414238601,1.1252896785736084,-2.658327341079712,1.5178111791610718,-0.513592004776001,-0.8578475117683411,0.017919182777404785,-0.7924992442131042,-0.8814104199409485,0.2563422918319702
1.0179172790372601,-1.6336472409332667,1.2945583023343399,-0.3002898693084717,-1.6871646642684937,1.070090651512146,-0.5241028666496277,-0.8510161638259888,0.03298378735780716,-0.9125425815582275,-1.0008974075317383,0.24446678161621094
1.010432620386031,-1.6245342876708515,1.27085969659308,-2.1681618690490723,-0.4864887595176697,0.5752946734428406,-0.5307273268699646,-0.8470618724822998,0.028547687456011772,-1.0156288146972656,-1.1215051412582397,0.37048494815826416
1.0083701238529332,-1.5722348407459996,1.2102574999167293,-4.2832112312316895,0.6487009525299072,-0.005259476602077484,-0.5332399606704712,-0.8459638357162476,0.0007670737104490399,-1.1140530109405518,-1.2259204387664795,0.5113483667373657
1.0101494823414858,-1.4773456052969602,1.111597704374525,-6.153820037841797,1.6482834815979004,-0.8563187122344971,-0.5294141173362732,-0.8469113111495972,-0.04961865767836571,-1.1855669021606445,-1.2563755512237549,0.6342286467552185
1.0126979306219002,-1.3434991027884595,0.98007064737605,-7.5021209716796875,2.8469655513763428,-1.881821870803833,-0.5159533023834229,-0.848263680934906,-0.11933701485395432,-1.3524854183197021,-1.1373932361602783,0.5330790877342224
1.0111438957105905,-1.175688761528667,0.8223320758059074,-8.501629829406738,3.9289236068725586,-2.936776876449585,-0.489989310503006,-0.847439706325531,-0.20434421300888062,-1.5036324262619019,-0.989550769329071,0.1877274066209793
0.9991249005307494,-0.9830111338419717,0.645759518049247,-9.31913948059082,4.765037536621094,-3.8518404960632324,-0.45023658871650696,-0.8409978151321411,-0.3000163733959198,-1.4537092447280884,-0.7869014739990234,-0.03943067789077759
0.9695481812381666,-0.7794569693746226,0.4631434356844376,-10.028185844421387,5.499403953552246,-4.399467468261719,-0.3976072669029236,-0.8246302008628845,-0.40236008167266846,-1.2544465065002441,-0.49127262830734253,-0.04447835683822632
0.9174764974294681,-0.5842770170091539,0.29439969609543426,-10.520090103149414,6.186047077178955,-4.3616108894348145,-0.3352746367454529,-0.794070303440094,-0.506994366645813,-0.9711980223655701,-0.1000794768333435,0.07777988910675049
0.8438409117971571,-0.41250400951507615,0.15683452140047358,-10.777264595031738,6.938948154449463,-4.002138137817383,-0.26644033193588257,-0.7472012639045715,-0.6088513731956482,-0.6317376494407654,0.36521267890930176,0.18715941905975342
0.7553097614328321,-0.2648012520163437,0.053242057033433515,-10.692266464233398,7.719715118408203,-3.7709808349609375,-0.19054582715034485,-0.6855142116546631,-0.7026824951171875,-0.2621975839138031,0.7739693522453308,0.19143670797348022
0.6609681324276737,-0.13593375536622243,-0.02173244771596241,-10.016260147094727,8.255081176757812,-3.6414575576782227,-0.10697571933269501,-0.6138814091682434,-0.7821162939071655,-0.06912583112716675,0.9639790058135986,0.07793843746185303
0.5703289966057316,-0.02253302701225726,-0.07400956411892737,-8.695122718811035,8.326714515686035,-3.415013313293457,-0.018964970484375954,-0.5399090051651001,-0.8415097594261169,-0.018129007890820503,1.0253368616104126,-0.14133942127227783
0.49152658248375974,0.07592103907930595,-0.10917556202662036,-6.872964382171631,7.731627464294434,-3.059304714202881,0.06686872243881226,-0.4719722867012024,-0.8790737986564636,0.09371493011713028,1.0650662183761597,-0.4079440236091614
0.4309997824120537,0.15816286133734764,-0.1330185505275362,-4.6267991065979,6.583085060119629,-2.5767648220062256,0.14310026168823242,-0.4177793562412262,-0.8972082734107971,0.22819198668003082,1.1004118919372559,-0.5650261640548706
0.39331454148685707,0.22453341578471786,-0.15057913894661404,-2.1767945289611816,5.303987979888916,-2.0137438774108887,0.2056507021188736,-0.38325196504592896,-0.9004586338996887,0.28218820691108704,1.1311157941818237,-0.6832205653190613
0.3788383940002929,0.27730132746350267,-0.16644843852167743,0.05301910266280174,4.105706691741943,-1.5735598802566528,0.2543500065803528,-0.36984148621559143,-0.8936013579368591,0.33184704184532166,1.139174461364746,-0.8046865463256836
0.3841211167388115,0.3206436394976131,-0.18417934916814047,1.8681917190551758,3.3236706256866455,-1.2539836168289185,0.2922098934650421,-0.3747444450855255,-0.8798750042915344,0.29224762320518494,1.1267129182815552,-0.7684556245803833
0.4043304642509926,0.35934500969313854,-0.2037575348879731,3.0590081214904785,2.984445095062256,-0.7807075381278992,0.32330530881881714,-0.3934032917022705,-0.8606436848640442,0.1464977264404297,1.151475191116333,-0.5783821940422058
0.43317066186895237,0.3968341162457921,-0.22196872144448343,3.4399948120117188,3.0866892337799072,-0.1764240711927414,0.35080304741859436,-0.41975072026252747,-0.8371061086654663,0.15441566705703735,1.20786714553833,-0.2888704538345337
0.4640589628078487,0.4348594532429964,-0.2354106145694556,3.134514808654785,3.372673511505127,0.4582407772541046,0.37672939896583557,-0.4475814700126648,-0.8110153079032898,0.20386770367622375,1.2452499866485596,0.11541295051574707
0.49288924006644413,0.47230969546027074,-0.24123986167821188,2.4937021732330322,3.566744327545166,1.1489344835281372,0.40079206228256226,-0.47317320108413696,-0.7845208644866943,0.21961519122123718,1.2493573427200317,0.5030419826507568
0.5190626109168477,0.5063846877375033,-0.23755845305218964,1.8356958627700806,3.6112475395202637,1.876929759979248,0.4211343824863434,-0.4960664212703705,-0.7593181133270264,0.26880723237991333,1.2025483846664429,0.7676952481269836
0.543280853681138,0.5359290927045496,-0.2244883341701754,1.261842966079712,3.6356542110443115,2.47404408454895,0.4371167719364166,-0.5169472098350525,-0.7359990477561951,0.3196430504322052,1.1197152137756348,0.8995885848999023
0.5663450351276994,0.5608969645612288,-0.20377879435201554,0.8710671663284302,3.5236847400665283,2.936821460723877,0.4488919973373413,-0.5365513563156128,-0.7145688533782959,0.2602604329586029,1.0479801893234253,0.916244387626648
0.5901249643448998,0.5798422672744865,-0.1774047776347586,0.7872909903526306,3.118014335632324,3.351470470428467,0.45522770285606384,-0.5564648509025574,-0.6950645446777344,0.14448872208595276,1.0050275325775146,0.8715478181838989
0.6166459789766451,0.5910029902666738,-0.14817445676398408,1.0105719566345215,2.422464370727539,3.5712273120880127,0.4545716941356659,-0.5783021450042725,-0.6774447560310364,0.09082341194152832,0.9910218715667725,0.7952731847763062
0.6468862698872384,0.5952750088834154,-0.12003869468438937,1.4954019784927368,1.7611570358276367,3.5919880867004395,0.4474477469921112,-0.6027047038078308,-0.6607099771499634,0.018265962600708008,0.9490639567375183,0.6976058483123779
0.6817189132172798,0.5937406836825551,-0.09476664409409677,2.044139862060547,1.0314152240753174,3.632979393005371,0.434419721364975,-0.6301286816596985,-0.6435972452163696,-0.12991511821746826,0.8648393750190735,0.5915953516960144
0.7209990554513529,0.5849005994056322,-0.07121636349628056,2.467057466506958,0.24618692696094513,3.751322031021118,0.4147205054759979,-0.6601354479789734,-0.6262813210487366,-0.1522691249847412,0.8178502321243286,0.5549160242080688
0.7635742452771546,0.5675156569942965,-0.046592690985960125,2.6714489459991455,-0.3568347692489624,3.9606690406799316,0.38830143213272095,-0.6915077567100525,-0.609129786491394,-0.10021528601646423,0.8035377860069275,0.6605215072631836
0.8076931767578094,0.5413773596198851,-0.016975240799145523,2.597120761871338,-0.6530227661132812,4.271634578704834,0.35617029666900635,-0.7226946949958801,-0.5923303961753845,-0.04969733953475952,0.7700731754302979,0.7673029899597168
0.8511707490609844,0.5051804250990506,0.021790137307724902,2.3105862140655518,-0.8714099526405334,4.6236701011657715,0.31898313760757446,-0.7520525455474854,-0.5767728090286255,-0.02105507254600525,0.7223283052444458,0.8510496020317078
0.8920655389851685,0.4570783609159694,0.07173553381122288,1.970873475074768,-1.0964787006378174,4.853851318359375,0.27706843614578247,-0.7783701419830322,-0.5633588433265686,-0.009978413581848145,0.705417811870575,0.9353224039077759
0.9289370256789957,0.39785548536255244,0.13183236785675131,1.6979689598083496,-1.2507151365280151,4.9150519371032715,0.23195618391036987,-0.8009840250015259,-0.5519248843193054,-0.10124918818473816,0.6799207329750061,0.9642632007598877
0.9614383288213477,0.32831406099671384,0.20058637017453043,1.539482831954956,-1.558382511138916,4.941456317901611,0.18455009162425995,-0.8200156092643738,-0.5417710542678833,-0.2522226572036743,0.5608755350112915,0.9246599078178406
0.9904400014301391,0.24561210978196024,0.2771621849102924,1.6363327503204346,-2.362191915512085,4.934287071228027,0.13332457840442657,-0.8362672924995422,-0.5318662524223328,-0.29552534222602844,0.44342970848083496,0.88338303565979
1.018096887798379,0.1472109052033113,0.35949653244918905,2.102975606918335,-3.450976610183716,4.827938079833984,0.07700493931770325,-0.8511104583740234,-0.5193085074424744,-0.2839444875717163,0.41592973470687866,0.8440156579017639
1.046787831332112,0.030223916678954132,0.44815581086163603,2.821747303009033,-4.752238750457764,4.755566120147705,0.015120384283363819,-0.8658204674720764,-0.5001264214515686,-0.2453601062297821,0.34790652990341187,0.7215772867202759
1.0768009637696587,-0.10733209470979471,0.5470029691559299,3.5211567878723145,-5.3533124923706055,4.660552978515625,-0.0507935993373394,-0.8804454803466797,-0.4714190661907196,-0.15837372839450836,0.2945994734764099,0.5925739407539368
1.1047787080700313,-0.2602473227584691,0.6602288815627974,3.839265823364258,-5.124991416931152,4.613420486450195,-0.11562201380729675,-0.8933647871017456,-0.43420174717903137,-0.3582700490951538,0.26662516593933105,0.45647960901260376
1.1253974919975933,-0.42553614538285267,0.7876629937471468,3.791478395462036,-5.093464374542236,4.575247764587402,-0.17784567177295685,-0.9024389386177063,-0.3923967182636261,-0.4941360056400299,0.15681803226470947,0.447221577167511
1.1353948365936117,-0.5975570034916926,0.9225875098683947,3.57190203666687,-4.851106643676758,4.483983993530273,-0.23730090260505676,-0.9067007899284363,-0.3486866354942322,-0.4777563810348511,0.09308665990829468,0.5845417976379395
1.1340869632949642,-0.7640809915018817,1.054435367785256,3.247203826904297,-4.632697582244873,4.340593338012695,-0.2926350235939026,-0.906148374080658,-0.3053850531578064,-0.5890939235687256,-0.04061383008956909,0.6669116020202637
1.123382451116272,-0.9229969239743013,1.1764864984885395,3.2062766551971436,-5.167716979980469,4.2262396812438965,-0.34498944878578186,-0.9015689492225647,-0.26106658577919006,-0.5146448016166687,-0.19877290725708008,0.7090036869049072
1.1062925308958118,-1.0831076140734934,1.2937551875632494,3.7357583045959473,-5.815642356872559,4.225438117980957,-0.39575305581092834,-0.8940439820289612,-0.20991648733615875,-0.3796526789665222,-0.1390523910522461,0.6884779930114746
1.0840120466941217,-1.2536403847035928,1.4143377680893332,4.752379894256592,-6.978081703186035,4.196079254150391,-0.44445616006851196,-0.8838416934013367,-0.14588649570941925,-0.31556880474090576,-0.11458683013916016,0.5340853929519653
1.055236855350025,-1.4471544274954284,1.5457411132731325,6.405681610107422,-8.713386535644531,4.191226482391357,-0.4892582595348358,-0.8700170516967773,-0.06080297380685806,-0.17321723699569702,-0.03643149137496948,0.37328779697418213
1.0140617125554423,-1.6683832146571256,1.6926824729944399,8.542145729064941,-10.246110916137695,4.232278823852539,-0.5259027481079102,-0.8489851355552673,0.05148475244641304,-0.06821334362030029,0.14917117357254028,0.23844754695892334
0.9520994610741302,-1.9014159767469618,1.84401283058745,10.386853218078613,-10.88795280456543,4.25933837890625,-0.5485638380050659,-0.8146349191665649,0.18827663362026215,-0.010319828987121582,0.27180320024490356,0.0628679096698761
0.8701964638146714,-2.1031646213049857,1.9716495113170132,10.423423767089844,-9.072489738464355,3.9963343143463135,-0.5554581880569458,-0.7644556164741516,0.32722195982933044,-0.20430737733840942,0.3032737970352173,0.06183147430419922
0.7859815165538042,-2.2456897956740094,2.056617066032458,8.450708389282227,-7.051389694213867,3.301877737045288,-0.5517682433128357,-0.7075191736221313,0.44155263900756836,-0.7747697234153748,-0.11219841241836548,0.5033785104751587
0.7165440333772528,-2.343862811486056,2.1037235823890432,5.986683368682861,-6.2963547706604,2.5604095458984375,-0.5397498607635498,-0.6567825078964233,0.5265993475914001,-0.9280233979225159,-0.4580247402191162,1.3476988077163696
0.6638666907808496,-2.421434482640338,2.128599142760854,4.488806247711182,-6.083630561828613,1.9652436971664429,-0.5194353461265564,-0.616166889667511,0.5920518040657043,-0.854526937007904,-0.5431196689605713,1.7991225719451904
0.619446703961269,-2.4918317593366113,2.145941993001112,4.283306121826172,-5.9697747230529785,1.5027363300323486,-0.49258771538734436,-0.5805847644805908,0.648289144039154,-0.8446619510650635,-0.5372895002365112,1.6880451440811157
0.5758384272153028,-2.5622137868110024,2.1642920209562524,4.628629684448242,-6.077157497406006,1.0602179765701294,-0.4592117369174957,-0.5445381999015808,0.7018569707870483,-0.6816879510879517,-0.579012393951416,1.1091630458831787
0.5304369390474359,-2.6341080329886757,2.184536049304059,4.910374164581299,-6.183345317840576,0.696813702583313,-0.41920018196105957,-0.5059102773666382,0.7538745403289795,-0.6971786022186279,-0.5467480421066284,0.7215133905410767
0.4840726560180227,-2.7056246931316044,2.2042775495431175,4.894907474517822,-6.211738109588623,0.4670313000679016,-0.37377020716667175,-0.465387761592865,0.802315890789032,-0.6852202415466309,-0.4875238835811615,0.6308356523513794
0.4388573978892968,-2.7745555576342866,2.220713186127294,4.552004337310791,-6.108123302459717,0.3733665943145752,-0.32484591007232666,-0.4249054193496704,0.844944179058075,-0.6008284091949463,-0.47493600845336914,0.681361973285675
0.39802201739685655,-2.838793755018939,2.232218595956381,3.8101134300231934,-5.798166275024414,0.3325178921222687,-0.27488309144973755,-0.3875957429409027,0.879891574382782,-0.4931069612503052,-0.5377431511878967,0.8364934325218201
0.36605765465886425,-2.896852218987678,2.2385202898706766,2.619677782058716,-5.356164932250977,0.2715837061405182,-0.22625085711479187,-0.3579370677471161,0.9059205651283264,-0.47656893730163574,-0.6544227600097656,0.9761291742324829
0.3474277326378936,-2.9488229553328096,2.240573254948025,1.0694500207901,-4.89525032043457,0.17728960514068604,-0.18013162910938263,-0.34048035740852356,0.9228361248970032,-0.5345289707183838,-0.7898909449577332,1.1864171028137207
0.3456082361190066,-2.9937759648927877,2.2392359720031774,-0.7924039363861084,-4.149245738983154,0.15496964752674103,-0.13857033848762512,-0.33876901865005493,0.9306095242500305,-0.6394142508506775,-0.9187537431716919,1.4124691486358643
0.36366130642406164,-3.028876099449536,2.235206561058963,-2.9067764282226562,-3.156552791595459,0.12262355536222458,-0.10512208938598633,-0.35569846630096436,0.928670346736908,-0.7381243705749512,-1.0225976705551147,1.570292353630066
0.40300206761399066,-3.0541351960161465,2.230504550028045,-5.000437259674072,-2.268312454223633,-0.03835201635956764,-0.08034854382276535,-0.3921816647052765,0.9163721799850464,-0.8036235570907593,-1.0468443632125854,1.6439154148101807
0.46188493167048156,-3.070192690565381,2.2268323338698317,-6.754284858703613,-1.2256304025650024,-0.2196945697069168,-0.06386397778987885,-0.4456363022327423,0.8929334878921509,-0.9826905727386475,-0.8862426280975342,1.5962024927139282
0.5359359380537191,-3.0762994109022372,2.224439537357935,-8.01341438293457,-0.2641541361808777,-0.35031968355178833,-0.05609869211912155,-0.5106459856033325,0.8579593300819397,-1.0586931705474854,-0.6704760193824768,1.3842893838882446
0.6201496210195045,-3.0741246770565334,2.222288038135803,-8.791520118713379,0.4472511112689972,-0.39528220891952515,-0.05486324802041054,-0.5811569094657898,0.8119404315948486,-0.9587017893791199,-0.4605303406715393,1.0249433517456055
0.7105064175622219,-3.0644073724870884,2.2194427235371332,-9.281076431274414,1.1559686660766602,-0.4706467390060425,-0.05845083296298981,-0.6522177457809448,0.7557750940322876,-0.8171136975288391,-0.21501576900482178,0.696922779083252
0.8054810611027595,-3.0469507210976503,2.2158606870296405,-9.719474792480469,1.8360227346420288,-0.646100640296936,-0.06546676903963089,-0.7211639881134033,0.6896646022796631,-0.6756678223609924,-0.05488300323486328,0.42346423864364624
0.9047342069418159,-3.0220048128049135,2.2112256386709808,-10.106815338134766,2.4671432971954346,-0.8666045069694519,-0.07371671497821808,-0.7862609624862671,0.6134818196296692,-0.6013778448104858,0.11615580320358276,0.2665840983390808
1.0074984347680775,-2.9867240648775093,2.203140008597304,-10.41578483581543,3.3187897205352783,-0.9933821558952332,-0.0823662281036377,-0.8454987406730652,0.5275871157646179,-0.554947555065155,0.3185972571372986,0.16023337841033936
1.1133424772724678,-2.930815600391268,2.1839632346535978,-10.801511764526367,4.563258171081543,-0.9965702295303345,-0.09240525215864182,-0.8971799612045288,0.43189120292663574,-0.4573536217212677,0.46035104990005493,0.04461032152175903
1.222553374376374,-2.8349343158075104,2.1367015788871293,-11.300621032714844,5.892217636108398,-0.9994434118270874,-0.10301397740840912,-0.939973771572113,0.32532763481140137,-0.3346538245677948,0.6042037606239319,-0.0062358081340789795
1.3326454268346837,-2.652971653758279,2.014814121016276,-11.716690063476562,7.12393856048584,-1.0037617683410645,-0.11073705554008484,-0.9717758297920227,0.20830188691616058,-0.23829244077205658,0.8182721138000488,0.04040113091468811
1.4303914673769247,-2.2129911373076374,1.6455084422760646,-11.8833589553833,8.2028169631958,-0.9937286376953125,-0.11206547170877457,-0.9901593923568726,0.08382058888673782,-0.12554430961608887,0.9852306842803955,0.08028769493103027
1.4579648713463875,-1.1816393721931029,0.6940867752230597,-11.700225830078125,9.049076080322266,-0.9311808347702026,-0.10417383909225464,-0.9936412572860718,-0.042718540877103806,0.004823960363864899,1.1022838354110718,0.07608950138092041
1.3841027817489988,-0.48172760118502955,0.0814449886822252,-11.09140682220459,9.58933162689209,-0.7613922357559204,-0.08599577844142914,-0.9826233386993408,-0.1644880473613739,0.150799959897995,1.1994811296463013,0.026289165019989014
1.2866603117993636,-0.21053010789604415,-0.09701433936548677,-9.980069160461426,9.887792587280273,-0.4371470510959625,-0.05858259275555611,-0.9599041938781738,-0.2741389870643616,0.29259151220321655,1.2833752632141113,-0.08326762914657593
1.1955164128620275,-0.06815905727044239,-0.14215518983598893,-8.49998664855957,10.0208101272583,0.11407311260700226,-0.02496321126818657,-0.9304050803184509,-0.36568203568458557,0.4255981147289276,1.2897495031356812,-0.27543124556541443
1.118261115400533,0.025191959886856942,-0.13611352624479223,-6.98541784286499,9.696943283081055,0.7094376683235168,0.011013946495950222,-0.8993414640426636,-0.4371083676815033,0.5743133425712585,1.2196385860443115,-0.4367471933364868
1.056556370736866,0.09320191054856716,-0.10789337661016148,-5.5282135009765625,8.888980865478516,1.1782020330429077,0.04577719792723656,-0.8706668019294739,-0.4897385835647583,0.6706231236457825,1.1965792179107666,-0.3555525541305542
1.0103001745573832,0.1452210066169757,-0.07028977248682447,-4.154493808746338,8.01095962524414,1.5542305707931519,0.07692938297986984,-0.8469914793968201,-0.5260108709335327,0.6208246946334839,1.1623142957687378,-0.21458971500396729
0.9781809720525823,0.18610524021051153,-0.028464542804821212,-2.990480422973633,7.207343578338623,1.8926146030426025,0.1033468022942543,-0.8294827342033386,-0.5488877892494202,0.5233013033866882,1.049316167831421,-0.09527719020843506
0.9572358761702622,0.2179189036449904,0.015167182896494925,-2.151615619659424,6.34346342086792,2.1053802967071533,0.12448309361934662,-0.8176031708717346,-0.5621647238731384,0.422651469707489,0.9876623153686523,0.04289287328720093
0.9446651337137966,0.24161534887148267,0.05788672859330483,-1.4361248016357422,5.359563827514648,2.1579041481018066,0.14021645486354828,-0.8103007674217224,-0.5689921975135803,0.30675941705703735,0.9460123777389526,0.24872559309005737
0.9394234058041833,0.2575535245957547,0.0985964922945627,-0.7777833938598633,4.445266246795654,2.254565477371216,0.1503468006849289,-0.8072178959846497,-0.5707848072052002,0.17870916426181793,0.8775303363800049,0.42118769884109497
0.9402161477560591,0.2651285193630387,0.13884022656181597,-0.3258046507835388,3.5705885887145996,2.376143455505371,0.1544983834028244,-0.8076855540275574,-0.5690118074417114,0.12843026220798492,0.7959209680557251,0.4852868318557739
0.945174502516429,0.2636885806688838,0.1790050588069108,0.05511261150240898,2.660264253616333,2.4578239917755127,0.1526331603527069,-0.810599148273468,-0.5653602480888367,0.13154670596122742,0.7518985271453857,0.582953691482544
0.9545867372614875,0.2524355144912789,0.22059591378336071,0.5373838543891907,1.8741544485092163,2.754004716873169,0.14434956014156342,-0.8160749673843384,-0.5596292614936829,0.08326597511768341,0.7292218804359436,0.6629618406295776
0.9691898218020031,0.22822445794621185,0.26844283960208176,0.9815117716789246,1.1486632823944092,3.2824525833129883,0.12804929912090302,-0.8244274258613586,-0.5512920618057251,0.1348292976617813,0.7290599346160889,0.6189343333244324
0.98773095574131,0.18835566957034897,0.3262960212806645,1.2950732707977295,0.48301512002944946,3.8084774017333984,0.10309380292892456,-0.8347788453102112,-0.540847659111023,0.24965906143188477,0.7578439116477966,0.5820465087890625
1.0081787778453017,0.1312445205164485,0.3959020875657089,1.5386302471160889,-0.21438419818878174,4.30497407913208,0.0698053166270256,-0.8458617925643921,-0.5288148522377014,0.24722671508789062,0.7694151997566223,0.6324984431266785
1.0285865866556163,0.055351923999112575,0.4784648274027992,1.6999472379684448,-0.8876482248306274,4.6952104568481445,0.028548676520586014,-0.8565704822540283,-0.5152397751808167,0.2383887618780136,0.7667877078056335,0.6922876238822937
1.0464288107892206,-0.037413252714462726,0.5724063935178184,1.7808388471603394,-1.4942736625671387,4.872769355773926,-0.01872716285288334,-0.8656407594680786,-0.5003153085708618,0.16548636555671692,0.7420749664306641,0.7346751689910889
1.0604777364446718,-0.14380713878563936,0.6736619496246157,1.9436864852905273,-2.2000937461853027,4.842897891998291,-0.0700014978647232,-0.8725889325141907,-0.4834132492542267,-0.011373467743396759,0.6708219051361084,0.7929683923721313
1.0713869140339891,-0.26222608493612953,0.779696772890302,2.2757980823516846,-2.9209063053131104,4.7949957847595215,-0.12414770573377609,-0.8778655529022217,-0.4625360071659088,-0.14877085387706757,0.5873075723648071,0.789592981338501
1.0792063825927187,-0.3952087518190105,0.8934089916487283,2.7088491916656494,-3.705425500869751,4.990523338317871,-0.18173131346702576,-0.8815834522247314,-0.43564262986183167,-0.228653684258461,0.5021430253982544,0.7264599800109863
1.081899801031482,-0.5480901768471765,1.0199031928914652,3.18337345123291,-4.522977828979492,5.403828144073486,-0.24471615254878998,-0.8828516602516174,-0.40085822343826294,-0.11615408957004547,0.4975975751876831,0.6927894353866577
1.075995275061821,-0.717784692689067,1.1580034342070642,3.573566198348999,-5.060522079467773,5.815949440002441,-0.3123216927051544,-0.8800631761550903,-0.3576928675174713,0.00542178750038147,0.5973176956176758,0.6627466678619385
1.0587148058078688,-0.894472353451216,1.2988703828570651,3.8338234424591064,-5.583745956420898,6.069690704345703,-0.3821353316307068,-0.8717264533042908,-0.3067016303539276,0.025003492832183838,0.6227028369903564,0.6381836533546448
1.0295601171077944,-1.0652322763211124,1.4302783259564975,3.869814872741699,-5.827574253082275,6.125899791717529,-0.4507458806037903,-0.8570724725723267,-0.2495100349187851,-0.037016481161117554,0.6088728308677673,0.6933577656745911
0.9898218819485555,-1.2202804595262966,1.5427170716845733,3.7221839427948,-6.20259428024292,6.077578067779541,-0.5154671669006348,-0.8359282612800598,-0.18846160173416138,-0.2921193838119507,0.4805508852005005,0.8234561681747437
0.9426496712793421,-1.3589932373992024,1.6333365128798518,3.5673160552978516,-6.576653003692627,5.825346946716309,-0.5745145082473755,-0.8091180324554443,-0.12353680282831192,-0.34700942039489746,0.31540447473526,1.0035876035690308
0.8927759376897344,-1.4805060207535938,1.7035299989488517,3.367469310760498,-6.5804901123046875,5.307930946350098,-0.6246975660324097,-0.7788159847259521,-0.05655791237950325,-0.5854463577270508,0.22473865747451782,1.0903562307357788
0.84382678976172,-1.5880226813702123,1.757013031387284,3.2100465297698975,-6.84068489074707,4.777716636657715,-0.6645100116729736,-0.7471919059753418,0.011448217555880547,-0.8899638652801514,-0.03949040174484253,1.0812184810638428
0.795207913159159,-1.691173211914374,1.8001994165546704,3.420159339904785,-7.539093494415283,4.576074600219727,-0.6950699090957642,-0.714009165763855,0.08407685160636902,-0.8381331562995911,-0.16527873277664185,1.0336142778396606
0.7433203719327692,-1.7998741370469502,1.8414417646950214,4.322301387786865,-8.530294418334961,4.656373023986816,-0.7169929146766663,-0.6767361760139465,0.1671818196773529,-0.6360649466514587,0.02469736337661743,0.8984005451202393
0.6834339707504686,-1.9199125889989392,1.8868802143735757,5.704655170440674,-9.463521003723145,4.8597612380981445,-0.7286330461502075,-0.6314594745635986,0.265242338180542,-0.42001813650131226,0.20914173126220703,0.6663984060287476
0.6140062491106993,-2.043359812145067,1.9340499499996624,6.661356449127197,-9.481658935546875,4.84292459487915,-0.727769136428833,-0.5761465430259705,0.3720319867134094,-0.39358407258987427,0.28998297452926636,0.49916866421699524
0.5385672482100776,-2.159013862900521,1.9751367904100396,6.844234466552734,-9.104997634887695,4.6992082595825195,-0.7141666412353516,-0.512906551361084,0.4763328433036804,-0.6251582503318787,0.1568884253501892,0.5395821332931519
0.4624877739339927,-2.2578440927604837,2.0034603197006366,6.122539520263672,-7.873178005218506,4.579064846038818,-0.6919018626213074,-0.4461759030818939,0.567625880241394,-0.6653216481208801,0.0765468180179596,0.8503735065460205
0.39309916615797347,-2.33466682851182,2.0155079924101744,4.700253963470459,-6.546096324920654,4.370638370513916,-0.6670823693275452,-0.3830530345439911,0.6389619708061218,-0.8042007684707642,-0.09465417265892029,1.192505121231079
0.33569408197500655,-2.394658603434172,2.0124821859118294,3.1108062267303467,-5.759660720825195,4.07307767868042,-0.6414701342582703,-0.32942458987236023,0.6928176879882812,-0.8510074615478516,-0.25460585951805115,1.577690601348877
0.29258637837971785,-2.446849973741872,1.9986789098506446,1.6773239374160767,-5.609375,3.609598398208618,-0.6129807829856873,-0.2884296476840973,0.7355703711509705,-0.7875778079032898,-0.3081129491329193,1.8096110820770264
0.26275662089383917,-2.497393551233948,1.9783030433663356,0.6331992745399475,-5.6128034591674805,3.202371597290039,-0.5799458622932434,-0.2597435414791107,0.7721377611160278,-0.9127910137176514,-0.3379281461238861,1.8696929216384888
0.24215593729909454,-2.5471957209687255,1.9547622036911534,0.11474468559026718,-5.558375835418701,2.935058832168579,-0.5436699986457825,-0.2397962212562561,0.8043138980865479,-0.888336718082428,-0.42341193556785583,1.6873854398727417
0.22751485476349273,-2.5968882996736817,1.9296813896999356,-0.2702246606349945,-5.548851490020752,2.7632622718811035,-0.5048123598098755,-0.2255571186542511,0.8332403302192688,-0.7946262955665588,-0.3768296241760254,1.3334317207336426
0.21806468512271937,-2.6462676588367673,1.9040570833230828,-0.5757875442504883,-5.451057434082031,2.5186991691589355,-0.46406131982803345,-0.2163405418395996,0.8589788675308228,-0.8411602973937988,-0.3414294421672821,1.152557134628296
0.2139185903137326,-2.6936634064471114,1.8788305257010933,-0.9478883743286133,-5.073588848114014,2.2626819610595703,-0.4232282042503357,-0.21229079365730286,0.8808012008666992,-0.9684038162231445,-0.3254748582839966,0.9899721741676331
0.21631409950012173,-2.735524248976941,1.8539022047505889,-1.5466433763504028,-4.345767974853516,1.970719575881958,-0.3857952356338501,-0.2146310806274414,0.8972715735435486,-1.089287281036377,-0.3777763545513153,0.8267582654953003
0.2279480248490252,-2.7692532053521957,1.829397876559075,-2.4685041904449463,-3.4597959518432617,1.5859782695770264,-0.3543851673603058,-0.22597910463809967,0.9073839783668518,-1.2277835607528687,-0.4511756896972656,0.8174089193344116
0.25192838736969414,-2.791893239581248,1.8045680234520307,-3.792119026184082,-2.194244146347046,1.2504404783248901,-0.33180034160614014,-0.2492719292640686,0.909820020198822,-1.352998971939087,-0.5574451684951782,0.9032447338104248
0.2919511823142601,-2.7988606204515625,1.7778346836599992,-5.533880710601807,-0.6283950209617615,0.8869575262069702,-0.3218408226966858,-0.28782138228416443,0.9019854664802551,-1.379636287689209,-0.6633354425430298,0.9838179349899292
0.3502186277852826,-2.78810513561547,1.7480875695194948,-7.349748611450195,0.8891695141792297,0.45243725180625916,-0.3251585066318512,-0.34310317039489746,0.8812223076820374,-1.4272524118423462,-0.6289887428283691,1.053622841835022
0.4252069458597467,-2.759578679653065,1.7143381121115397,-8.866777420043945,2.248307228088379,-0.0028287055902183056,-0.3395944833755493,-0.41250932216644287,0.8452883362770081,-1.4209799766540527,-0.5154694318771362,1.0653717517852783
0.5126250654749483,-2.7136497118152643,1.6750846740390333,-9.93515396118164,3.3642828464508057,-0.4272500276565552,-0.3616560399532318,-0.49046656489372253,0.7928730249404907,-1.3323290348052979,-0.3806120455265045,0.9234355688095093
0.6070184918112923,-2.6496896905623304,1.6274151178711787,-10.547707557678223,4.372715950012207,-0.6644550561904907,-0.3879280984401703,-0.5704211592674255,0.7239693403244019,-1.1881521940231323,-0.17947208881378174,0.7006522417068481
0.7023921453562022,-2.5633518359451406,1.566442396120406,-10.804032325744629,5.478623867034912,-0.7230663895606995,-0.4171825349330902,-0.646045446395874,0.6392063498497009,-1.0644307136535645,0.07915061712265015,0.4408413767814636
0.7947441153647916,-2.449758293576904,1.4876355797787315,-10.943047523498535,6.486819744110107,-0.952206015586853,-0.4468640387058258,-0.7136843800544739,0.5394142270088196,-0.8730366230010986,0.3092651963233948,0.18621760606765747
0.8821283361337013,-2.3058279797418813,1.387052700818234,-10.993189811706543,7.331051349639893,-1.432509183883667,-0.4714270830154419,-0.7720931768417358,0.4261794984340668,-0.7250908613204956,0.4004957675933838,0.02166593074798584
0.9619687644995571,-2.12649972425894,1.2599807029272265,-10.8781156539917,8.290427207946777,-2.063385486602783,-0.4858511686325073,-0.8203191161155701,0.30170392990112305,-0.6631051301956177,0.4379338026046753,-0.054572612047195435
1.0296144205568054,-1.9055423529599225,1.1007800339952762,-10.562555313110352,9.134988784790039,-2.6314682960510254,-0.48655563592910767,-0.8571004271507263,0.1692417562007904,-0.6171583533287048,0.4715259075164795,-0.1556004285812378
1.0781624101577039,-1.6435506922708705,0.9079762211034924,-10.063799858093262,9.70215129852295,-2.9526419639587402,-0.47169721126556396,-0.8810902237892151,0.03437871113419533,-0.48621898889541626,0.5761127471923828,-0.2299811840057373
1.1015155073569214,-1.3536636043658041,0.6928142843840077,-9.456807136535645,10.093750953674316,-3.101665735244751,-0.44162610173225403,-0.891893744468689,-0.09742743521928787,-0.2841276526451111,0.7354910969734192,-0.24714654684066772
1.0983013562983623,-1.062883637937333,0.4812396164589949,-8.72513484954834,10.321999549865723,-3.0706393718719482,-0.3976573050022125,-0.8904355764389038,-0.22134460508823395,-0.1385059952735901,0.8549892902374268,-0.20658814907073975
1.0724020919847532,-0.7995383480372079,0.2999449414001555,-7.949718952178955,10.225077629089355,-2.868056535720825,-0.34275391697883606,-0.8783512711524963,-0.3331952393054962,-0.006351858377456665,0.9248294234275818,-0.18085813522338867
1.0318396691877905,-0.5787334923225589,0.1609630738175286,-7.067965507507324,9.78270435333252,-2.6069400310516357,-0.2807244658470154,-0.8582446575164795,-0.42966288328170776,0.17104434967041016,0.9696489572525024,-0.11016261577606201
0.9856181512766977,-0.40138286034925696,0.06353858387522647,-5.966915607452393,9.208417892456055,-2.182610273361206,-0.21579772233963013,-0.8336136937141418,-0.5084481835365295,0.2894367575645447,1.0187790393829346,-0.07063812017440796
0.9415476832555468,-0.2619395634995534,0.0018994182530467044,-4.6613078117370605,8.566400527954102,-1.584322452545166,-0.15240444242954254,-0.8084699511528015,-0.5684623718261719,0.3693692684173584,1.0693035125732422,-0.15874099731445312
0.9056595904454747,-0.15295329900591778,-0.03229524029061003,-3.2175467014312744,7.787562370300293,-0.9708211421966553,-0.09403007477521896,-0.7868323922157288,-0.6099616885185242,0.4788110554218292,1.1290106773376465,-0.2811974287033081
0.8821116353334473,-0.06772554483200713,-0.04755862716273627,-1.6827069520950317,6.883221626281738,-0.4071749150753021,-0.04300820082426071,-0.7720825672149658,-0.6340653896331787,0.5819334983825684,1.1367676258087158,-0.3863203525543213
0.8730200012092059,-0.002202914252927063,-0.05012203898389266,-0.16597552597522736,5.830801010131836,0.15606607496738434,-0.0014154053060337901,-0.7662728428840637,-0.6425139307975769,0.6204798817634583,1.098670244216919,-0.44945085048675537
0.8784304045424187,0.045296158750942186,-0.043397071858098435,1.1988242864608765,4.722658634185791,0.7384971976280212,0.02890537679195404,-0.7697378396987915,-0.637705385684967,0.6328989863395691,1.081902027130127,-0.43687957525253296
0.8968707635443447,0.07589527575861253,-0.029010504432008297,2.3516790866851807,3.6478521823883057,1.3062595129013062,0.047317616641521454,-0.781377911567688,-0.6222617626190186,0.6372528672218323,1.0939083099365234,-0.31758809089660645
0.9264725997923785,0.09009927839430677,-0.007182722332893648,3.3037209510803223,2.6806881427764893,1.8584622144699097,0.0540456622838974,-0.7995061874389648,-0.5982216596603394,0.6247875094413757,1.1053838729858398,-0.17791664600372314
0.9648249999947839,0.0886959803615096,0.02303975299576501,3.996487855911255,1.9885296821594238,2.3553972244262695,0.050451550632715225,-0.8219492435455322,-0.5673219561576843,0.6069735288619995,1.0979044437408447,-0.0408780574798584
1.008996551203194,0.07261740543861972,0.06340673846170089,4.4337263107299805,1.5609736442565918,2.7946276664733887,0.03865005448460579,-0.8462977409362793,-0.5313064455986023,0.5351873636245728,1.0916589498519897,0.0992690920829773
1.0561807724497942,0.041211044648150355,0.11606715071283141,4.6726837158203125,1.213456153869629,3.125096321105957,0.02027835138142109,-0.8704820275306702,-0.4917825162410736,0.4136054813861847,1.116499423980713,0.2379525899887085
1.1039631615061805,-0.007108006047986296,0.18282566618273358,4.77659797668457,0.9146119356155396,3.33337140083313,-0.0031990075949579477,-0.8929980397224426,-0.45004940032958984,0.31690460443496704,1.1115496158599854,0.37920284271240234
1.1505926029958269,-0.07557368425584365,0.26720940686619205,4.859184265136719,0.6392765045166016,3.540635108947754,-0.030800681561231613,-0.9130058288574219,-0.4067820906639099,0.23752690851688385,1.0588798522949219,0.5035228729248047
1.1948445935424763,-0.17206017711930743,0.3771532106634327,5.016687870025635,0.33389344811439514,3.8700194358825684,-0.06286203861236572,-0.9301586151123047,-0.3617366850376129,0.19187524914741516,1.0404795408248901,0.5592007040977478
1.234557758340319,-0.3089876623325164,0.5251913416286308,5.137218952178955,0.04497509449720383,4.28045654296875,-0.10033252835273743,-0.9440023899078369,-0.31431347131729126,0.22926945984363556,1.0923330783843994,0.5618873834609985
1.2644368450030052,-0.4938328846196761,0.718592399125292,5.108760356903076,-0.3173234164714813,4.629703044891357,-0.1429547369480133,-0.9534378051757812,-0.2655563950538635,0.28489214181900024,1.1194534301757812,0.5948106050491333
1.2792218015607602,-0.7204824672456399,0.9494530289875186,5.07536506652832,-0.8975028991699219,4.842833518981934,-0.1896514743566513,-0.9577924609184265,-0.21602317690849304,0.28353893756866455,1.1301556825637817,0.71916663646698
1.2767192339794726,-0.9672353643300061,1.194353095468572,5.162834644317627,-1.5339220762252808,4.9088029861450195,-0.2386450618505478,-0.9570700526237488,-0.16451647877693176,0.24657976627349854,1.122337818145752,0.8204613924026489
1.257430368485746,-1.2068947879780128,1.4260947684274383,5.323064804077148,-2.145376205444336,4.948797702789307,-0.28807592391967773,-0.9513013362884521,-0.10971767455339432,0.19824758172035217,1.0559918880462646,0.8444894552230835
1.2227332746659285,-1.4185916245081467,1.6257025876842006,5.422229766845703,-2.342808246612549,5.0555830001831055,-0.3371351659297943,-0.9400351047515869,-0.05171351134777069,0.18863672018051147,1.0204334259033203,0.8349930047988892
1.1751958890310634,-1.5870236758335552,1.782223958942732,5.261880397796631,-2.1518337726593018,5.199482440948486,-0.38531172275543213,-0.9227653741836548,0.006253136787563562,0.12856748700141907,1.0373587608337402,0.7688782215118408
1.1183172207513028,-1.710716282076167,1.895497833340521,4.9219512939453125,-1.9395616054534912,5.421847820281982,-0.4329238533973694,-0.899366021156311,0.06097310781478882,0.07870647311210632,1.0266852378845215,0.7657023668289185
1.0554750062522906,-1.7990044543276378,1.973668536781455,4.551658630371094,-1.9026267528533936,5.60631799697876,-0.48003751039505005,-0.8701344132423401,0.1114906519651413,0.05448529124259949,1.0304584503173828,0.8141990900039673
0.9891805906355158,-1.8650989786041485,2.0276521170311623,4.358459949493408,-2.148341178894043,5.771523475646973,-0.5257545113563538,-0.8355761170387268,0.15935863554477692,0.01164013147354126,0.9863631725311279,0.8522381782531738
0.9197046347320312,-1.9220341148487268,2.0675451218418917,4.476497650146484,-2.7516207695007324,5.967116832733154,-0.5690544843673706,-0.7954226732254028,0.20851968228816986,-0.0038977861404418945,0.9271820187568665,0.9120248556137085
0.8460805634062009,-1.9786750067885568,2.10044109515152,4.908837795257568,-3.529266595840454,6.186622619628906,-0.6085392832756042,-0.7486878633499146,0.262956827878952,0.028598666191101074,0.9211121201515198,0.8921640515327454
0.7670930690653849,-2.0409485887110512,2.1308136372629143,5.665199279785156,-4.582900524139404,6.341092586517334,-0.6418182849884033,-0.69404536485672,0.3261447548866272,0.02588212490081787,0.9549095034599304,0.8401914834976196
0.6814253798667972,-2.112577971390774,2.161419315892766,6.675961971282959,-5.663266181945801,6.439239025115967,-0.6654490232467651,-0.6299006938934326,0.4005031883716583,0.009672105312347412,1.033098816871643,0.8398075699806213
0.5887714827443505,-2.1900104693897853,2.191315365882275,7.474974632263184,-6.22414493560791,6.416642189025879,-0.6772201657295227,-0.5553397536277771,0.4826706051826477,-0.08681786060333252,1.0327260494232178,0.8387254476547241
0.491970011079582,-2.266614254749295,2.216422759268506,7.719798564910889,-6.511359214782715,6.297125339508057,-0.6765038967132568,-0.4723631739616394,0.5649919509887695,-0.20252442359924316,0.9188809394836426,0.92377769947052
0.3952924763939415,-2.338080874572357,2.2330305281851923,7.387269020080566,-6.2501068115234375,6.093626976013184,-0.6642905473709106,-0.3850781321525574,0.640650749206543,-0.24452298879623413,0.808646559715271,1.1763813495635986
0.3039193864147411,-2.3984096283729848,2.2396853681191775,6.54545259475708,-5.332995891571045,5.801605224609375,-0.645625650882721,-0.29926225543022156,0.7025738954544067,-0.38000917434692383,0.6807317733764648,1.4223194122314453
0.22186940992237136,-2.4465079714985714,2.2365641686602866,5.40336799621582,-4.50004768371582,5.474483013153076,-0.6247518658638,-0.22005359828472137,0.7491743564605713,-0.5651895999908447,0.5013949871063232,1.5735797882080078
0.15157977989080612,-2.4867553683042942,2.22484221661369,4.158379077911377,-4.0119242668151855,5.134966850280762,-0.6020471453666687,-0.1509999930858612,0.7840529084205627,-0.5752143263816833,0.428480863571167,1.6893970966339111
0.09316430800000806,-2.522244625050435,2.2060884251043453,3.0582568645477295,-3.543931007385254,4.840757846832275,-0.5779870748519897,-0.09302959591150284,0.8107261061668396,-0.6040350198745728,0.3909725546836853,1.7423746585845947
0.0451442465655927,-2.5541731271577772,2.181651163718515,2.104668617248535,-3.2191390991210938,4.652463912963867,-0.5536503791809082,-0.04512891545891762,0.8315256834030151,-0.5264429450035095,0.3240441679954529,1.703462839126587
0.006556322504891599,-2.5846454874318643,2.1522802389288254,1.210240125656128,-3.024367570877075,4.478965759277344,-0.5285859704017639,-0.006556275766342878,0.8488547801971436,-0.4872068762779236,0.26842746138572693,1.660438060760498
-0.02241224975740411,-2.6139141447141254,2.1187569175523735,0.2891615927219391,-2.7854390144348145,4.27292537689209,-0.5034026503562927,0.022410374134778976,0.8637615442276001,-0.5084534883499146,0.1858414113521576,1.633186936378479
-0.04141638628119685,-2.64208992880422,2.081359105931935,-0.6487448811531067,-2.616636276245117,4.129122734069824,-0.4785785377025604,0.041404545307159424,0.8770684599876404,-0.5636121034622192,0.11917879432439804,1.584083080291748
-0.05073127394891211,-2.6690020363634717,2.040384185979493,-1.5204075574874878,-2.3686232566833496,3.99923038482666,-0.4546089470386505,0.05070951581001282,0.8892467021942139,-0.5966453552246094,0.06804947555065155,1.5188498497009277
-0.051144270296475336,-2.693272847051192,1.9963945484072476,-2.324585199356079,-2.007030725479126,3.9179844856262207,-0.4328852891921997,0.05112197622656822,0.8999984264373779,-0.6637181043624878,0.05095915496349335,1.4142869710922241
-0.042921051431841196,-2.713588690305431,1.9501044427215122,-3.0903682708740234,-1.6183401346206665,3.7532997131347656,-0.4146735668182373,0.042907875031232834,0.9089584946632385,-0.7340844869613647,0.03767363354563713,1.2665483951568604
-0.026060776520831417,-2.7294115703819184,1.9033574983885697,-3.8063879013061523,-1.217690110206604,3.3921127319335938,-0.40047281980514526,0.026057826355099678,0.9159384965896606,-0.8597812056541443,0.03369543328881264,1.1220715045928955
-0.00031060363901272675,-2.7396572815148015,1.8581507016566372,-4.515737056732178,-0.6721522212028503,2.8727216720581055,-0.39120039343833923,0.00031060364563018084,0.9203060269355774,-1.0816237926483154,-0.02452646568417549,1.0070778131484985
0.034862559849900394,-2.7418103939821035,1.8154579208649586,-5.346780776977539,0.09853227436542511,2.2310311794281006,-0.38898134231567383,-0.03485549986362457,0.9205861687660217,-1.2405657768249512,-0.15742066502571106,0.9097972512245178
0.08166148291078971,-2.7345464836519233,1.7754633511798792,-6.42982816696167,0.915154755115509,1.4489260911941528,-0.39457929134368896,-0.08157075196504593,0.9152340888977051,-1.3747230768203735,-0.2468748390674591,0.7930178046226501
0.14107149877602468,-2.7165656755156884,1.7368971083987774,-7.554028511047363,1.8427718877792358,0.7915945649147034,-0.40824925899505615,-0.14060404896736145,0.9019777774810791,-1.4708707332611084,-0.32605570554733276,0.8345948457717896
0.21184960256341587,-2.686676731490727,1.6972415746070044,-8.581474304199219,2.7377686500549316,0.2755924165248871,-0.42956387996673584,-0.2102685123682022,0.8782156705856323,-1.3951737880706787,-0.3678109049797058,0.8053630590438843
0.29118222213634537,-2.6447993923254143,1.6541679939541607,-9.329745292663574,3.4835269451141357,-0.1150967925786972,-0.45654621720314026,-0.2870848774909973,0.8421093821525574,-1.3262296915054321,-0.2935884892940521,0.6700825095176697
0.3755544500704056,-2.5915965659572886,1.6065874441273027,-9.782946586608887,4.021958827972412,-0.5344297885894775,-0.4862552285194397,-0.366788387298584,0.7931093573570251,-1.2180142402648926,-0.14985913038253784,0.5125242471694946
0.46286154550148306,-2.5284377391363906,1.554460801921652,-10.050309181213379,4.355536460876465,-1.1246355772018433,-0.514900803565979,-0.446510374546051,0.7317826747894287,-1.1649545431137085,-0.05358132719993591,0.35096579790115356
0.5523732305745126,-2.456183478751313,1.4982132444341791,-10.17005729675293,4.6479010581970215,-1.8699432611465454,-0.5388527512550354,-0.5247089862823486,0.6590284705162048,-1.1812705993652344,-0.0012158751487731934,0.23597586154937744
0.643047943730534,-2.3727328103738863,1.436430924004913,-10.194804191589355,5.140812397003174,-2.5289485454559326,-0.556442379951477,-0.5996373891830444,0.5751588940620422,-1.1967315673828125,0.06295496225357056,0.1454375982284546
0.7328688401092992,-2.271719511505166,1.3646191272715817,-10.213500022888184,5.975411415100098,-2.9832417964935303,-0.5680332779884338,-0.6690046787261963,0.4793449938297272,-1.1325740814208984,0.1670970916748047,0.03379291296005249
0.8185104953700486,-2.144852244833937,1.2754399622746966,-10.25021743774414,6.898129463195801,-3.1527562141418457,-0.5737790465354919,-0.730128824710846,0.37106621265411377,-0.9654514193534851,0.32986003160476685,-0.07782277464866638
0.894962224922475,-1.9846780279249128,1.160548844373665,-10.281792640686035,7.758812427520752,-3.1539063453674316,-0.5727313756942749,-0.7801854610443115,0.2515745460987091,-0.7257457971572876,0.5122104287147522,-0.09746074676513672
0.9569692239617011,-1.786744142425284,1.015087230124811,-10.186306953430176,8.552834510803223,-3.2127323150634766,-0.5626223683357239,-0.8174495697021484,0.12342158704996109,-0.4741209149360657,0.6627098917961121,-0.06438526511192322
0.9995059512786869,-1.5542441595380907,0.8424932583590158,-9.841336250305176,9.300881385803223,-3.296309471130371,-0.540644109249115,-0.8412039279937744,-0.008949649520218372,-0.2988792061805725,0.7596913576126099,-0.0695263147354126
1.018321727828443,-1.2998330900045842,0.6557581184809256,-9.322640419006348,9.939230918884277,-3.240325689315796,-0.505647599697113,-0.8512284755706787,-0.1404666006565094,-0.1933727264404297,0.7993484735488892,-0.1465970277786255
1.0125360984738134,-1.0454967937194757,0.47543116688890474,-8.651314735412598,10.230935096740723,-3.057065010070801,-0.45829251408576965,-0.848177969455719,-0.26563557982444763,-0.06024685502052307,0.8617734909057617,-0.16734781861305237
0.9872070582563669,-0.8139602973907638,0.32173701740585237,-7.667827606201172,10.177465438842773,-2.809088945388794,-0.40060022473335266,-0.8344902396202087,-0.3783458173274994,0.13715732097625732,0.9543479681015015,-0.1282917559146881
0.951424394838773,-0.6183794337922928,0.2056055489313852,-6.347423553466797,9.768152236938477,-2.3835370540618896,-0.33653879165649414,-0.8142431974411011,-0.47302207350730896,0.3200135827064514,0.9895361065864563,-0.1777043342590332
0.9143031167470421,-0.461208654432459,0.127499739399306,-4.804887294769287,9.113138198852539,-1.7542128562927246,-0.27162131667137146,-0.7921374440193176,-0.5465712547302246,0.460097998380661,1.0030443668365479,-0.3116593360900879
0.8833445055141992,-0.33944415911286074,0.08252441024559064,-3.0853230953216553,8.187732696533203,-0.9681908488273621,-0.21128830313682556,-0.7728655338287354,-0.5983612537384033,0.5708007216453552,1.0398943424224854,-0.4185607433319092
0.8642958240833699,-0.2497805934450939,0.06445057701848898,-1.241030216217041,6.965187072753906,-0.13574367761611938,-0.16047069430351257,-0.7606382966041565,-0.6290298700332642,0.6782015562057495,1.0828275680541992,-0.46545255184173584
0.8606200275216539,-0.1891719199156878,0.06721304896532457,0.576636552810669,5.587234973907471,0.6508120894432068,-0.12259965389966965,-0.7582469582557678,-0.6403365731239319,0.7834274172782898,1.090919017791748,-0.5008529424667358
0.8728267079769356,-0.1547118324560975,0.08582288296643345,2.2158000469207764,4.167503356933594,1.2946301698684692,-0.0990314781665802,-0.7661486268043518,-0.6349875330924988,0.8150350451469421,1.074864387512207,-0.479667067527771
0.8997011892571779,-0.14347494148636167,0.11646230454336903,3.6501104831695557,2.8526859283447266,1.7303643226623535,-0.08891325443983078,-0.7831411361694336,-0.6154546737670898,0.7580570578575134,1.0984487533569336,-0.38556766510009766
0.9389461474940669,-0.15352291459045223,0.1571061469605442,4.822304725646973,1.6181223392486572,1.9827337265014648,-0.09032081067562103,-0.8069360852241516,-0.5836919546127319,0.6139262914657593,1.1080377101898193,-0.2599969506263733
0.9876662380273653,-0.18515412495145292,0.20884600650294863,5.7609663009643555,0.6047286987304688,2.2247750759124756,-0.1013716459274292,-0.8347432017326355,-0.5412278771400452,0.5106430053710938,1.1121021509170532,-0.08735781908035278
1.0423119485732872,-0.24117896550950638,0.27773056607360486,6.4420270919799805,-0.07032807171344757,2.599010467529297,-0.12043297290802002,-0.8635722994804382,-0.4896313548088074,0.45153358578681946,1.1333171129226685,0.04582950472831726
1.0984333247829094,-0.3281287036963667,0.37322348439215874,6.887085437774658,-0.521373450756073,3.06534743309021,-0.14663125574588776,-0.8904956579208374,-0.430716872215271,0.4837285578250885,1.1863481998443604,0.146018385887146
1.1507862676052072,-0.4544964973980496,0.5061318724420212,7.154839038848877,-0.7291783094406128,3.5609536170959473,-0.17901505529880524,-0.913084864616394,-0.36637401580810547,0.5505666732788086,1.233809232711792,0.23987865447998047
1.193531284224363,-0.6278809497110095,0.6860679202427544,7.357626438140869,-0.7407885193824768,4.022997856140137,-0.2163974940776825,-0.9296756386756897,-0.29811984300613403,0.5569738149642944,1.2873873710632324,0.3094724118709564
1.2200502461346057,-0.8493115711627045,0.91510037313015,7.523563861846924,-0.7169619798660278,4.473526477813721,-0.25798285007476807,-0.9391165971755981,-0.22694705426692963,0.5281550884246826,1.3623647689819336,0.3195679187774658
1.2239532802265984,-1.1005427610597718,1.1750067034589615,7.602264881134033,-0.6287021636962891,4.8351216316223145,-0.3030322194099426,-0.9404505491256714,-0.15402670204639435,0.47214552760124207,1.4263818264007568,0.32155299186706543
1.20296462876044,-1.3416524691464322,1.426656279859174,7.472343444824219,-0.40581902861595154,5.102001190185547,-0.3501938581466675,-0.9331092238426208,-0.08167937397956848,0.3870745003223419,1.433032751083374,0.37031471729278564
1.1608008745417144,-1.5379289364746802,1.6352223357799274,7.089797019958496,-0.2319500893354416,5.2904253005981445,-0.39839014410972595,-0.9171226620674133,-0.013098761439323425,0.2775101363658905,1.416329026222229,0.4306555986404419
1.104404972736908,-1.6810057355762424,1.7908014635431688,6.5402421951293945,-0.20208221673965454,5.454659938812256,-0.4469383955001831,-0.8931967616081238,0.04945721477270126,0.19930359721183777,1.337730884552002,0.5713772773742676
1.040109334843415,-1.7806845393223516,1.90096399443624,5.92677640914917,-0.40512973070144653,5.542876243591309,-0.4950188994407654,-0.8624595403671265,0.10545168817043304,0.18105414509773254,1.196138620376587,0.7493305206298828
0.9725589054291367,-1.8519655360423568,1.9778365517960257,5.3641133308410645,-0.8711379170417786,5.606411457061768,-0.5410716533660889,-0.8263295888900757,0.15627266466617584,0.21476256847381592,1.0314533710479736,0.8941882848739624
0.902494519867742,-1.9059247975294162,2.031499484442492,4.992165565490723,-1.2295901775360107,5.8566060066223145,-0.5851815342903137,-0.7848750948905945,0.2037983387708664,0.22670692205429077,0.9033595323562622,0.9901105165481567
0.8287217535640249,-1.9491297351803236,2.0704752194669376,4.941812515258789,-1.4797613620758057,6.2429962158203125,-0.628026008605957,-0.7370681166648865,0.24962875247001648,0.33551502227783203,0.9628368616104126,0.9688161611557007
0.7499868582401487,-1.986350433392598,2.1002496275730946,5.043317794799805,-1.7115269899368286,6.664147853851318,-0.6694251894950867,-0.6816291213035583,0.2953842282295227,0.29999470710754395,1.1106297969818115,0.7833207845687866
0.6672088965911375,-2.0192699367922566,2.123885006574368,5.153403282165527,-1.7992048263549805,6.863590240478516,-0.7078686952590942,-0.6187958717346191,0.3406079411506653,0.208662211894989,1.136160135269165,0.7166279554367065
0.5831063084660127,-2.0490738284030914,2.1426805347215367,5.080863952636719,-1.9707399606704712,6.809345722198486,-0.7410875558853149,-0.5506196022033691,0.3841971755027771,0.04081600904464722,1.1122649908065796,0.7575571537017822
0.5007161526079265,-2.077081243819394,2.156705850391293,4.82742977142334,-2.196697473526001,6.605230331420898,-0.767191469669342,-0.4800539016723633,0.4254010319709778,-0.12456279993057251,1.0362365245819092,0.8889150023460388
0.4209835940404445,-2.1046277901447983,2.165569403727247,4.4806694984436035,-2.549398422241211,6.472158908843994,-0.785699725151062,-0.40865835547447205,0.4644077718257904,-0.2222805619239807,0.8960392475128174,1.1264736652374268
0.3442181399485293,-2.133819707089522,2.169094767294957,4.095422744750977,-3.0379586219787598,6.305128574371338,-0.7960395216941833,-0.33746078610420227,0.5024357438087463,-0.15360647439956665,0.8021059632301331,1.326604962348938
0.27095917872305564,-2.1662873974068915,2.167915558684948,3.7574050426483154,-3.521498918533325,6.1110310554504395,-0.7976680994033813,-0.26765573024749756,0.5404503345489502,-0.1326756477355957,0.757599949836731,1.412339210510254
0.2007430739735908,-2.201604358529668,2.162625586317216,3.498324155807495,-3.7586841583251953,5.9966583251953125,-0.7913346886634827,-0.19939753413200378,0.5779536962509155,-0.1721816062927246,0.7212631702423096,1.408847689628601
0.13309964178899136,-2.2377586752033705,2.153392320614954,3.2284719944000244,-3.7705464363098145,5.905000686645508,-0.7787553071975708,-0.13270699977874756,0.6131309866905212,-0.17241674661636353,0.7087718844413757,1.311460256576538
0.06843645338845061,-2.273641697513072,2.1399717287238813,2.8905532360076904,-3.67689847946167,5.82818078994751,-0.7612201571464539,-0.06838304549455643,0.6448783874511719,-0.22828185558319092,0.702644944190979,1.1915628910064697
0.007183505134698021,-2.3091036025997647,2.122008384136212,2.494968891143799,-3.5564019680023193,5.763309001922607,-0.7395899295806885,-0.007183443289250135,0.6730197072029114,-0.2721746563911438,0.6683618426322937,1.1460264921188354
-0.04962477451630095,-2.344258828780408,2.099501794319121,2.023650646209717,-3.3751773834228516,5.592239856719971,-0.7146153450012207,0.04960440844297409,0.6977569460868835,-0.2852626442909241,0.624955952167511,1.0971651077270508
-0.10047659428705526,-2.3787955227359903,2.0731566458909296,1.5126829147338867,-3.141777753829956,5.309072017669678,-0.6874615550041199,0.10030762106180191,0.7192603349685669,-0.3675616979598999,0.5765110850334167,1.0887537002563477
-0.14449482220391227,-2.412850724464774,2.0437253678102247,0.9925059080123901,-2.97217059135437,4.966268539428711,-0.6589919328689575,0.14399252831935883,0.7382385730743408,-0.49683088064193726,0.49994349479675293,1.0725984573364258
-0.18099049450727747,-2.44729495705637,2.0121038161719853,0.45675843954086304,-2.901322603225708,4.534909248352051,-0.6293947696685791,0.18000397086143494,0.7559506893157959,-0.6069182753562927,0.3905677795410156,1.0639196634292603
-0.20900898995807068,-2.4822470665212153,1.979190423930356,-0.15234753489494324,-2.807001829147339,4.008451461791992,-0.5992678999900818,0.20749056339263916,0.7731921672821045,-0.7602292895317078,0.2549879550933838,1.102006435394287
-0.2270249123727051,-2.5165914829122378,1.9454765379086023,-0.9397159218788147,-2.557690143585205,3.4354794025421143,-0.5700849294662476,0.22507977485656738,0.7901536226272583,-0.8839403986930847,0.06480656564235687,1.1604996919631958
-0.2337174328681218,-2.5473828731396426,1.9100639855213644,-1.9463026523590088,-1.942724347114563,3.034771680831909,-0.544633150100708,0.2315954864025116,0.8060638904571533,-0.968077540397644,-0.11932142078876495,1.2224398851394653
-0.2286048707957673,-2.5717478461957137,1.8705646901344017,-3.161825656890869,-1.104781150817871,2.8532662391662598,-0.5254656076431274,0.2266189157962799,0.8200794458389282,-1.028062343597412,-0.15235452353954315,1.2265974283218384
-0.21104434658179175,-2.588175282523387,1.8261117884679472,-4.438382625579834,-0.2451699823141098,2.6112875938415527,-0.5139361023902893,0.20948119461536407,0.8318580389022827,-1.0553083419799805,-0.043267324566841125,1.1872004270553589
-0.18062789078887737,-2.5961758538005038,1.778487525842211,-5.629483699798584,0.4824935495853424,2.1708011627197266,-0.5103347301483154,0.1796472817659378,0.8410029411315918,-1.1116441488265991,-0.00235554575920105,1.0961005687713623
-0.13770143615806313,-2.595938298597913,1.7299308288600201,-6.678057670593262,1.114798665046692,1.5467404127120972,-0.514065146446228,0.13726668059825897,0.8466968536376953,-1.1774022579193115,-0.04083125293254852,0.9634841680526733
-0.08310883727889172,-2.5869591937883287,1.6833476208636449,-7.454853057861328,1.7105294466018677,0.6186150312423706,-0.5248141884803772,0.08301319926977158,0.8471595644950867,-1.2398037910461426,-0.08424930274486542,0.8492364883422852
-0.018312160779016786,-2.5696067036137498,1.6411268996965565,-8.017918586730957,2.186138391494751,-0.4030241072177887,-0.5412123799324036,0.018311137333512306,0.8406869173049927,-1.4452379941940308,-0.1829994022846222,0.6629754304885864
0.05588140668277152,-2.545422949849038,1.6030368645817736,-8.596282958984375,2.5034854412078857,-1.419629454612732,-0.5606006979942322,-0.05585232749581337,0.8262007832527161,-1.5583416223526,-0.36335253715515137,0.531297504901886
0.13941390111202642,-2.5157786248422913,1.5674050198853022,-9.17835521697998,2.749014139175415,-2.342663049697876,-0.5800741910934448,-0.1389627307653427,0.8026232123374939,-1.5438578128814697,-0.3449089229106903,0.53685462474823
0.23128265396651318,-2.479933840939287,1.53223601619103,-9.690098762512207,3.1772470474243164,-3.1471822261810303,-0.5980662703514099,-0.229226216673851,0.7679662704467773,-1.5663318634033203,-0.18022826313972473,0.5081567764282227
0.3299368899412474,-2.434155167799137,1.4954105235853528,-10.095474243164062,3.998594045639038,-3.8209280967712402,-0.6148353815078735,-0.3239833116531372,0.7190361022949219,-1.560060977935791,-0.009711354970932007,0.39369601011276245
0.4327813638805998,-2.3726766599781124,1.453175425455104,-10.423837661743164,5.20127534866333,-4.156896591186523,-0.6312469840049744,-0.41939735412597656,0.6524062752723694,-1.541223406791687,0.18268749117851257,0.24137753248214722
0.5351366818068962,-2.288822124034366,1.3994017493387176,-10.626861572265625,6.541248321533203,-4.091477870941162,-0.6478211283683777,-0.5099586248397827,0.5659242272377014,-1.3556426763534546,0.3604070544242859,0.12575668096542358
0.6329249708078758,-2.178655328903059,1.328307796213691,-10.78660774230957,7.613006591796875,-4.044585227966309,-0.6618704199790955,-0.5915057063102722,0.46048757433891296,-1.0013376474380493,0.5539079308509827,0.0013044476509094238
0.7236452458797816,-2.041551067838895,1.2375434446158018,-10.638038635253906,8.380980491638184,-4.288732051849365,-0.6678825616836548,-0.6621208190917969,0.33989596366882324,-0.768732488155365,0.650722324848175,0.018304109573364258
0.8043891158338472,-1.880023856041369,1.1290352034217073,-9.966144561767578,8.873106002807617,-4.6812744140625,-0.6606557965278625,-0.7204070687294006,0.2110636681318283,-0.6579935550689697,0.6896757483482361,-0.017612695693969727
0.8724238007172782,-1.699721185582044,1.0074104558411046,-8.849713325500488,9.07492733001709,-5.042178153991699,-0.6376362442970276,-0.7658896446228027,0.08266568183898926,-0.5716992020606995,0.6941425204277039,-0.23952603340148926
0.9267983148347926,-1.5083959334024648,0.8791460988255207,-7.471216678619385,9.08602237701416,-5.254065036773682,-0.5992291569709778,-0.7997017502784729,-0.037440743297338486,-0.5063464045524597,0.7204322218894958,-0.4856000542640686
0.9676260136354076,-1.3139688870002708,0.7501601976541431,-6.156130313873291,8.83146858215332,-5.148349761962891,-0.5486509203910828,-0.8235414028167725,-0.14409072697162628,-0.43712782859802246,0.7589812874794006,-0.6759471297264099
0.9946638753467109,-1.1242841499932479,0.6249447564203121,-5.110600471496582,8.273539543151855,-4.7028350830078125,-0.4913736581802368,-0.8385758996009827,-0.2352503538131714,-0.2432149350643158,0.7823929190635681,-0.6352331042289734
1.0093758496183027,-0.9469231930193777,0.5087855078622848,-4.160164833068848,7.6672844886779785,-4.22206974029541,-0.4320988953113556,-0.8464997410774231,-0.311012864112854,0.030289262533187866,0.8614379167556763,-0.39421790838241577
1.0161828551421153,-0.7872738139771854,0.40808346145382485,-3.0895917415618896,7.211409568786621,-3.704653739929199,-0.3730708360671997,-0.850104033946991,-0.37167397141456604,0.18189352750778198,0.9163117408752441,-0.30194059014320374
1.0193193421027558,-0.6492392575150804,0.3283501607581451,-1.972514033317566,6.862010478973389,-2.9840140342712402,-0.3167676627635956,-0.8517515659332275,-0.41734611988067627,0.21946248412132263,0.891943097114563,-0.43999946117401123
1.0214010729058784,-0.5351934487092925,0.27308800309983255,-0.9303059577941895,6.547536373138428,-2.0334725379943848,-0.26631149649620056,-0.8528404831886292,-0.4491564929485321,0.3054503798484802,0.8988303542137146,-0.5400250554084778
1.0250917879273544,-0.44570663346927525,0.24296480069714674,0.09968087077140808,6.2336649894714355,-1.0971564054489136,-0.22374752163887024,-0.8547618389129639,-0.46831560134887695,0.4267505407333374,0.9860483407974243,-0.5332866311073303
1.0335804421346906,-0.37851637555899487,0.2353636785436488,1.1323344707489014,5.908829212188721,-0.3155898451805115,-0.1891118884086609,-0.8591367602348328,-0.4755217730998993,0.5166724324226379,1.045568585395813,-0.5509522557258606
1.04890978871939,-0.3322141917401764,0.24700225813660168,2.1584954261779785,5.346659183502197,0.3474283218383789,-0.16258466243743896,-0.8668802380561829,-0.4712589383125305,0.5018182396888733,1.0094735622406006,-0.5541163682937622
1.0724406645065578,-0.3079124570282351,0.2763684412346662,3.214285373687744,4.663597583770752,0.8964311480522156,-0.14486199617385864,-0.8783696889877319,-0.4555017948150635,0.4436902701854706,1.0061619281768799,-0.468738317489624
1.1041358112540667,-0.3070391890197382,0.32425173602367385,4.157002925872803,4.009134292602539,1.4382041692733765,-0.13597872853279114,-0.893075704574585,-0.4288657307624817,0.3841325342655182,1.0395750999450684,-0.3838632106781006
1.14161899220921,-0.33427774623806045,0.395011941516992,4.869598865509033,3.3177618980407715,2.038055896759033,-0.13652457296848297,-0.9093083739280701,-0.3930896818637848,0.3622022271156311,1.0739964246749878,-0.2580180764198303
1.1811908534003808,-0.39712976187036947,0.49633253775403224,5.392551898956299,2.739147186279297,2.677736520767212,-0.14690570533275604,-0.9250589609146118,-0.35026416182518005,0.4036349654197693,1.1508278846740723,-0.07412853837013245
1.218475064742518,-0.5038471351948114,0.6376167018675708,5.759037017822266,2.282737970352173,3.3188676834106445,-0.16660282015800476,-0.9385742545127869,-0.30219534039497375,0.4465406835079193,1.2197325229644775,0.06623345613479614
1.2475784444458218,-0.6619171618274049,0.8268226785601511,5.97513484954834,1.8200255632400513,3.9578983783721924,-0.1952187567949295,-0.9482182860374451,-0.25054338574409485,0.45463353395462036,1.2583224773406982,0.18166524171829224
1.2621581010616114,-0.8674304222859509,1.0597049966069985,6.135543346405029,1.3970781564712524,4.45540714263916,-0.2316698580980301,-0.9527481198310852,-0.19646961987018585,0.45873603224754333,1.303044080734253,0.32787835597991943
1.257950180729313,-1.0966825138778655,1.3139536006551353,6.324399948120117,1.2335917949676514,4.869354248046875,-0.27382081747055054,-0.9514614939689636,-0.14051172137260437,0.3612843155860901,1.3395686149597168,0.42676669359207153
1.2333379590073457,-1.3154991045870725,1.557484923534274,6.439883708953857,1.1837060451507568,5.240398406982422,-0.3203592300415039,-0.9435992240905762,-0.08361126482486725,0.21348676085472107,1.3546555042266846,0.4127739667892456
1.1907505198645176,-1.4965256707505885,1.7627150029441772,6.372383117675781,1.0592576265335083,5.477205753326416,-0.36994075775146484,-0.9286476373672485,-0.02752637304365635,0.2409583032131195,1.324246883392334,0.3802638649940491
1.1357644077050177,-1.6342672604018518,1.9220972852897409,6.228796005249023,0.6180041432380676,5.576696872711182,-0.4205910861492157,-0.9068565964698792,0.0267312154173851,0.30358681082725525,1.2602499723434448,0.38749921321868896
1.0724694522890572,-1.7399486229634864,2.0437393293446457,6.135264873504639,-0.013694187626242638,5.74366569519043,-0.47113555669784546,-0.878383457660675,0.08046254515647888,0.31580114364624023,1.2069811820983887,0.4842500686645508
1.0026841267705484,-1.8233789666446814,2.1366064358769785,6.030172824859619,-0.652529776096344,5.937839984893799,-0.5209699273109436,-0.8429182171821594,0.13445961475372314,0.35806727409362793,1.1381299495697021,0.6369028091430664
0.9279446021222657,-1.8897489748610155,2.2070082228108197,5.883183479309082,-0.9759526252746582,6.176637649536133,-0.5692453980445862,-0.8003894686698914,0.18798044323921204,0.39955246448516846,1.106358528137207,0.6911548376083374
0.8486862450604771,-1.939757972961754,2.2589181130309717,5.635387897491455,-0.9321567416191101,6.578085899353027,-0.6164883375167847,-0.7504127025604248,0.23837697505950928,0.3612392544746399,1.1293644905090332,0.7021291255950928
0.7648966085399577,-1.973985079068075,2.2947631412026905,5.282895088195801,-0.7259921431541443,7.102094650268555,-0.6636039614677429,-0.6924623847007751,0.28306496143341064,0.3486320972442627,1.2127563953399658,0.7046366930007935
0.677298910841715,-1.9960311286006245,2.317593524706238,4.941807270050049,-0.6966882348060608,7.565858840942383,-0.7098683714866638,-0.6266904473304749,0.3214752972126007,0.3503103256225586,1.356106162071228,0.7387665510177612
0.5869217726247732,-2.012228815183278,2.3315463695329353,4.724480152130127,-0.9148147106170654,7.907906532287598,-0.7528321743011475,-0.5538005828857422,0.3557370603084564,0.3660372495651245,1.4120919704437256,0.8048313856124878
0.49466575186135414,-2.0278607595923703,2.34009131178526,4.634430885314941,-1.3727494478225708,8.07900619506836,-0.7897841930389404,-0.4747374951839447,0.388414204120636,0.30934596061706543,1.3954222202301025,0.8981460332870483
0.4020524461792616,-2.0473423634543284,2.345733484434464,4.622547149658203,-2.0355522632598877,8.011577606201172,-0.8177287578582764,-0.3913079500198364,0.42213496565818787,0.22413146495819092,1.3842277526855469,0.9568782448768616
0.3106905084624967,-2.071515147695006,2.349163918687617,4.51030158996582,-2.5373451709747314,7.8546857833862305,-0.8352380394935608,-0.3057161569595337,0.45707249641418457,0.08507025241851807,1.2295441627502441,1.029088020324707
0.22131244959603538,-2.0983787885573713,2.3487683082493556,4.209497928619385,-2.833554267883301,7.798205375671387,-0.8429535031318665,-0.2195102572441101,0.49116721749305725,-0.033847153186798096,1.0667848587036133,1.1155226230621338
0.1337961837201251,-2.126280462221517,2.3428396221383228,3.8226189613342285,-2.947164297103882,7.832079887390137,-0.8420517444610596,-0.13339735567569733,0.5226415991783142,-0.05736231803894043,1.054524540901184,1.1548640727996826
0.048426194506227434,-2.154949269496752,2.331205667534441,3.457811117172241,-2.992053270339966,7.814587593078613,-0.8332018852233887,-0.04840726777911186,0.5508466362953186,-0.08736103773117065,1.0935883522033691,1.1629750728607178
-0.034249287552902574,-2.184511054738005,2.314716341244677,3.157514810562134,-2.93318772315979,7.724883079528809,-0.8170350193977356,0.03424259275197983,0.5755706429481506,-0.1724669337272644,1.0791605710983276,1.1191470623016357
-0.11353146424779373,-2.2145762615484923,2.2940574701454746,2.841510534286499,-2.7744908332824707,7.530858993530273,-0.7946838140487671,0.11328773200511932,0.596359133720398,-0.289758563041687,1.0498286485671997,1.0429081916809082
-0.1878982267510361,-2.2450495522349683,2.2698973921656465,2.4927282333374023,-2.5990023612976074,7.156270980834961,-0.7674240469932556,0.18679453432559967,0.6133256554603577,-0.4106154441833496,1.021335244178772,0.9869248270988464
-0.2557434187229625,-2.276334555674186,2.2431101567419818,2.1123013496398926,-2.502037763595581,6.652656555175781,-0.7365031838417053,0.25296470522880554,0.6273534893989563,-0.5587698221206665,0.9417983293533325,0.9749416708946228
-0.3159635733961125,-2.309219177578434,2.2140390234814307,1.650696039199829,-2.426694393157959,6.08245325088501,-0.702922523021698,0.31073248386383057,0.6398012042045593,-0.6829112768173218,0.7797672748565674,1.032379150390625
-0.36671139485523246,-2.3443131773886297,2.1827485305720438,0.9913018941879272,-2.5154173374176025,5.353944778442383,-0.667888343334198,0.3585474193096161,0.6522031426429749,-0.7162516117095947,0.5490909814834595,1.1477694511413574
-0.4067149092582311,-2.38208340607365,2.1486136497207062,0.26307353377342224,-2.4134998321533203,4.812283039093018,-0.6323961615562439,0.39559435844421387,0.6660182476043701,-0.7353101372718811,0.3368884027004242,1.234220027923584
-0.43675435963811887,-2.420308690020292,2.110817683218201,-0.4965747892856598,-2.1402218341827393,4.334171772003174,-0.5983622074127197,0.4230007231235504,0.6804657578468323,-0.9215506315231323,0.28369471430778503,1.2960054874420166
-0.45619400478955247,-2.4584570148004152,2.0698269722157185,-1.3253377676010132,-1.9537049531936646,3.838810443878174,-0.5666761994361877,0.4405345320701599,0.6962815523147583,-0.8591815233230591,0.2428913414478302,1.2062914371490479
-0.46452096223763534,-2.49622550568724,2.025967237696042,-2.224165678024292,-1.6862375736236572,3.401501417160034,-0.5377557277679443,0.447994589805603,0.7142271399497986,-0.902582585811615,0.14355814456939697,1.1772375106811523
-0.4617174637948761,-2.5324444041061573,1.9791511257763656,-3.1539394855499268,-1.3799394369125366,3.08056378364563,-0.5122568011283875,0.4454863965511322,0.7342585921287537,-0.9309196472167969,0.09514772891998291,1.1703591346740723
-0.4482739055383435,-2.5672163513316284,1.929709890471176,-4.034310340881348,-1.259032130241394,2.7937633991241455,-0.48963046073913574,0.43341064453125,0.756583034992218,-0.9342740774154663,0.1032257080078125,1.103265404701233
-0.42423472889816455,-2.6013696617529174,1.8795761601950582,-4.871937274932861,-1.3617844581604004,2.3555006980895996,-0.46873417496681213,0.411623477935791,0.7815717458724976,-0.9606024026870728,0.09208425879478455,1.0774829387664795
-0.3881036266924496,-2.6355686475267746,1.8316679158306788,-5.8343892097473145,-1.7186254262924194,1.6276618242263794,-0.44865530729293823,0.3784337639808655,0.8096275329589844,-1.0558613538742065,-0.011795669794082642,1.1355936527252197
-0.3368591553847176,-2.670404732224737,1.7885207250283706,-7.057629585266113,-2.1709558963775635,0.6711021065711975,-0.42843225598335266,0.33052441477775574,0.8409516215324402,-1.1653940677642822,-0.17490017414093018,1.2580018043518066
-0.2679965642126905,-2.7048083685123165,1.7515001332468727,-8.47799015045166,-2.455390691757202,-0.34326136112213135,-0.4079272150993347,0.2648000419139862,0.8737714290618896,-1.241944670677185,-0.35180583596229553,1.4311603307724
-0.17981048586468198,-2.73514338538955,1.7198323761085148,-10.22854232788086,-2.1061692237854004,-1.2249906063079834,-0.388976514339447,0.17884311079978943,0.903721809387207,-1.3987739086151123,-0.376810759305954,1.5630754232406616
-0.06962375337437328,-2.7550682657482453,1.6921193263268997,-12.27723503112793,-1.0852830410003662,-2.213855504989624,-0.3760582506656647,0.06956751644611359,0.9239809513092041,-1.7236884832382202,-0.06288432329893112,1.6174620389938354
0.06244063027506302,-2.756466122593617,1.6674452092065863,-14.023341178894043,0.9774348735809326,-3.076625347137451,-0.37494444847106934,-0.06240006536245346,0.9249452352523804,-2.1119637489318848,0.5108251571655273,1.5554018020629883
0.20955819382266613,-2.7292094754803675,1.6412988122597814,-15.08716869354248,3.8033554553985596,-3.4759445190429688,-0.392025887966156,-0.20802778005599976,0.8961257338523865,-2.1569855213165283,1.0883222818374634,1.194267749786377
0.36306170089672024,-2.667660831190714,1.6059112127729807,-15.55663776397705,6.423159122467041,-3.464336633682251,-0.426638126373291,-0.35513800382614136,0.8317794799804688,-1.7239203453063965,1.572026252746582,0.6377334594726562
0.5141376435883344,-2.5702838708097673,1.5520995623436504,-15.502458572387695,8.343049049377441,-3.108671188354492,-0.47082608938217163,-0.49178415536880493,0.732442319393158,-1.0695488452911377,1.900749921798706,0.3049418330192566
0.6537873247439719,-2.4370694250675298,1.4710897432225423,-15.000015258789062,9.165111541748047,-2.6474082469940186,-0.514112114906311,-0.6081970930099487,0.6048020720481873,-0.37062305212020874,1.9483153820037842,0.13144981861114502
0.7744650681709355,-2.272316944068061,1.3587735871334943,-14.036739349365234,8.975099563598633,-2.5068347454071045,-0.5460047125816345,-0.6993337869644165,0.4613145589828491,0.20211738348007202,1.7671589851379395,0.0717969536781311
0.8724488170294796,-2.082525103473103,1.2209676438070556,-12.49626350402832,8.774237632751465,-2.926116943359375,-0.5605903267860413,-0.7659056782722473,0.31484469771385193,0.34921032190322876,1.4967100620269775,-0.004694581031799316
0.9477332820861953,-1.8741367147792978,1.0674162355020862,-10.815685272216797,8.654585838317871,-3.3689024448394775,-0.5568842887878418,-0.8120949268341064,0.17430482804775238,0.0327143669128418,1.1521520614624023,-0.3699988126754761
1.0015369459931798,-1.6513807016195003,0.9034561002985552,-9.367741584777832,8.793670654296875,-3.6104931831359863,-0.5372596979141235,-0.8423004150390625,0.04338869825005531,-0.12980884313583374,0.8886715769767761,-0.7041095495223999
1.0343489733722593,-1.4191311314856174,0.7353186439088759,-8.084729194641113,9.031643867492676,-3.5071020126342773,-0.5052191019058228,-0.8595297932624817,-0.07721712440252304,-0.08140498399734497,0.8478261828422546,-0.7687759399414062
1.0467265427789465,-1.1905064878144433,0.5756885783997535,-6.875369548797607,9.137807846069336,-3.0802252292633057,-0.4646574556827545,-0.8657898306846619,-0.18574628233909607,0.06110832095146179,0.8628600239753723,-0.7534016966819763
1.0427179281659893,-0.9820028549868038,0.43969344594553905,-5.580709934234619,9.03201675415039,-2.5815775394439697,-0.41902780532836914,-0.8637769222259521,-0.27983078360557556,0.19762283563613892,0.9318158030509949,-0.7146302461624146
1.0309534025042844,-0.8044450764682182,0.33677765276419014,-4.047847270965576,8.768791198730469,-2.1389541625976562,-0.3703102767467499,-0.8577894568443298,-0.35646575689315796,0.29351285099983215,0.9526074528694153,-0.7347208261489868
1.0196066633859884,-0.660527683819753,0.2687760352873883,-2.3800814151763916,8.403548240661621,-1.5580694675445557,-0.32130828499794006,-0.8519020676612854,-0.41355034708976746,0.2879068851470947,0.8834877610206604,-0.8634729385375977
1.013105084997016,-0.5486061124147994,0.23251580058974844,-0.9156344532966614,7.80446720123291,-0.8282599449157715,-0.2759919762611389,-0.8484792113304138,-0.4515656530857086,0.3532015383243561,0.850920557975769,-0.9250060319900513
1.0127289538914663,-0.46549031260873774,0.22138705805706113,0.24012787640094757,6.92979097366333,-0.18528257310390472,-0.23769335448741913,-0.848280131816864,-0.47320476174354553,0.4433819651603699,0.8612195253372192,-0.8040779829025269
1.0196963046410394,-0.40633079814906015,0.22753019356737242,1.3013463020324707,5.97853946685791,0.15313082933425903,-0.2069583386182785,-0.8519490361213684,-0.480989933013916,0.4233890771865845,0.8274890184402466,-0.5751624703407288
1.0357903350609383,-0.3660070499609216,0.24531814093527546,2.3715291023254395,5.174348831176758,0.350683331489563,-0.18246886134147644,-0.8602655529975891,-0.4760761857032776,0.2607771158218384,0.7482964396476746,-0.4346751570701599
1.0608927261582464,-0.342672045796614,0.2741500254223904,3.3192849159240723,4.527645111083984,0.6327236294746399,-0.16400177776813507,-0.872791588306427,-0.4597156345844269,0.10644575953483582,0.679599940776825,-0.417680025100708
1.0928684427543296,-0.3379037221232538,0.3166391425623943,4.038135051727295,3.9140031337738037,1.0570623874664307,-0.15247493982315063,-0.8879498839378357,-0.43393170833587646,0.20232553780078888,0.7899882793426514,-0.1905342936515808
1.1292202082731075,-0.356653627628488,0.3775048185120973,4.6401238441467285,3.2680540084838867,1.5680317878723145,-0.14921046793460846,-0.9040791988372803,-0.4004712998867035,0.2845865488052368,0.8617511987686157,-0.02657639980316162
1.1679161090762988,-0.40587155869547403,0.46445208760537354,5.192486763000488,2.7868940830230713,2.196936845779419,-0.15479685366153717,-0.9199355840682983,-0.36021748185157776,0.3290523588657379,0.9294264316558838,0.044269025325775146
1.205540161342261,-0.4947288762944485,0.5880350115173957,5.593392848968506,2.3857927322387695,2.8760712146759033,-0.16959066689014435,-0.9340323209762573,-0.31436076760292053,0.378254771232605,1.0082051753997803,0.1423942744731903
1.2369058330885947,-0.630346608943405,0.7561838253124894,5.835627555847168,2.142141342163086,3.5418856143951416,-0.19316703081130981,-0.9447745084762573,-0.26474085450172424,0.36794134974479675,1.0720021724700928,0.24713227152824402
1.255660626102486,-0.812286670763343,0.9705634959451127,5.987728595733643,2.1590054035186768,4.259804725646973,-0.2249777764081955,-0.9507543444633484,-0.21319317817687988,0.33360522985458374,1.1832523345947266,0.28643542528152466
1.2557672601371805,-1.0225341022453676,1.2148849622367603,6.034193992614746,2.281982660293579,4.9088239669799805,-0.26443082094192505,-0.950787365436554,-0.16149233281612396,0.2585563361644745,1.2708709239959717,0.31380563974380493
1.2349033633739521,-1.2276536924937678,1.4549709115133869,6.020435810089111,2.1645348072052,5.4365620613098145,-0.3103971481323242,-0.9441163539886475,-0.11089766025543213,0.18229973316192627,1.3011717796325684,0.3926665186882019
1.1957209238422377,-1.4030091377506622,1.6622858293998517,5.970119476318359,1.6301833391189575,5.735826015472412,-0.3611980676651001,-0.9304800033569336,-0.06117961183190346,0.13138559460639954,1.276076316833496,0.5447917580604553
1.1438652326337853,-1.5431210672094853,1.8283305090564963,5.946322917938232,0.9259992837905884,5.823598861694336,-0.4139210283756256,-0.9102408289909363,-0.01145829726010561,0.11866357922554016,1.194054126739502,0.6345815658569336
1.0834795429132178,-1.6556743923006798,1.9595131681874987,6.0116705894470215,0.11918556690216064,5.949052333831787,-0.46657153964042664,-0.8835924863815308,0.03969706594944,0.13119864463806152,1.1309218406677246,0.6980044841766357
1.0146588268616308,-1.7476407902950026,2.063570492731252,6.064845085144043,-0.40262505412101746,6.388528347015381,-0.519676923751831,-0.8493005037307739,0.09287217259407043,0.2570578455924988,1.1463429927825928,0.740059494972229
0.9368064935708683,-1.8186010828789938,2.1425095440147417,5.849511623382568,-0.6910712122917175,6.988852500915527,-0.5742694735527039,-0.8056704998016357,0.1452929675579071,0.39995312690734863,1.2186341285705566,0.7403119802474976
0.8516999434490944,-1.8699854892570682,2.1982571223851566,5.488783836364746,-0.8387871384620667,7.518679141998291,-0.6294428110122681,-0.7524012327194214,0.1941504031419754,0.37996166944503784,1.3093163967132568,0.7115046977996826
0.7617020988293527,-1.9052190875894153,2.236303916941341,5.1488728523254395,-0.696052610874176,7.9585700035095215,-0.6835718154907227,-0.6901541948318481,0.23752346634864807,0.3246086835861206,1.320173978805542,0.6727245450019836
0.6685296001730273,-1.9298291107544279,2.2620587893390773,4.874977111816406,-0.9256781339645386,8.24719524383545,-0.7346971035003662,-0.6198328137397766,0.27573108673095703,0.251603901386261,1.3206535577774048,0.74940025806427
0.5739682213421903,-1.951585681795803,2.2801815988530874,4.72804069519043,-1.2224490642547607,8.330011367797852,-0.7796027660369873,-0.5429686307907104,0.31209704279899597,0.08543485403060913,1.2409512996673584,0.8795077204704285
0.4796890653241548,-1.972315711001188,2.2929809417458284,4.498013019561768,-1.6634684801101685,8.2611665725708,-0.8165829181671143,-0.46150335669517517,0.34670916199684143,-0.029135406017303467,1.123215913772583,0.987717866897583
0.3874740248105331,-1.993991140285277,2.3001458397435717,4.066707134246826,-2.034663677215576,8.177184104919434,-0.844188392162323,-0.3778509199619293,0.3802308738231659,-0.07234621047973633,1.0015689134597778,1.2191804647445679
0.296920807136749,-2.014962064888905,2.2992854629048267,3.3790152072906494,-2.1998531818389893,8.390218734741211,-0.8634575009346008,-0.2925771474838257,0.4109017550945282,0.07955241203308105,1.0058338642120361,1.390993595123291
0.20699383484490125,-2.0348527528223834,2.287963561616472,2.5456197261810303,-2.3479273319244385,8.781575202941895,-0.8751550316810608,-0.20551884174346924,0.4380248486995697,0.15469616651535034,1.0885601043701172,1.456796407699585
0.11713864239115379,-2.0560497357094176,2.2659152727890355,1.8383986949920654,-2.617563247680664,9.228206634521484,-0.8784950375556946,-0.1168709397315979,0.46323615312576294,0.13688743114471436,1.2145270109176636,1.3984124660491943
0.026545789995009242,-2.0819737883855747,2.2351536725060557,1.4771672487258911,-3.029813289642334,9.649595260620117,-0.8718620538711548,-0.026542672887444496,0.4890323281288147,0.05269378423690796,1.3540877103805542,1.2483336925506592
-0.06564952633737633,-2.115528597534276,2.1981012188415643,1.4395397901535034,-3.5511412620544434,10.04527759552002,-0.8534239530563354,0.0656023770570755,0.5170730352401733,-0.06304967403411865,1.4420115947723389,1.0893421173095703
-0.15949020346633633,-2.159247215137476,2.1558036146160906,1.5412440299987793,-4.28269100189209,10.304617881774902,-0.8212448358535767,0.1588149070739746,0.5480284690856934,-0.1961960792541504,1.4885543584823608,1.0829532146453857
-0.252472604256616,-2.215797522401197,2.108429142926113,1.6295616626739502,-5.0753254890441895,10.226401329040527,-0.773766040802002,0.2497989386320114,0.5821402072906494,-0.45229315757751465,1.3772456645965576,1.1872234344482422
-0.34101584406446245,-2.284565801273631,2.0553921994081077,1.5665203332901,-5.531345844268799,9.943892478942871,-0.7123715877532959,0.3344446122646332,0.6169880628585815,-0.6783604025840759,1.2026493549346924,1.3053603172302246
-0.4218272497112203,-2.363313593536197,1.9947928351360966,1.2082215547561646,-5.639309883117676,9.511884689331055,-0.6405144929885864,0.409428209066391,0.6496998071670532,-0.8555182814598083,0.9883377552032471,1.3846631050109863
-0.4898212379649986,-2.449092245595381,1.9256489342738021,0.49935248494148254,-5.384642124176025,8.823394775390625,-0.5633910894393921,0.4704681634902954,0.6791539192199707,-1.0922484397888184,0.740972638130188,1.4250025749206543
-0.5406942993682433,-2.538022356798267,1.8490377951631076,-0.4611425995826721,-4.817006587982178,7.959027290344238,-0.48662054538726807,0.5147313475608826,0.7058701515197754,-1.2985968589782715,0.5070581436157227,1.4019639492034912
-0.5717297563540419,-2.625118092194385,1.768789851023725,-1.5333024263381958,-4.127931118011475,6.894062519073486,-0.41528427600860596,0.5410875082015991,0.7312758564949036,-1.4675132036209106,0.27499836683273315,1.2965872287750244
-0.5821710204091556,-2.7058073109180807,1.6909682453575092,-2.5918307304382324,-3.526298761367798,5.6701979637146,-0.3525867164134979,0.5498386025428772,0.7572056651115417,-1.6429883241653442,0.07224684953689575,1.210705280303955
-0.5733644159607624,-2.77615250390341,1.6213794602508493,-3.583859920501709,-2.925895929336548,4.403694152832031,-0.30021172761917114,0.5424615144729614,0.7846076488494873,-1.8047230243682861,-0.0535394549369812,1.1247860193252563
-0.547380559322979,-2.832667605348108,1.563438726372335,-4.586792945861816,-2.1944377422332764,3.16839599609375,-0.25961247086524963,0.5204523205757141,0.8134683966636658,-1.9046941995620728,-0.12882041931152344,1.017357587814331
-0.5056887634955289,-2.87332544761952,1.518032380822082,-5.67186975479126,-1.3627151250839233,2.0133919715881348,-0.2318863719701767,0.4844101071357727,0.8435497879981995,-1.9345260858535767,-0.1555832028388977,0.9510520696640015
-0.4487625202909854,-2.8982387886956267,1.484101410610333,-6.904965400695801,-0.4768313765525818,0.9690659642219543,-0.21710042655467987,0.4338509142398834,0.8744376301765442,-1.9167344570159912,-0.16685274243354797,1.0026378631591797
-0.3766924318681438,-2.9080711587964663,1.4591629626962623,-8.20455265045166,0.5230055451393127,0.10317136347293854,-0.21518032252788544,0.367846816778183,0.9046474099159241,-1.8059074878692627,-0.06299152970314026,1.0325783491134644
-0.2904751999133571,-2.904759748910779,1.4399497181707817,-9.423123359680176,1.394406795501709,-0.554095983505249,-0.22479625046253204,0.28640756011009216,0.9313634634017944,-1.5941277742385864,0.12998944520950317,1.0036648511886597
-0.19200713006224995,-2.890723001697197,1.4235214827649125,-10.463617324829102,2.177417278289795,-1.1101659536361694,-0.2436845451593399,0.19082953035831451,0.9508954882621765,-1.3761428594589233,0.37830793857574463,0.954805314540863
-0.08368469012993747,-2.8689433889960685,1.4094928878477682,-11.165398597717285,2.5194404125213623,-1.8289954662322998,-0.2683415114879608,0.08358705043792725,0.9596909880638123,-1.231261968612671,0.5626378059387207,0.7794145345687866
0.031045028505294794,-2.8437394800890576,1.3985369836530703,-11.464034080505371,2.5787320137023926,-2.5081610679626465,-0.29332733154296875,-0.031040042638778687,0.9555085897445679,-1.1459734439849854,0.7216526865959167,0.5744754076004028
0.1484315966489778,-2.8166331698024174,1.3896440078169279,-11.428328514099121,2.711655855178833,-2.9857256412506104,-0.31575995683670044,-0.14788715541362762,0.9372438788414001,-1.0077570676803589,0.930342435836792,0.3149080276489258
0.264886917882719,-2.7867128868523134,1.3818344771045934,-11.03564739227295,2.990370273590088,-3.3236544132232666,-0.33535847067832947,-0.2618001401424408,0.9049839973449707,-0.84980708360672,1.0476123094558716,-0.0275881290435791
0.37676173687043446,-2.7523701054562224,1.3744902008577156,-10.324629783630371,3.452195167541504,-3.501469612121582,-0.3528536856174469,-0.36791127920150757,0.8603115677833557,-0.7157346606254578,1.0412204265594482,-0.32645219564437866
0.48153752287723345,-2.710944248817984,1.3671612962965973,-9.457138061523438,4.278481483459473,-3.627711772918701,-0.369988352060318,-0.46314239501953125,0.8053624033927917,-0.582679033279419,0.9213330745697021,-0.5102418661117554
0.5786416562696881,-2.659964951001587,1.3600019640679413,-8.559386253356934,5.206025123596191,-3.8303964138031006,-0.38781285285949707,-0.546887218952179,0.7419678568840027,-0.43042463064193726,0.7552457451820374,-0.6372466683387756
0.6683232045544364,-2.59946561435534,1.353339754942376,-7.643833160400391,6.143588066101074,-3.9912290573120117,-0.40495675802230835,-0.6196708083152771,0.6723231077194214,-0.36878594756126404,0.6138723492622375,-0.7318170666694641
0.7504044412677697,-2.5279139737922613,1.3456383583150813,-6.793787002563477,7.197254657745361,-3.9731645584106445,-0.4212053418159485,-0.681934654712677,0.5979559421539307,-0.2657453715801239,0.5227243304252625,-0.7202551960945129
0.8250124931171817,-2.4417724623314307,1.3335594568048568,-6.127607345581055,8.34249496459961,-3.7697956562042236,-0.4370393753051758,-0.734556257724762,0.5190607905387878,-0.18141469359397888,0.5141887068748474,-0.6211725473403931
0.8927875598312622,-2.3371001409998393,1.3126807764461443,-5.694575309753418,9.438921928405762,-3.5022101402282715,-0.4519159197807312,-0.7788232564926147,0.4349791705608368,-0.10580816864967346,0.5474539399147034,-0.4728972315788269
0.954335607459879,-2.2104530063673904,1.2785403293703206,-5.456011772155762,10.470261573791504,-3.2247250080108643,-0.46385109424591064,-0.8159298300743103,0.3451099991798401,-0.029770702123641968,0.5486567616462708,-0.2976093590259552
1.0086133106618012,-2.0577239623771018,1.2263094665313092,-5.277695655822754,11.371633529663086,-2.840824604034424,-0.47108274698257446,-0.846093475818634,0.2494138777256012,0.037244826555252075,0.5994044542312622,-0.1728452444076538
1.0526922556394065,-1.8796174584450502,1.1542350390213747,-4.97377872467041,11.86943531036377,-2.422305107116699,-0.47180575132369995,-0.8687596917152405,0.15051932632923126,0.13220617175102234,0.6556705832481384,-0.11788083612918854
1.0846735591182033,-1.685198071837809,1.0689596770892364,-4.378116607666016,12.073596000671387,-2.122605562210083,-0.46414753794670105,-0.8841509222984314,0.05333215743303299,0.18224143981933594,0.6173050999641418,-0.16771209239959717
1.1051926303791542,-1.4881982706952284,0.9832556090054316,-3.541654109954834,12.08736515045166,-1.838539719581604,-0.4474320113658905,-0.8935506939888,-0.03704129159450531,0.1629014015197754,0.5851094126701355,-0.2305978536605835
1.1160414127803966,-1.3030561705186179,0.9090177180266187,-2.5789716243743896,11.614471435546875,-1.4282673597335815,-0.42359262704849243,-0.8983687162399292,-0.11620277166366577,0.2377559244632721,0.6286695003509521,-0.19008690118789673
1.1204427161486779,-1.1432349117626694,0.8557035479718116,-1.5031373500823975,10.76385498046875,-0.9839521646499634,-0.3960998058319092,-0.900293231010437,-0.18049190938472748,0.26520997285842896,0.6765687465667725,-0.17459535598754883
1.1228754324849064,-1.016577688877085,0.8288184975115265,-0.3277454674243927,9.741525650024414,-0.5335473418235779,-0.3682638108730316,-0.9013494849205017,-0.2279275804758072,0.23626014590263367,0.6752294301986694,-0.1787191480398178
1.1266859881796414,-0.9262223149892951,0.8300591287013903,0.8323506116867065,8.569319725036621,-0.004541585221886635,-0.34344714879989624,-0.9029932618141174,-0.2581615746021271,0.2846704125404358,0.6800469756126404,-0.14825621247291565
1.1327817120976031,-0.8742888843397725,0.8599742859615704,1.9158258438110352,7.232641696929932,0.6599217057228088,-0.32535457611083984,-0.9055955410003662,-0.2721055746078491,0.384528249502182,0.7510238885879517,-0.0979657769203186
1.1408326005376712,-0.8629247558618397,0.9190270356766302,2.903902530670166,5.784602642059326,1.3274487257003784,-0.31669172644615173,-0.9089808464050293,-0.27103570103645325,0.4163317382335663,0.7700799703598022,-0.024893224239349365
1.1498095767507972,-0.8910792212515128,1.006176039555363,3.760263204574585,4.512106895446777,1.8965704441070557,-0.317836731672287,-0.9126861095428467,-0.25687360763549805,0.37646111845970154,0.7777677774429321,0.07131153345108032
1.1575692846705155,-0.9545864030041297,1.119249785538281,4.469480037689209,3.526113510131836,2.4078283309936523,-0.32770881056785583,-0.9158297181129456,-0.2320842444896698,0.3021351993083954,0.823666512966156,0.12173271179199219
1.1608801260667185,-1.0462271995274888,1.2542971194997847,4.946958541870117,2.963033437728882,2.8621511459350586,-0.34494611620903015,-0.9171542525291443,-0.19960127770900726,0.21143180131912231,0.8679748773574829,0.13351550698280334
1.1569109422202117,-1.1518267735080259,1.3997332466268873,5.021571636199951,2.596824884414673,3.129725694656372,-0.367385596036911,-0.9155651330947876,-0.16361045837402344,0.13951095938682556,0.8063121438026428,0.2795925736427307
1.1438607250742747,-1.2554142745585561,1.5403054144788706,4.723641872406006,2.4095299243927,3.4616191387176514,-0.39366012811660767,-0.9102389216423035,-0.12844032049179077,0.18566766381263733,0.7061524987220764,0.5120311379432678
1.119893203675106,-1.3437083354341333,1.6645407721378263,4.150420665740967,2.462390661239624,4.002165794372559,-0.4245905578136444,-0.9000539183616638,-0.09811174869537354,0.28999289870262146,0.7150257229804993,0.6617867946624756
1.0850625164176746,-1.4085152760175583,1.76521482689133,3.4272241592407227,2.5489208698272705,4.594437122344971,-0.46072396636009216,-0.8843325972557068,-0.07543008774518967,0.32386791706085205,0.7133880853652954,0.7601225972175598
1.0411901934558314,-1.4502166452095295,1.8419340589427837,2.7521116733551025,2.5120766162872314,5.148645401000977,-0.5015257000923157,-0.8630061149597168,-0.06076860800385475,0.33624255657196045,0.7056267857551575,0.8034292459487915
0.9896645018081695,-1.4754937753464026,1.8996532280986702,2.2216718196868896,2.2236852645874023,5.776704788208008,-0.5464795827865601,-0.8358418345451355,-0.05223914980888367,0.41415536403656006,0.7532457113265991,0.7793052792549133
0.9309479029499308,-1.49256523297815,1.9441176638758222,1.8834933042526245,1.597582459449768,6.368335247039795,-0.5952478051185608,-0.8021862506866455,-0.046662118285894394,0.46640270948410034,0.8456584215164185,0.7856453657150269
0.8664054425653388,-1.509850238593849,1.9803366902457182,1.754671573638916,0.5723003149032593,6.826906681060791,-0.6463677287101746,-0.7620061635971069,-0.039442434906959534,0.35893797874450684,0.9682894945144653,0.8152756690979004
0.7977107109770462,-1.5342991440356217,2.0123238612039005,1.9186817407608032,-0.7725688815116882,7.114052772521973,-0.6978822946548462,-0.71575927734375,-0.02548205479979515,0.29270046949386597,1.0041043758392334,0.83404541015625
0.7260521024314635,-1.5706777951923065,2.0434645556813136,2.342810869216919,-2.1729862689971924,7.327828407287598,-0.7478014826774597,-0.6639225482940674,-8.863810944603756e-05,0.2587572932243347,0.8792238831520081,0.8355684876441956
0.651005919368317,-1.6167212479426836,2.074297519770322,2.739500045776367,-3.052328109741211,7.599689960479736,-0.794636070728302,-0.6059868931770325,0.03651927784085274,0.1784709095954895,0.8835440874099731,0.8283795118331909
0.5721859890144291,-1.6651971189429853,2.1017982488331794,2.822012186050415,-3.447781801223755,7.8293867111206055,-0.8369762897491455,-0.5414711236953735,0.07924676686525345,0.1530163288116455,0.9339880347251892,0.8522719144821167
0.4904539730787856,-1.7108770729418814,2.122432970169986,2.607020139694214,-3.5845327377319336,8.01865291595459,-0.8734787106513977,-0.47102639079093933,0.12316420674324036,0.13220667839050293,0.9377162456512451,0.9269915819168091
