attitudeX,attitudeY,attitudeZ,gyroX,gyroY,gyroZ,gravityX,gravityY,gravityZ,accX,accY,accZ
0.7101056440162811,1.0197332035506075,-1.9678514332339794,-0.08257145434617996,-0.5013095736503601,-0.727944552898407,0.646041750907898,-0.6519138813018799,-0.39703717827796936,-0.0156400203704834,0.007657229900360107,-0.03223824501037598
0.7037270572937402,1.0170255225157023,-1.9720650416179435,-0.04110283777117729,-0.5860881209373474,-0.6869813799858093,0.6484879851341248,-0.6470637917518616,-0.400963693857193,0.0005446672439575195,0.018859446048736572,-0.022086143493652344
0.6980609662806591,1.013473960708685,-1.976309656290582,-0.004160874057561159,-0.6620577573776245,-0.6106833219528198,0.6501609086990356,-0.6427333950996399,-0.4051969647407532,0.020829081535339355,0.029467463493347168,-0.015823453664779663
0.693274685362252,1.0092778870284442,-1.9803499724101574,0.02004512958228588,-0.6895480155944824,-0.5246760249137878,0.6510515213012695,-0.6390593647956848,-0.4095548987388611,0.04993736743927002,0.026953041553497314,-0.016302525997161865
0.6893596642193327,1.0045704954988732,-1.9839686066942115,0.02879554219543934,-0.7043956518173218,-0.43631818890571594,0.6512228846549988,-0.6360431909561157,-0.4139541685581207,0.06671851873397827,0.015574991703033447,-0.015504419803619385
0.6859955570801097,0.9994263050918649,-1.9870174820829911,0.005130693316459656,-0.7070194482803345,-0.3867628872394562,0.6508809328079224,-0.6334436535835266,-0.4184533953666687,0.06225395202636719,0.0027368664741516113,-0.0063970088958740234
0.6827684337471237,0.9938882888924687,-1.9894565171880056,-0.03666665405035019,-0.7035582065582275,-0.36120253801345825,0.6502634882926941,-0.6309432983398438,-0.4231642782688141,0.042119383811950684,-0.00908660888671875,-0.0008315742015838623
0.6793336857919339,0.9880551950646554,-1.9914389647117574,-0.08207274973392487,-0.7037105560302734,-0.38524049520492554,0.6495897769927979,-0.6282747983932495,-0.42814022302627563,0.021476566791534424,-0.014593303203582764,0.0062500834465026855
0.6752521774041162,0.9821316369281559,-1.993168521843574,-0.14008238911628723,-0.6971341371536255,-0.44463297724723816,0.6491695642471313,-0.6250941753387451,-0.43340080976486206,-0.010039865970611572,-0.027356386184692383,0.030339986085891724
0.6701639613128352,0.97588437115951,-1.9948216302991983,-0.21356113255023956,-0.763879120349884,-0.5446773171424866,0.6490751504898071,-0.6211144924163818,-0.4392247200012207,-0.042965471744537354,-0.038187265396118164,0.054566025733947754
0.663706243095478,0.9687356454635283,-1.9964311454127113,-0.30145910382270813,-0.8575794100761414,-0.6650030612945557,0.6492108702659607,-0.6160405278205872,-0.44611579179763794,-0.07282531261444092,-0.046862244606018066,0.0794929563999176
0.6557892736591344,0.9608238710695355,-1.9981520700660764,-0.37016892433166504,-0.9272043108940125,-0.7862181663513184,0.6496384739875793,-0.6097849607467651,-0.4540179669857025,-0.09037327766418457,-0.05655109882354736,0.09928172826766968
0.6465490903119081,0.9524088404599887,-2.0002139545137467,-0.4184510111808777,-1.0068963766098022,-0.9083965420722961,0.6503583788871765,-0.6024355888366699,-0.4627152979373932,-0.09057432413101196,-0.06725740432739258,0.10579705238342285
0.6361115951927937,0.9432740344126564,-2.0028463751291077,-0.4513905644416809,-1.1321784257888794,-1.0230895280838013,0.6511591672897339,-0.5940720438957214,-0.4723031222820282,-0.08867430686950684,-0.06944113969802856,0.10618382692337036
0.624699174093042,0.9332283100945908,-2.0060925446389155,-0.47210124135017395,-1.2477670907974243,-1.1162773370742798,0.6517874598503113,-0.5848532915115356,-0.4828249216079712,-0.0907522439956665,-0.07122892141342163,0.10961031913757324
0.6125411148811919,0.9223810932674301,-2.0098877107650073,-0.48651161789894104,-1.3520578145980835,-1.1880288124084473,0.6521314978599548,-0.5749484300613403,-0.4941244423389435,-0.09158450365066528,-0.07309234142303467,0.11892616748809814
0.599873880546806,0.9107097703578086,-2.014087152359229,-0.5040957927703857,-1.4506186246871948,-1.2346913814544678,0.6520212292671204,-0.5645383596420288,-0.5061272978782654,-0.08855980634689331,-0.07358419895172119,0.12522220611572266
0.5867524770990825,0.8983159586385999,-2.0187121627657505,-0.5115723013877869,-1.5354666709899902,-1.2931376695632935,0.6514374613761902,-0.5536596179008484,-0.5187392234802246,-0.08559572696685791,-0.06981450319290161,0.13067775964736938
0.5731225948660178,0.885235592917301,-2.023891671886196,-0.5234785079956055,-1.6372114419937134,-1.3651918172836304,0.6503778696060181,-0.5422583222389221,-0.5319441556930542,-0.08957153558731079,-0.07833188772201538,0.13683313131332397
0.5588236094483031,0.8713995571569991,-2.0296409213030837,-0.5515679717063904,-1.7330585718154907,-1.4468454122543335,0.6488233804702759,-0.5301891565322876,-0.5458276271820068,-0.09363222122192383,-0.08066600561141968,0.1485803723335266
0.5437995895094586,0.8569691350094304,-2.035901065784297,-0.5823556184768677,-1.7916492223739624,-1.522599458694458,0.6468278765678406,-0.5173912048339844,-0.560285747051239,-0.09247595071792603,-0.07861709594726562,0.1636641025543213
0.5281490997215601,0.8423285045529842,-2.042673641778927,-0.6049773097038269,-1.8138232231140137,-1.5827103853225708,0.6445196866989136,-0.5039355158805847,-0.5750160217285156,-0.0837591290473938,-0.07023745775222778,0.1715584397315979
0.5120902552924587,0.8275719342728959,-2.049845355817959,-0.6236939430236816,-1.8395774364471436,-1.6171318292617798,0.6418408751487732,-0.4900004267692566,-0.5898643732070923,-0.07258111238479614,-0.05357867479324341,0.17304009199142456
0.4958428814048504,0.8124703228577415,-2.0572598280823615,-0.639725387096405,-1.8893604278564453,-1.628990650177002,0.6385560631752014,-0.4757731854915619,-0.6048852205276489,-0.05881357192993164,-0.03191724419593811,0.1774408221244812
0.47957135962447645,0.7966028966365011,-2.0647870603450964,-0.6516328454017639,-1.9772664308547974,-1.6287275552749634,0.6343296766281128,-0.4613989293575287,-0.620271623134613,-0.04175460338592529,-0.018001705408096313,0.1845112442970276
0.4634186821269306,0.7798013847667116,-2.0724950299317837,-0.6421245336532593,-2.0723888874053955,-1.6198818683624268,0.62897789478302,-0.44700881838798523,-0.6360580921173096,-0.025462210178375244,-0.019879579544067383,0.19129502773284912
0.44757752041615667,0.7621639121235464,-2.0805909897994597,-0.6069750785827637,-2.1516075134277344,-1.6197611093521118,0.622473955154419,-0.43278294801712036,-0.6520928740501404,-0.01309889554977417,-0.02858176827430725,0.19371896982192993
0.43225793923942213,0.7439322296516807,-2.08940148685255,-0.5310866832733154,-2.228949546813965,-1.6268458366394043,0.6149004101753235,-0.4189221262931824,-0.6681330800056458,-0.0029007792472839355,-0.03656798601150513,0.19486653804779053
0.4176357701637699,0.7252585631869731,-2.0992278911667537,-0.43590500950813293,-2.293278217315674,-1.655820608139038,0.606316089630127,-0.40560057759284973,-0.6840094923973083,-0.0005726218223571777,-0.04360291361808777,0.20285415649414062
0.40368030050197506,0.7066200204242492,-2.1102466790109604,-0.3440491259098053,-2.286539316177368,-1.6877415180206299,0.5970797538757324,-0.3928054869174957,-0.6994280815124512,-0.0010867118835449219,-0.05343779921531677,0.21102482080459595
0.3903322887578535,0.688824074721782,-2.122325578527436,-0.27066779136657715,-2.1788980960845947,-1.718274474143982,0.5878194570541382,-0.38049572706222534,-0.7139266729354858,0.004633605480194092,-0.06698346138000488,0.22289890050888062
0.3774807628501486,0.6725543845724912,-2.135189436871803,-0.22795069217681885,-2.0237338542938232,-1.740012288093567,0.5791255235671997,-0.36857977509498596,-0.7271606922149658,0.01940053701400757,-0.08063897490501404,0.24980473518371582
0.36489498376778423,0.657646958349914,-2.1485199424277956,-0.22335879504680634,-1.9196897745132446,-1.757097601890564,0.5710119605064392,-0.356851190328598,-0.7393258213996887,0.03805798292160034,-0.08060303330421448,0.301688551902771
0.35236435173710373,0.6433315810704237,-2.1620951511955098,-0.23238371312618256,-1.8940541744232178,-1.7731918096542358,0.5630083680152893,-0.34511786699295044,-0.7509430050849915,0.057139456272125244,-0.07221001386642456,0.36085206270217896
0.33983660175515185,0.6289103712709958,-2.1758135274744554,-0.24751333892345428,-1.91139817237854,-1.7791011333465576,0.554620623588562,-0.3333330452442169,-0.7624204754829407,0.07631504535675049,-0.0635480284690857,0.4150542616844177
0.3273657549525089,0.6140826022419932,-2.189552402960379,-0.2667700946331024,-1.9390106201171875,-1.7682644128799438,0.5456080436706543,-0.32154980301856995,-0.773897647857666,0.09579521417617798,-0.056456148624420166,0.4540277123451233
0.3150922964650459,0.5987424539923705,-2.2030755224218974,-0.2872260510921478,-1.9696629047393799,-1.7210615873336792,0.5358566641807556,-0.30990421772003174,-0.785377025604248,0.10949862003326416,-0.046068042516708374,0.4837108254432678
0.30321640557537455,0.5824519060030927,-2.215973224713995,-0.31833070516586304,-2.0765116214752197,-1.6218862533569336,0.5249794721603394,-0.2985914349555969,-0.7970193028450012,0.12348860502243042,-0.028160274028778076,0.514212965965271
0.2918125747672154,0.5639564289193725,-2.2275028790518028,-0.40624916553497314,-2.288323402404785,-1.4478787183761597,0.5119361877441406,-0.28768864274024963,-0.8094174265861511,0.13557058572769165,-0.006149858236312866,0.5551145076751709
0.28078942390897016,0.5426105099088928,-2.2366947680672875,-0.5487895607948303,-2.4732468128204346,-1.1973788738250732,0.49615055322647095,-0.27711424231529236,-0.8228258490562439,0.15393495559692383,0.015105575323104858,0.6027788519859314
0.2699167390071175,0.5188649028802269,-2.242812407029832,-0.7324581146240234,-2.5866053104400635,-0.9144327044487,0.4779399335384369,-0.2666511833667755,-0.8369411826133728,0.17919516563415527,0.0188179612159729,0.6386685371398926
0.25872606123811115,0.49335066309648623,-2.245762194738369,-0.944839358329773,-2.647006034851074,-0.6696112155914307,0.4578173756599426,-0.2558492124080658,-0.8514367341995239,0.18379953503608704,0.016042113304138184,0.6637688875198364
0.2467308512347276,0.4669577637669215,-2.2460538760082733,-1.145876407623291,-2.613053798675537,-0.49607694149017334,0.43653884530067444,-0.24423512816429138,-0.8659001588821411,0.14651480317115784,0.016009435057640076,0.6803227663040161
0.23368172221506567,0.44111973156752865,-2.244627439829824,-1.3065438270568848,-2.4620494842529297,-0.4056767225265503,0.4153479039669037,-0.23156073689460754,-0.8796964287757874,0.08448433876037598,0.010949194431304932,0.6734433770179749
0.21962381246026902,0.4168588708980137,-2.242413813887149,-1.4145100116729736,-2.272531747817993,-0.3756498396396637,0.3951646387577057,-0.21786248683929443,-0.8924017548561096,0.018882691860198975,0.0034917891025543213,0.6531286835670471
0.20481087005302914,0.3943714297834946,-2.240079635083916,-1.4695806503295898,-2.1218948364257812,-0.3692129850387573,0.37619736790657043,-0.2033819854259491,-0.9039421081542969,-0.03453776240348816,-0.0013909339904785156,0.6363487243652344
0.1897636054485033,0.3728384025743619,-2.237826081498741,-1.4708173274993896,-2.106119394302368,-0.3432382345199585,0.3577214181423187,-0.1886267513036728,-0.9145793318748474,-0.07778361439704895,-0.0002465099096298218,0.6359996795654297
0.17491774276006186,0.3503224815466639,-2.2356360486957385,-1.4510444402694702,-2.336695432662964,-0.30034857988357544,0.3379637897014618,-0.17402713000774384,-0.9249297380447388,-0.11361372470855713,0.013535216450691223,0.662402331829071
0.16029209016324628,0.32432427404324815,-2.233343759844165,-1.4524680376052856,-2.7865846157073975,-0.23920337855815887,0.31458327174186707,-0.15960656106472015,-0.9357153177261353,-0.1690295934677124,0.03274501860141754,0.7151037454605103
0.1455068646964879,0.2934876558770924,-2.230755897834476,-1.5161175727844238,-3.2719314098358154,-0.1743870973587036,0.28623542189598083,-0.14499396085739136,-0.9471251368522644,-0.23470643162727356,0.053807467222213745,0.7656524181365967
0.13016690392207303,0.2584490285195782,-2.228053046853994,-1.5689247846603394,-3.6114795207977295,-0.1533414125442505,0.25341925024986267,-0.12979963421821594,-0.9586087465286255,-0.2924817204475403,0.057595089077949524,0.7938901782035828
0.11450689265871865,0.22104163250961043,-2.2259662624614287,-1.559377908706665,-3.780670166015625,-0.200132355093956,0.2178102433681488,-0.11425682157278061,-0.9692801833152771,-0.34129956364631653,0.0429830476641655,0.7881888747215271
0.09883448120895574,0.18259937476990634,-2.2253287942686226,-1.5275113582611084,-3.8575356006622314,-0.30490025877952576,0.1807001829147339,-0.09867365658283234,-0.9785760045051575,-0.4069727063179016,0.033671244978904724,0.761275589466095
0.08332955485353247,0.14408369034739937,-2.2263215823448617,-1.4913405179977417,-3.817521810531616,-0.38151007890701294,0.1430874466896057,-0.08323314785957336,-0.9862039685249329,-0.47440147399902344,0.04146987944841385,0.7328775525093079
0.06831368288551083,0.10689529493776627,-2.228434578451159,-1.4268722534179688,-3.6097252368927,-0.39822375774383545,0.10644298046827316,-0.068260557949543,-0.9919729828834534,-0.5011725425720215,0.07221262156963348,0.7067251801490784
0.05417106171204566,0.0722976923462686,-2.230951973429701,-1.335345983505249,-3.309133529663086,-0.3454234004020691,0.0721287652850151,-0.05414457246661186,-0.9959245920181274,-0.5068973898887634,0.10491059720516205,0.6747575998306274
0.04109574929706686,0.0407068683716037,-2.2332933516438906,-1.2397541999816895,-3.022616147994995,-0.2622925639152527,0.040661267936229706,-0.041084181517362595,-0.9983279705047607,-0.5077632665634155,0.13465110957622528,0.6672427654266357
0.029083057940108528,0.011136913289541691,-2.2351133467364437,-1.1449792385101318,-2.919355869293213,-0.1636146903038025,0.011131973937153816,-0.029078958556056023,-0.9995151162147522,-0.5281149744987488,0.14918091893196106,0.6879611611366272
0.017771172725374845,-0.019179365284487097,-2.2361838319248264,-1.1293652057647705,-3.1824817657470703,-0.03549305722117424,-0.01917516067624092,-0.01777023822069168,-0.9996582269668579,-0.5642140507698059,0.15990589559078217,0.7540069818496704
0.0056718444484215045,-0.05406792487261923,-2.2359173352955337,-1.3047417402267456,-3.798452615737915,0.1937880665063858,-0.05404071509838104,-0.0056718140840530396,-0.9985226392745972,-0.656469464302063,0.17585313320159912,0.8494442701339722
-0.009218140716671243,-0.09547756101838338,-2.233286708147335,-1.6280502080917358,-4.436304569244385,0.5692504644393921,-0.09532851725816727,0.009218010120093822,-0.9954031705856323,-0.7662742137908936,0.2415297031402588,0.9436300992965698
-0.028310125648444262,-0.14216994055617668,-2.2274705260948258,-2.016512155532837,-4.865816116333008,1.0425775051116943,-0.1416347175836563,0.028306344524025917,-0.9895142316818237,-0.8228885531425476,0.3582445979118347,0.9862641096115112
-0.05227589664076559,-0.191688010574129,-2.2183838658591886,-2.3841469287872314,-5.0435895919799805,1.5335204601287842,-0.1902559995651245,0.052252091467380524,-0.9803429841995239,-0.8660184144973755,0.45626235008239746,0.9648553133010864
-0.08095237719697493,-0.2412353541563038,-2.206622711949576,-2.691148042678833,-4.953327178955078,1.9790021181106567,-0.23812001943588257,0.08086398988962173,-0.9678635597229004,-0.9380273818969727,0.5273666381835938,0.8774857521057129
-0.11433184162861673,-0.2879706566387544,-2.1928550812213308,-3.0215511322021484,-4.598402500152588,2.396881580352783,-0.28215283155441284,0.11408291757106781,-0.9525622725486755,-1.0440189838409424,0.5958322882652283,0.729707658290863
-0.15276790309181584,-0.32921712633190525,-2.178011640171688,-3.3811662197113037,-3.9901766777038574,2.709991931915283,-0.3195370137691498,0.15217438340187073,-0.9352748394012451,-1.1659976243972778,0.6714187860488892,0.5926387310028076
-0.19566902188268187,-0.36321305867790404,-2.163681595819898,-3.6998283863067627,-3.2863078117370605,2.8132755756378174,-0.34849998354911804,0.19442284107208252,-0.9169228672981262,-1.263484239578247,0.7603043913841248,0.4509652256965637
-0.24164112224430517,-0.3908352795716676,-2.1517598070504342,-3.954265832901001,-2.772246837615967,2.6913163661956787,-0.3698926270008087,0.23929639160633087,-0.8977286219596863,-1.3570666313171387,0.8013225793838501,0.3249594569206238
-0.28890533407598024,-0.41568777347385677,-2.1437855170528315,-4.090489864349365,-2.6446142196655273,2.4021782875061035,-0.3870834708213806,0.2849031090736389,-0.8769245147705078,-1.4403395652770996,0.7773070335388184,0.2396106719970703
-0.33551440549106676,-0.44258483646858154,-2.140497537041124,-4.0839385986328125,-2.971808433532715,2.0215682983398438,-0.4043964147567749,0.3292549252510071,-0.8532612323760986,-1.492957592010498,0.7073204517364502,0.15045666694641113
-0.37994271965364185,-0.47645599960154084,-2.1423823604324492,-4.012814044952393,-3.6730587482452393,1.5769582986831665,-0.4259257912635803,0.3708672821521759,-0.8252543210983276,-1.52606999874115,0.6380133628845215,0.05317485332489014
-0.4211666624656715,-0.5198016904693322,-2.15054798425896,-3.928257942199707,-4.276761054992676,1.0046663284301758,-0.4533020257949829,0.40882542729377747,-0.7920726537704468,-1.5854400396347046,0.5926394462585449,-0.05213510990142822
-0.4575969971323128,-0.5703107921603153,-2.1669349631366686,-3.808605194091797,-4.31477165222168,0.19823744893074036,-0.4843476712703705,0.44179362058639526,-0.7551329731941223,-1.6491056680679321,0.5618380308151245,-0.23056954145431519
-0.48662831321912675,-0.6233366527966463,-2.193263287643417,-3.604726552963257,-3.80757212638855,-0.8193380832672119,-0.5159830451011658,0.4676482677459717,-0.7176814675331116,-1.659172534942627,0.5471222996711731,-0.4470982551574707
-0.506505702421838,-0.6750391469103016,-2.2292447793965686,-3.3629088401794434,-3.0708839893341064,-1.788109302520752,-0.5464650988578796,0.4851246476173401,-0.6826639771461487,-1.576932668685913,0.5487499237060547,-0.6341084837913513
-0.5173085220284122,-0.723427040660554,-2.272210797871926,-3.0965006351470947,-2.385615110397339,-2.4892220497131348,-0.5753424167633057,0.4945426285266876,-0.6514666080474854,-1.3245904445648193,0.5543160438537598,-0.7968823313713074
-0.521295248265937,-0.7673356507220013,-2.3181834107411166,-2.8983771800994873,-1.8418792486190796,-2.7591757774353027,-0.6020101308822632,0.498003751039505,-0.6241602897644043,-0.9739633798599243,0.5628788471221924,-0.9058384895324707
-0.522249915394519,-0.806954745834039,-2.3638443036614936,-2.8461215496063232,-1.5488990545272827,-2.6311769485473633,-0.6259162425994873,0.4988313913345337,-0.5994964838027954,-0.5996696352958679,0.5779813528060913,-0.9019683003425598
-0.5238431072920302,-0.8440440761406935,-2.4076503236046283,-2.9447154998779297,-1.512451410293579,-2.2428996562957764,-0.6471208930015564,0.5002115964889526,-0.5753459334373474,-0.26981019973754883,0.5919973850250244,-0.8381824493408203
-0.5284700321211054,-0.881083992516559,-2.4496260664555276,-3.1580793857574463,-1.6901243925094604,-1.7594562768936157,-0.6661903858184814,0.5042126774787903,-0.5495088696479797,-0.05831211805343628,0.5952746868133545,-0.776861310005188
-0.5368356824714288,-0.9204189664143536,-2.4907827816055965,-3.4092283248901367,-1.994613766670227,-1.3355578184127808,-0.6839034557342529,0.5114193558692932,-0.5203137397766113,0.02322840690612793,0.6015110015869141,-0.7584490776062012
-0.5478640269001507,-0.9631640776589568,-2.532124807199342,-3.569720506668091,-2.25416898727417,-1.0608386993408203,-0.7008395195007324,0.5208650827407837,-0.4873640239238739,-0.007503986358642578,0.6309752464294434,-0.8335435390472412
-0.5592217579735175,-1.0084716617845808,-2.5737756998501533,-3.5416502952575684,-2.3961563110351562,-0.9716306328773499,-0.7171427011489868,0.5305266380310059,-0.45193806290626526,-0.10472619533538818,0.6895204186439514,-1.0150113105773926
-0.5683245949175668,-1.0543150091582483,-2.614740942620249,-3.2823660373687744,-2.3433823585510254,-1.025824785232544,-0.7328703999519348,0.5382207632064819,-0.416196346282959,-0.20765084028244019,0.7487665414810181,-1.256838321685791
-0.5732025851330851,-1.0973970760540983,-2.6531318213419692,-2.802417039871216,-2.0379934310913086,-1.1638284921646118,-0.747769832611084,0.5423255562782288,-0.3830448389053345,-0.2614922523498535,0.785097599029541,-1.520519495010376
-0.5730238841772882,-1.133555369158963,-2.6864109920938413,-2.172445774078369,-1.55782151222229,-1.3126612901687622,-0.7612159848213196,0.5421754121780396,-0.3558032810688019,-0.23361122608184814,0.8040007948875427,-1.7471781969070435
-0.5681242510639564,-1.1611313073511766,-2.712906891945977,-1.4764524698257446,-1.0976636409759521,-1.3904212713241577,-0.7731643319129944,0.5380519032478333,-0.33573347330093384,-0.12888944149017334,0.8053929209709167,-1.8702601194381714
-0.5596920904580299,-1.1804481307935375,-2.7317792493216633,-0.804360032081604,-0.7580554485321045,-1.3862419128417969,-0.7836729288101196,0.5309252738952637,-0.322451651096344,0.017788589000701904,0.7984204292297363,-1.8963745832443237
-0.5490174108461509,-1.1929712873835028,-2.743286422877925,-0.22312988340854645,-0.5467575788497925,-1.3048776388168335,-0.7928722500801086,0.5218492746353149,-0.3146854341030121,0.15630614757537842,0.7897351980209351,-1.8482478857040405
-0.5375546857814009,-1.200571800236083,-2.748386902724888,0.22981148958206177,-0.4575611352920532,-1.128405213356018,-0.8007652163505554,0.5120370984077454,-0.3107941746711731,0.2748405933380127,0.7841359972953796,-1.7494932413101196
-0.5266213638893328,-1.2051817668452203,-2.748302655029151,0.5553050637245178,-0.480402410030365,-0.8999475836753845,-0.8073697090148926,0.5026153326034546,-0.3090825378894806,0.3667569160461426,0.7725311517715454,-1.6386865377426147
-0.5166918290341302,-1.2080831219428396,-2.7441663993411978,0.8144444823265076,-0.49969246983528137,-0.7002102136611938,-0.8128892779350281,0.49400654435157776,-0.3084944188594818,0.3956376910209656,0.7679106593132019,-1.5427933931350708
-0.5075553264145239,-1.2090162053566926,-2.736542288331034,1.071483850479126,-0.41398385167121887,-0.5274028182029724,-0.8173640966415405,0.48604220151901245,-0.30932044982910156,0.36263686418533325,0.7800711393356323,-1.4742183685302734
-0.49926351252131196,-1.2066710101928113,-2.7253786104863544,1.3383272886276245,-0.17682614922523499,-0.3146210312843323,-0.8203741908073425,0.4787790775299072,-0.31266099214553833,0.32261723279953003,0.7841603755950928,-1.4411383867263794
-0.492264954860248,-1.1996903844422322,-2.710434573441081,1.6058696508407593,0.15939296782016754,-0.04057512804865837,-0.8212742209434509,0.4726231098175049,-0.319587379693985,0.2949375510215759,0.7798488736152649,-1.4190905094146729
-0.48687823020769155,-1.1874841712025141,-2.691670837117032,1.8553156852722168,0.5112655162811279,0.25971704721450806,-0.819661557674408,0.4678691625595093,-0.3305353820323944,0.2789663076400757,0.7658193111419678,-1.3742222785949707
-0.48320092472222564,-1.1704897118401092,-2.669319194933542,2.059890031814575,0.7861549854278564,0.5664548277854919,-0.8155051469802856,0.46461600065231323,-0.3450848162174225,0.24839699268341064,0.719298243522644,-1.2963335514068604
-0.48116302836370545,-1.1499475235273466,-2.6439412457020937,2.204026699066162,0.9544315934181213,0.8436193466186523,-0.8091073632240295,0.4628104567527771,-0.362149178981781,0.190119206905365,0.671848475933075,-1.1931333541870117
-0.4803928479444196,-1.127008581283617,-2.6163295756538325,2.2871055603027344,1.0677995681762695,1.0482780933380127,-0.8009095191955566,0.46212759613990784,-0.38076525926589966,0.09929513931274414,0.6351167559623718,-1.0787378549575806
-0.4801202310024475,-1.1024815440134428,-2.5874054957086616,2.3221185207366943,1.1575942039489746,1.1432543992996216,-0.7914428114891052,0.46188580989837646,-0.400349497795105,-0.0250091552734375,0.594861626625061,-0.966776967048645
-0.4795336064087976,-1.0769405861891324,-2.558056374585419,2.3246114253997803,1.233452320098877,1.1427628993988037,-0.7811989784240723,0.4613654315471649,-0.4205593168735504,-0.17149877548217773,0.5498498678207397,-0.8740726113319397
-0.47795136410684863,-1.0507340608033966,-2.5290023864621194,2.3224709033966064,1.3227766752243042,1.0727251768112183,-0.7705431580543518,0.45996108651161194,-0.4412473142147064,-0.3010053038597107,0.5079039931297302,-0.8062349557876587
-0.47488281190746306,-1.0238910452285597,-2.5004914597375723,2.338371992111206,1.4168561697006226,0.9667479395866394,-0.7596244812011719,0.4572342336177826,-0.4625013768672943,-0.39857858419418335,0.4732925295829773,-0.7535172700881958
-0.46998567165142,-0.9964087050376227,-2.472624885700584,2.3748674392700195,1.540196418762207,0.8374927639961243,-0.7484995126724243,0.45287349820137024,-0.4844111502170563,-0.4722188711166382,0.4486005902290344,-0.7125188112258911
-0.4631144926614333,-0.9679284637494958,-2.4452971260547263,2.4319958686828613,1.689476490020752,0.7253568172454834,-0.7369475960731506,0.4467366933822632,-0.5072817206382751,-0.5222077369689941,0.4297892451286316,-0.6666226983070374
-0.45434483479972865,-0.9380955141402882,-2.4183946851128004,2.501128911972046,1.8828437328338623,0.6395643949508667,-0.7246197462081909,0.4388737082481384,-0.5313343405723572,-0.5514422655105591,0.42463648319244385,-0.6082072854042053
-0.4438374888516949,-0.9067021417768996,-2.3917172998027683,2.5789597034454346,2.057420015335083,0.5874913930892944,-0.7111773490905762,0.4294082820415497,-0.5566286444664001,-0.5614666938781738,0.4281967580318451,-0.5401273369789124
-0.4317492615137655,-0.8741972852888992,-2.365200101818593,2.6603336334228516,2.1683566570281982,0.5566487908363342,-0.6966424584388733,0.4184601902961731,-0.5827353000640869,-0.5487188696861267,0.42371824383735657,-0.4547097682952881
-0.4181876349220265,-0.8411991637958904,-2.338687308282795,2.7521965503692627,2.225602388381958,0.5539998412132263,-0.6812055110931396,0.4061049222946167,-0.6091287136077881,-0.5434495806694031,0.4210893213748932,-0.36296290159225464
-0.40325788704802484,-0.8082150710566327,-2.3119721838097282,2.8520281314849854,2.2144935131073,0.5791693925857544,-0.6650571823120117,0.39241698384284973,-0.6353800892829895,-0.544003427028656,0.42511844635009766,-0.268565833568573
-0.3870735543099653,-0.775930415006849,-2.285043034738548,2.9359567165374756,2.1454484462738037,0.601146399974823,-0.6485647559165955,0.37748008966445923,-0.6609633564949036,-0.5456033945083618,0.43114423751831055,-0.17688143253326416
-0.36974913836159407,-0.7451970428554417,-2.258281891643085,2.9776053428649902,1.9968661069869995,0.6090229153633118,-0.6322881579399109,0.36138153076171875,-0.6852846145629883,-0.5489099025726318,0.43221285939216614,-0.09739965200424194
-0.3515726520515383,-0.7170467807619106,-2.2319904751054755,2.9845032691955566,1.7549611330032349,0.6217027902603149,-0.6169644594192505,0.3443746864795685,-0.7076445817947388,-0.5434816479682922,0.4214487075805664,-0.017758190631866455
-0.33297686829446843,-0.6922403726768871,-2.206492656439884,2.934030055999756,1.4889421463012695,0.6228016018867493,-0.6032059192657471,0.3268578350543976,-0.7275345921516418,-0.5555922985076904,0.4017188847064972,0.04954087734222412
-0.31430699584563804,-0.6706697011241266,-2.182320955675518,2.8309507369995117,1.2896335124969482,0.5747107863426208,-0.5910634994506836,0.30915749073028564,-0.7450272440910339,-0.5746316313743591,0.37451261281967163,0.08412331342697144
-0.29552205991778874,-0.6518915194915202,-2.160085443616827,2.718980550765991,1.1176398992538452,0.453708678483963,-0.5803912281990051,0.29123932123184204,-0.7604773044586182,-0.6037213206291199,0.33389806747436523,0.10437989234924316
-0.2762377584392882,-0.6360438880935059,-2.140395249088838,2.6207737922668457,0.9301221966743469,0.24073384702205658,-0.57149738073349,0.272737979888916,-0.773953914642334,-0.6714987754821777,0.28384163975715637,0.10909801721572876
-0.255895074868321,-0.6234124843862472,-2.1236518752858973,2.5531489849090576,0.7030059099197388,-0.02791118435561657,-0.5647985935211182,0.25311145186424255,-0.7854534387588501,-0.7422539591789246,0.23440691828727722,0.07469910383224487
-0.23402278914336755,-0.6144668031047859,-2.110039209168726,2.5568530559539795,0.39940345287323,-0.3874112069606781,-0.5608077049255371,0.23189252614974976,-0.7948085069656372,-0.7897781729698181,0.19620811939239502,0.028802037239074707
-0.20859115850973603,-0.6101601939553779,-2.099690052399885,2.7539865970611572,0.00381512101739645,-0.8575454354286194,-0.5605782270431519,0.20708180963993073,-0.801791250705719,-0.8545218110084534,0.21294690668582916,-0.025677621364593506
-0.18081303738528512,-0.6098523990228932,-2.0911189438630924,2.7298338413238525,-0.23587666451931,-0.8959451913833618,-0.5634094476699829,0.1798294186592102,-0.8063691258430481,-0.9207366108894348,0.25753331184387207,-0.1337248682975769
-0.15347736247495597,-0.6108831851234404,-2.08274165658116,2.671952486038208,-0.2294429987668991,-0.8943121433258057,-0.5668488144874573,0.15287554264068604,-0.8095130920410156,-0.834335207939148,0.23651355504989624,-0.12392807006835938
-0.1269941828449685,-0.6117920263371331,-2.0756247246864645,2.4302804470062256,-0.14549165964126587,-0.9929074645042419,-0.5697102546691895,0.12665310502052307,-0.8120278120040894,-0.8395609259605408,0.2715860605239868,-0.16471773386001587
-0.10226784643751635,-0.6119754956609573,-2.071541817069875,2.067612409591675,0.030956074595451355,-1.1892669200897217,-0.5714840292930603,0.10208967328071594,-0.8142381906509399,-0.8855319619178772,0.32706379890441895,-0.15342843532562256
-0.0791605506703346,-0.6099796204069449,-2.0713181994520133,1.7394683361053467,0.38309618830680847,-1.4123280048370361,-0.5710568428039551,0.07907789945602417,-0.8170928955078125,-0.9578738212585449,0.3623588979244232,-0.143768310546875
-0.05729401366730975,-0.6038069862754737,-2.0743643879678544,1.5091553926467896,0.90665602684021,-1.5614019632339478,-0.5668487548828125,0.05726267397403717,-0.8218293190002441,-1.01348876953125,0.3898046016693115,-0.23265981674194336
-0.036053817530582066,-0.5917598754773459,-2.0794365493366844,1.4454518556594849,1.5555088520050049,-1.653554916381836,-0.5574600100517273,0.03604600578546524,-0.8294209241867065,-1.0295913219451904,0.42055803537368774,-0.37164413928985596
-0.014457022508080373,-0.5728335752610905,-2.0853211408415953,1.5126519203186035,2.2448935508728027,-1.6825817823410034,-0.5419588088989258,0.014456518925726414,-0.8402807116508484,-1.0278501510620117,0.47187164425849915,-0.5089471936225891
0.007819943798947768,-0.5471932807040146,-2.0911225223564394,1.6486399173736572,2.8481197357177734,-1.6495517492294312,-0.5202764868736267,-0.007819863967597485,-0.8539621233940125,-1.0158562660217285,0.5394361019134521,-0.5901755094528198
0.03128893483120207,-0.5163841068775048,-2.0961116343323756,1.896871566772461,3.2555153369903564,-1.5810962915420532,-0.4934972822666168,-0.03128382936120033,-0.8691845536231995,-0.993196964263916,0.6227145195007324,-0.612184464931488
0.05730279032259553,-0.4821692466317272,-2.099659179041174,2.3402774333953857,3.5091402530670166,-1.5156644582748413,-0.46294111013412476,-0.05727143585681915,-0.8845369219779968,-0.971858024597168,0.6935477256774902,-0.6309812664985657
0.08759332874965392,-0.4465133006072683,-2.1009578947449277,2.9550962448120117,3.558634042739868,-1.4119374752044678,-0.4301677644252777,-0.08748135715723038,-0.8985002636909485,-0.9703601598739624,0.7678250074386597,-0.6703473925590515
0.12331488003690083,-0.41137819714119667,-2.0994234855098552,3.6533212661743164,3.474062919616699,-1.2699947357177734,-0.39683642983436584,-0.12300258874893188,-0.9096105098724365,-0.9721820950508118,0.8593002557754517,-0.6840632557868958
0.16518033584037548,-0.37761950128484656,-2.0950636784246846,4.380753517150879,3.378511428833008,-1.1447161436080933,-0.3636901378631592,-0.16443021595478058,-0.9168926477432251,-1.0024902820587158,0.9746414422988892,-0.6617053151130676
0.21341994456182978,-0.3457058107233291,-2.0885018401757574,5.062454700469971,3.2143967151641846,-1.062926173210144,-0.3311728239059448,-0.21180348098278046,-0.9194910526275635,-1.0275002717971802,1.0797233581542969,-0.5986974239349365
0.26784926167598916,-0.31660148771436847,-2.0808018480368244,5.6708269119262695,2.9415271282196045,-1.0641741752624512,-0.30023714900016785,-0.26465800404548645,-0.9164135456085205,-1.0729775428771973,1.147897720336914,-0.489821195602417
0.3278996587977613,-0.290773608439781,-2.073437528323658,6.1567254066467285,2.640930414199829,-1.1907075643539429,-0.27141866087913513,-0.32205531001091003,-0.9069797396659851,-1.155659556388855,1.2013888359069824,-0.3604457974433899
0.3928286661653133,-0.26723207444414254,-2.0683363898270843,6.545513153076172,2.4213645458221436,-1.474867582321167,-0.24394910037517548,-0.38280314207077026,-0.8910390734672546,-1.271538496017456,1.25203537940979,-0.24265843629837036
0.46229060343499023,-0.24400860050288845,-2.067527069447627,6.878752708435059,2.2734522819519043,-1.8952661752700806,-0.21623504161834717,-0.4459994435310364,-0.8685199618339539,-1.3753787279129028,1.3005831241607666,-0.13079339265823364
0.5357172039918116,-0.2195839757677589,-2.072799279779543,7.148315906524658,2.079211950302124,-2.362022638320923,-0.18730711936950684,-0.5104578733444214,-0.8392549157142639,-1.4466650485992432,1.3426111936569214,-0.031747281551361084
0.6122524660048617,-0.19327908478085165,-2.0852122472721537,7.350590705871582,1.8027689456939697,-2.7828121185302734,-0.1571880578994751,-0.5747122168540955,-0.803117573261261,-1.4692156314849854,1.3940787315368652,0.07376271486282349
0.6907180777873411,-0.1648808268575236,-2.105246373900379,7.467876434326172,1.421302080154419,-3.1176340579986572,-0.12651322782039642,-0.6370908617973328,-0.7603352069854736,-1.4210026264190674,1.4346678256988525,0.1794179081916809
0.7699669847223894,-0.13364693402834169,-2.1339436609703553,7.516831874847412,0.9761149287223816,-3.446908950805664,-0.09566425532102585,-0.6961115598678589,-0.7115315198898315,-1.3613669872283936,1.4483850002288818,0.26675307750701904
0.8490253441575811,-0.09715004405314795,-2.173943728002428,7.496152400970459,0.519425630569458,-3.8378028869628906,-0.06408757716417313,-0.7506368160247803,-0.6575995683670044,-1.3213493824005127,1.4520223140716553,0.32717055082321167
0.9266693696258612,-0.050982956190864834,-2.229677655339011,7.4079437255859375,0.05398369953036308,-4.303205966949463,-0.030602039769291878,-0.7996243238449097,-0.5997204184532166,-1.2897104024887085,1.4603908061981201,0.37167781591415405
1.0012309277042752,0.01098609854414466,-2.30695636832366,7.264455795288086,-0.36423271894454956,-4.769801616668701,0.00592431053519249,-0.8421354293823242,-0.5392335057258606,-1.2476387023925781,1.4678220748901367,0.3992646336555481
1.0704919412602367,0.0963499350857662,-2.4124144299928303,7.073563098907471,-0.7222030162811279,-5.1796875,0.04614689201116562,-0.8774365782737732,-0.47746792435646057,-1.1868023872375488,1.4742993116378784,0.39520782232284546
1.1313306644085286,0.21334940226030866,-2.553478538013043,6.840312957763672,-1.0448037385940552,-5.516186714172363,0.0900837630033493,-0.9049791097640991,-0.41580986976623535,-1.1274982690811157,1.4968063831329346,0.36965203285217285
1.1797977342799886,0.36850306330673027,-2.7360131539425394,6.583836555480957,-1.347394347190857,-5.755753993988037,0.13728398084640503,-0.924528956413269,-0.3555271625518799,-1.0617986917495728,1.5246264934539795,0.3448307514190674
1.2116207740099207,0.560871774744405,-2.958667243577482,6.329986572265625,-1.624821424484253,-5.923116683959961,0.1869729459285736,-0.9361869096755981,-0.2976495921611786,-0.9856789708137512,1.5349112749099731,0.3227503299713135
1.223111000004426,0.7773003006062869,3.075511640829193,6.085903644561768,-1.82217538356781,-6.121889591217041,0.2389686554670334,-0.9401639103889465,-0.24287059903144836,-0.9139716029167175,1.5206843614578247,0.29594066739082336
1.2123575731042098,0.9924897677311725,2.8259768226071946,5.842990875244141,-1.9839826822280884,-6.4008259773254395,0.29376712441444397,-0.9364456534385681,-0.1917567104101181,-0.8696185350418091,1.4947341680526733,0.2788081169128418
1.1806800370203883,1.1794825507220688,2.602738881726171,5.599959850311279,-2.1975808143615723,-6.7192559242248535,0.3515491783618927,-0.9248648285865784,-0.145046204328537,-0.8371295928955078,1.492964744567871,0.2810783386230469
1.1325580136541278,1.32455059261531,2.418972431504716,5.395808219909668,-2.4523062705993652,-6.942097187042236,0.4115445017814636,-0.9055006504058838,-0.10344034433364868,-0.7937008142471313,1.5178358554840088,0.2783976197242737
1.0741980002808214,1.4284973933629206,2.273066462177348,5.220482349395752,-2.8304522037506104,-6.93597412109375,0.47162213921546936,-0.8792083263397217,-0.06756800413131714,-0.6960636377334595,1.5224273204803467,0.2668631076812744
1.0116162138064413,1.498177696266578,2.156845041667996,5.048015594482422,-3.3152916431427,-6.6697516441345215,0.5290935635566711,-0.8476903438568115,-0.03848973289132118,-0.5727030634880066,1.49183988571167,0.26332801580429077
0.949172840978232,1.5411607249691142,2.061792985480956,4.850841045379639,-3.8690080642700195,-6.280045986175537,0.5821001529693604,-0.8129341006278992,-0.017255939543247223,-0.4522325396537781,1.4307013750076294,0.2503339648246765
0.8889089916238112,1.562971059440793,1.9818553322092765,4.587159633636475,-4.44705867767334,-5.90810489654541,0.630240261554718,-0.7763845920562744,-0.004931899253278971,-0.36492037773132324,1.3183462619781494,0.21805143356323242
0.8314939424564814,1.5681260487270519,1.913237864947503,4.270933151245117,-4.861155033111572,-5.579889297485352,0.6737701296806335,-0.7389387488365173,-0.0017991578206419945,-0.35318297147750854,1.151628017425537,0.17449814081192017
0.7768362408257463,1.561622082613312,1.853514531805518,3.917940616607666,-4.972362995147705,-5.386610507965088,0.7131050229072571,-0.7010267376899719,-0.006542382761836052,-0.3992927670478821,0.9866102337837219,0.1285821795463562
0.7231347281242506,1.5480981320090008,1.801452570881299,3.4983739852905273,-4.764916896820068,-5.476401329040527,0.7495418787002563,-0.6617381572723389,-0.01701616868376732,-0.5199123024940491,0.8861339092254639,0.08499407768249512
0.667449657968319,1.531280243117355,1.7565550460728998,3.011651039123535,-4.303504943847656,-5.868236064910889,0.7847897410392761,-0.6189849376678467,-0.03102796897292137,-0.6909329295158386,0.880902111530304,0.08270949125289917
0.6071387199437611,1.5133297430731276,1.7184581066160018,2.4977242946624756,-3.8245692253112793,-6.441592693328857,0.8199282288551331,-0.5705198645591736,-0.04717041179537773,-0.8178224563598633,0.9519895315170288,0.11905455589294434
0.5419968038026024,1.4934634949361218,1.6861294812666778,2.029778242111206,-3.7058866024017334,-6.834667205810547,0.8541200160980225,-0.5158476233482361,-0.06618350744247437,-0.82669997215271,1.0458159446716309,0.15714114904403687
0.47518379241904596,1.4685817909479781,1.6578724610743445,1.7113561630249023,-4.058271884918213,-6.818912982940674,0.8845676183700562,-0.4575018882751465,-0.09073186665773392,-0.6769412159919739,1.1049628257751465,0.17142033576965332
0.41098105241199384,1.437505879427092,1.6314330562694517,1.5289262533187866,-4.371697902679443,-6.401486873626709,0.9085979461669922,-0.39950889348983765,-0.12182977795600891,-0.4064922332763672,1.0884126424789429,0.1166876032948494
0.3532810173447965,1.402019031858467,1.6056210143482128,1.483737587928772,-4.613800525665283,-5.6705827713012695,0.9249110817909241,-0.3459780514240265,-0.15760332345962524,-0.1301569938659668,1.0176241397857666,-0.014759957790374756
0.30399846794974816,1.3633881031724933,1.5797178117835495,1.4736793041229248,-4.729128837585449,-4.915041923522949,0.9336978197097778,-0.2993377149105072,-0.19648215174674988,0.030978024005889893,0.9224456548690796,-0.14818331599235535
0.26217809258266084,1.3234109199888033,1.5545997589401956,1.297874927520752,-4.60002326965332,-4.320725917816162,0.9364240169525146,-0.2591848373413086,-0.2365020513534546,0.057090938091278076,0.8323659896850586,-0.23723755776882172
0.22558302031415445,1.284688959135831,1.532548168006789,0.8653038740158081,-4.143549919128418,-3.8569369316101074,0.9350435137748718,-0.22367465496063232,-0.27506962418556213,0.007461369037628174,0.7974661588668823,-0.23806819319725037
0.19251109615150797,1.249884227062747,1.5156498316103397,0.30385297536849976,-3.4959375858306885,-3.425032615661621,0.931418240070343,-0.19132420420646667,-0.30960527062416077,-0.031225919723510742,0.7837162017822266,-0.21946275234222412
0.1622993280272195,1.2203748077095997,1.5042559944320801,-0.15457986295223236,-2.7780990600585938,-3.0063722133636475,0.926885187625885,-0.16158774495124817,-0.33878234028816223,-0.059270381927490234,0.7619295120239258,-0.26096439361572266
0.13510229210762315,1.1979232288929185,1.4966760086567341,-0.3342790901660919,-1.9152402877807617,-2.6051459312438965,0.9227983951568604,-0.13469167053699493,-0.360973060131073,-0.10468310117721558,0.7469658255577087,-0.4112132787704468
0.11153067459256064,1.1839082073862441,1.4904948532108047,-0.24779026210308075,-1.0563431978225708,-2.219606637954712,0.9203338623046875,-0.11129959672689438,-0.3749641478061676,-0.1473388671875,0.7046986818313599,-0.6115165948867798
0.09221517951739645,1.177278712046108,1.4837982580373124,0.018972055986523628,-0.4343126714229584,-1.8650137186050415,0.9196420311927795,-0.09208454191684723,-0.38181039690971375,-0.15485620498657227,0.6393715143203735,-0.7637584805488586
0.07680955607555542,1.1756512811893578,1.4754702503090824,0.3204919397830963,-0.07990826666355133,-1.6311842203140259,0.9202196598052979,-0.07673405110836029,-0.38380715250968933,-0.17011278867721558,0.573026180267334,-0.8286257386207581
0.06385756390203538,1.175844383259437,1.4651534472981769,0.5690169334411621,-0.06369335949420929,-1.5702952146530151,0.9211337566375732,-0.06381417065858841,-0.3839796185493469,-0.20287203788757324,0.5190906524658203,-0.7828752398490906
0.05135552668155124,1.1751844362480468,1.4527453077339259,0.7399542927742004,-0.22503085434436798,-1.7088751792907715,0.9215443730354309,-0.051332954317331314,-0.38486480712890625,-0.2741139531135559,0.4895195960998535,-0.6501235961914062
0.037514183263351375,1.1727129329112376,1.4383327258928509,0.8317267298698425,-0.3915891647338867,-1.9531358480453491,0.9211570620536804,-0.0375053845345974,-0.38737955689430237,-0.3421623706817627,0.4820244014263153,-0.5261488556861877
0.021836589866729532,1.1685765880408312,1.4223831645137268,0.8704935312271118,-0.5273290872573853,-2.15625,0.9199749827384949,-0.021834854036569595,-0.391368567943573,-0.3357769250869751,0.4726710021495819,-0.462482750415802
0.004958321445358884,1.1632508896173444,1.4055980317414494,0.8712815642356873,-0.5627651810646057,-2.2455685138702393,0.9180851578712463,-0.004958301316946745,-0.3963521122932434,-0.2706395387649536,0.46824565529823303,-0.4374948740005493
-0.012185097674527788,1.1581735556687702,1.3887559599381394,0.8402338624000549,-0.4231974184513092,-2.217738151550293,0.9160041809082031,0.012184795923531055,-0.4009835720062256,-0.2083321213722229,0.49745872616767883,-0.43547266721725464
-0.028664381936276694,1.154661063953273,1.3726653989273745,0.7652724385261536,-0.2080266922712326,-2.077742576599121,0.9142822623252869,0.028660457581281662,-0.40406250953674316,-0.14391177892684937,0.5297196507453918,-0.43684935569763184
-0.04402560597308385,1.1533023450112931,1.35808438655176,0.6387935876846313,0.04112693667411804,-1.9052404165267944,0.9132221341133118,0.04401138424873352,-0.40507805347442627,-0.10438430309295654,0.5273844599723816,-0.40275275707244873
-0.05837187804864945,1.154032728502628,1.3457516354699721,0.43687692284584045,0.21611163020133972,-1.705741047859192,0.9128465056419373,0.05833873525261879,-0.40411376953125,-0.06232154369354248,0.4743303060531616,-0.3240966796875
-0.07168485203535643,1.1560207360063943,1.336307167625048,0.20891964435577393,0.2908439338207245,-1.4837287664413452,0.9128562808036804,0.07162347435951233,-0.40194958448410034,-0.00526350736618042,0.4171612858772278,-0.22947436571121216
-0.08395762485859987,1.1585162464732333,1.3298173370746011,-0.01234913058578968,0.2968478202819824,-1.2862619161605835,0.9129824638366699,0.08385902643203735,-0.39928802847862244,0.02572309970855713,0.36404746770858765,-0.13039034605026245
-0.09562881849786012,1.1607399751610485,1.3260335879639193,-0.2285163253545761,0.19982941448688507,-1.1593003273010254,0.9129081964492798,0.09548313170671463,-0.39683955907821655,0.021890997886657715,0.3132845461368561,-0.04212525486946106
-0.10728800124356633,1.161850350446809,1.324516423314626,-0.4163051247596741,0.04439450800418854,-1.1007142066955566,0.9122648239135742,0.1070822924375534,-0.39535608887672424,-0.0033903121948242188,0.2904244065284729,0.042862772941589355
-0.11938859310414084,1.1613410987172392,1.324776954945744,-0.5941960215568542,-0.16216371953487396,-1.1015602350234985,0.9108079075813293,0.11910517513751984,-0.3952757716178894,-0.026850998401641846,0.26985660195350647,0.11831352114677429
-0.13253649099002626,1.1587009016098941,1.3266124742774503,-0.7905635237693787,-0.4091002643108368,-1.1657977104187012,0.908247709274292,0.13214881718158722,-0.39701753854751587,-0.04347103834152222,0.2541274130344391,0.1827230453491211
-0.14721097561603738,1.1540634643283458,1.3299602567848055,-0.9837393760681152,-0.5993290543556213,-1.2420978546142578,0.9045260548591614,0.1466798484325409,-0.40039709210395813,-0.0392000675201416,0.2643919289112091,0.22817111015319824
-0.16302223464407342,1.1482108168148695,1.3345273535423343,-1.1100239753723145,-0.7017378807067871,-1.2652868032455444,0.8999392986297607,0.16230110824108124,-0.4046822488307953,-0.006079435348510742,0.27324575185775757,0.2197762131690979
-0.17923445702569116,1.1417070880087017,1.3397506547567537,-1.1527125835418701,-0.7700599431991577,-1.2582371234893799,0.894777774810791,0.17827634513378143,-0.40937796235084534,0.029706478118896484,0.2728192210197449,0.16952502727508545
-0.19552028606789768,1.1347415695367424,1.3450687959895828,-1.1542004346847534,-0.815565288066864,-1.2597806453704834,0.8891546130180359,0.19427692890167236,-0.4143192172050476,0.04176872968673706,0.26522624492645264,0.1320621371269226
-0.212017534346121,1.1274065304785337,1.3502367967644133,-1.1655068397521973,-0.8602866530418396,-1.292475938796997,0.8830762505531311,0.21043267846107483,-0.41939786076545715,0.04040098190307617,0.23593267798423767,0.13062524795532227
-0.22901851332082487,1.1194327120689294,1.3554489194946948,-1.2261476516723633,-0.9627100229263306,-1.3254871368408203,0.8763576745986938,0.22702176868915558,-0.42480385303497314,0.03498870134353638,0.22038118541240692,0.15891948342323303
-0.24659577224943657,1.110696893971294,1.361367418248388,-1.3530381917953491,-1.0565853118896484,-1.310624599456787,0.8689032793045044,0.24410413205623627,-0.4306046664714813,0.048897624015808105,0.23789049685001373,0.19218608736991882
-0.2646083785176915,1.1015211715957303,1.3686504267507809,-1.5131351947784424,-1.1345632076263428,-1.2740159034729004,0.860853910446167,0.2615312933921814,-0.4364997148513794,0.07679873704910278,0.2583661377429962,0.2048102617263794
-0.2830052058028484,1.092545714144092,1.377468146325517,-1.6611089706420898,-1.1145769357681274,-1.2156351804733276,0.8524851202964783,0.2792425751686096,-0.441919207572937,0.08957719802856445,0.284020334482193,0.1767062544822693
-0.30114240406553344,1.0849751626311597,1.3877298848577964,-1.7378298044204712,-0.9722975492477417,-1.0670888423919678,0.8444971442222595,0.29661139845848083,-0.44592180848121643,0.1159520149230957,0.3130992650985718,0.09168902039527893
-0.3176644510026025,1.0798788609321295,1.399076231384877,-1.6973260641098022,-0.7247769832611084,-0.8232417702674866,0.8377770185470581,0.31234872341156006,-0.4478481113910675,0.1803199052810669,0.31330740451812744,-0.047894686460494995
-0.33148532480457843,1.0778462879966024,1.4109542731489106,-1.5763201713562012,-0.43409207463264465,-0.5480974912643433,0.8329823017120361,0.32544785737991333,-0.44746431708335876,0.23725396394729614,0.29198381304740906,-0.19548004865646362
-0.34228788963539825,1.0788256969973167,1.4228455170870704,-1.4080811738967896,-0.16026504337787628,-0.2972831428050995,0.8302728533744812,0.33564314246177673,-0.4449615776538849,0.24766910076141357,0.29112690687179565,-0.2911529541015625
-0.3500658719335422,1.0823060134008922,1.434135286847707,-1.184706211090088,0.08623510599136353,-0.07684311270713806,0.8294860124588013,0.3429596722126007,-0.4408307671546936,0.23631000518798828,0.2888152301311493,-0.33506345748901367
-0.35489749060353504,1.0875010503329732,1.4440988873092933,-0.9089699983596802,0.2538760304450989,0.08919911831617355,0.8302880525588989,0.3474942445755005,-0.43574053049087524,0.21773147583007812,0.2705782949924469,-0.36423206329345703
-0.3570530909240519,1.0933623410712021,1.4520497616224162,-0.6049305200576782,0.3538617491722107,0.20793509483337402,0.832160472869873,0.3495146930217743,-0.43052127957344055,0.16971641778945923,0.2697021961212158,-0.36816954612731934
-0.3569846131542698,1.0990825790473329,1.4575536058610894,-0.3044585883617401,0.39641478657722473,0.2647400498390198,0.8346307873725891,0.34945055842399597,-0.42576494812965393,0.11185663938522339,0.2899385094642639,-0.34542950987815857
-0.3553706116131724,1.10390246957044,1.4603815614266649,-0.031704552471637726,0.3581385016441345,0.2553750276565552,0.8371757864952087,0.34793785214424133,-0.4219905436038971,0.05251842737197876,0.29282447695732117,-0.3044041097164154
-0.352885489030971,1.107238214299012,1.4607953587015772,0.1768241673707962,0.27392563223838806,0.22276757657527924,0.839349627494812,0.3456069231033325,-0.41958093643188477,-0.005060076713562012,0.28172770142555237,-0.24727392196655273
-0.3498992637814533,1.109241549469408,1.4595703965293476,0.2828575670719147,0.21564343571662903,0.21050140261650085,0.8411088585853577,0.3428031802177429,-0.418356329202652,-0.04658365249633789,0.27414020895957947,-0.1832672357559204
-0.34659970431672205,1.1107707562934748,1.4578814910469489,0.28284773230552673,0.20365388691425323,0.2430201917886734,0.8427565693855286,0.33970168232917786,-0.4175695478916168,-0.05174088478088379,0.25845810770988464,-0.12011969089508057
-0.343005265755479,1.112409324115647,1.456752026171826,0.21636560559272766,0.19996561110019684,0.3060215413570404,0.8445290923118591,0.33631882071495056,-0.41672566533088684,-0.03440946340560913,0.23564162850379944,-0.05998945236206055
-0.3391816054833614,1.114513552819972,1.4568038384049855,0.10843008011579514,0.21541833877563477,0.3812499940395355,0.8465523719787598,0.3327154219150543,-0.41551125049591064,-0.030405521392822266,0.21367129683494568,-0.013413310050964355
-0.33533830204046233,1.117155644661526,1.458314579715251,-0.032227545976638794,0.20741243660449982,0.4231145977973938,0.8487903475761414,0.32908865809440613,-0.413830429315567,-0.03880804777145386,0.19527959823608398,0.017864853143692017
-0.3320812196968052,1.1201588660099648,1.4613534455901538,-0.2005307972431183,0.19416001439094543,0.4042684733867645,0.8509896993637085,0.3260112404823303,-0.4117441475391388,-0.059333205223083496,0.18418163061141968,0.036972999572753906
-0.32991352599548074,1.1235515922105155,1.465793596981847,-0.3609197437763214,0.19890357553958893,0.34570226073265076,0.8530170321464539,0.3239612281322479,-0.4091593325138092,-0.08919250965118408,0.18191346526145935,0.050028443336486816
-0.32876562811066373,1.1273988313506154,1.4711518542559314,-0.4411322772502899,0.218287393450737,0.2974551022052765,0.8549200892448425,0.3228750228881836,-0.40603378415107727,-0.10730046033859253,0.1876230537891388,0.03387191891670227
-0.32803893667818845,1.1312037065279703,1.4766738819000909,-0.43142685294151306,0.17609281837940216,0.2846165597438812,0.8566709756851196,0.3221871554851532,-0.4028777480125427,-0.09649324417114258,0.18820413947105408,-0.01449596881866455
-0.3271393840179936,1.134289103163488,1.4819061858542633,-0.38507080078125,0.10347587615251541,0.2959573566913605,0.8581721782684326,0.32133543491363525,-0.4003550112247467,-0.06918597221374512,0.17146244645118713,-0.059316039085388184
-0.3260011673759965,1.1367465330433315,1.4867083800812995,-0.34107309579849243,0.08686379343271255,0.2881779372692108,0.8594847321510315,0.32025739550590515,-0.3983984887599945,-0.04823589324951172,0.15912804007530212,-0.08280271291732788
-0.3248148877599442,1.1390605961755227,1.4910411382107296,-0.3043672740459442,0.10104912519454956,0.2674494981765747,0.860748827457428,0.31913337111473083,-0.3965671956539154,-0.0403904914855957,0.16418883204460144,-0.09343826770782471
-0.32364645461298847,1.1414438474921693,1.4949928547424276,-0.27917876839637756,0.12535005807876587,0.25862663984298706,0.8620299100875854,0.3180257976055145,-0.39466965198516846,-0.030563175678253174,0.17095735669136047,-0.10148513317108154
-0.3223467622252833,1.144238541513722,1.49878218019852,-0.26471778750419617,0.1961134374141693,0.27841606736183167,0.8635051250457764,0.3167933225631714,-0.3924297094345093,-0.012812256813049316,0.1701452136039734,-0.1070515513420105
-0.3206538724974742,1.1479293732902005,1.5027039540079927,-0.2729639410972595,0.29078203439712524,0.3383757472038269,0.8654354214668274,0.3151871860027313,-0.389459490776062,0.010007143020629883,0.17077475786209106,-0.10887730121612549
-0.31836053432935846,1.152584759011004,1.5071249898783596,-0.3102380633354187,0.3574769198894501,0.425040602684021,0.8678973913192749,0.3130098879337311,-0.3857189118862152,0.027656257152557373,0.17957434058189392,-0.09796947240829468
-0.3154153600760852,1.158232647216318,1.5124106036807123,-0.3679704964160919,0.4413244128227234,0.5157903432846069,0.8709027171134949,0.3102113604545593,-0.38117894530296326,0.03817015886306763,0.1966092884540558,-0.07713404297828674
-0.31185090542241034,1.165003450837218,1.5186072051138653,-0.42883196473121643,0.5234320759773254,0.600147545337677,0.8744741082191467,0.3068207800388336,-0.3757076859474182,0.04364728927612305,0.20776662230491638,-0.06705659627914429
-0.3077311059189486,1.1727409658706824,1.5257182536395126,-0.4930345416069031,0.5831702351570129,0.6841992139816284,0.8785127401351929,0.3028970956802368,-0.36941710114479065,0.040341079235076904,0.20895898342132568,-0.06809818744659424
-0.30303291938041543,1.1812127076748105,1.5337500227908327,-0.5611461997032166,0.6195746064186096,0.7678738832473755,0.8829174637794495,0.29841628670692444,-0.36249789595603943,0.026414990425109863,0.22090134024620056,-0.06728121638298035
-0.29774792474239364,1.1902513074062069,1.542850939991219,-0.6558957099914551,0.6472141742706299,0.8601680994033813,0.8876096606254578,0.29336798191070557,-0.3550836741924286,0.007882893085479736,0.24679315090179443,-0.06288507580757141
-0.2919177356710491,1.1999069530458373,1.553312242437486,-0.7778506278991699,0.675146758556366,0.9521230459213257,0.8925758600234985,0.28778934478759766,-0.3471108675003052,-0.009168088436126709,0.26950740814208984,-0.05959692597389221
-0.2855812876914888,1.210383322520081,1.5654234394892124,-0.9353669881820679,0.7286046147346497,1.055749535560608,0.8978515863418579,0.2817152440547943,-0.33837732672691345,-0.02001345157623291,0.2872239649295807,-0.062165915966033936
-0.2786581872360889,1.2220468055029963,1.5793887774949604,-1.0922921895980835,0.8302542567253113,1.169691562652588,0.9035483598709106,0.2750658392906189,-0.3285410702228546,-0.024184346199035645,0.295322984457016,-0.07366538047790527
-0.2709124512267174,1.2354891723419101,1.5951657715776195,-1.2405626773834229,1.0013254880905151,1.3046038150787354,0.9098675847053528,0.26761072874069214,-0.3170574903488159,-0.030808746814727783,0.296582967042923,-0.1008044183254242
-0.2620396493484807,1.2511394091233676,1.612649023744105,-1.3698054552078247,1.197417974472046,1.457507848739624,0.9169360995292664,0.259051114320755,-0.3035138249397278,-0.04285174608230591,0.3050357699394226,-0.13694638013839722
-0.25163351099496967,1.2687714243999524,1.63160856821046,-1.4717986583709717,1.3499219417572021,1.6387180089950562,0.9246686100959778,0.2489863634109497,-0.2880863547325134,-0.05511599779129028,0.3257817327976227,-0.16772419214248657
-0.23938828013923938,1.2876793081653684,1.6517560015768953,-1.548144817352295,1.4361484050750732,1.8208211660385132,0.9328078627586365,0.23710839450359344,-0.27138376235961914,-0.07216638326644897,0.35407817363739014,-0.18796679377555847
-0.22519424461848067,1.3071384050632182,1.672585092188222,-1.570608139038086,1.4784799814224243,1.9941402673721313,0.9410664439201355,0.22329570353031158,-0.25403350591659546,-0.098033607006073,0.3819594383239746,-0.20604947209358215
-0.20899824374100337,1.326421815133335,1.6933661204059303,-1.527400016784668,1.4665913581848145,2.145153284072876,0.949174702167511,0.2074800431728363,-0.23668448626995087,-0.11848616600036621,0.4061063826084137,-0.23165357112884521
-0.1910277774088018,1.3449245092317013,1.713361547257643,-1.4340736865997314,1.4303488731384277,2.2437896728515625,0.9568709135055542,0.18986807763576508,-0.2198822796344757,-0.1467360258102417,0.4187135100364685,-0.2622802257537842
-0.17175820418399196,1.3625302637131957,1.732050085088197,-1.3148388862609863,1.4080631732940674,2.2933340072631836,0.9639947414398193,0.17091494798660278,-0.20372138917446136,-0.18642204999923706,0.4246661067008972,-0.28671133518218994
-0.15158796934647367,1.3793817901972165,1.7491201008199109,-1.179632544517517,1.4034637212753296,2.311069965362549,0.9704780578613281,0.15100808441638947,-0.18806612491607666,-0.2244759202003479,0.42710167169570923,-0.29957422614097595
-0.13093253422317996,1.3956891148254764,1.764443652087466,-1.0426969528198242,1.418472170829773,2.2824692726135254,0.9762794375419617,0.13055874407291412,-0.17272256314754486,-0.2600623369216919,0.41938331723213196,-0.30438923835754395
-0.11034366886366292,1.4116602908063118,1.7778878989125098,-0.8974295258522034,1.4410263299942017,2.199329137802124,0.9813598394393921,0.11011988669633865,-0.15750150382518768,-0.2993224263191223,0.41481298208236694,-0.3053128719329834
-0.0903675148215335,1.4272757579977486,1.7892843085807777,-0.7334941029548645,1.434447169303894,2.0747392177581787,0.985680103302002,0.09024456888437271,-0.14244474470615387,-0.338081955909729,0.430675208568573,-0.30260834097862244
-0.07127859233855557,1.4420584160703385,1.798396320043756,-0.5402793288230896,1.3549476861953735,1.94281005859375,0.9892064332962036,0.07121825218200684,-0.128056600689888,-0.3485357165336609,0.45217350125312805,-0.3053998351097107
-0.0530080755236748,1.4553339803791765,1.8049999549699294,-0.3157693147659302,1.2024716138839722,1.8378556966781616,0.9919463992118835,0.052983254194259644,-0.11504415422677994,-0.32959288358688354,0.47172072529792786,-0.30863136053085327
-0.03525644537013236,1.466727403764745,1.808799629412356,-0.040345825254917145,1.0323469638824463,1.7679798603057861,0.993971586227417,0.03524914011359215,-0.10381661355495453,-0.29862862825393677,0.49770987033843994,-0.3162883520126343
-0.01762879699204798,1.4762951263688042,1.8093266817112303,0.2870517373085022,0.8726875185966492,1.7493939399719238,0.9953834414482117,0.017627883702516556,-0.09434594959020615,-0.2645636796951294,0.5285910367965698,-0.33662331104278564
0.0004429825736025209,1.4842656124122102,1.8063238196242566,0.6313095688819885,0.7247803807258606,1.7910916805267334,0.9962584972381592,-0.00044298256398178637,-0.08642276376485825,-0.23464655876159668,0.5503849983215332,-0.35945427417755127
0.01934955488732149,1.4909762850740933,1.800015401561391,0.9281447529792786,0.6015950441360474,1.8647009134292603,0.9966294765472412,-0.019348347559571266,-0.0797203853726387,-0.2144029140472412,0.5711977481842041,-0.3626319169998169
0.03934314028429145,1.4968002218817227,1.7910916161156458,1.139410138130188,0.5158220529556274,1.9843403100967407,0.9964917898178101,-0.03933298960328102,-0.07387138158082962,-0.19517648220062256,0.615977942943573,-0.3377649784088135
0.06097226355963699,1.5022832391383207,1.7804787988907482,1.2673637866973877,0.4774128496646881,2.175093650817871,0.9957999587059021,-0.06093449145555496,-0.06833228468894958,-0.16848373413085938,0.6651368141174316,-0.3013118505477905
0.08475464870569184,1.508063225630602,1.7689175885882071,1.3306416273117065,0.5140041708946228,2.41310453414917,0.9944505095481873,-0.08465321362018585,-0.062466930598020554,-0.14688575267791748,0.7004063725471497,-0.27455389499664307
0.11112596525177482,1.5148823950635533,1.7569356388809005,1.3481042385101318,0.621137797832489,2.699052333831787,0.9922787547111511,-0.11089739203453064,-0.05554009974002838,-0.13160675764083862,0.728786826133728,-0.2577228546142578
0.14036926359071197,1.5234383500096567,1.7449300243099046,1.321699619293213,0.7916470766067505,3.0007894039154053,0.989054262638092,-0.13990876078605652,-0.04687465727329254,-0.12336212396621704,0.7432259917259216,-0.24786406755447388
0.17246183033135645,1.5342493137930382,1.733169192198017,1.2521620988845825,1.0018962621688843,3.2945568561553955,0.9845075011253357,-0.17160817980766296,-0.03599683567881584,-0.12928283214569092,0.7499773502349854,-0.23603683710098267
0.20734983194523293,1.5474151309282624,1.7220684594392808,1.119624376296997,1.201743483543396,3.5948381423950195,0.978312611579895,-0.2058672308921814,-0.022878287360072136,-0.14216136932373047,0.7689164876937866,-0.20643079280853271
0.24503333267060806,1.5624439875669511,1.712089003917957,0.930718719959259,1.3422737121582031,3.8880083560943604,0.9700955748558044,-0.24258866906166077,-0.00810275599360466,-0.15489459037780762,0.7959181070327759,-0.16436731815338135
0.2855339306505444,1.5785597768129451,1.703610999642991,0.7031500339508057,1.4203262329101562,4.18889045715332,0.9594826698303223,-0.2816697955131531,0.0074490453116595745,-0.1787514090538025,0.8320084810256958,-0.12459075450897217
0.32893735587232426,1.5950772434697635,1.6967077720314498,0.472122460603714,1.4577665328979492,4.483778476715088,0.9461072683334351,-0.3230375349521637,0.022976865991950035,-0.20018130540847778,0.8764280676841736,-0.09498310089111328
0.3750779878574812,1.6117837769376933,1.691134262257403,0.2744654417037964,1.4891202449798584,4.737668514251709,0.9296977519989014,-0.3663451075553894,0.038127291947603226,-0.23790991306304932,0.9228330850601196,-0.08687913417816162
0.42349688976188615,1.6285278550396247,1.6864670857247395,0.11149648576974869,1.4865065813064575,4.949504852294922,0.9101386070251465,-0.4109509289264679,0.052602145820856094,-0.29495006799697876,0.976914644241333,-0.10376489162445068
0.4739633006239063,1.645224682710956,1.6822951138519429,-0.022689932957291603,1.493618130683899,5.157566547393799,0.8873031735420227,-0.4564162790775299,0.06616273522377014,-0.34938502311706543,1.0317031145095825,-0.12098753452301025
0.5266309698240931,1.6622756984768412,1.6782160135294393,-0.13198420405387878,1.5254091024398804,5.384077548980713,0.860890805721283,-0.5026236772537231,0.0789741724729538,-0.39195752143859863,1.0868825912475586,-0.13149487972259521
0.5817661394198457,1.680154417310692,1.6739586943286693,-0.2535233795642853,1.6024084091186523,5.6336870193481445,0.8305026292800903,-0.5495004057884216,0.09118597209453583,-0.44041162729263306,1.1495981216430664,-0.14100587368011475
0.6395856594455055,1.6992848689352147,1.6696342659041632,-0.4196862280368805,1.7179338932037354,5.90156364440918,0.7957290410995483,-0.5968630313873291,0.10280845314264297,-0.4876236319541931,1.2142795324325562,-0.13642361760139465
0.7002949115461993,1.719524218070009,1.6656591117623378,-0.6474089026451111,1.8210314512252808,6.171089172363281,0.7562106251716614,-0.6444432139396667,0.11330629140138626,-0.5171207189559937,1.2837865352630615,-0.09968020021915436
0.7638680622113875,1.7399997688462123,1.6627982964734391,-0.9472443461418152,1.8696389198303223,6.404420852661133,0.7118527889251709,-0.6917200088500977,0.12161072343587875,-0.5524441003799438,1.3596429824829102,-0.03822147846221924
0.8301871824962284,1.7590753921503768,1.6620615487728199,-1.3083034753799438,1.8136012554168701,6.620638847351074,0.6628133654594421,-0.7380576729774475,0.12628969550132751,-0.5952475070953369,1.4429986476898193,0.04717215895652771
0.8993068316641897,1.7745306828887797,1.664584349525395,-1.698928952217102,1.6428180932998657,6.828085899353027,0.609285295009613,-0.7828958630561829,0.12587884068489075,-0.6635302901268005,1.5467509031295776,0.14284370839595795
0.9712559575125691,1.7845074260704308,1.6715933486879824,-2.0811662673950195,1.4828485250473022,7.031905651092529,0.5514266490936279,-0.8255950808525085,0.11967349052429199,-0.7697950601577759,1.6537351608276367,0.2328350692987442
1.0460410276844627,1.7883160311715562,1.6842788286908303,-2.4214069843292236,1.430272102355957,7.243323802947998,0.4891957640647888,-0.8654465675354004,0.10812035202980042,-0.910429835319519,1.7625107765197754,0.309939980506897
1.1234525091075034,1.784866707302551,1.704476520563382,-2.7149362564086914,1.4465614557266235,7.411619186401367,0.4226984977722168,-0.9015992879867554,0.09189526736736298,-1.0562891960144043,1.8757966756820679,0.3583458662033081
1.2021821478037487,1.7693549026961075,1.73638712448558,-2.965280771255493,1.2638605833053589,7.40663480758667,0.35324394702911377,-0.9328275918960571,0.07107614725828171,-1.1641721725463867,1.950085163116455,0.4025108814239502
1.2802137256955857,1.7295975146792006,1.7891156603976617,-3.142035961151123,0.7215527892112732,7.282689094543457,0.28290608525276184,-0.9580771327018738,0.04530731216073036,-1.1771321296691895,1.8967366218566895,0.4748038053512573
1.3559872416248193,1.6423802706352102,1.8830864306897281,-3.2323215007781982,0.060889072716236115,7.169003486633301,0.212615504860878,-0.9770171046257019,0.015245906077325344,-1.1840510368347168,1.7901731729507446,0.543027400970459
1.4269804831377906,1.4529847975232186,2.073620814984267,-3.195368528366089,-0.37675076723098755,7.068386554718018,0.14232811331748962,-0.989676296710968,-0.016845902428030968,-1.22355055809021,1.7812564373016357,0.5542604923248291
1.4838170166670714,0.9800898766127385,2.5447221663425976,-3.0138120651245117,-0.51241135597229,6.984678268432617,0.0721510499715805,-0.9962196946144104,-0.04838299751281738,-1.2703932523727417,1.8536871671676636,0.4999058246612549
1.493442512850751,0.029271259123136675,-2.7899096228881133,-2.6971421241760254,-0.48172077536582947,6.928253173828125,0.002261647256091237,-0.9970096945762634,-0.07724304497241974,-1.296802043914795,1.8929600715637207,0.40814512968063354
1.4485861714481123,-0.5852864953639088,-2.177543000395821,-2.1993112564086914,-0.5121647119522095,6.9339447021484375,-0.06734558939933777,-0.9925416111946106,-0.1016153022646904,-1.2633886337280273,1.8718599081039429,0.3369210958480835
1.387787525314979,-0.8511837473365814,-1.9146157036934404,-1.608231544494629,-0.6910138726234436,6.95091438293457,-0.13686713576316833,-0.9833005666732788,-0.11994799226522446,-1.1642192602157593,1.8600094318389893,0.29151779413223267
1.3245857519968967,-1.0060706081293689,-1.7649749616226849,-0.8020980954170227,-1.0376505851745605,6.89665412902832,-0.2058885097503662,-0.9698429703712463,-0.13044115900993347,-1.0499708652496338,1.786523699760437,0.27416372299194336
1.2635823002653235,-1.126565534024431,-1.652519571356395,0.33114323019981384,-1.4174290895462036,6.666175842285156,-0.27305373549461365,-0.9531797766685486,-0.1299624741077423,-1.0180991888046265,1.6164029836654663,0.1885867714881897
1.2069289951690318,-1.238838689314472,-1.5504130389958632,1.5905296802520752,-1.724095106124878,6.293392658233643,-0.3364618122577667,-0.9345274567604065,-0.11598297208547592,-1.1337835788726807,1.4748716354370117,0.07193082571029663
1.1538745717322545,-1.349513353755493,-1.4514141796580997,2.725215196609497,-2.1388659477233887,5.919596195220947,-0.3950743079185486,-0.9143397808074951,-0.08887866139411926,-1.3173128366470337,1.4538750648498535,0.14199447631835938
1.1025913329860972,-1.4628137419957403,-1.3544588881735908,3.7477028369903564,-3.040172815322876,5.504526615142822,-0.44865694642066956,-0.8923797607421875,-0.04863632097840309,-1.4120761156082153,1.4523773193359375,0.3874729871749878
1.0512068280222375,-1.582293790578768,-1.2597462479490722,4.673119068145752,-4.124028205871582,5.167827606201172,-0.496491014957428,-0.8680230975151062,0.005708639044314623,-1.4789880514144897,1.3946192264556885,0.6141186952590942
0.9967907741481674,-1.7047761179833623,-1.1689937147689897,5.4727630615234375,-4.759457111358643,4.973066329956055,-0.5381338596343994,-0.8397327065467834,0.07253359258174896,-1.5586984157562256,1.3414416313171387,0.7424079179763794
0.9369326945793801,-1.8224963703373145,-1.0848181158805321,6.141078472137451,-4.813197612762451,4.922975063323975,-0.5736002326011658,-0.8057452440261841,0.14750336110591888,-1.6059651374816895,1.2747242450714111,0.7476992607116699
0.8699970005233402,-1.9274787107035005,-1.0104008814240941,6.586058616638184,-4.4134626388549805,5.067674160003662,-0.6042435169219971,-0.7643269896507263,0.22515316307544708,-1.6498610973358154,1.1705617904663086,0.7183740139007568
0.7957937692607053,-2.0141214180509017,-0.9491066676362667,6.700171947479248,-3.8068323135375977,5.361299514770508,-0.6320764422416687,-0.7144192457199097,0.3001408576965332,-1.722980260848999,1.0606716871261597,0.7871394157409668
0.7164253738560818,-2.080944918269889,-0.9042754121608642,6.286718368530273,-3.3960037231445312,5.740658760070801,-0.6581326723098755,-0.6566930413246155,0.3682606518268585,-1.7813968658447266,0.9337925910949707,1.0082347393035889
0.6350097186065427,-2.1310474251850073,-0.877046629888636,5.633176326751709,-3.1819980144500732,6.020335674285889,-0.6819889545440674,-0.5931853652000427,0.42781123518943787,-1.8673884868621826,0.8242491483688354,1.3010095357894897
0.555137649712505,-2.1689593961626703,-0.8631039695229857,5.022984504699707,-2.7709450721740723,6.0072736740112305,-0.7022737860679626,-0.5270602703094482,0.4785598814487457,-2.134960889816284,0.7242494821548462,1.4276750087738037
0.4792999913417534,-2.196778647288391,-0.857111015409564,4.527679920196533,-2.176424026489258,5.740605354309082,-0.7190721035003662,-0.4611581563949585,0.5198741555213928,-2.5357649326324463,0.581092119216919,1.386605143547058
0.40892473448653166,-2.2166981548680695,-0.8553830328972202,4.050114154815674,-1.6673518419265747,5.352632999420166,-0.7327154874801636,-0.3976229429244995,0.5522900819778442,-2.783550500869751,0.36771565675735474,1.3204669952392578
0.3449656040253781,-2.231270238166275,-0.8569273613170579,3.4505059719085693,-1.3769923448562622,4.943255424499512,-0.7431780695915222,-0.3381642997264862,0.5773487091064453,-2.862687587738037,0.10093581676483154,1.3329449892044067
0.2883509038862897,-2.242721998049962,-0.8620879866292126,2.752878189086914,-1.2284899950027466,4.533388614654541,-0.7503132820129395,-0.28437161445617676,0.5967941880226135,-2.8401715755462646,-0.1363132894039154,1.4242935180664062
0.2390944146287447,-2.252096830811218,-0.8705624064377316,2.139580011367798,-1.0666475296020508,4.145468711853027,-0.7546579241752625,-0.23682290315628052,0.6118876338005066,-2.7429921627044678,-0.37407803535461426,1.4320271015167236
0.19614465609366505,-2.259143555727293,-0.8811205940581834,1.7118451595306396,-0.776486873626709,3.792171001434326,-0.7574883103370667,-0.1948893666267395,0.6230805516242981,-2.6194496154785156,-0.6236379146575928,1.2733579874038696
0.15789496351850982,-2.2631343677023184,-0.8923368950132345,1.4636285305023193,-0.40380004048347473,3.4944324493408203,-0.7601804137229919,-0.15723970532417297,0.630398154258728,-2.497647523880005,-0.8337271213531494,1.041675329208374
0.12297855207149067,-2.2635464448240192,-0.9033063259769258,1.319516897201538,0.013856851495802402,3.2495782375335693,-0.7636811137199402,-0.1226688027381897,0.6338324546813965,-2.368337869644165,-1.0018582344055176,0.8358941674232483
0.0907106282499637,-2.2602811065870574,-0.9137586322570058,1.1644694805145264,0.41142985224723816,3.0051097869873047,-0.768401563167572,-0.09058628231287003,0.6335242390632629,-2.233185291290283,-1.1556447744369507,0.700200617313385
0.06179182525920951,-2.253113571190687,-0.9235193858204985,1.0000046491622925,0.8719524145126343,2.6798582077026367,-0.7746323943138123,-0.06175250932574272,0.6293897032737732,-2.117640495300293,-1.314559817314148,0.656163215637207
0.03617886337335418,-2.241779803504009,-0.931474068471493,0.9881875514984131,1.3011759519577026,2.282114267349243,-0.7826982140541077,-0.036170970648527145,0.6213498115539551,-2.026597499847412,-1.4745254516601562,0.678073525428772
0.013357541699037271,-2.226955868151133,-0.9359796032767427,1.115731954574585,1.6120214462280273,1.8511378765106201,-0.7922704219818115,-0.01335714478045702,0.6100240349769592,-1.8731043338775635,-1.617288589477539,0.6456217169761658
-0.006803850681400029,-2.2096965038402523,-0.9364262369506183,1.228571891784668,1.818352222442627,1.3967139720916748,-0.8027335405349731,0.006803798023611307,0.5962991118431091,-1.708878517150879,-1.7408889532089233,0.6470022201538086
-0.023616926499574694,-2.1902051167349663,-0.932897746277797,1.3093045949935913,2.056328773498535,0.8841202855110168,-0.8139949440956116,0.023614730685949326,0.5803921222686768,-1.5496373176574707,-1.7331026792526245,0.6780766248703003
-0.03683204716545372,-2.1681303564123318,-0.9253773505871545,1.4332232475280762,2.2880678176879883,0.43403613567352295,-0.8262772560119629,0.03682371973991394,0.5620587468147278,-1.4127516746520996,-1.5993390083312988,0.6253345012664795
-0.04733328244635591,-2.1444429668710114,-0.9140510776071228,1.6132584810256958,2.277736186981201,0.06802964210510254,-0.838986873626709,0.04731560871005058,0.5420907735824585,-1.244509220123291,-1.4495067596435547,0.4869619607925415
-0.055636713551333754,-2.1230760413105116,-0.8987026823846989,1.8641448020935059,1.7657313346862793,-0.3022086024284363,-0.8500136137008667,0.05560801550745964,0.5238177180290222,-1.0630724430084229,-1.3063557147979736,0.36203134059906006
-0.06178437502500358,-2.1079429722097975,-0.8787234393539267,2.172287940979004,1.0067623853683472,-0.7112863659858704,-0.8575329780578613,0.06174507364630699,0.5107102990150452,-0.9493366479873657,-1.140343189239502,0.3037428855895996
-0.0655561861431904,-2.1000596625058936,-0.8539154140302415,2.454291582107544,0.2524208426475525,-1.150765299797058,-0.8613250851631165,0.06550923734903336,0.5038130879402161,-0.8749724626541138,-0.9177279472351074,0.23385781049728394
-0.06654336438815055,-2.099083845219873,-0.8247143614354283,2.646728277206421,-0.4237213730812073,-1.6079778671264648,-0.8617600798606873,0.06649426370859146,0.5029395222663879,-0.7861281037330627,-0.686184287071228,0.12470024824142456
-0.06435692225335798,-2.1035298607662813,-0.7921427091967209,2.7026572227478027,-0.8418715596199036,-2.0377814769744873,-0.8596388101577759,0.06431250274181366,0.5068386197090149,-0.6824297904968262,-0.5029875040054321,0.03819012641906738
-0.0589573624017362,-2.1099852599781785,-0.7577829275601022,2.606778621673584,-0.8087969422340393,-2.361940622329712,-0.8566345572471619,0.05892321094870567,0.5125481486320496,-0.5584350824356079,-0.34391164779663086,-0.040929436683654785
-0.05091323754922312,-2.114459959497979,-0.7235179076061209,2.396871328353882,-0.43521231412887573,-2.4974863529205322,-0.8547104597091675,0.050891242921352386,0.5166046619415283,-0.3785964846611023,-0.19383561611175537,-0.10402214527130127
-0.04157663055449121,-2.115033057789611,-0.6912849927039725,2.1280148029327393,0.015999898314476013,-2.389169692993164,-0.8547835350036621,0.04156465455889702,0.5173178911209106,-0.16026175022125244,-0.0565488338470459,-0.1352834701538086
-0.032627557720555395,-2.1119709453150874,-0.6625801132989574,1.844056487083435,0.3713553249835968,-2.067610263824463,-0.8566479086875916,0.03262176737189293,0.5148689150810242,0.048344194889068604,0.0633101686835289,-0.1295233964920044
-0.02556989548518479,-2.1061169405801485,-0.6385803927286161,1.5342930555343628,0.6494213342666626,-1.5766334533691406,-0.8598239421844482,0.025567108765244484,0.5099501013755798,0.23165017366409302,0.1443547010421753,-0.09971755743026733
-0.021445611208527456,-2.0981584131812383,-0.6201272712877064,1.2188142538070679,0.8349578976631165,-0.9887011051177979,-0.8639390468597412,0.021443966776132584,0.5031399130821228,0.37930452823638916,0.18281015753746033,-0.06654024124145508
-0.020749987638958002,-2.0890134394973576,-0.6074383898035567,0.9045422673225403,0.9276159405708313,-0.39446353912353516,-0.868516743183136,0.020748497918248177,0.49522554874420166,0.4844224452972412,0.1824374794960022,-0.05259847640991211
-0.023509336895271123,-2.0791070401801552,-0.600318783446988,0.6021391153335571,1.020923376083374,0.16799814999103546,-0.8733266592025757,0.023507172241806984,0.48656779527664185,0.5384724140167236,0.1447056531906128,-0.03611302375793457
-0.029333592050752436,-2.0681709502469188,-0.5982389213524066,0.3207618296146393,1.1497324705123901,0.634245753288269,-0.8784602880477905,0.029329385608434677,0.47691473364830017,0.5335962176322937,0.09341225028038025,-0.023652255535125732
-0.03722004720729682,-2.056196743793217,-0.6005133617330785,0.021882452070713043,1.2465429306030273,0.9441086053848267,-0.8838759064674377,0.03721145540475845,0.4662395715713501,0.47960925102233887,0.046681322157382965,-0.004233717918395996
-0.04564093881352876,-2.043607047793107,-0.6064222689397658,-0.2906477451324463,1.312834620475769,1.0641423463821411,-0.8893649578094482,0.04562509432435036,0.4549163579940796,0.3866029381752014,-0.0044264160096645355,0.030633747577667236
-0.05305756421421254,-2.03047430705989,-0.6150651101186733,-0.5804076194763184,1.3868690729141235,1.0132101774215698,-0.8949344158172607,0.05303267389535904,0.4430352747440338,0.26257961988449097,-0.06456834077835083,0.08485794067382812
-0.05827288210122175,-2.0170938794816795,-0.6257955670500539,-0.8860450387001038,1.3843717575073242,0.8483849763870239,-0.9005202054977417,0.058239907026290894,0.4308960437774658,0.15723413228988647,-0.11065391451120377,0.1361510157585144
-0.06065635881095837,-2.0046170868272335,-0.63859210687449,-1.2201979160308838,1.2383090257644653,0.6666043400764465,-0.905697762966156,0.06061917170882225,0.41956770420074463,0.0853700041770935,-0.12107455730438232,0.17113062739372253
-0.06035509312844751,-1.9941155007306608,-0.6538140171889693,-1.5540862083435059,1.0394628047943115,0.5494798421859741,-0.9100703597068787,0.06031845510005951,0.4100409150123596,0.05165672302246094,-0.11091665178537369,0.20378965139389038
-0.05829059214356017,-1.9854685334167352,-0.6716079597226371,-1.8428542613983154,0.9051242470741272,0.5284554958343506,-0.9136940240859985,0.058257587254047394,0.4022057056427002,0.035428643226623535,-0.08984333276748657,0.23016437888145447
-0.05543863242359028,-1.978036858727628,-0.6919361342614209,-2.085223436355591,0.8059806227684021,0.5700791478157043,-0.9168066382408142,0.0554102398455143,0.3954685628414154,0.038968443870544434,-0.06041514873504639,0.2212306261062622
-0.05217242999629744,-1.9715778640373773,-0.7143892536762201,-2.2675833702087402,0.7253413796424866,0.5791675448417664,-0.9195036888122559,0.052148763090372086,0.3896072804927826,0.02694070339202881,-0.039316147565841675,0.16819310188293457
-0.04822936620758715,-1.9655694906416232,-0.7379579569122634,-2.3492560386657715,0.7224396467208862,0.5019156336784363,-0.922010600566864,0.04821066930890083,0.3841516673564911,-0.02565181255340576,-0.029213517904281616,0.09222781658172607
-0.04316883957600383,-1.958686943894969,-0.7612945802853911,-2.3210248947143555,0.877204418182373,0.327070415019989,-0.9248467087745667,0.04315543174743652,0.37788426876068115,-0.0942879319190979,-0.02643182873725891,-0.0016939640045166016
-0.03653393276828984,-1.9495641726630715,-0.7832829474887243,-2.2284998893737793,1.1228022575378418,0.07851625233888626,-0.9285010099411011,0.03652580454945564,0.36952921748161316,-0.18761837482452393,-0.029766205698251724,-0.09587803483009338
-0.02806196834743845,-1.9376653085471982,-0.8033631095793005,-2.1087400913238525,1.3724168539047241,-0.1874593198299408,-0.9330875277519226,0.028058284893631935,0.35855332016944885,-0.2473781704902649,-0.02436569519340992,-0.15432968735694885
-0.018042486685665014,-1.9232977463274366,-0.8215582621053714,-1.9845062494277954,1.5684691667556763,-0.3924468159675598,-0.938359260559082,0.01804150827229023,0.34519028663635254,-0.2335919737815857,-0.010106982663273811,-0.17998328804969788
-0.007389857489671124,-1.9070719795943594,-0.8381549192774295,-1.8440659046173096,1.7002384662628174,-0.47085678577423096,-0.9439643621444702,0.007389790378510952,0.32996463775634766,-0.18015056848526,0.011576860211789608,-0.182091623544693
0.0025747011680815604,-1.889710987308852,-0.8534364823313246,-1.6755123138427734,1.7574900388717651,-0.4146997928619385,-0.9495733976364136,-0.0025746983010321856,0.3135351836681366,-0.11240804195404053,0.039821356534957886,-0.17594656348228455
0.010792659584363812,-1.8719716058914873,-0.867413219975951,-1.4763952493667603,1.7523185014724731,-0.29634732007980347,-0.9549328684806824,-0.010792450048029423,0.2966255247592926,-0.04158806800842285,0.053379714488983154,-0.1668953001499176
0.017112811607340708,-1.854510634664382,-0.8797510215015762,-1.2421799898147583,1.6796954870224,-0.21110832691192627,-0.9598819017410278,-0.017111975699663162,0.2798824608325958,-0.0030240416526794434,0.04000011086463928,-0.16145896911621094
0.022144687486103664,-1.8382568628613767,-0.889997450780263,-0.9954471588134766,1.510131597518921,-0.21079352498054504,-0.9642086625099182,-0.02214287780225277,0.2642183005809784,-0.01654994487762451,0.02318042702972889,-0.15673533082008362
0.026821174178946403,-1.8238463576158743,-0.8977692791843911,-0.7428237199783325,1.3329243659973145,-0.29777103662490845,-0.9678051471710205,-0.026817958801984787,0.25026798248291016,-0.07380557060241699,0.027397753670811653,-0.13132575154304504
0.031893571064042885,-1.8109364979414697,-0.9029042296488153,-0.4977967143058777,1.2190278768539429,-0.42886367440223694,-0.9708107113838196,-0.03188816457986832,0.23771783709526062,-0.12287825345993042,0.03791535273194313,-0.0909588485956192
0.037595934525496706,-1.7990210396718802,-0.9055798933807716,-0.2921905517578125,1.1339014768600464,-0.5495197772979736,-0.9733813405036926,-0.03758708015084267,0.2260887622833252,-0.13909125328063965,0.03012549877166748,-0.052321672439575195
0.04396093640630158,-1.788151494908534,-0.9064084022582799,-0.1597858965396881,1.025403618812561,-0.6480163335800171,-0.9755279421806335,-0.043946776539087296,0.21543945372104645,-0.126706063747406,0.01725912094116211,-0.010712265968322754
0.0509809762949913,-1.7784512597382152,-0.9063051510909502,-0.1301499605178833,0.9099113941192627,-0.7165511846542358,-0.9772458672523499,-0.050958894193172455,0.20589794218540192,-0.09637784957885742,0.019815683364868164,0.04021108150482178
0.05843560315930849,-1.769655027564629,-0.9065417583179948,-0.22608162462711334,0.855866014957428,-0.7180861830711365,-0.9786195158958435,-0.058402352035045624,0.19721347093582153,-0.069216787815094,0.026572473347187042,0.09055206179618835
0.06583650396995598,-1.7607040219044536,-0.9081202296995973,-0.3656432330608368,0.9184146523475647,-0.6662224531173706,-0.9798943400382996,-0.06578895449638367,0.188359335064888,-0.058664798736572266,0.020287208259105682,0.12929823994636536
0.07300906015947424,-1.7507427025312607,-0.911173637922432,-0.49383631348609924,1.0237809419631958,-0.630082368850708,-0.9812323451042175,-0.07294421643018723,0.17850002646446228,-0.05602961778640747,-0.015175335109233856,0.1390964835882187
0.08013524855623336,-1.739643294739725,-0.9155809488814374,-0.6122025847434998,1.120804786682129,-0.6191588640213013,-0.9826157093048096,-0.08004950731992722,0.16750654578208923,-0.060612380504608154,-0.06471066921949387,0.11867211759090424
0.08729751215914909,-1.7272319769323423,-0.9212291371884085,-0.7262653708457947,1.2694580554962158,-0.603222131729126,-0.9840275645256042,-0.08718667179346085,0.1552051305770874,-0.08060884475708008,-0.09443873912096024,0.08713497221469879
0.09418816326903814,-1.712465323826224,-0.9281288265160229,-0.8287712335586548,1.5736970901489258,-0.5497692823410034,-0.9855939149856567,-0.09404896199703217,0.1405697762966156,-0.11162006855010986,-0.10350663959980011,0.06250955164432526
0.10061722317403864,-1.6937694972227124,-0.9359201495981994,-0.8627598285675049,2.0039334297180176,-0.5241734385490417,-0.9874290227890015,-0.10044753551483154,0.12204309552907944,-0.16778349876403809,-0.11711235344409943,0.025387421250343323
0.10697607240043519,-1.6709670379608126,-0.9437547375465236,-0.8154908418655396,2.36199951171875,-0.5739690065383911,-0.9892992377281189,-0.10677215456962585,0.0994316041469574,-0.24544191360473633,-0.14627964794635773,-0.04019691050052643
0.11403204497122688,-1.645365372946773,-0.9510160521608578,-0.7421556711196899,2.562803030014038,-0.7103770971298218,-0.9907446503639221,-0.11378507316112518,0.07401612401008606,-0.31865793466567993,-0.1663663387298584,-0.09661436080932617
0.12249651028009025,-1.6183916987483862,-0.95770952630254,-0.687090277671814,2.6462574005126953,-0.8979275822639465,-0.9913826584815979,-0.12219038605690002,0.04722088947892189,-0.3728598356246948,-0.16691790521144867,-0.11271167546510696
0.13274924311614048,-1.590891716950076,-0.9639485166113367,-0.6041326522827148,2.6726901531219482,-1.1043974161148071,-0.9910016655921936,-0.13235969841480255,0.01991724595427513,-0.4465441107749939,-0.17956046760082245,-0.09869837760925293
0.14503852721150762,-1.5633325058909993,-0.9691396401829023,-0.42302119731903076,2.67716908454895,-1.341844081878662,-0.9894728660583496,-0.1445305496454239,-0.007385385222733021,-0.5119615197181702,-0.1858374923467636,-0.11257916688919067
0.1597884121040647,-1.5360365333832118,-0.9724109562280332,-0.15186764299869537,2.6614558696746826,-1.610099196434021,-0.9866647124290466,-0.15910932421684265,-0.034310080111026764,-0.5679618120193481,-0.16365990042686462,-0.18318867683410645
0.17728072418634483,-1.5092802764176392,-0.9731937948756737,0.17034155130386353,2.6489498615264893,-1.8728477954864502,-0.9824651479721069,-0.1763535737991333,-0.060513727366924286,-0.6034877300262451,-0.11908715963363647,-0.2669246196746826
0.19736861312142717,-1.482900380869322,-0.9713475364178189,0.4805190861225128,2.685516595840454,-2.0843491554260254,-0.9768005609512329,-0.1960897147655487,-0.08607859909534454,-0.5838531255722046,-0.06334023177623749,-0.32250601053237915
0.2194241087862161,-1.4562660617324732,-0.9673678677332597,0.727798342704773,2.8031654357910156,-2.195932149887085,-0.9696287512779236,-0.2176675796508789,-0.11153995990753174,-0.5101686716079712,-0.010542899370193481,-0.33767879009246826
0.24242035056139316,-1.4282306303492598,-0.9618893739889431,0.9041994214057922,3.048140048980713,-2.200782060623169,-0.960911214351654,-0.24005290865898132,-0.13792870938777924,-0.41688114404678345,0.03062601387500763,-0.32024693489074707
0.2653234788841613,-1.3977396423316895,-0.9555865452668475,1.0051361322402954,3.3425827026367188,-2.1062116622924805,-0.9505934715270996,-0.26222145557403564,-0.1661687195301056,-0.3365769386291504,0.05657869577407837,-0.2904505729675293
0.2872231457682877,-1.3646269900928825,-0.9489800288684016,1.0577025413513184,3.6193535327911377,-1.93112313747406,-0.9387240409851074,-0.28329023718833923,-0.19632568955421448,-0.2779201865196228,0.07673195004463196,-0.25400692224502563
0.3074277557339893,-1.3291374917777434,-0.9420751218549352,1.1242640018463135,3.8409721851348877,-1.70212721824646,-0.9254197478294373,-0.3026079833507538,-0.22809338569641113,-0.2345380187034607,0.09067869186401367,-0.22545883059501648
0.3259090831437019,-1.2927410800934385,-0.934520180631495,1.2016061544418335,3.856294631958008,-1.4949711561203003,-0.9109728932380676,-0.320170134305954,-0.2600371539592743,-0.20198780298233032,0.09498092532157898,-0.21274107694625854
0.3429556214876961,-1.2569991480327485,-0.9266437672447673,1.1913639307022095,3.7695367336273193,-1.3266417980194092,-0.8957770466804504,-0.33627206087112427,-0.29069703817367554,-0.21440672874450684,0.10534548759460449,-0.16618162393569946
0.35877677800597546,-1.2231387640235918,-0.9189478197425975,1.2050954103469849,3.4911577701568604,-1.2062327861785889,-0.8803097605705261,-0.3511291742324829,-0.31900331377983093,-0.22067290544509888,0.10354000329971313,-0.11057731509208679
0.37444857194486536,-1.1924566294652967,-0.91115849140481,1.2619611024856567,3.190467357635498,-1.2117284536361694,-0.8648890256881714,-0.36575937271118164,-0.3437837064266205,-0.2175084352493286,0.10028693079948425,-0.0755431056022644
0.39106202657830974,-1.1646309959249652,-0.9033309304626388,1.3458575010299683,2.942357301712036,-1.2971618175506592,-0.8492894768714905,-0.38117048144340515,-0.3652621805667877,-0.22206062078475952,0.10487955808639526,-0.056811124086380005
0.4091760501832857,-1.1393053283969237,-0.8954132322260049,1.4526512622833252,2.719881534576416,-1.41072678565979,-0.8333585262298584,-0.3978535234928131,-0.3837006390094757,-0.2260134220123291,0.11686283349990845,-0.048153579235076904
0.429032116788052,-1.1162619941792802,-0.8873390476772065,1.5732853412628174,2.5360805988311768,-1.5341647863388062,-0.8170366287231445,-0.41599082946777344,-0.39925292134284973,-0.22535234689712524,0.12959858775138855,-0.052605628967285156
0.4506027133033018,-1.0950392491362613,-0.8790263757715615,1.6938836574554443,2.4003195762634277,-1.6274393796920776,-0.8002158999443054,-0.4355081617832184,-0.41229507327079773,-0.19720536470413208,0.1413186490535736,-0.06420636177062988
0.4733324022788469,-1.0754980413672122,-0.8703752627611413,1.7778279781341553,2.263686180114746,-1.6456907987594604,-0.7830937504768372,-0.4558548331260681,-0.4230375587940216,-0.13701128959655762,0.15868976712226868,-0.06734949350357056
0.4961996817220503,-1.0574202286622851,-0.8613958884838773,1.8073126077651978,2.179230213165283,-1.570281982421875,-0.7660362720489502,-0.4760870039463043,-0.4318908751010895,-0.0839393138885498,0.17725881934165955,-0.051995813846588135
0.5183128625014485,-1.0401390203424554,-0.852202202058456,1.7682971954345703,2.1609413623809814,-1.4468740224838257,-0.7491940259933472,-0.4954153001308441,-0.4396272897720337,-0.03622162342071533,0.19702962040901184,-0.02469766139984131
0.5390241941272909,-1.022793607332723,-0.8434148428779951,1.6364986896514893,2.1827521324157715,-1.3240187168121338,-0.7325394749641418,-0.5132988095283508,-0.44711318612098694,-0.012241959571838379,0.20913010835647583,0.014740169048309326
0.5580067450590448,-1.004264007218013,-0.8361814004453778,1.3983187675476074,2.276444435119629,-1.2444846630096436,-0.715778112411499,-0.5294963717460632,-0.45529717206954956,-0.022899866104125977,0.21084696054458618,0.05800408124923706
0.5752360776775597,-0.9829150531017388,-0.8316361159523376,1.1122339963912964,2.473090648651123,-1.2238622903823853,-0.6981998682022095,-0.544032871723175,-0.46534422039985657,-0.06098592281341553,0.19881802797317505,0.08569034934043884
0.5909349091213498,-0.9577321455222841,-0.8304550447573708,0.8183841705322266,2.67574405670166,-1.2577413320541382,-0.6791913509368896,-0.5571376085281372,-0.4778040945529938,-0.10410326719284058,0.1903010606765747,0.10306349396705627
0.6054325104304834,-0.9285397499553223,-0.8329188850116258,0.5564990043640137,2.867680549621582,-1.3203480243682861,-0.6584182977676392,-0.5691177845001221,-0.4925345480442047,-0.13230741024017334,0.19103550910949707,0.1118125319480896
0.6188226899371285,-0.8954041114381922,-0.8386854330627305,0.33965563774108887,3.076368808746338,-1.3622239828109741,-0.635734498500824,-0.5800765752792358,-0.5092669725418091,-0.12255096435546875,0.19462430477142334,0.10561102628707886
0.6309227122059148,-0.8586726341734597,-0.8471023471105277,0.1602829396724701,3.260012626647949,-1.3566100597381592,-0.6112456321716309,-0.5898900628089905,-0.5276443958282471,-0.08603525161743164,0.2042546272277832,0.09748387336730957
0.6415282878991888,-0.8188218647407242,-0.8575910909026228,0.008407576940953732,3.4423224925994873,-1.3358482122421265,-0.5851366519927979,-0.5984205603599548,-0.5472732186317444,-0.06055426597595215,0.22042977809906006,0.10307466983795166
0.6506383641340594,-0.7763045010215972,-0.8694067859854075,-0.07531475275754929,3.6060667037963867,-1.271612524986267,-0.5575032830238342,-0.6056944727897644,-0.5677360892295837,-0.044944167137145996,0.2341582179069519,0.11534363031387329
0.6584105694944621,-0.7324167217699854,-0.8814765015249235,-0.0927339568734169,3.6643030643463135,-1.1743160486221313,-0.5288939476013184,-0.611860454082489,-0.5881310105323792,-0.023764073848724365,0.24133121967315674,0.10966116189956665
0.6652211524171494,-0.6887691582067927,-0.8928199803664155,-0.0363985076546669,3.631211996078491,-1.065264105796814,-0.5000676512718201,-0.617233157157898,-0.6074171662330627,-0.007470190525054932,0.24960309267044067,0.09205156564712524
0.6715581944711445,-0.6467387237430512,-0.9030167582567755,0.036589767783880234,3.48107647895813,-0.9734429121017456,-0.4717370271682739,-0.6222065687179565,-0.6247584223747253,0.003719538450241089,0.26092422008514404,0.07258868217468262
0.6773859663921092,-0.6067235342165085,-0.9124317712083578,0.0304756797850132,3.300067901611328,-0.8945766091346741,-0.44429123401641846,-0.6267582774162292,-0.640140175819397,0.006623387336730957,0.255771279335022,0.08508652448654175
0.6820401431473114,-0.5696137932033714,-0.9215646116304115,-0.04536851868033409,2.9705169200897217,-0.7938323020935059,-0.4186576306819916,-0.6303780674934387,-0.6537196040153503,0.030641913414001465,0.24040913581848145,0.17402911186218262
0.6852435760786859,-0.5346566051811844,-0.9303900334038697,-0.13770297169685364,2.9065797328948975,-0.7122082710266113,-0.3945233225822449,-0.6328616142272949,-0.6662114262580872,0.04749274253845215,0.23743003606796265,0.15165454149246216
0.6868409045583733,-0.4997864451178661,-0.9396245124366022,-0.29288268089294434,2.8834280967712402,-0.6928441524505615,-0.3705723285675049,-0.6340975761413574,-0.6786725521087646,0.018933594226837158,0.22897666692733765,0.15570807456970215
0.6868301660483462,-0.46419645923688563,-0.9497558341321896,-0.42256098985671997,2.9398353099823,-0.6885395050048828,-0.3461918830871582,-0.6340892910957336,-0.6914347410202026,-0.01499888300895691,0.23342394828796387,0.1580180525779724
0.6856671498067964,-0.42772687536699533,-0.9602114726167602,-0.46654218435287476,3.004005193710327,-0.6593532562255859,-0.32105663418769836,-0.6331894993782043,-0.704268217086792,-0.026416480541229248,0.23414158821105957,0.11312747001647949
0.6842882420146653,-0.3912046952499018,-0.9697666978163947,-0.35014021396636963,3.0713963508605957,-0.5781729221343994,-0.29545944929122925,-0.6321216821670532,-0.7163280844688416,-0.015712976455688477,0.23852109909057617,0.03598451614379883
0.6839722020368996,-0.3554145837752293,-0.9771843549755445,-0.12318549305200577,3.122518301010132,-0.4620858132839203,-0.26970773935317993,-0.6318767070770264,-0.7266288995742798,0.008004307746887207,0.25495409965515137,-0.06878125667572021
0.6849649358468582,-0.3209387969395077,-0.9822188943302576,0.037688083946704865,3.1104888916015625,-0.33772099018096924,-0.24430334568023682,-0.632645845413208,-0.734898030757904,0.010935455560684204,0.27211111783981323,-0.12270689010620117
0.6866252715433032,-0.28780529368513164,-0.9852846099141885,0.13132159411907196,3.1093454360961914,-0.2114846110343933,-0.2195255011320114,-0.6339308023452759,-0.7415795922279358,-0.007632032036781311,0.2775617241859436,-0.10065972805023193
0.688459441259637,-0.25584378277764114,-0.986781666594532,0.1457519382238388,3.0645902156829834,-0.11351277679204941,-0.19542084634304047,-0.6353482604026794,-0.7470899224281311,-0.018339484930038452,0.27612578868865967,-0.054637372493743896
0.6898719201705411,-0.22507217707881685,-0.9874361321552052,0.1031818613409996,2.9925742149353027,-0.050981029868125916,-0.17214234173297882,-0.6364383697509766,-0.7518730759620667,-0.02416194975376129,0.26252174377441406,0.009960293769836426
0.6906901943623722,-0.19518948341560433,-0.9874060670266808,0.05376051366329193,2.9670238494873047,0.023952070623636246,-0.1494997888803482,-0.6370693445205688,-0.7561696171760559,-0.013982802629470825,0.23837238550186157,0.06584680080413818
0.690548339015325,-0.16631281276740117,-0.9865202044766588,-0.06611640006303787,2.8961594104766846,0.1147112175822258,-0.12761980295181274,-0.636959969997406,-0.7602599859237671,0.01186668872833252,0.20896613597869873,0.10268247127532959
0.688957908912374,-0.1386355863688888,-0.9847588692100875,-0.20011042058467865,2.85616135597229,0.1963978260755539,-0.10667158663272858,-0.6357331275939941,-0.7645028829574585,0.020978301763534546,0.17725223302841187,0.14632362127304077
0.6862249614590217,-0.1114471136060739,-0.9821984595934852,-0.2907242476940155,2.895401954650879,0.2586408853530884,-0.08604196459054947,-0.6336211562156677,-0.768843948841095,0.01792675256729126,0.15406787395477295,0.16056764125823975
0.6826179904729597,-0.08404185174966279,-0.9791006913188338,-0.37957850098609924,2.9561104774475098,0.27998822927474976,-0.06513334065675735,-0.6308265328407288,-0.7731853127479553,-0.0014712214469909668,0.13303899765014648,0.1510540246963501
0.6781868992179437,-0.05602470670196568,-0.9761109010385496,-0.4651355743408203,2.9998250007629395,0.2350461184978485,-0.04360426589846611,-0.6273821592330933,-0.7774897813796997,-0.04164654016494751,0.11091786623001099,0.1575556993484497
0.6732571848485285,-0.027222077990833794,-0.9738316240397564,-0.4958820343017578,3.017336368560791,0.15884535014629364,-0.021279452368617058,-0.6235357522964478,-0.7815051674842834,-0.08132058382034302,0.09413200616836548,0.17229807376861572
0.6681289362332528,0.001874167991791777,-0.9723454163183021,-0.5263310670852661,2.9580068588256836,0.08884891867637634,0.001471187686547637,-0.6195183396339417,-0.784980833530426,-0.09693014621734619,0.0957145094871521,0.1768113374710083
0.6625807557257906,0.030336376375550884,-0.9713017890599092,-0.5842859745025635,2.8387808799743652,0.06387725472450256,0.023913752287626266,-0.6151536107063293,-0.7880445122718811,-0.10103163123130798,0.10258030891418457,0.18689411878585815
0.6565251279839847,0.05712726680053838,-0.9697903458829646,-0.6293242573738098,2.6784861087799072,0.1320539116859436,0.04522692784667015,-0.610368013381958,-0.7908257842063904,-0.07569867372512817,0.10667532682418823,0.20829105377197266
0.6501780225981642,0.08091623069558453,-0.9666166361024136,-0.6621421575546265,2.440420150756836,0.29271575808525085,0.06433712691068649,-0.6053281426429749,-0.7933717370033264,-0.01764519512653351,0.1098598837852478,0.2088381052017212
0.6438668407262136,0.10060981924651054,-0.9608545985690002,-0.6716200113296509,2.1745152473449707,0.5124863386154175,0.08033009618520737,-0.6002925634384155,-0.7957361340522766,0.03588087856769562,0.10630440711975098,0.1961420774459839
0.6377783663392291,0.11599256247828785,-0.9521231549168871,-0.6834918856620789,1.9407625198364258,0.7407717108726501,0.0929819867014885,-0.595412015914917,-0.7980219125747681,0.06677758693695068,0.09800595045089722,0.18135327100753784
0.6320315107062645,0.1278457215475393,-0.940663456507908,-0.6736286878585815,1.7848986387252808,0.9365861415863037,0.10286887735128403,-0.5907850861549377,-0.8002443313598633,0.06914350390434265,0.0844678282737732,0.16730982065200806
0.6267933787652835,0.1374347586664348,-0.9273101325411272,-0.6451906561851501,1.6985914707183838,1.0454665422439575,0.11096005141735077,-0.5865507125854492,-0.8022755980491638,0.042955413460731506,0.07579320669174194,0.1504659652709961
0.6221064925395887,0.14604840716630485,-0.9133646690454565,-0.5947098135948181,1.6463398933410645,1.0426959991455078,0.11826515197753906,-0.582748293876648,-0.8040010929107666,-0.014123842120170593,0.058090031147003174,0.13139373064041138
0.6182350490935086,0.15479539041390933,-0.9001529161156336,-0.48600512742996216,1.632981300354004,0.9566391706466675,0.12564001977443695,-0.5795977711677551,-0.8051590323448181,-0.08148105442523956,0.03705620765686035,0.10752725601196289
0.6154844694001742,0.16430979790258887,-0.8883824869018658,-0.35066092014312744,1.6062777042388916,0.8344581723213196,0.1335550993680954,-0.5773541331291199,-0.8054969310760498,-0.12693272531032562,0.0316540002822876,0.0852668285369873
0.6134006524985405,0.17387282589162528,-0.8783289410027608,-0.3460259437561035,1.449018120765686,0.7088643312454224,0.14145968854427338,-0.5756514668464661,-0.8053660988807678,-0.1642257273197174,0.02981400489807129,0.0929485559463501
0.6109655984031372,0.18272969676847245,-0.8697166371117913,-0.3767675459384918,1.3005321025848389,0.5939165353775024,0.14884135127067566,-0.5736586451530457,-0.8054576516151428,-0.18236485123634338,0.0003095865249633789,0.1446453332901001
0.6084506034156809,0.1906125473000463,-0.8621444393335104,-0.3338967561721802,1.1249874830245972,0.5444267392158508,0.15545880794525146,-0.5715968012809753,-0.8056734204292297,-0.15320047736167908,-0.029462218284606934,0.166467547416687
0.6065169556121186,0.19649874163078138,-0.8547974211991354,-0.28520840406417847,0.8809080123901367,0.5730529427528381,0.1604139357805252,-0.5700091123580933,-0.8058269023895264,-0.11347785592079163,-0.033491313457489014,0.13788872957229614
0.6045594214509783,0.19978539409598223,-0.8467995136857338,-0.3736674189567566,0.6972806453704834,0.6325599551200867,0.16328266263008118,-0.5683996677398682,-0.8063874244689941,-0.0836622565984726,-0.027868151664733887,0.12912613153457642
0.6019769653391844,0.20140250377160382,-0.8382482170605545,-0.3881355822086334,0.5849703550338745,0.6343700885772705,0.16487954556941986,-0.566273033618927,-0.8075577616691589,-0.07476109266281128,-0.028667211532592773,0.1673905849456787
0.5995183153347399,0.20158461971161787,-0.8296933629387077,-0.37560567259788513,0.42524462938308716,0.642546534538269,0.16530488431453705,-0.5642448663711548,-0.8088893890380859,-0.09433619678020477,-0.01886981725692749,0.11052525043487549
0.5973618011533995,0.20092822632049973,-0.8213009646359324,-0.31253549456596375,0.3966483473777771,0.6227560043334961,0.16501635313034058,-0.562463104724884,-0.8101881742477417,-0.09407822787761688,-0.007376372814178467,0.051963746547698975
0.596105590927631,0.20027286886472595,-0.8135298317614198,-0.18568965792655945,0.32892441749572754,0.5830211043357849,0.16462580859661102,-0.5614240169525146,-0.8109880089759827,-0.10923632979393005,-0.015129387378692627,0.026503145694732666
0.596122839744789,0.1989457421841019,-0.806497392624713,-0.04353620484471321,0.19125454127788544,0.5558388829231262,0.16354745626449585,-0.561438262462616,-0.8111962080001831,-0.12756717205047607,-0.02556741237640381,-0.01344972848892212
0.5975289986140208,0.1965812034218777,-0.7999406203436614,0.11666358262300491,0.07528718560934067,0.5616493821144104,0.1614745408296585,-0.5626013278961182,-0.81080561876297,-0.11667469143867493,-0.04651433229446411,-0.034134507179260254
0.6009001628876419,0.1931357699323577,-0.7936831069990967,0.3419440686702728,-0.06250163167715073,0.5863288044929504,0.15831507742404938,-0.5653851628303528,-0.8094912171363831,-0.0871632993221283,-0.05851626396179199,-0.05079925060272217
0.6063720144514064,0.18845539936395656,-0.7874094665736433,0.5173552632331848,-0.15199902653694153,0.6329719424247742,0.15394273400306702,-0.569890022277832,-0.8071722388267517,-0.07821331918239594,-0.045069754123687744,-0.08587890863418579
0.6129966328576838,0.18307111478303645,-0.7810494900661968,0.5737074017524719,-0.1982908993959427,0.6266415119171143,0.14890390634536743,-0.5753210783004761,-0.8042594790458679,-0.08208563923835754,-0.04508614540100098,-0.060196638107299805
0.6194972912000002,0.17742575699151825,-0.7749432901417964,0.521187961101532,-0.2130274921655655,0.5805249214172363,0.1436980962753296,-0.5806259512901306,-0.8013890385627747,-0.1052459329366684,-0.06347811222076416,-0.013216614723205566
0.6253367902980466,0.17235692795378615,-0.7693343548329247,0.47255247831344604,-0.13905715942382812,0.5175741910934448,0.13905028998851776,-0.5853703618049622,-0.7987531423568726,-0.11916805803775787,-0.07503002882003784,0.015778958797454834
0.6306853232860342,0.16841317144407994,-0.7643765312998329,0.44445958733558655,-0.07153883576393127,0.4510364234447479,0.13537240028381348,-0.5896983742713928,-0.7961972951889038,-0.12011358141899109,-0.07776689529418945,0.0022063255310058594
0.635655617386732,0.16531304466827257,-0.7600491267513084,0.41826462745666504,-0.03713997080922127,0.4002916216850281,0.13241948187351227,-0.5937051773071289,-0.793712317943573,-0.1172369122505188,-0.06991487741470337,-0.013035058975219727
0.6402297807019667,0.16276687449395702,-0.7561605362138768,0.37942641973495483,-0.011009832844138145,0.3670614957809448,0.1299566775560379,-0.597379744052887,-0.7913588285446167,-0.10786190629005432,-0.05934339761734009,-0.010429441928863525
0.6444301005244197,0.1605106237770176,-0.7523799846474535,0.3561427593231201,0.01468486338853836,0.36658763885498047,0.12776869535446167,-0.6007429361343384,-0.7891660332679749,-0.08530344069004059,-0.05231797695159912,-0.007952988147735596
0.648598997623366,0.15851541986140028,-0.7485188618860764,0.37581366300582886,0.05072755366563797,0.3659293055534363,0.12579746544361115,-0.6040704846382141,-0.7869395613670349,-0.06503690779209137,-0.041040658950805664,-0.012681961059570312
0.6531760024835502,0.15687492734635045,-0.744921244379637,0.43946564197540283,0.05050071328878403,0.3402983248233795,0.1240730732679367,-0.6077117323875427,-0.7844057679176331,-0.06955336034297943,-0.043228328227996826,-0.029574275016784668
0.6584383878683188,0.15554764620108313,-0.7418252978199568,0.5219602584838867,0.06562133878469467,0.311047226190567,0.12253469973802567,-0.6118824481964111,-0.7813994884490967,-0.07575121521949768,-0.05185973644256592,-0.042224109172821045
0.6644542975231872,0.15469103200937756,-0.7391587212117169,0.597870945930481,0.09065389633178711,0.2886618673801422,0.12129593640565872,-0.6166296005249023,-0.7778529524803162,-0.06741710007190704,-0.04692941904067993,-0.04067420959472656
0.6710720982574802,0.15434091411924095,-0.7368742183637429,0.6427686810493469,0.12112578004598618,0.2682998776435852,0.12039361894130707,-0.6218259930610657,-0.7738461494445801,-0.06329520046710968,-0.0361940860748291,-0.032061994075775146
0.6778250844392069,0.1544946840891232,-0.7347909144035427,0.6351473331451416,0.1718200147151947,0.26370561122894287,0.11986369639635086,-0.62710040807724,-0.7696608901023865,-0.06171239912509918,-0.038671135902404785,-0.01004791259765625
0.6843939914158653,0.15514010499182557,-0.7325502995026545,0.6034762263298035,0.23729223012924194,0.2845642864704132,0.11972131580114365,-0.6322035789489746,-0.7654969096183777,-0.05116352438926697,-0.040129244327545166,0.01827406883239746
0.6906430381686214,0.1560623824154893,-0.7300022594303448,0.564517080783844,0.2638414204120636,0.2941257655620575,0.11981086432933807,-0.6370329856872559,-0.7614685297012329,-0.039503827691078186,-0.036688387393951416,0.043100059032440186
0.6965002878226239,0.15703837943993187,-0.7274035908035777,0.531559944152832,0.2593766152858734,0.2795920968055725,0.11996838450431824,-0.6415370106697083,-0.7576528787612915,-0.04005804657936096,-0.03807425498962402,0.058983445167541504
0.7021071176185316,0.15806100569067075,-0.7250618954046768,0.5183035731315613,0.24609282612800598,0.24835088849067688,0.12017504125833511,-0.6458278894424438,-0.7539657354354858,-0.05103740841150284,-0.04179424047470093,0.059965550899505615
0.7076666682827559,0.1593226016381614,-0.7232620861175598,0.5361350178718567,0.237050861120224,0.19506023824214935,0.12055465579032898,-0.6500625014305115,-0.7502568960189819,-0.0620371550321579,-0.0462571382522583,0.046903133392333984
0.7134195612318441,0.16098680595154996,-0.7222436561046272,0.5731276273727417,0.22346997261047363,0.13952654600143433,0.12120158970355988,-0.6544232368469238,-0.746351420879364,-0.06446938216686249,-0.05320316553115845,0.03176712989807129
0.7194976669585815,0.16297922470902404,-0.7221047816914232,0.61728835105896,0.18847230076789856,0.07817956060171127,0.12204072624444962,-0.6590069532394409,-0.7421697378158569,-0.05938810855150223,-0.05391424894332886,0.025937557220458984
0.7259046261635842,0.16517303303279318,-0.7228274932977101,0.6581655144691467,0.15679900348186493,0.024111200124025345,0.12297184765338898,-0.6638122797012329,-0.7377203106880188,-0.058854371309280396,-0.04985666275024414,0.028797030448913574
0.7325729702393625,0.1676229145634111,-0.7242888793246066,0.6867193579673767,0.14151617884635925,-0.017627457156777382,0.12403752654790878,-0.6687847375869751,-0.7330359816551208,-0.0575549453496933,-0.04770702123641968,0.038410186767578125
0.7393641799838883,0.17036258431877963,-0.7263439649458492,0.695751428604126,0.12289081513881683,-0.05553009361028671,0.12527239322662354,-0.6738182306289673,-0.7282004356384277,-0.05018383264541626,-0.04488605260848999,0.052556514739990234
0.746131302342269,0.17318783505218752,-0.7287711065656703,0.6923984885215759,0.11500546336174011,-0.06076719984412193,0.12654057145118713,-0.6788029670715332,-0.723335325717926,-0.030684813857078552,-0.04272419214248657,0.0623551607131958
0.752640685996554,0.17599921666888366,-0.731105648169409,0.6293444037437439,0.1405559927225113,-0.04866034537553787,0.12779726088047028,-0.68356853723526,-0.7186111211776733,-0.017918691039085388,-0.03702777624130249,0.06634372472763062
0.7576279378086759,0.1787308829963115,-0.732822866687881,0.37944453954696655,0.11099464446306229,-0.0133148692548275,0.1291520893573761,-0.687200129032135,-0.7148955464363098,-0.007203817367553711,-0.02146381139755249,0.11832278966903687
0.7601653981147873,0.17881395262755065,-0.7330459538355429,0.14227236807346344,-0.09877149760723114,0.07635309547185898,0.1289009153842926,-0.6890413165092468,-0.7131665945053101,0.03908313810825348,-0.02864062786102295,0.2455306053161621
0.7611349625174337,0.1770515741130209,-0.7317159217072765,0.01652003452181816,-0.05942968651652336,0.1395789235830307,0.12752613425254822,-0.6897436380386353,-0.7127347588539124,0.06601639091968536,-0.03353828191757202,0.16793501377105713
0.7611478265911232,0.1752833782833961,-0.7298664793933367,-0.04854977875947952,-0.03927408531308174,0.1165042445063591,0.12626412510871887,-0.689752995967865,-0.7129503488540649,0.02311946451663971,-0.035741448402404785,0.10577273368835449
0.761039630331531,0.17442788734824496,-0.7285499231994744,0.01138309109956026,0.06505544483661652,0.06679113954305649,0.12566712498664856,-0.6896746158599854,-0.7131316661834717,-0.022059902548789978,-0.0018385052680969238,0.042553722858428955
0.7618430000686257,0.17571145947628572,-0.7281928849816676,0.1400756537914276,0.24112479388713837,0.010699527338147163,0.12648546695709229,-0.6902561187744141,-0.7124239802360535,-0.0455528199672699,0.007104814052581787,-0.06278347969055176
0.7638142791367865,0.17937983358858223,-0.7289623817436446,0.2605099380016327,0.3788198232650757,-0.05089086666703224,0.12885501980781555,-0.6916811466217041,-0.7106149196624756,-0.05352233350276947,0.005844295024871826,-0.11229151487350464
0.7665463893651345,0.18500111891702453,-0.7308201298202899,0.31697675585746765,0.4749389588832855,-0.11210425943136215,0.13249942660331726,-0.6936517357826233,-0.7080192565917969,-0.05881470441818237,0.011736392974853516,-0.10307687520980835
0.769469400360522,0.1916434511667475,-0.7334593877996181,0.3249174952507019,0.47083261609077454,-0.1428440511226654,0.13681259751319885,-0.6957542300224304,-0.7051301002502441,-0.06422649323940277,0.004759848117828369,-0.06183755397796631
0.7723583932306168,0.1977860338917916,-0.736088905305689,0.3144707679748535,0.3800215423107147,-0.10572671890258789,0.14074574410915375,-0.6978264451026917,-0.7023026347160339,-0.03823716938495636,0.006175994873046875,-0.01841568946838379
0.7750906736987045,0.20197216724341246,-0.7378712609496352,0.2591902017593384,0.19893698394298553,-0.032546516507864,0.14330141246318817,-0.6997808814048767,-0.6998367309570312,0.01293337345123291,0.012814819812774658,0.0179978609085083
0.7772498240711179,0.203362955572613,-0.7383922305812863,0.1728920042514801,0.009324058890342712,0.04448704794049263,0.1439691185951233,-0.7013216018676758,-0.6981553435325623,0.05065678060054779,0.00040912628173828125,0.05925470590591431
0.7786512141424148,0.20216789940533195,-0.7376529200273952,0.08006644994020462,-0.136974036693573,0.11087272316217422,0.14293719828128815,-0.7023199200630188,-0.6973634362220764,0.06560471653938293,-0.022579431533813477,0.08113729953765869
0.7793547744993811,0.19907730172124025,-0.7359091113890349,0.015484467148780823,-0.22532016038894653,0.1590123027563095,0.14068350195884705,-0.7028205990791321,-0.697317361831665,0.06180068850517273,-0.03301936388015747,0.07643729448318481
0.7797795662907432,0.19492528578715204,-0.7333842553190689,0.0019223187118768692,-0.24271512031555176,0.20553000271320343,0.13772916793823242,-0.7031226754188538,-0.6976024508476257,0.050167590379714966,-0.023088932037353516,0.05206418037414551
0.7802231746999968,0.19033100000934627,-0.7304291308729844,0.0020709228701889515,-0.26070156693458557,0.21435518562793732,0.13446372747421265,-0.7034380435943604,-0.6979215741157532,0.038632020354270935,-0.005454897880554199,0.03036487102508545
0.7806581186378944,0.18591596130763133,-0.7277602173116671,0.01667303591966629,-0.23927991092205048,0.1665399968624115,0.13132449984550476,-0.7037471532821655,-0.6982076168060303,0.005577385425567627,-0.005679786205291748,0.008205235004425049
0.7813246058605784,0.18270653835538364,-0.7260742308254183,0.07338930666446686,-0.15926337242126465,0.09021006524562836,0.12899774312973022,-0.7042204737663269,-0.698164165019989,-0.03514088690280914,-0.01805436611175537,-0.02855086326599121
0.7825978605951924,0.1813591068099099,-0.7256774108752341,0.16949667036533356,-0.05591994524002075,0.013154162093997002,0.1278950721025467,-0.7051239013671875,-0.6974548697471619,-0.056331321597099304,-0.01675426959991455,-0.05989980697631836
0.7848408141235591,0.18174703772786005,-0.7263313553940979,0.29039087891578674,0.03805657476186752,-0.017650961875915527,0.12787942588329315,-0.706712543964386,-0.6958478689193726,-0.055156007409095764,-0.001798868179321289,-0.07101309299468994
0.7883432011936652,0.1831670770568037,-0.7273712682407089,0.419329971075058,0.0887245461344719,0.007008046377450228,0.1284158080816269,-0.7091861963272095,-0.6932275295257568,-0.02519005537033081,0.016894817352294922,-0.05626881122589111
0.7928570288383794,0.1843378437129809,-0.7280468949082487,0.4657910466194153,0.03386111184954643,0.06344741582870483,0.12863926589488983,-0.7123612761497498,-0.6899228096008301,0.015861496329307556,0.03157508373260498,-0.015979290008544922
0.7972723085222141,0.18423177335615715,-0.7280009817505019,0.38781556487083435,-0.046632666140794754,0.1002589613199234,0.12798865139484406,-0.715453028678894,-0.6868376731872559,0.03277800977230072,0.03436160087585449,0.053170740604400635
0.8006619899916676,0.18300669095556846,-0.727402512302344,0.25818848609924316,-0.11328185349702835,0.1013571172952652,0.12670502066612244,-0.7178171277046204,-0.6846052408218384,0.02746981382369995,0.01716405153274536,0.11778712272644043
0.8027095492002135,0.1809724739085803,-0.7265536185062601,0.12332308292388916,-0.1698751002550125,0.08913533389568329,0.12504732608795166,-0.719241201877594,-0.6834143996238708,0.017088308930397034,-0.0010804533958435059,0.1415596604347229
0.8034324584151521,0.17817498898986803,-0.7255048251150604,-0.006487648468464613,-0.2394445836544037,0.07920680195093155,0.12304281443357468,-0.7197432518005371,-0.6832496523857117,0.016788765788078308,-0.005476534366607666,0.14002156257629395
0.8029367241183661,0.17459646408246166,-0.7243724114658499,-0.11575768142938614,-0.31439074873924255,0.05774784833192825,0.12065897136926651,-0.7193990349769592,-0.6840368509292603,0.016792230308055878,-0.002265453338623047,0.12748795747756958
0.8014672832795583,0.17038239821958914,-0.723404774617008,-0.18889100849628448,-0.3847067356109619,0.02282175049185753,0.11795445531606674,-0.7183775901794434,-0.6855803728103638,0.00808318704366684,-0.004477024078369141,0.11094969511032104
0.7994876131899116,0.16598051176396467,-0.7229245736101378,-0.20836962759494781,-0.4089961051940918,-0.025169476866722107,0.11517021059989929,-0.7169989943504333,-0.687494158744812,0.007907211780548096,-0.018978238105773926,0.07634925842285156
0.7974175727844612,0.16222766430251223,-0.723025522537482,-0.19341646134853363,-0.3432995676994324,-0.05564875528216362,0.112828828394413,-0.7155545353889465,-0.6893848180770874,0.009516172111034393,-0.03388094902038574,0.029426991939544678
0.7955357289491363,0.1598097185628704,-0.723548072986374,-0.1660090684890747,-0.20608952641487122,-0.075920470058918,0.11137569695711136,-0.7142386436462402,-0.6909838318824768,-0.00267203152179718,-0.02477508783340454,-0.015833735466003418
0.7938758866990824,0.15921534103532928,-0.724469707738925,-0.14256486296653748,-0.04365965351462364,-0.105474092066288,0.111152783036232,-0.7130759358406067,-0.6922194957733154,-0.02507789433002472,-0.005063772201538086,-0.04520714282989502
0.7924013007274362,0.16039614597776883,-0.7257684266651071,-0.1169673502445221,0.09107206016778946,-0.11764553934335709,0.11213787645101547,-0.7120413780212402,-0.6931249499320984,-0.03317362070083618,0.000829160213470459,-0.054433584213256836
0.7913179147814119,0.16276797135947824,-0.7271541314130123,-0.06276091933250427,0.1753969043493271,-0.10402075201272964,0.11390648037195206,-0.7112802863121033,-0.6936178803443909,-0.017959177494049072,-0.0008780360221862793,-0.058960795402526855
0.7907941168940053,0.16542645278068893,-0.7283930358652195,-0.014343857765197754,0.16751234233379364,-0.08761966973543167,0.11581139266490936,-0.7109119892120361,-0.6936800479888916,-0.0034761428833007812,0.001286625862121582,-0.06231659650802612
0.7905520038909186,0.16778822179741043,-0.7296672104424676,-0.007038268726319075,0.12598799169063568,-0.09768453240394592,0.11747811734676361,-0.7107416987419128,-0.6935742497444153,-0.0024115294218063354,0.0016199350357055664,-0.04688894748687744
0.7903266430204251,0.17016434153376095,-0.7312637193086783,0.0009333714842796326,0.11846962571144104,-0.13389980792999268,0.11915291845798492,-0.7105831503868103,-0.6934509873390198,-0.013470485806465149,-0.016849160194396973,-0.02900683879852295
0.7902203353130725,0.17280607745228416,-0.7335514109044176,0.03786681592464447,0.07917500287294388,-0.18762482702732086,0.12099739164113998,-0.7105083465576172,-0.6932081580162048,-0.030695840716362,-0.03433424234390259,-0.03658914566040039
0.790524368884041,0.1755529088394102,-0.7366320593652391,0.09802629053592682,0.03538065031170845,-0.2211465686559677,0.12286332249641418,-0.7107222676277161,-0.6926604509353638,-0.0352320671081543,-0.028901875019073486,-0.052594006061553955
0.7913924878602525,0.1781057613090445,-0.7400658239112644,0.15363512933254242,-0.014081370085477829,-0.21694554388523102,0.12452182918787003,-0.7113326787948608,-0.6917370557785034,-0.018015436828136444,-0.013215720653533936,-0.06056690216064453
0.7926847988815995,0.1801763544074573,-0.7434281984455073,0.1819450706243515,-0.04493728652596474,-0.19654519855976105,0.12578903138637543,-0.7122403979301453,-0.6905727982521057,0.0029036253690719604,-0.006402850151062012,-0.05852687358856201
0.7942729774031145,0.18201119119450285,-0.7464708001571061,0.2072833627462387,-0.017170067876577377,-0.1637786626815796,0.12685100734233856,-0.7133542895317078,-0.6892275214195251,0.016200199723243713,-0.010370135307312012,-0.05004549026489258
0.796154119157158,0.1840251928625993,-0.749188999108817,0.23070240020751953,0.02854735404253006,-0.14110371470451355,0.12799306213855743,-0.7146713137626648,-0.6876500844955444,0.017041772603988647,-0.01355445384979248,-0.047655582427978516
0.7982422834564074,0.18625360489962184,-0.751790174558588,0.24244773387908936,0.04079502448439598,-0.13969171047210693,0.1292484849691391,-0.7161303758621216,-0.6858952045440674,0.006722614169120789,-0.010249137878417969,-0.042040467262268066
