attitudeX,attitudeY,attitudeZ,gyroX,gyroY,gyroZ,gravityX,gravityY,gravityZ,accX,accY,accZ
0.8352047256740385,0.13678983884307694,-0.15686854282391388,0.024896901100873947,0.10509080439805984,-0.3051341474056244,0.09150354564189911,-0.7414339184761047,-0.6647577881813049,-0.08041039854288101,0.023339927196502686,-0.1393803358078003
0.8356588187947175,0.1417141607094322,-0.16215885335742494,0.16432911157608032,0.07676167786121368,-0.36505812406539917,0.09472833573818207,-0.7417385578155518,-0.6639657616615295,-0.05520807206630707,0.04828751087188721,-0.12473046779632568
0.8373323962212486,0.14561094784966117,-0.16738140019804731,0.2619304955005646,-0.08067108690738678,-0.2639940679073334,0.09713470190763474,-0.742859959602356,-0.6623624563217163,0.014758013188838959,0.03447061777114868,-0.08998727798461914
0.8399370597928699,0.14615892808247483,-0.1705585734596345,0.30522656440734863,-0.28220629692077637,-0.07680796086788177,0.09721552580595016,-0.7446011304855347,-0.660392701625824,0.07392705976963043,0.022906064987182617,-0.04653167724609375
0.8429918646876303,0.1428816378532629,-0.17092938846258432,0.2993002235889435,-0.4235557019710541,0.11217394471168518,0.09472637623548508,-0.7466367483139038,-0.6584532260894775,0.10591144114732742,0.016946077346801758,-0.008920371532440186
0.8460726317465986,0.13655962398289262,-0.16873807433029803,0.27012214064598083,-0.5065968632698059,0.25533515214920044,0.09024817496538162,-0.7486826181411743,-0.6567569375038147,0.10124962776899338,-0.0005240440368652344,0.005862832069396973
0.8490056567203628,0.12832053385959427,-0.16479383525013283,0.24978676438331604,-0.5450307726860046,0.33416712284088135,0.08455272763967514,-0.7506237626075745,-0.655297577381134,0.05883410573005676,-0.027727127075195312,-0.02251303195953369
0.85207878268859,0.11944381364107916,-0.16020460864796937,0.2945297658443451,-0.5381335020065308,0.3323204815387726,0.07845734059810638,-0.7526507377624512,-0.6537289023399353,0.0013156160712242126,-0.03953993320465088,-0.06453275680541992
0.8558144507596948,0.11134435665244127,-0.1562684324599413,0.3934938907623291,-0.4843224585056305,0.2619546949863434,0.07284703850746155,-0.7551051378250122,-0.6515440344810486,-0.04150547832250595,-0.03172963857650757,-0.09035342931747437
0.8603654146515367,0.10517173145302322,-0.15392092055337955,0.4785461723804474,-0.3945983946323395,0.13888059556484222,0.06846247613430023,-0.7580808997154236,-0.6485570073127747,-0.07056818157434464,-0.02193319797515869,-0.08772528171539307
0.8653975002283929,0.1014362369854672,-0.1535561247869949,0.5102039575576782,-0.29853472113609314,0.017341919243335724,0.06565220654010773,-0.7613530158996582,-0.6450049877166748,-0.08031589537858963,-0.013656198978424072,-0.05866926908493042
0.8703076438055523,0.09982351906246714,-0.1547873302668942,0.4746382534503937,-0.2158707231283188,-0.07168223708868027,0.06423857808113098,-0.7645272612571716,-0.6413825154304504,-0.07151702046394348,-0.0053397417068481445,-0.016805291175842285
0.8745299127098677,0.09967187597496058,-0.15690342388743117,0.38877394795417786,-0.14125721156597137,-0.10843412578105927,0.0638195350766182,-0.7672420740127563,-0.6381745338439941,-0.044120416045188904,0.004714548587799072,0.016058504581451416
0.8777202551919547,0.10000852554673607,-0.15891171897578868,0.2735346853733063,-0.1060430184006691,-0.07915454357862473,0.06378965079784393,-0.7692843079566956,-0.6357142329216003,-0.008888520300388336,0.010434150695800781,0.04512286186218262
0.8798701218690005,0.10005142341912975,-0.16012481601836365,0.17522384226322174,-0.0712064802646637,-0.030950261279940605,0.06365158408880234,-0.7706561088562012,-0.6340644359588623,0.014793835580348969,0.010814130306243896,0.052475810050964355
0.8812721232481957,0.09971478299612929,-0.1604039826543541,0.11135910451412201,-0.042555395513772964,0.024216411635279655,0.0633305013179779,-0.7715488076210022,-0.6330100893974304,0.02759663015604019,0.012515485286712646,0.053588151931762695
0.8822441650926006,0.09872017283845601,-0.1597711843577049,0.08375383913516998,-0.06545405089855194,0.0754455104470253,0.0626269206404686,-0.7721667885780334,-0.6323261260986328,0.031199365854263306,0.014964640140533447,0.04554945230484009
0.8830929456267471,0.09664801484393643,-0.15838227780631298,0.07578378170728683,-0.13529916107654572,0.11780138313770294,0.061253245919942856,-0.7727058529853821,-0.631801962852478,0.02399761602282524,0.010926008224487305,0.022884786128997803
0.884134958974764,0.09349912022066585,-0.15647253174959802,0.11702576279640198,-0.19623494148254395,0.14457175135612488,0.05918826907873154,-0.7733668684959412,-0.6311898231506348,0.028824422508478165,0.011510729789733887,-0.0023398399353027344
0.8857671283607811,0.08974710268031025,-0.15430667012113083,0.19109734892845154,-0.21204857528209686,0.15966425836086273,0.05670640990138054,-0.7744005918502808,-0.6301493644714355,0.03008558228611946,0.011415243148803711,-0.03183788061141968
0.8882173612116538,0.08604317279112693,-0.15197861281528605,0.27329474687576294,-0.1613640934228897,0.1765013039112091,0.054208770394325256,-0.7759485244750977,-0.6284627318382263,0.02676963433623314,0.00974363088607788,-0.05540555715560913
0.8914225241158322,0.08281607194089985,-0.1495232691338188,0.33487796783447266,-0.10445207357406616,0.1828289031982422,0.051974378526210785,-0.777966320514679,-0.6261526346206665,0.014965929090976715,0.00930476188659668,-0.062140703201293945
0.895129668608964,0.0800751081726463,-0.1470669168403549,0.3784360885620117,-0.06566552817821503,0.18551576137542725,0.05002688616514206,-0.7802901864051819,-0.623413622379303,0.002738010138273239,0.01077413558959961,-0.05596858263015747
0.8991659882101057,0.07767823853353314,-0.1445982653647807,0.4035092294216156,-0.030059846118092537,0.1858513057231903,0.04828770458698273,-0.7828081846237183,-0.6203866600990295,-0.0062497444450855255,0.008302569389343262,-0.04597979784011841
0.9033910862159295,0.07564838146491898,-0.14216884346687553,0.4156082272529602,0.0012826290912926197,0.17942430078983307,0.04677793011069298,-0.7854303121566772,-0.6171799302101135,-0.0074560269713401794,0.004683792591094971,-0.0313948392868042
0.90756229307027,0.07389219419050565,-0.13983058299900733,0.3942946195602417,0.010347015224397182,0.17413927614688873,0.04545171931385994,-0.7880052924156189,-0.6139885783195496,-0.00489385798573494,0.0019181370735168457,-0.004755258560180664
0.9114310143397778,0.07213325706477428,-0.13749764974685522,0.3551613390445709,0.0023274384438991547,0.1692686229944229,0.044151633977890015,-0.7903811931610107,-0.6110223531723022,0.003516837954521179,0.0017001032829284668,0.028838515281677246
0.9146914151981516,0.07005104127864434,-0.13497613808898223,0.2716499865055084,-0.018869787454605103,0.18564152717590332,0.042698659002780914,-0.7923743724822998,-0.6085390448570251,0.014491278678178787,-0.0005944371223449707,0.05881071090698242
0.9170264851836734,0.06754986429135905,-0.13201523562985631,0.16845755279064178,-0.011322921141982079,0.20954127609729767,0.041051462292671204,-0.793796718120575,-0.6067962646484375,0.0204261913895607,-0.0063590407371521,0.07824712991714478
0.9182903204121724,0.06486206182948553,-0.12860868721915236,0.05900032818317413,0.014107033610343933,0.220192089676857,0.039355307817459106,-0.7945647239685059,-0.6059027314186096,0.012570355087518692,-0.010031282901763916,0.07466810941696167
0.9186609066493695,0.06231989522798994,-0.12503023365339846,-0.005450299475342035,0.04803703725337982,0.21866929531097412,0.03779653459787369,-0.7947896718978882,-0.6057069301605225,0.00036570802330970764,-0.007578611373901367,0.048684895038604736
0.9186055281466541,0.06018841802648485,-0.1215428664208552,-0.025270121172070503,0.07796250283718109,0.2055913358926773,0.03650804981589317,-0.7947560548782349,-0.6058300733566284,-0.009805183857679367,-0.002103745937347412,0.014323234558105469
0.9185793896059379,0.05846349428157509,-0.11829983075680872,-0.0004443996585905552,0.08666730672121048,0.18683123588562012,0.035464197397232056,-0.7947402000427246,-0.6059128046035767,-0.014773286879062653,0.0016034841537475586,-0.009779214859008789
0.9188446330744405,0.057007756734049196,-0.11545563581959171,0.037458762526512146,0.07263753563165665,0.1636275351047516,0.03457009419798851,-0.7949011325836182,-0.6057533025741577,-0.020135290920734406,0.0033971667289733887,-0.020909786224365234
0.9195543576923149,0.05562586020648803,-0.11296470135323197,0.08819118142127991,0.04845362901687622,0.14850637316703796,0.03370160609483719,-0.7953315377235413,-0.6052371859550476,-0.027598083019256592,0.004544734954833984,-0.026125669479370117
0.920763528010794,0.054199839650497274,-0.11074140875564777,0.13684792816638947,0.019210778176784515,0.1327529102563858,0.03278637304902077,-0.7960639595985413,-0.6043239831924438,-0.03544140234589577,0.008557736873626709,-0.024200797080993652
0.9223728470181211,0.05263197927492781,-0.10874747471707104,0.1698271930217743,-0.016048941761255264,0.12795549631118774,0.03177139535546303,-0.79703688621521,-0.6030943989753723,-0.042528849095106125,0.013696372509002686,-0.01703798770904541
0.9242148001248016,0.05069137825829469,-0.10673644010990814,0.18236404657363892,-0.05454736575484276,0.1362156718969345,0.030526524409651756,-0.798147976398468,-0.6016875505447388,-0.04570900648832321,0.013449430465698242,-0.00939631462097168
0.9260837359198503,0.048130500827459934,-0.10443945838800872,0.1780550628900528,-0.09319968521595001,0.16016122698783875,0.028913764283061028,-0.7992725372314453,-0.6002728939056396,-0.04760579392313957,0.004442155361175537,-0.003242671489715576
0.9278524266444725,0.044904960966543936,-0.10179271496523147,0.15997347235679626,-0.12682630121707916,0.17313680052757263,0.026913907378911972,-0.8003342151641846,-0.5989497303962708,-0.05476120114326477,-0.006794750690460205,0.0010494589805603027
0.9294608021923797,0.041284002185751574,-0.09899965417163449,0.14659082889556885,-0.14716431498527527,0.17395518720149994,0.024691808968782425,-0.8012974858283997,-0.5977564454078674,-0.06944584101438522,-0.014773190021514893,-0.007773280143737793
0.9308710468437996,0.037583567061844854,-0.09622909044097314,0.15290546417236328,-0.14147956669330597,0.15763819217681885,0.02243720181286335,-0.8021403551101685,-0.5967139005661011,-0.0931616723537445,-0.01661580801010132,-0.03147512674331665
0.9324892944789723,0.03434512206736728,-0.09382442239089334,0.18541547656059265,-0.11147373169660568,0.13356828689575195,0.020460065454244614,-0.8031056523323059,-0.5954854488372803,-0.11532396078109741,-0.015894711017608643,-0.05591219663619995
0.9345193614467733,0.03178673127453023,-0.09189308906940861,0.23020987212657928,-0.08610795438289642,0.102061428129673,0.018884658813476562,-0.804313600063324,-0.593904972076416,-0.13732339441776276,-0.013221919536590576,-0.07188171148300171
0.9369969092917386,0.02970360552409968,-0.09051047861343055,0.27256691455841064,-0.10987106710672379,0.07037381082773209,0.017588205635547638,-0.8057832717895508,-0.591949462890625,-0.17066438496112823,-0.017794668674468994,-0.0810546875
0.9399125875011239,0.027507320329214567,-0.08956671568026449,0.31763479113578796,-0.17250381410121918,0.053182464092969894,0.01622338779270649,-0.8075065612792969,-0.5896356105804443,-0.19845911860466003,-0.023914456367492676,-0.08791559934616089
0.9432708686926671,0.024737130012938792,-0.08876952500295343,0.36070874333381653,-0.25236642360687256,0.05562911182641983,0.014522765763103962,-0.8094828724861145,-0.586963951587677,-0.2202264964580536,-0.03321433067321777,-0.09928476810455322
0.9471489907605244,0.020966917548005923,-0.08791101151044894,0.4157610833644867,-0.36777904629707336,0.064963698387146,0.012243778444826603,-0.8117538094520569,-0.5838714241981506,-0.24445202946662903,-0.048033177852630615,-0.11443167924880981
0.9515655597232132,0.015704449818190712,-0.08674638758764665,0.46693480014801025,-0.5007466673851013,0.08888581395149231,0.00911463052034378,-0.8143251538276672,-0.5803375244140625,-0.27747097611427307,-0.05545639991760254,-0.13577264547348022
0.9564668074693361,0.008734323682905826,-0.08525484761055775,0.5099059343338013,-0.6465196013450623,0.09467300027608871,0.005034495610743761,-0.8171601295471191,-0.576388955116272,-0.34289461374282837,-0.06745302677154541,-0.17292439937591553
0.9619393231199951,0.0008042043029745812,-0.08393823922221917,0.586883544921875,-0.7170515656471252,0.05439934879541397,0.00045994872925803065,-0.8203022480010986,-0.5719300508499146,-0.4175742268562317,-0.06510430574417114,-0.2163083553314209
0.9682756073402575,-0.006531114226698821,-0.08367236795881014,0.6828734278678894,-0.7046113610267639,-0.030805302783846855,-0.0037012945394963026,-0.8239096999168396,-0.5667091012001038,-0.4825963079929352,-0.04275912046432495,-0.25831830501556396
0.9756491737212025,-0.012366122040450466,-0.0849697500959795,0.7920814156532288,-0.6858113408088684,-0.12992097437381744,-0.006932650692760944,-0.8280659914016724,-0.5605878233909607,-0.5347849130630493,-0.024152696132659912,-0.28456592559814453
0.9840459119420623,-0.016773170258037384,-0.08794195534024164,0.88605135679245,-0.6906609535217285,-0.22697371244430542,-0.009286165237426758,-0.8327442407608032,-0.5535801649093628,-0.5757968425750732,-0.024189472198486328,-0.3029261827468872
0.9934362473954158,-0.019702505949401306,-0.09262351169303093,0.9834972023963928,-0.6814624071121216,-0.3206895589828491,-0.01075320690870285,-0.8379064798355103,-0.5457080602645874,-0.5958141684532166,-0.031020641326904297,-0.2983013391494751
1.0036367005633027,-0.021460001098656516,-0.09878274995240158,1.0425461530685425,-0.7178371548652649,-0.3888247609138489,-0.0115282591432333,-0.8434303402900696,-0.5371150374412537,-0.6041486263275146,-0.02639704942703247,-0.27625465393066406
1.0143072151547388,-0.02292037225525681,-0.10595491955385919,1.0762778520584106,-0.7891348004341125,-0.42234623432159424,-0.012105674482882023,-0.8491148352622986,-0.5280697345733643,-0.5947058200836182,-0.018271148204803467,-0.24826687574386597
1.0252636127203858,-0.02437366254963293,-0.1136106250228162,1.1005250215530396,-0.7935601472854614,-0.4297342896461487,-0.012645596638321877,-0.8548510074615479,-0.5187194347381592,-0.5751229524612427,-0.017356693744659424,-0.22162163257598877
1.0364690419075497,-0.0252903093858436,-0.12152508213003504,1.1162822246551514,-0.757344663143158,-0.4411179721355438,-0.012878027744591236,-0.8606114387512207,-0.5090994238853455,-0.5676731467247009,0.011627614498138428,-0.1748451590538025
1.047515036521552,-0.02586031589051581,-0.12966498924485811,1.0698065757751465,-0.7687631845474243,-0.4402564764022827,-0.012921610847115517,-0.8661841154098511,-0.49955809116363525,-0.5806910395622253,0.06149649620056152,-0.11144953966140747
1.057717616480322,-0.02660463787707178,-0.13785370593581173,0.9656137824058533,-0.8037760257720947,-0.4500789940357208,-0.013057664036750793,-0.8712373971939087,-0.4906882643699646,-0.6030922532081604,0.07654434442520142,-0.058399200439453125
1.067142710532936,-0.026312150527427178,-0.14761523955029945,0.8887086510658264,-0.8493376970291138,-0.5595502853393555,-0.012697538360953331,-0.875825047492981,-0.4824618101119995,-0.6409737467765808,0.05395609140396118,-0.03465849161148071
1.0754301051219484,-0.024241478286154867,-0.16009583291034757,0.7331686019897461,-0.9326514601707458,-0.68294757604599,-0.011522157117724419,-0.8797946572303772,-0.475214421749115,-0.6383191347122192,0.03979825973510742,-0.004323482513427734
1.0819777869981435,-0.020351034362557308,-0.1754252126091657,0.5442657470703125,-0.9888473749160767,-0.7944201827049255,-0.009555848315358162,-0.8828882575035095,-0.46948617696762085,-0.6142997145652771,0.008879899978637695,0.00508493185043335
1.0865475925905261,-0.01447001506782546,-0.1933241923263761,0.34304317831993103,-0.9978717565536499,-0.901072084903717,-0.006736188195645809,-0.8850249648094177,-0.46549487113952637,-0.6126028299331665,-0.02288830280303955,-0.01291385293006897
1.0891617491338075,-0.006103106542501898,-0.2139676188866863,0.1745162457227707,-0.9835655093193054,-1.0275771617889404,-0.002827115822583437,-0.8862389326095581,-0.4632199704647064,-0.611049234867096,-0.019477128982543945,-0.032766878604888916
1.0904797619318762,0.005160928597829266,-0.23752661757913116,0.10138344019651413,-0.9464791417121887,-1.1579210758209229,0.0023846488911658525,-0.8868486881256104,-0.46205398440361023,-0.5928387641906738,0.0087357759475708,-0.05379980802536011
1.091314485486283,0.018758836840180194,-0.263650340514909,0.10817928612232208,-0.9852600693702698,-1.2499245405197144,0.008653312921524048,-0.887234091758728,-0.46123847365379333,-0.5469681024551392,0.03426766395568848,-0.069935142993927
1.0923159543331291,0.032829841943568285,-0.2912058166110784,0.16181935369968414,-1.1030937433242798,-1.2862071990966797,0.015113158151507378,-0.8876956105232239,-0.460182785987854,-0.4837411046028137,0.0352632999420166,-0.08051234483718872
1.0937714451819929,0.04600297118307846,-0.31924943533157246,0.23460543155670166,-1.247788429260254,-1.280950665473938,0.021114278584718704,-0.888364851474762,-0.4586526155471802,-0.4203299880027771,0.03709220886230469,-0.08208826184272766
1.0956778931251183,0.05775889369901582,-0.3470515283196229,0.27727967500686646,-1.3371150493621826,-1.2486958503723145,0.026406770572066307,-0.8892385363578796,-0.45668119192123413,-0.38594961166381836,0.04579359292984009,-0.0877981185913086
1.0975699452428695,0.0686207737261281,-0.3745520900335777,0.25298017263412476,-1.3899662494659424,-1.244053840637207,0.031250108033418655,-0.8901024460792542,-0.4546879827976227,-0.38961800932884216,0.053188323974609375,-0.08657169342041016
1.09883866821082,0.07927536435877673,-0.40240398813850053,0.18866880238056183,-1.4345744848251343,-1.2769548892974854,0.03600330650806427,-0.8906799554824829,-0.4532032608985901,-0.4041520953178406,0.056100308895111084,-0.08111375570297241
1.099213462149194,0.09117343170781815,-0.4315476991805992,0.10889463126659393,-1.3696149587631226,-1.3725494146347046,0.04136247560381889,-0.890850305557251,-0.4524103105068207,-0.414867103099823,0.0472528338432312,-0.08820849657058716
1.098323738153105,0.10597825028757543,-0.463148568829057,-0.010142545215785503,-1.314504861831665,-1.5191813707351685,0.04813935607671738,-0.8904457688331604,-0.4525362253189087,-0.417829304933548,0.057224273681640625,-0.07181671261787415
1.095696109410712,0.12363057541037471,-0.4976854613501523,-0.14694084227085114,-1.3098783493041992,-1.6759535074234009,0.0564081147313118,-0.8892468810081482,-0.45393648743629456,-0.4060937762260437,0.07737231254577637,-0.05706506967544556
1.091308400891103,0.14322932736175314,-0.5345088237689652,-0.26635992527008057,-1.3157581090927124,-1.7969692945480347,0.06584956496953964,-0.8872312903404236,-0.45660102367401123,-0.36522701382637024,0.09430825710296631,-0.0673399269580841
1.085593195312164,0.1639483441657056,-0.5727348184355608,-0.30900728702545166,-1.3207036256790161,-1.895970106124878,0.07612147182226181,-0.8845802545547485,-0.4601340889930725,-0.309489369392395,0.11663585901260376,-0.09395822882652283
1.0793620344467465,0.18555526187273877,-0.6122815103554173,-0.2670113444328308,-1.3553638458251953,-1.98208749294281,0.08706026524305344,-0.8816569447517395,-0.46379056572914124,-0.25663116574287415,0.16649264097213745,-0.1206820011138916
1.0732320904061046,0.2070415344141371,-0.6527884802537377,-0.1808844804763794,-1.5070018768310547,-2.0351004600524902,0.09811370074748993,-0.8787477016448975,-0.46709349751472473,-0.21063198149204254,0.21882027387619019,-0.1271599531173706
1.0675840328130262,0.2265269914368162,-0.6937187688992944,-0.07883533090353012,-1.7956315279006958,-2.052037477493286,0.10830900073051453,-0.8760379552841187,-0.4699220359325409,-0.14607448875904083,0.2536013722419739,-0.11555761098861694
1.0624098655000516,0.24231006541796915,-0.7343085757183464,-0.02170010469853878,-2.159588575363159,-2.0226402282714844,0.11679810285568237,-0.8735310435295105,-0.47254830598831177,-0.05684630572795868,0.2721668481826782,-0.09269821643829346
1.0573325829197957,0.25350193965832657,-0.7736795562231662,-0.020407406613230705,-2.459411382675171,-1.9697633981704712,0.12319012731313705,-0.8710483312606812,-0.47549888491630554,0.04458030313253403,0.2752839922904968,-0.08240818977355957
1.052071828278204,0.2611113178637485,-0.8113736095232172,-0.053889770060777664,-2.5534093379974365,-1.9086612462997437,0.12798595428466797,-0.868452250957489,-0.47896808385849,0.16869069635868073,0.27189451456069946,-0.10220861434936523
1.0462299557707244,0.2678123547047854,-0.8478598336967792,-0.13283997774124146,-2.42073655128479,-1.930918574333191,0.13253290951251984,-0.8655412197113037,-0.4829840064048767,0.26953619718551636,0.26251375675201416,-0.14114618301391602
1.0391924877561212,0.2765112801137236,-0.8847187594953305,-0.22415734827518463,-2.2199113368988037,-2.045774459838867,0.1383887678384781,-0.8619951605796814,-0.48766058683395386,0.3463829755783081,0.2388719916343689,-0.18207809329032898
1.0309500277755645,0.2881832493773806,-0.9230429038038228,-0.24990133941173553,-2.0522170066833496,-2.179861545562744,0.14608560502529144,-0.8577876687049866,-0.49280768632888794,0.47290247678756714,0.2279963493347168,-0.23332750797271729
1.0225296946645674,0.30279465679795764,-0.9631174691042473,-0.138119176030159,-1.8889275789260864,-2.2852392196655273,0.15541867911815643,-0.8534292578697205,-0.49749743938446045,0.6539838314056396,0.2424824833869934,-0.2994080185890198
1.0151507890697178,0.31979131289764867,-1.0044741023025765,0.06691494584083557,-1.7732598781585693,-2.291990280151367,0.16582684218883514,-0.8495600819587708,-0.5007486939430237,0.8425960540771484,0.282757043838501,-0.34295547008514404
1.0095059797942216,0.33674479757157144,-1.0450625452905595,0.2461659014225006,-1.7367889881134033,-2.1382036209106445,0.175873801112175,-0.8465690016746521,-0.502383828163147,1.030379295349121,0.33863431215286255,-0.33465224504470825
1.0055680489175052,0.3508803719632079,-1.0821241221201092,0.33421212434768677,-1.7078195810317993,-1.8527315855026245,0.1841019243001938,-0.8444663286209106,-0.502974271774292,1.1957809925079346,0.36804109811782837,-0.29432785511016846
1.0029889464429578,0.3607445206885018,-1.1137149585284032,0.36732378602027893,-1.6529622077941895,-1.502010464668274,0.18982240557670593,-0.8430821299552917,-0.5031698942184448,1.3048369884490967,0.3708988428115845,-0.2537879943847656
1.0018219501986523,0.3661181622904295,-1.1389827297925994,0.3774363398551941,-1.5275598764419556,-1.1358897686004639,0.19287562370300293,-0.8424540162086487,-0.5030609965324402,1.348506212234497,0.3544321060180664,-0.25517863035202026
1.0018453816076678,0.36795484443779025,-1.1580660514146333,0.3640185296535492,-1.317521333694458,-0.7919757962226868,0.19379214942455292,-0.8424665927886963,-0.5026874542236328,1.3259680271148682,0.320417582988739,-0.25907695293426514
1.0029607240242089,0.3675559254536776,-1.1716303574836215,0.3755875825881958,-1.0448936223983765,-0.5020456910133362,0.19325383007526398,-0.8430669903755188,-0.5018875002861023,1.257124662399292,0.274493932723999,-0.27667683362960815
1.0053976703707155,0.36665412970407046,-1.1810401304965106,0.4528117775917053,-0.7239983677864075,-0.28167515993118286,0.1920640915632248,-0.8443750739097595,-0.5001422762870789,1.1395552158355713,0.22611939907073975,-0.32616686820983887
1.0093112036588838,0.3667773059487485,-1.187922045225439,0.5458232164382935,-0.42659813165664673,-0.13480155169963837,0.19093921780586243,-0.8464652895927429,-0.4970300793647766,0.9987428188323975,0.17886269092559814,-0.3594151735305786
1.0145489062258115,0.36857648509061897,-1.1935466443772806,0.6475029587745667,-0.16726139187812805,-0.053337305784225464,0.19023317098617554,-0.8492424488067627,-0.49254316091537476,0.8680402040481567,0.12911909818649292,-0.35074901580810547
1.0208164374572344,0.37260216020683007,-1.1986924531318002,0.7123735547065735,0.09705255180597305,-0.0025052810087800026,0.19027303159236908,-0.8525350093841553,-0.48680630326271057,0.763080894947052,0.071788489818573,-0.30596399307250977
1.0273909254692277,0.37895103089084425,-1.2035408347280745,0.6892639994621277,0.33763933181762695,0.0088261803612113,0.19128207862377167,-0.8559528589248657,-0.48037058115005493,0.6814291477203369,0.017634928226470947,-0.2284306287765503
1.03334144315467,0.38712636424375296,-1.2081218461622585,0.5861802101135254,0.5031419992446899,-0.006598050706088543,0.1932765394449234,-0.8590144515037537,-0.47406595945358276,0.6064518690109253,-0.03324335813522339,-0.14982008934020996
1.0381617474512823,0.39601225092223274,-1.2121769990995281,0.4661265015602112,0.5684738755226135,-0.005149838514626026,0.19588178396224976,-0.8614721894264221,-0.46850401163101196,0.5630903840065002,-0.11142820119857788,-0.10167106986045837
1.0419922842939833,0.4042278041132847,-1.2150466127019177,0.3538886308670044,0.569333553314209,0.04378841072320938,0.198424831032753,-0.8634110689163208,-0.46384164690971375,0.5605931282043457,-0.21033471822738647,-0.09942123293876648
1.0451441739504108,0.4104299927572624,-1.215951762124511,0.27050989866256714,0.5210152864456177,0.12504558265209198,0.20021094381809235,-0.8649969100952148,-0.4601042866706848,0.5662075281143188,-0.33104807138442993,-0.13785704970359802
1.0482610685669664,0.41488631028054906,-1.2149162411420245,0.26760172843933105,0.5615409016609192,0.22788967192173004,0.2011716216802597,-0.8665566444396973,-0.45673802495002747,0.5906221866607666,-0.44748449325561523,-0.20448628067970276
1.0520665526925996,0.4184319547433679,-1.2121171768204662,0.32532891631126404,0.6371452808380127,0.33375850319862366,0.20144836604595184,-0.8684496283531189,-0.4530053734779358,0.6139966249465942,-0.5480695962905884,-0.26917776465415955
1.0570509839130833,0.4218180192291763,-1.2082829696104254,0.43689727783203125,0.7082069516181946,0.42273789644241333,0.20120631158351898,-0.8709099888801575,-0.448365718126297,0.5939749479293823,-0.6174933910369873,-0.31411588191986084
1.063572064442119,0.4252883771581947,-1.2037821337606334,0.5768693089485168,0.7777785658836365,0.5217768549919128,0.20041364431381226,-0.8740962147712708,-0.44248196482658386,0.5632277727127075,-0.672168493270874,-0.3465956747531891
1.0719022852033382,0.4288376381326376,-1.1985157750181126,0.734666109085083,0.8693047761917114,0.6287427544593811,0.1989481896162033,-0.878112256526947,-0.4351305663585663,0.5293385982513428,-0.7055975198745728,-0.36662712693214417
1.0820403156463432,0.4332245085557686,-1.1929017287016146,0.887456476688385,1.0055752992630005,0.6989697813987732,0.1971077024936676,-0.8829176425933838,-0.4261516034603119,0.4657188653945923,-0.7216967344284058,-0.36594730615615845
1.0934852996821003,0.43915267505907285,-1.1876999758085676,0.9755876660346985,1.092499852180481,0.6978557705879211,0.1953212171792984,-0.8882334232330322,-0.4158019423484802,0.3768070936203003,-0.7387807965278625,-0.3277587890625
1.1052767561753982,0.4463995922145625,-1.1837973541007722,0.9969315528869629,1.036091685295105,0.6295849680900574,0.19379402697086334,-0.8935884833335876,-0.4048997759819031,0.28314998745918274,-0.7483641505241394,-0.24044013023376465
1.1165843230170083,0.45349138857951427,-1.181246136136439,0.9376381635665894,0.8292186260223389,0.5606423616409302,0.19222132861614227,-0.8986070156097412,-0.39440661668777466,0.22974523901939392,-0.7298415303230286,-0.13049566745758057
1.1267173780183248,0.45898592536386335,-1.1794620664978253,0.8127455115318298,0.6054899096488953,0.4708934724330902,0.19034135341644287,-0.9030067324638367,-0.38516104221343994,0.19225755333900452,-0.7090385556221008,-0.026398926973342896
1.1351475235749695,0.4635121909885786,-1.178516815747447,0.6644324660301208,0.48839443922042847,0.3513319194316864,0.1886724829673767,-0.9065964221954346,-0.37747272849082947,0.12532290816307068,-0.6765487790107727,0.02096647024154663
1.1416993671863078,0.4680722152265791,-1.1786894571897557,0.5173894762992859,0.3901720345020294,0.22925348579883575,0.1877077966928482,-0.9093418121337891,-0.3712993264198303,0.061376675963401794,-0.6011867523193359,0.023322731256484985
1.146343602094453,0.4726399616376105,-1.1799939675648612,0.3670161962509155,0.295945405960083,0.08808410167694092,0.18747743964195251,-0.9112642407417297,-0.3666742742061615,0.02535220980644226,-0.4899047613143921,-0.00011643767356872559
1.1491627616446238,0.47883116158487227,-1.1835608808257643,0.2834009528160095,0.3090912699699402,-0.09330306947231293,0.18855951726436615,-0.9124216437339783,-0.3632248640060425,0.017586752772331238,-0.4110495448112488,-0.052393972873687744
1.1507260901662717,0.4890524587082236,-1.1907707182229166,0.2727930545806885,0.43185845017433167,-0.28175339102745056,0.19159184396266937,-0.9130603075027466,-0.36001890897750854,0.027631178498268127,-0.3350781798362732,-0.11556693911552429
1.1513868370849063,0.5046387116726102,-1.2020285730658107,0.2804511785507202,0.6377464532852173,-0.4577685296535492,0.19688789546489716,-0.913329541683197,-0.3564607799053192,0.020458325743675232,-0.23875480890274048,-0.14183011651039124
1.1512916617368054,0.5254538867417112,-1.2165040560929976,0.28060245513916016,0.8980978727340698,-0.5698623061180115,0.20430821180343628,-0.913290798664093,-0.3523609936237335,0.0037149041891098022,-0.13550692796707153,-0.14359533786773682
1.1506967526739498,0.5505804995727662,-1.2325728586061504,0.29001808166503906,1.196951985359192,-0.6098245978355408,0.2133806049823761,-0.9130483269691467,-0.34757962822914124,0.01785111427307129,-0.05957746505737305,-0.1361391246318817
1.1500292378094976,0.5787362696427205,-1.2488590105046666,0.31051188707351685,1.4599982500076294,-0.5739017724990845,0.22341443598270416,-0.9127758741378784,-0.34194493293762207,0.028019919991493225,0.017618954181671143,-0.12773573398590088
1.1498166959099532,0.6079767047120175,-1.2639743512967831,0.34719452261924744,1.6248990297317505,-0.46586543321609497,0.23342694342136383,-0.9126890301704407,-0.3354262113571167,0.04142966866493225,0.0946805477142334,-0.10146331787109375
1.15067220508895,0.6364950682233952,-1.2769409065006814,0.41460391879081726,1.7128342390060425,-0.2858671545982361,0.24243247509002686,-0.9130383133888245,-0.32800590991973877,0.09625166654586792,0.13731181621551514,-0.07693180441856384
1.1533638384633946,0.6628087446455941,-1.2869990971612835,0.5113887786865234,1.7064151763916016,-0.03165193647146225,0.24946525692939758,-0.914132833480835,-0.31957513093948364,0.1690070629119873,0.15050673484802246,-0.04988577961921692
1.1583004806749846,0.6856316941572901,-1.2936828109958003,0.5974083542823792,1.6415629386901855,0.22225995361804962,0.2538331151008606,-0.91612309217453,-0.31030240654945374,0.21648859977722168,0.16040080785751343,-0.02178981900215149
1.1652519214860708,0.7048950594133054,-1.2973349855633944,0.654424250125885,1.5475714206695557,0.4421548843383789,0.25563034415245056,-0.918887734413147,-0.30049729347229004,0.1996767222881317,0.1860385537147522,-0.00983583927154541
1.1737591724777388,0.7206690450491162,-1.298215667673021,0.6790432929992676,1.4506683349609375,0.6170310378074646,0.2551705837249756,-0.9222107529640198,-0.2905435860157013,0.1378500759601593,0.20988458395004272,-0.010725855827331543
1.1834436512513078,0.7335141925816074,-1.2970044558011629,0.7097429633140564,1.3473899364471436,0.7353626489639282,0.2528901696205139,-0.9259123206138611,-0.2805943489074707,0.05887743830680847,0.21700412034988403,-0.02642768621444702
1.193956350793837,0.7444687096836502,-1.2949136359020677,0.7468119859695435,1.2418861389160156,0.7909425497055054,0.24933919310569763,-0.9298321008682251,-0.2706332802772522,-0.026042044162750244,0.21178394556045532,-0.05997881293296814
1.2049512092291113,0.7556264061746863,-1.2941292740567243,0.8329471945762634,1.1370419263839722,0.7409952878952026,0.24531756341457367,-0.9338217377662659,-0.260377436876297,-0.10276992619037628,0.1822500228881836,-0.09846341609954834
1.2161298758043937,0.7696521303601571,-1.297790570054239,0.9723154306411743,0.9778131246566772,0.6120522022247314,0.24166573584079742,-0.9377623796463013,-0.24939869344234467,-0.14603886008262634,0.14383220672607422,-0.11987918615341187
1.2273839701267333,0.7883533251299336,-1.3083944736822308,1.1450611352920532,0.7644960880279541,0.4583943784236908,0.23878729343414307,-0.9416112303733826,-0.23738013207912445,-0.1320367306470871,0.11978787183761597,-0.11995014548301697
1.2386166486570824,0.8119867087716955,-1.326680879843891,1.2929158210754395,0.5131418704986572,0.3153506815433502,0.2366395890712738,-0.9453337788581848,-0.22437888383865356,-0.09427505731582642,0.12676072120666504,-0.11045986413955688
1.2498856369402789,0.8398596448554548,-1.3516510811675277,1.4153105020523071,0.3494315445423126,0.27453911304473877,0.23485395312309265,-0.9489485621452332,-0.21057140827178955,-0.05501385033130646,0.16875135898590088,-0.0984647125005722
1.2618990213350698,0.870391348130591,-1.3805499505399539,1.5170954465866089,0.270841121673584,0.383611261844635,0.23243917524814606,-0.9526693820953369,-0.19594179093837738,0.016446948051452637,0.22560328245162964,-0.09699635207653046
1.275479633835355,0.9017934946978422,-1.410692460107651,1.5949712991714478,0.26620668172836304,0.5969027280807495,0.22830596566200256,-0.9567100405693054,-0.18050609529018402,0.06676849722862244,0.29356300830841064,-0.09522013366222382
1.2910863940069166,0.9328154054613094,-1.4401065836266833,1.630977988243103,0.2901255786418915,0.8708866238594055,0.2217724770307541,-0.9611355662345886,-0.1644243746995926,0.08578366041183472,0.3323666453361511,-0.07358209788799286
1.308660680058746,0.9620025386428828,-1.467602225771144,1.613714575767517,0.2455136775970459,1.1213412284851074,0.21258589625358582,-0.9658387303352356,-0.1481989324092865,0.05348162353038788,0.3608734607696533,-0.03566932678222656
1.3275039352243978,0.9887044488435737,-1.4930229499560548,1.555430293083191,0.1673072874546051,1.2758088111877441,0.20122702419757843,-0.9705501198768616,-0.13244006037712097,-0.05698566138744354,0.3802637457847595,0.008798182010650635
1.3465124876853272,1.0141310703407806,-1.518050433148026,1.4751852750778198,0.0434684157371521,1.2865761518478394,0.1888297200202942,-0.9749536514282227,-0.1175113171339035,-0.2057822048664093,0.3834465742111206,0.04193466901779175
1.3642935724717058,1.041105062919794,-1.5459518736225506,1.3868428468704224,-0.10371970385313034,1.127470850944519,0.17694111168384552,-0.9787539839744568,-0.1035994365811348,-0.3595125079154968,0.35730916261672974,0.05991363525390625
1.3794171087695384,1.0718266516768222,-1.5790572490569628,1.2328662872314453,-0.23811718821525574,0.8517646193504333,0.1670219451189041,-0.981742799282074,-0.09102118760347366,-0.4915611147880554,0.3352431058883667,0.06738543510437012
1.3904245590581306,1.1052859271177953,-1.6157314545721302,0.9869574308395386,-0.26166194677352905,0.46303579211235046,0.1603071093559265,-0.9837770462036133,-0.0805271789431572,-0.5801984071731567,0.33970338106155396,0.07791804522275925
1.396330336359736,1.1393483433907026,-1.6524232007945698,0.7001606225967407,-0.13687048852443695,0.04237282648682594,0.15767565369606018,-0.9848193526268005,-0.07258988916873932,-0.6227024793624878,0.36839479207992554,0.07710660248994827
1.3972994630679807,1.1721411961925026,-1.6860955972117369,0.4626934826374054,0.07198206335306168,-0.3303227424621582,0.15909148752689362,-0.9849871397018433,-0.06701073795557022,-0.5969729423522949,0.3873918652534485,0.04622841626405716
1.394309323578828,1.2049175950296664,-1.7175873842510154,0.3453473448753357,0.2679438889026642,-0.6233097910881042,0.1639513373374939,-0.984466552734375,-0.06281458586454391,-0.5286669135093689,0.4448241591453552,-0.00015830248594284058
1.388666275747005,1.2380590928029853,-1.7481222129294796,0.29607224464416504,0.33458974957466125,-0.7944501042366028,0.171190544962883,-0.9834601283073425,-0.059161074459552765,-0.4421103298664093,0.51927250623703,-0.021084778010845184
1.3817714410279454,1.2691309137162663,-1.776613725881644,0.27294501662254333,0.26383253931999207,-0.831061840057373,0.1794167160987854,-0.9821879267692566,-0.055827658623456955,-0.3295937180519104,0.578013002872467,-0.006046593189239502
1.3748953104182986,1.2948104232272695,-1.8008733088663242,0.22536100447177887,0.10311637818813324,-0.742229700088501,0.18728424608707428,-0.9808726906776428,-0.05304139107465744,-0.21442963182926178,0.6248241066932678,0.022829122841358185
1.3690721681871334,1.3123896106912594,-1.8188439591680834,0.14691871404647827,-0.11542882770299911,-0.5607609748840332,0.1937069147825241,-0.9797225594520569,-0.05119987949728966,-0.12284506857395172,0.6584334969520569,0.05347353592514992
1.3650308041404926,1.3199617450177878,-1.8287894823711053,0.040315575897693634,-0.3082515597343445,-0.31794941425323486,0.19792264699935913,-0.9789048433303833,-0.05071393772959709,-0.05239956080913544,0.6699906587600708,0.06200558319687843
1.3632303449018197,1.31803814085135,-1.8306088834316188,-0.05144496634602547,-0.42454779148101807,-0.050581179559230804,0.19953098893165588,-0.9785354137420654,-0.051535267382860184,0.00360928475856781,0.6485487818717957,0.04360080137848854
1.3638057473589966,1.309363167141643,-1.8262740922608043,-0.07757297903299332,-0.44695377349853516,0.20120924711227417,0.1985326111316681,-0.9786538481712341,-0.05311873182654381,0.04118296504020691,0.6024025678634644,-0.003384467214345932
1.3664883172607745,1.2991902739375272,-1.8199195672957815,-0.023366190493106842,-0.33666935563087463,0.3741699159145355,0.1954522430896759,-0.97920161485672,-0.05443109944462776,0.03687809407711029,0.5503227710723877,-0.06809687614440918
1.3706346900590307,1.2922770717332819,-1.81544739383762,0.07889413088560104,-0.1641971915960312,0.46725699305534363,0.19116581976413727,-0.9800344705581665,-0.054664213210344315,-0.0036963224411010742,0.49501854181289673,-0.11826354265213013
1.3757315139640534,1.2916683523108918,-1.815524800122918,0.2057977169752121,0.02110745944082737,0.5107348561286926,0.1863289177417755,-0.9810351133346558,-0.053403809666633606,-0.047245025634765625,0.4398820400238037,-0.13884156942367554
1.381452211971561,1.2979117813028518,-1.8210193555835148,0.3051221966743469,0.1390863060951233,0.5364562273025513,0.18125037848949432,-0.9821279048919678,-0.05072584003210068,-0.06810644268989563,0.3986928462982178,-0.11785315722227097
1.3876772990680801,1.308744855307229,-1.8305076593805447,0.3576253354549408,0.1494787484407425,0.5747970342636108,0.17588111758232117,-0.9832805395126343,-0.04717472568154335,-0.06037205457687378,0.3675272464752197,-0.06688463687896729
1.3944334530909661,1.3205458759995619,-1.8413783442546814,0.3559750020503998,0.0721229836344719,0.6408892273902893,0.1699851155281067,-0.984488308429718,-0.043449677526950836,-0.036775872111320496,0.333334743976593,-0.011893805116415024
1.4018249750835545,1.3301671579723273,-1.8508045442801033,0.3145008087158203,-0.008468053303658962,0.7214124202728271,0.16332432627677917,-0.9857582449913025,-0.04007712006568909,-0.012613222002983093,0.30266785621643066,0.03063201531767845
1.4098397710089143,1.3350596822118934,-1.8562080027900267,0.2372821867465973,-0.07848868519067764,0.7977727055549622,0.1558309942483902,-0.9870744347572327,-0.0374310277402401,0.003684401512145996,0.2688278555870056,0.057389676570892334
1.4182397723803872,1.334282108143033,-1.8564128312074493,0.16657575964927673,-0.1091080904006958,0.8364596366882324,0.14773570001125336,-0.988385796546936,-0.035608042031526566,0.005477815866470337,0.23594433069229126,0.06499660015106201
1.4266978074264614,1.3288686240799914,-1.8519059959255613,0.10711271315813065,-0.07192876189947128,0.838374674320221,0.13941903412342072,-0.9896357655525208,-0.034403152763843536,0.004257723689079285,0.20888924598693848,0.057520393282175064
1.434875254777041,1.3199180505220638,-1.8431411679702234,0.05690814554691315,0.021592920646071434,0.8080244660377502,0.13126277923583984,-0.9907769560813904,-0.03363971784710884,0.012246161699295044,0.17479771375656128,0.04960053786635399
1.4424406505547143,1.3078396104514458,-1.830223057068801,0.0008233028929680586,0.12203910201787949,0.7442108392715454,0.12360363453626633,-0.9917737245559692,-0.03327286243438721,0.021522708237171173,0.15022099018096924,0.050591710954904556
1.4490899853917,1.291776988133626,-1.8125567501133204,-0.06970334053039551,0.16332316398620605,0.6622449159622192,0.11671072989702225,-0.9926029443740845,-0.033436790108680725,0.03868479281663895,0.13927042484283447,0.06583130359649658
1.454763815286163,1.2690290636799801,-1.787955450353098,-0.16280531883239746,0.17590314149856567,0.600088894367218,0.11054133623838425,-0.9932757616043091,-0.03440861031413078,0.06961918622255325,0.1321459412574768,0.08195507526397705
1.4594617779513197,1.237132196390987,-1.7539178685003314,-0.27769941091537476,0.2107362300157547,0.5396372079849243,0.10497694462537766,-0.9938086867332458,-0.03638753294944763,0.11494797468185425,0.12782669067382812,0.09185338020324707
1.4630913503237457,1.1940892079417709,-1.708325320257297,-0.4037066102027893,0.24686333537101746,0.4949754476547241,0.09995971620082855,-0.9942054152488708,-0.03954401612281799,0.16149963438510895,0.11919015645980835,0.09595584869384766
1.46555030316579,1.1399621934547883,-1.6511209231972406,-0.5185708403587341,0.3093158006668091,0.4409793019294739,0.09545298665761948,-0.9944667220115662,-0.043873149901628494,0.20207813382148743,0.09778392314910889,0.08986324071884155
1.4665880741253086,1.0784276560572081,-1.5858339413088598,-0.6035115718841553,0.3676595389842987,0.35792598128318787,0.09166589379310608,-0.9945752024650574,-0.04917275533080101,0.22600685060024261,0.07378339767456055,0.07018422335386276
1.4660987175409617,1.0165860456869622,-1.5196892580250958,-0.6299644708633423,0.4270749092102051,0.25537925958633423,0.08886401355266571,-0.9945241808891296,-0.054999109357595444,0.24092420935630798,0.03907978534698486,0.03842818737030029
1.4643863094964225,0.9626678556180995,-1.4609865276313296,-0.5809522271156311,0.45823684334754944,0.14661283791065216,0.08716776221990585,-0.9943438172340393,-0.060680679976940155,0.26677513122558594,-0.009379327297210693,-0.0057101771235466
1.4620270697702213,0.9225506491974558,-1.416234518930284,-0.4685591161251068,0.4091334939002991,0.04959005489945412,0.08653493970632553,-0.9940904378890991,-0.06554501503705978,0.29113537073135376,-0.04680323600769043,-0.04621022939682007
1.4596239506237885,0.8975703616499112,-1.3873626046429501,-0.3257993161678314,0.3390137851238251,-0.03158043324947357,0.08673770725727081,-0.993826687335968,-0.06917492300271988,0.3196191191673279,-0.05411642789840698,-0.08248209208250046
1.4575344113103004,0.8862533802571911,-1.3728366551555151,-0.19649405777454376,0.2865889370441437,-0.07906327396631241,0.08755766600370407,-0.9935927391052246,-0.07146482169628143,0.35583221912384033,-0.06381088495254517,-0.10233264416456223
1.455912720495822,0.8841166767953039,-1.367838753844189,-0.10161680728197098,0.2880379557609558,-0.09142220765352249,0.08865123242139816,-0.9934081435203552,-0.07267355173826218,0.39433524012565613,-0.07566851377487183,-0.10129177570343018
1.4548563282087008,0.8870095519205664,-1.3675230815864623,-0.04209490865468979,0.3617939352989197,-0.05655603110790253,0.0896756649017334,-0.9932864904403687,-0.0730806216597557,0.4245608150959015,-0.08030688762664795,-0.10112888365983963
1.4544274211703356,0.8903938995744358,-1.3667153667415843,-0.0337941013276577,0.4746840000152588,0.01130450889468193,0.09025274962186813,-0.993236780166626,-0.07304400205612183,0.44884029030799866,-0.09148013591766357,-0.09037750959396362
1.4544590867139986,0.8895149174732286,-1.3605406095115593,-0.07570211589336395,0.5829758644104004,0.090605229139328,0.09016462415456772,-0.993240475654602,-0.07310394197702408,0.4494166970252991,-0.10269176959991455,-0.07211387902498245
1.4547780474560674,0.8823257011229652,-1.3468560823576017,-0.12636183202266693,0.6928770542144775,0.15840372443199158,0.08939210325479507,-0.9932774305343628,-0.07354898005723953,0.439736932516098,-0.1285032033920288,-0.06454295665025711
1.4552099044269071,0.8708636058636999,-1.327991970464469,-0.14832916855812073,0.7567846775054932,0.1886179894208908,0.0882139652967453,-0.9933273196220398,-0.07429145276546478,0.4153260886669159,-0.1547287106513977,-0.06378518790006638
1.4556511754198131,0.8586442225260895,-1.3080504599226281,-0.13595744967460632,0.7615088820457458,0.17671899497509003,0.08696858584880829,-0.9933781027793884,-0.07507803291082382,0.3892124593257904,-0.16963165998458862,-0.07384759187698364
1.4561133045404495,0.8505974028317491,-1.2923309347980256,-0.06559404730796814,0.7566431760787964,0.1266699731349945,0.08601609617471695,-0.9934310913085938,-0.07547223567962646,0.36807021498680115,-0.18236547708511353,-0.09937810897827148
1.4566996718502498,0.8533035934901293,-1.2872787571898197,0.0614861398935318,0.7975980639457703,0.03451981022953987,0.08578091114759445,-0.9934980273246765,-0.0748559981584549,0.34007662534713745,-0.17753779888153076,-0.13151901960372925
1.4573282172538535,0.8722541144953133,-1.297910017003422,0.20483289659023285,0.8881210684776306,-0.09485382586717606,0.0867057740688324,-0.9935693740844727,-0.07281545549631119,0.3114723563194275,-0.15366274118423462,-0.15032893419265747
1.457767132358658,0.908163061966487,-1.3246313616226555,0.31136441230773926,0.9809005260467529,-0.2078608125448227,0.08892092853784561,-0.9936190247535706,-0.06938792765140533,0.29715695977211,-0.1199827790260315,-0.1330808401107788
1.457919709143127,0.9543125385811417,-1.3609799771235922,0.3580264151096344,1.0214672088623047,-0.24339786171913147,0.0919039323925972,-0.9936361908912659,-0.06512440741062164,0.3117826282978058,-0.08458048105239868,-0.08795166015625
1.4581057438421139,1.0015886474274658,-1.3983176094255352,0.3561244010925293,1.0138309001922607,-0.18409380316734314,0.09472357481718063,-0.993657112121582,-0.06060900166630745,0.34015193581581116,-0.052180469036102295,-0.04142642766237259
1.4587290145038765,1.0429610862770706,-1.42995574018288,0.3077877163887024,0.978644609451294,-0.07745952904224396,0.09661345928907394,-0.9937270283699036,-0.05632688105106354,0.35500094294548035,-0.029985249042510986,-0.0031517744064331055
1.4598714736541443,1.0747368539506212,-1.45208602964313,0.2293509840965271,0.9866620898246765,0.03766626864671707,0.09735549986362457,-0.9938541650772095,-0.052688490599393845,0.3472093343734741,-0.018383502960205078,0.0209808349609375
1.4615371332270253,1.0955780299913793,-1.462806798025372,0.13133947551250458,1.0683162212371826,0.14515218138694763,0.09695998579263687,-0.9940371513366699,-0.049890581518411636,0.3221684694290161,-0.02235090732574463,0.02861994504928589
1.4633542955015404,1.1062571984433631,-1.462078310410455,0.016293320804834366,1.2214362621307373,0.17424215376377106,0.09587255120277405,-0.9942336678504944,-0.04804316535592079,0.27456507086753845,-0.040663301944732666,0.029213905334472656
1.464434739459822,1.1093894851025246,-1.45202825430982,-0.11523808538913727,1.4108327627182007,0.1099875196814537,0.09506011009216309,-0.99434894323349,-0.04726409167051315,0.1765768826007843,-0.043172478675842285,0.0322953499853611
1.464170904346149,1.1070383910550656,-1.4346303697044829,-0.2376239150762558,1.5770041942596436,0.009751726873219013,0.09518353641033173,-0.9943208694458008,-0.04760489612817764,0.08787617087364197,-0.036242544651031494,0.029523372650146484
1.4624969370601912,1.102071415523966,-1.4132792465433324,-0.3134893774986267,1.6696147918701172,-0.09991615265607834,0.09643058478832245,-0.9941413402557373,-0.048828866332769394,0.030186854302883148,-0.02630549669265747,0.01675504818558693
1.4598164558442934,1.0988358787140051,-1.3932986160493936,-0.3118342161178589,1.6428154706954956,-0.17342950403690338,0.09864536672830582,-0.9938480257987976,-0.05035201460123062,0.00877651572227478,-0.003664851188659668,0.014158308506011963
1.4567430657722766,1.0990927436177527,-1.3777846739009554,-0.27835002541542053,1.484244465827942,-0.20588353276252747,0.10137863457202911,-0.9935029745101929,-0.051714349538087845,0.017578870058059692,0.023989975452423096,0.02650696411728859
1.4536818554782982,1.0992387080253727,-1.3643472020238865,-0.280143678188324,1.208483099937439,-0.19433847069740295,0.1040954738855362,-0.9931499361991882,-0.05308109149336815,0.022064216434955597,0.05012613534927368,0.050883948802948
1.4507517559311054,1.0951146496793962,-1.3494541737431507,-0.2996014952659607,0.9390332698822021,-0.16100576519966125,0.10646171867847443,-0.9928032755851746,-0.05484209209680557,0.007780842483043671,0.07021105289459229,0.05372828245162964
1.448155725976869,1.0868275891343493,-1.332848156576909,-0.29452818632125854,0.7046417593955994,-0.10814893990755081,0.10828550904989243,-0.9924890398979187,-0.056921981275081635,-0.01938779652118683,0.09002310037612915,0.016272664070129395
1.4462643494290994,1.0759720994838657,-1.3158115227921254,-0.25193142890930176,0.5122049450874329,-0.025098685175180435,0.10931266099214554,-0.9922559261322021,-0.058985210955142975,-0.05991993844509125,0.1159435510635376,-0.033559203147888184
1.4454002005385969,1.0632456607091625,-1.2987763191297368,-0.20470772683620453,0.3366994559764862,0.08743638545274734,0.10930255055427551,-0.992148220539093,-0.06078833341598511,-0.11783221364021301,0.14792507886886597,-0.07939404249191284
1.445925281942025,1.047736248846544,-1.2803083899695915,-0.14999763667583466,0.22978633642196655,0.23507800698280334,0.10789478570222855,-0.9922137260437012,-0.06221560761332512,-0.18702685832977295,0.1687731146812439,-0.11437422037124634
1.4479029101857843,1.0280528555260209,-1.2585188460718493,-0.1168159767985344,0.16609443724155426,0.37739309668540955,0.10496850311756134,-0.9924581050872803,-0.063313327729702,-0.29974696040153503,0.18532919883728027,-0.15178972482681274
1.451059456966559,1.0035677074959077,-1.232114553042364,-0.09764518588781357,0.19291190803050995,0.5004804134368896,0.10074395686388016,-0.9928401112556458,-0.06418050080537796,-0.43030327558517456,0.20994216203689575,-0.18581938743591309
1.4551200993759899,0.9732370624880218,-1.199257076816554,-0.10213607549667358,0.2763732671737671,0.6065064668655396,0.0954194888472557,-0.9933169484138489,-0.06493865698575974,-0.5368104577064514,0.22041326761245728,-0.21176409721374512
1.4598088605232324,0.9357597040796098,-1.1580174752208179,-0.11519890278577805,0.43055325746536255,0.7007646560668945,0.08916760981082916,-0.9938471913337708,-0.06570380926132202,-0.613398551940918,0.20725661516189575,-0.22987407445907593
1.464798831744457,0.8910340444011077,-1.107899538872275,-0.13533294200897217,0.5815022587776184,0.7546119093894958,0.0822843387722969,-0.9943875074386597,-0.06650781631469727,-0.6626065969467163,0.18947088718414307,-0.23688256740570068
1.4696975965868326,0.8388292470322654,-1.0491867909357984,-0.1465083807706833,0.6490417122840881,0.7868855595588684,0.07507660984992981,-0.9948938488960266,-0.06745380163192749,-0.6960330009460449,0.16634148359298706,-0.23573821783065796
1.474537324924952,0.7806048704049233,-0.9841227976802197,-0.10820359736680984,0.6489146947860718,0.8068243861198425,0.06763487309217453,-0.9953706860542297,-0.06828638911247253,-0.6983263492584229,0.13675850629806519,-0.23299825191497803
1.4795254744028403,0.7192813343242486,-0.9162916995550785,-0.024201640859246254,0.5901882648468018,0.8105605244636536,0.060051411390304565,-0.9958376884460449,-0.06856771558523178,-0.6858906149864197,0.10478520393371582,-0.23102325201034546
1.484839795566768,0.6576710002773316,-0.84897419668098,0.09100005030632019,0.5017436146736145,0.7932750582695007,0.05247911065816879,-0.9963080286979675,-0.06794469803571701,-0.664173424243927,0.07801872491836548,-0.22448986768722534
1.4907371391082747,0.5985669638609492,-0.7849668885591355,0.24136267602443695,0.4461663067340851,0.7692015767097473,0.04506262019276619,-0.9967969655990601,-0.06607081741094589,-0.6281314492225647,0.05931216478347778,-0.22050440311431885
1.4974635518737025,0.5427677297250175,-0.7245458856429723,0.3907870352268219,0.4525983929634094,0.746058464050293,0.03784409537911415,-0.9973123669624329,-0.06273908168077469,-0.5873741507530212,0.04559105634689331,-0.20728033781051636
1.5050248260407901,0.4884082773315733,-0.6654802688035493,0.5185737609863281,0.45894336700439453,0.7242328524589539,0.030839258804917336,-0.9978378415107727,-0.05803995579481125,-0.5457623600959778,0.031178295612335205,-0.1701245903968811
1.5131811838849802,0.4313577084729317,-0.6037221235905064,0.5994126796722412,0.4546319842338562,0.689105212688446,0.024076785892248154,-0.9983407258987427,-0.05231066793203354,-0.5046065449714661,0.019947052001953125,-0.10815060138702393
1.5213885414534742,0.3659760776182578,-0.5339941431931955,0.6252090930938721,0.3873772919178009,0.6419887542724609,0.017674222588539124,-0.9987796545028687,-0.046117763966321945,-0.4579818546772003,0.0015414953231811523,-0.03296839818358421
1.5292274310533687,0.2871637357693796,-0.451637105851381,0.624394953250885,0.30521160364151,0.5751319527626038,0.011770796030759811,-0.9991361498832703,-0.03985688090324402,-0.4150453209877014,-0.022424638271331787,0.04081833362579346
1.5363796772797644,0.19294444807902061,-0.3546023484040111,0.5900903344154358,0.25035661458969116,0.4864451587200165,0.006598785985261202,-0.9994078278541565,-0.03377498686313629,-0.3729928433895111,-0.03663355112075806,0.10492682456970215
1.5424488306733288,0.0813075332106373,-0.24062214777593666,0.5123880505561829,0.20904484391212463,0.39354610443115234,0.002302565611898899,-0.9995982646942139,-0.02825678326189518,-0.3260025084018707,-0.050450801849365234,0.15800237655639648
1.5470158046027893,-0.04293075151844538,-0.11446522001063637,0.3868146538734436,0.16554291546344757,0.2829577326774597,-0.0010209825122728944,-0.9997172355651855,-0.023767467588186264,-0.28097671270370483,-0.06618565320968628,0.2050267457962036
1.5499933894210236,-0.15581954170654183,-0.0002953118762213211,0.2579754590988159,0.08158863335847855,0.16838720440864563,-0.0032293961849063635,-0.9997836351394653,-0.0205572247505188,-0.24695372581481934,-0.06984233856201172,0.24089425802230835
1.551767888792901,-0.23344978270108302,0.07774807594920503,0.15876473486423492,0.0022642253898084164,0.0720539391040802,-0.0044022491201758385,-0.9998189806938171,-0.018513550981879234,-0.2014693170785904,-0.05965983867645264,0.25880908966064453
1.5528074097714955,-0.26785209054189596,0.11172328504038047,0.07826802879571915,-0.09340344369411469,0.004431752022355795,-0.004760261159390211,-0.9998382329940796,-0.017344914376735687,-0.1530766636133194,-0.040811121463775635,0.26555973291397095
1.5531685184057824,-0.2696644445468692,0.11201351234353864,-0.011314857751131058,-0.2124136984348297,-0.017761800438165665,-0.004697851371020079,-0.9998446106910706,-0.016996758058667183,-0.10995669662952423,-0.01765727996826172,0.2658829689025879
1.5526902857090696,-0.2542990981594337,0.09394541116537822,-0.09598233550786972,-0.3263802230358124,-0.019088054075837135,-0.004556208848953247,-0.9998360872268677,-0.017528843134641647,-0.07100532203912735,0.0024605393409729004,0.2587551474571228
1.5514977444974916,-0.22829755369567384,0.06419651131077346,-0.15602225065231323,-0.41801905632019043,-0.034113265573978424,-0.004369624424725771,-0.9998137950897217,-0.018806355074048042,-0.05686388537287712,0.02228987216949463,0.23427581787109375
1.5499764946561498,-0.18747112084231318,0.01888458232098529,-0.17811210453510284,-0.4753337502479553,-0.08300118148326874,-0.003882547141984105,-0.9997832775115967,-0.020466914400458336,-0.07293020188808441,0.04272127151489258,0.19739270210266113
1.5484017797267204,-0.12606826308682434,-0.047312132053859236,-0.1731349378824234,-0.474094033241272,-0.15105944871902466,-0.0028169634751975536,-0.9997492432594299,-0.0222262442111969,-0.08461588621139526,0.055291056632995605,0.15641212463378906
1.5470410288717138,-0.045677652560790344,-0.13247152626884406,-0.1305728405714035,-0.4827793836593628,-0.21425306797027588,-0.0010850257240235806,-0.9997178316116333,-0.023737451061606407,-0.07713153958320618,0.07334131002426147,0.1285197138786316
1.546017512914138,0.04640334303700126,-0.22953410571213853,-0.07057048380374908,-0.5134590268135071,-0.25307440757751465,0.0011496454244479537,-0.9996930360794067,-0.024757269769906998,-0.04506445303559303,0.10723674297332764,0.11458587646484375
1.5452519987071265,0.14335382899469906,-0.3319145912069889,-0.03329768404364586,-0.5743710994720459,-0.2711900472640991,0.003649630583822727,-0.9996737837791443,-0.025284262374043465,-0.0041989516466856,0.14510518312454224,0.11428886651992798
1.5445376726349669,0.23761812777572966,-0.43235766821305366,-0.013694915920495987,-0.655125617980957,-0.2636212706565857,0.006181391421705484,-0.9996552467346191,-0.025522515177726746,0.03321678936481476,0.19002383947372437,0.11983722448348999
1.5437416542336049,0.3201007481369895,-0.5217317765803589,-0.008630914613604546,-0.7140627503395081,-0.23759153485298157,0.008513935841619968,-0.9996340274810791,-0.025682970881462097,0.0652470588684082,0.24426287412643433,0.11908215284347534
1.5429380917283757,0.3896962272468633,-0.5986069443149403,0.0012254525208845735,-0.7378525137901306,-0.2136695832014084,0.010582378134131432,-0.9996119737625122,-0.02576669491827488,0.09052236378192902,0.2985926866531372,0.11318439245223999
1.5421728133740276,0.4476228805322925,-0.6639597872340335,0.005822600796818733,-0.7416818737983704,-0.18670295178890228,0.012389646843075752,-0.9995903968811035,-0.025804957374930382,0.1050267294049263,0.34791791439056396,0.11120849847793579
1.5413737376800198,0.4936612280849643,-0.717281527218573,-0.009436527267098427,-0.7075774073600769,-0.16141287982463837,0.013943440280854702,-0.9995672106742859,-0.025912348181009293,0.11532901972532272,0.4008883833885193,0.11474913358688354
1.5404019709611283,0.5231850789565669,-0.7535543481641581,-0.056785669177770615,-0.6410609483718872,-0.12180661410093307,0.015186239965260029,-0.9995381236076355,-0.02632848732173443,0.12903983891010284,0.44539982080459595,0.12091785669326782
1.5391177402562752,0.527040600067412,-0.7635752492367056,-0.13934525847434998,-0.5981310606002808,-0.057164326310157776,0.015933481976389885,-0.9994982481002808,-0.027379538863897324,0.14522984623908997,0.4791887402534485,0.12860649824142456
1.5374724464184153,0.49629417530601927,-0.7387023878564836,-0.22570757567882538,-0.582939088344574,0.03903064876794815,0.015865987166762352,-0.9994447827339172,-0.02930004708468914,0.1652863621711731,0.5012605786323547,0.13345664739608765
1.5354855268650114,0.43425590061382174,-0.6823625365810148,-0.2922799587249756,-0.5649970173835754,0.1295684278011322,0.014853335916996002,-0.999376654624939,-0.03202653303742409,0.1681300550699234,0.517168402671814,0.12545621395111084
1.5333921329096107,0.35294672280349243,-0.6065471825532104,-0.29976770281791687,-0.5439023971557617,0.21563167870044708,0.012926202267408371,-0.9993005394935608,-0.0350901298224926,0.16264143586158752,0.5270868539810181,0.10328174382448196
1.5314820065093384,0.2652672849560075,-0.5241591454768868,-0.2549155354499817,-0.5311784148216248,0.2645699381828308,0.010304412804543972,-0.9992272853851318,-0.0379299521446228,0.14535050094127655,0.5297601222991943,0.08558326959609985
1.5298256055960173,0.1825791780390738,-0.44666876524733906,-0.2097105085849762,-0.5214464068412781,0.2637091875076294,0.007437068969011307,-0.9991608262062073,-0.04027976095676422,0.0994965136051178,0.546661376953125,0.08552217483520508
1.5281845093816908,0.11235040648718202,-0.3815995892001264,-0.2027476578950882,-0.5308439135551453,0.2242022156715393,0.004776369780302048,-0.9990922808647156,-0.04233412444591522,0.050506237894296646,0.5649338364601135,0.10581082105636597
1.526144738009978,0.05554992570927892,-0.3304089455351877,-0.2461518496274948,-0.6114482283592224,0.18755577504634857,0.0024785634595900774,-0.9990032911300659,-0.04457275941967964,0.041771914809942245,0.5707803964614868,0.1350117325782776
1.5234197575396824,0.009817285751014454,-0.2913122365186682,-0.3115045130252838,-0.7282062768936157,0.15631712973117828,0.00046497699804604053,-0.9988779425621033,-0.047361571341753006,0.06546824425458908,0.5719978213310242,0.14562833309173584
1.5200302040454463,-0.02575555723736604,-0.263281327885472,-0.36697816848754883,-0.7868109941482544,0.1255272626876831,-0.0013067980762571096,-0.9987117052078247,-0.05072727054357529,0.08226992934942245,0.5874873399734497,0.13324689865112305
1.516092978662041,-0.053645363699438224,-0.24346927917982647,-0.4127238094806671,-0.8351025581359863,0.11937595903873444,-0.0029318835586309433,-0.9985041618347168,-0.05460062623023987,0.09222634136676788,0.6060174703598022,0.1093493103981018
1.5117138631339813,-0.07955232359899587,-0.22581992492812375,-0.4499553442001343,-0.8159469366073608,0.1449095457792282,-0.004692671354860067,-0.9982551336288452,-0.05886399745941162,0.1167684942483902,0.6018621921539307,0.07477903366088867
1.5069533065779437,-0.10597678061723599,-0.207067785555202,-0.479120135307312,-0.7175823450088501,0.17122916877269745,-0.006748990621417761,-0.9979627132415771,-0.063445083796978,0.1228988990187645,0.593696117401123,0.04093848913908005
1.5017750887628347,-0.12794893116844533,-0.19111947247427552,-0.535087525844574,-0.47071531414985657,0.15714424848556519,-0.008800110779702663,-0.9976189732551575,-0.06840258091688156,0.07265816628932953,0.5953973531723022,0.007718518376350403
1.4957857372810741,-0.1387573252346652,-0.1831873627039662,-0.6499508023262024,-0.11163220554590225,0.11001192778348923,-0.010365515947341919,-0.9971880316734314,-0.07422243058681488,-0.01478099450469017,0.5799362063407898,0.001117698848247528
1.4884254016169347,-0.13420989892277116,-0.1874111738364314,-0.8241867423057556,0.16356314718723297,0.020773662254214287,-0.011009779758751392,-0.9966094493865967,-0.08154090493917465,-0.08930150419473648,0.5563168525695801,0.01659964770078659
1.4793868828734238,-0.1156145018174954,-0.20377719671710418,-1.008200764656067,0.26486629247665405,-0.07579448074102402,-0.010530078783631325,-0.9958250522613525,-0.0906730517745018,-0.13925017416477203,0.5324766635894775,0.03453607112169266
1.4687260197480188,-0.09048178730852265,-0.2269673300382577,-1.1593176126480103,0.11850322037935257,-0.14251092076301575,-0.009206940419971943,-0.9947953224182129,-0.10147678852081299,-0.12236956506967545,0.5176987648010254,0.06159044802188873
1.4568503586303727,-0.06839692815765665,-0.24962322385833483,-1.2446926832199097,-0.22323653101921082,-0.1452678143978119,-0.00777073297649622,-0.9935151934623718,-0.11343508958816528,-0.05556850507855415,0.5122070908546448,0.057038724422454834
1.4444192385476489,-0.056644166897333086,-0.26558178852701486,-1.2626394033432007,-0.5888677835464478,-0.07813779264688492,-0.0071357237175107,-0.9920250177383423,-0.12583979964256287,0.012400001287460327,0.50565105676651,0.01355046033859253
1.4320123746762963,-0.05640574293086541,-0.27297797526986767,-1.2271472215652466,-0.8013651371002197,0.023728683590888977,-0.007799066137522459,-0.9903849363327026,-0.13812056183815002,0.07777588069438934,0.4943215250968933,-0.05989260971546173
1.420000080258621,-0.0644014828072173,-0.27280099633253196,-1.177412986755371,-0.7446200847625732,0.12429364025592804,-0.00966809131205082,-0.9886517524719238,-0.14991457760334015,0.10337232798337936,0.49966853857040405,-0.1309690922498703
1.40828117816369,-0.0765056229569965,-0.26721464904926273,-1.1640210151672363,-0.5624721050262451,0.21364103257656097,-0.01236664317548275,-0.9868234395980835,-0.16132809221744537,0.094504714012146,0.527411699295044,-0.16325676441192627
1.3961095709101696,-0.089583619764601,-0.25834111887674643,-1.257307767868042,-0.308302640914917,0.2823314368724823,-0.015548855066299438,-0.98478102684021,-0.17310351133346558,0.06990067660808563,0.5284820795059204,-0.14652222394943237
1.382308306998878,-0.10020920083409054,-0.24958915339886556,-1.4834823608398438,-0.10436069965362549,0.2832983136177063,-0.018745198845863342,-0.982288658618927,-0.1864340901374817,0.025108128786087036,0.5120890140533447,-0.09583811461925507
1.3657059477601685,-0.10401793429222897,-0.24620108182611813,-1.823743224143982,-0.014103512279689312,0.1804875135421753,-0.021145690232515335,-0.9790425896644592,-0.20255517959594727,-0.04155268520116806,0.4820942282676697,-0.048528075218200684
1.3458689136975077,-0.10065707578621821,-0.24997498891893954,-2.1337337493896484,-0.06560377776622772,0.07769425213336945,-0.022412260994315147,-0.9748103022575378,-0.22190707921981812,-0.0752897635102272,0.4341455101966858,-0.033189237117767334
1.3237797955559902,-0.09579241989596651,-0.2563844930757961,-2.278578281402588,-0.22074517607688904,0.07236766815185547,-0.023386627435684204,-0.9696462154388428,-0.24339137971401215,-0.013509120792150497,0.402232825756073,-0.09005884826183319
1.3010881724479841,-0.09510820942658907,-0.2602742673775127,-2.2504122257232666,-0.38369041681289673,0.17652922868728638,-0.025303462520241737,-0.9638487100601196,-0.26524651050567627,0.07379589974880219,0.4024776220321655,-0.20205381512641907
1.2793104414497847,-0.10083865941196672,-0.2584496642749172,-2.065661907196045,-0.3834419250488281,0.35803964734077454,-0.02892950549721718,-0.9578179121017456,-0.28591597080230713,0.11788825690746307,0.3890160322189331,-0.31940004229545593
1.2596282741343345,-0.11143522585241757,-0.250471341058356,-1.8034422397613525,-0.2083720862865448,0.5279927849769592,-0.03404764086008072,-0.9519765973091125,-0.30427175760269165,0.09007792174816132,0.3678700923919678,-0.3972509205341339
1.2421496434778754,-0.12470579085549184,-0.2378101263869353,-1.5981642007827759,-0.042996712028980255,0.6788981556892395,-0.0401461236178875,-0.9464800357818604,-0.32025617361068726,0.009826920926570892,0.3888627290725708,-0.40503978729248047
1.2255711886106504,-0.13981954203803812,-0.22164625546788674,-1.583240032196045,0.052576132118701935,0.8226951956748962,-0.04716213792562485,-0.9409992694854736,-0.3351062536239624,-0.05929844081401825,0.38609808683395386,-0.33350324630737305
1.2077605928863764,-0.15710886258735085,-0.20298017254475012,-1.7752561569213867,-0.03896550089120865,0.9926512241363525,-0.05556232109665871,-0.9348230957984924,-0.35074034333229065,-0.05434675142168999,0.3168725371360779,-0.2203350067138672
1.1871452177472743,-0.17768238630619684,-0.18253894734679704,-2.0518834590911865,-0.269283652305603,1.168062686920166,-0.06615869700908661,-0.9273041486740112,-0.36841580271720886,-0.019137926399707794,0.20057374238967896,-0.15938562154769897
1.1634610047139675,-0.20030952027380555,-0.16163381398436208,-2.2984728813171387,-0.37183505296707153,1.3014426231384277,-0.07882590591907501,-0.9181797504425049,-0.3882431983947754,-0.02595621347427368,0.06539630889892578,-0.1767745018005371
1.1371300536562017,-0.2212954441509604,-0.1420643708787822,-2.5289149284362793,-0.21158061921596527,1.35666823387146,-0.09223143011331558,-0.9074313044548035,-0.4099538326263428,-0.08844791352748871,-0.07581478357315063,-0.24135231971740723
1.1081240709015965,-0.23611985853975181,-0.12574255682505808,-2.822735548019409,0.20423336327075958,1.3358428478240967,-0.10441343486309052,-0.894862949848175,-0.433956503868103,-0.1637445092201233,-0.23349404335021973,-0.2907290756702423
1.0758742158831978,-0.24258241059368443,-0.11381850951489621,-3.205810785293579,0.6075608134269714,1.2620612382888794,-0.11409100145101547,-0.8800057172775269,-0.4610566198825836,-0.21841326355934143,-0.3775169253349304,-0.29565712809562683
1.0397849168941582,-0.24150230602280093,-0.10658849094039799,-3.6472973823547363,0.8400007486343384,1.1671909093856812,-0.12111283838748932,-0.8622953295707703,-0.4917098581790924,-0.24227522313594818,-0.5069980025291443,-0.2734726071357727
0.9998197948667493,-0.23632752129182902,-0.1029535534957661,-4.027032375335693,0.7884539365768433,1.108481526374817,-0.12653857469558716,-0.84137362241745,-0.5254318118095398,-0.24148817360401154,-0.6488303542137146,-0.27821803092956543
0.9571249242463911,-0.23114096653371188,-0.10115196321323855,-4.218002796173096,0.5353066325187683,1.0672595500946045,-0.13192574679851532,-0.8175392746925354,-0.5605579614639282,-0.2637804448604584,-0.7889061570167542,-0.3726541996002197
0.913185022142795,-0.227485227440821,-0.10081723059800334,-4.343558311462402,0.266817569732666,0.9492537975311279,-0.13784919679164886,-0.791454553604126,-0.5954807996749878,-0.35323965549468994,-0.9043768048286438,-0.5422907471656799
0.8709928081686399,-0.2239644195351622,-0.10248830110211617,-3.8775508403778076,0.19918392598628998,0.7341233491897583,-0.1430453062057495,-0.764968752861023,-0.6279816627502441,-0.4458218812942505,-1.035187005996704,-0.7415404319763184
0.8352106434061807,-0.21978190755089083,-0.10522234923436574,-3.209023952484131,0.2410632073879242,0.4831516444683075,-0.14629396796226501,-0.7414378523826599,-0.654880166053772,-0.4594342112541199,-1.1212788820266724,-1.0718196630477905
0.8067054267060686,-0.21390539269975928,-0.1091522520561294,-2.4590704441070557,0.36648425459861755,0.24354678392410278,-0.14687101542949677,-0.7220116257667542,-0.6761124730110168,-0.41723114252090454,-1.1326332092285156,-1.1472058296203613
0.7861378130741951,-0.20741337865277704,-0.11260022886306147,-1.6860383749008179,0.42454224824905396,0.16556416451931,-0.1455063372850418,-0.7076296210289001,-0.6914392709732056,-0.3148513436317444,-1.1190916299819946,-1.1486790180206299
0.7724546634395161,-0.20247858601730173,-0.11400818422029532,-1.06593918800354,0.35320228338241577,0.20600612461566925,-0.1440262645483017,-0.697895348072052,-0.701568603515625,-0.1853499859571457,-1.0879323482513428,-1.0574798583984375
0.7636324206951393,-0.20029316728986196,-0.1131135332333695,-0.6714211106300354,0.21013355255126953,0.27364057302474976,-0.143712118268013,-0.6915497779846191,-0.7078882455825806,-0.1249341368675232,-1.0324034690856934,-0.9024632573127747
0.7575290049574892,-0.2004743068050149,-0.11055003499093284,-0.4689713716506958,0.11550211906433105,0.3313709795475006,-0.14467817544937134,-0.6871283054351807,-0.7119852900505066,-0.08769795298576355,-0.9803828001022339,-0.7611439228057861
0.7528805626005091,-0.20177477810165345,-0.10711748196593851,-0.3476071059703827,0.10993929207324982,0.3376096487045288,-0.14624251425266266,-0.6837435960769653,-0.7149181365966797,-0.08343279361724854,-0.9530667662620544,-0.6658039093017578
0.7495940056668479,-0.20273729139147043,-0.1036916769167637,-0.19188250601291656,0.16717061400413513,0.2798832356929779,-0.1473822295665741,-0.6813416481018066,-0.7169742584228516,-0.1320672333240509,-0.9178863763809204,-0.6227778196334839
0.7482073548810363,-0.2028515623792642,-0.10076228052427287,0.015358278527855873,0.20638516545295715,0.1960219144821167,-0.14765436947345734,-0.680325984954834,-0.7178821563720703,-0.18987007439136505,-0.8563714623451233,-0.6013469099998474
0.7492430942988113,-0.2024561380680424,-0.09828383677002665,0.26718732714653015,0.20324397087097168,0.12255781888961792,-0.14722873270511627,-0.6810847520828247,-0.7172499299049377,-0.23062469065189362,-0.7853918075561523,-0.5807237029075623
0.7530026814467861,-0.20220887678748772,-0.095944169054141,0.5391107201576233,0.1676551103591919,0.06263463199138641,-0.14653606712818146,-0.6838327050209045,-0.7147727608680725,-0.25167256593704224,-0.7086691856384277,-0.5425971746444702
0.7593662468308091,-0.20225223827820688,-0.09366455394239322,0.7679142951965332,0.1388349086046219,0.011132295243442059,-0.1456899642944336,-0.68846195936203,-0.71048903465271,-0.2532968521118164,-0.6182550191879272,-0.47980326414108276
0.7677961219238655,-0.20227764345140511,-0.09170468365233762,0.9372669458389282,0.1318213790655136,-0.07160472869873047,-0.14453688263893127,-0.6945513486862183,-0.704774796962738,-0.2500554323196411,-0.5225202441215515,-0.4002971649169922
0.7776402060924037,-0.20214957290692012,-0.08999073659215023,1.0326091051101685,0.14064735174179077,-0.07910551875829697,-0.1430669128894806,-0.7015998363494873,-0.6980612874031067,-0.2464136928319931,-0.44761592149734497,-0.32427752017974854
0.7879559207327997,-0.2017041199207714,-0.08819569869140927,1.0362036228179932,0.2104661911725998,-0.08939383924007416,-0.14129841327667236,-0.7089130878448486,-0.6909971237182617,-0.22817791998386383,-0.3599804639816284,-0.24360358715057373
0.7980820759645629,-0.19998361338216794,-0.08694466131907994,0.9843059778213501,0.3164839446544647,-0.14695300161838531,-0.13867613673210144,-0.716018557548523,-0.6841683983802795,-0.24262575805187225,-0.2724763751029968,-0.1702473759651184
0.8076222827295745,-0.1964162365263017,-0.08682922684210354,0.8854297399520874,0.4107167422771454,-0.21689721941947937,-0.13489528000354767,-0.7226456999778748,-0.67792809009552,-0.2521286606788635,-0.21813499927520752,-0.1122024655342102
0.8161146532543548,-0.19124402432260637,-0.08810495972392683,0.7484010457992554,0.43010082840919495,-0.2804865539073944,-0.13021588325500488,-0.7284896373748779,-0.6725673079490662,-0.250567227602005,-0.18145304918289185,-0.06232643127441406
0.8234812506945844,-0.18534570529064506,-0.09060802354203246,0.6451748013496399,0.38087230920791626,-0.32871243357658386,-0.12525422871112823,-0.7335163950920105,-0.6680307984352112,-0.26303616166114807,-0.14534413814544678,-0.04096871614456177
0.8302285696655799,-0.17956831655854252,-0.09388121878430887,0.614448070526123,0.2949635088443756,-0.3553440570831299,-0.12050597369670868,-0.7380856275558472,-0.6638584733009338,-0.2710040509700775,-0.10998272895812988,-0.06026256084442139
0.8370600583119736,-0.1742154692832462,-0.09753142701574717,0.6526527404785156,0.2402392327785492,-0.37155553698539734,-0.11607399582862854,-0.742677628993988,-0.6595125794410706,-0.27716025710105896,-0.07557499408721924,-0.10794335603713989
0.8445189780736252,-0.16907519682586603,-0.10134811981939243,0.7383354306221008,0.22617562115192413,-0.38687989115715027,-0.1117471307516098,-0.7476517558097839,-0.6546216011047363,-0.2854391634464264,-0.04670560359954834,-0.15493333339691162
0.8529048803916539,-0.16367971118109068,-0.10534730842643843,0.8322206735610962,0.2621794044971466,-0.4158419370651245,-0.10718808323144913,-0.7531943917274475,-0.649006187915802,-0.31854742765426636,-0.02648407220840454,-0.19811594486236572
0.8622050282423596,-0.1571822456577408,-0.10986481084978315,0.9082562923431396,0.3690089285373688,-0.47181493043899536,-0.10186801850795746,-0.7592793703079224,-0.6427424550056458,-0.37756314873695374,-0.0047893524169921875,-0.22177469730377197
0.8721191091228789,-0.14834698516243913,-0.11546026712701009,0.9312212467193604,0.5507028102874756,-0.5476598739624023,-0.09506800770759583,-0.7656936645507812,-0.6361410021781921,-0.4236545264720917,0.017524659633636475,-0.20983672142028809
0.8818457708333576,-0.1366568279938519,-0.12249983026915577,0.8597531914710999,0.6998214721679688,-0.6204342246055603,-0.08660635352134705,-0.7719135880470276,-0.6298006176948547,-0.44735974073410034,0.03576850891113281,-0.1607571840286255
0.8905012363692809,-0.12258604650171033,-0.13102320172086124,0.7118745446205139,0.790212869644165,-0.6723235249519348,-0.07691640406847,-0.7773871421813965,-0.6243021488189697,-0.4542573094367981,0.053540587425231934,-0.109111487865448
0.897440619631289,-0.10678922351187652,-0.1407036549183022,0.5304709076881409,0.8629614114761353,-0.6887107491493225,-0.06646863371133804,-0.7817333936691284,-0.620060384273529,-0.44222891330718994,0.05758172273635864,-0.06963682174682617
0.902567914384205,-0.08982117506814975,-0.15099990765925939,0.3714554011821747,0.9254837036132812,-0.685359001159668,-0.0555780865252018,-0.7849205732345581,-0.6170988082885742,-0.4352056086063385,0.060066938400268555,-0.055417001247406006
0.9063423894477278,-0.07198172378400794,-0.16143721314774845,0.2873549163341522,1.0055763721466064,-0.6622169017791748,-0.04434772953391075,-0.7872536182403564,-0.6150326132774353,-0.41521647572517395,0.07823866605758667,-0.05990934371948242
0.9094832961319628,-0.0539130722719809,-0.1713880554311564,0.2697778046131134,1.0326510667800903,-0.6001860499382019,-0.033094871789216995,-0.7891865372657776,-0.613261342048645,-0.3702254593372345,0.08690065145492554,-0.05978858470916748
0.9125141194103391,-0.03684243378419797,-0.18029350132319927,0.29364293813705444,0.9720135927200317,-0.5243368148803711,-0.022533588111400604,-0.791044294834137,-0.6113437414169312,-0.3527410626411438,0.08936882019042969,-0.0517573356628418
0.9158771203586007,-0.021245448487496918,-0.1882038669778403,0.36292800307273865,0.899441123008728,-0.47213974595069885,-0.012939528562128544,-0.7930971384048462,-0.608957827091217,-0.3749236464500427,0.09175735712051392,-0.046422362327575684
0.920228062294629,-0.00664079671941935,-0.19580759176591211,0.5002976059913635,0.8139472603797913,-0.47020870447158813,-0.0040218946523964405,-0.7957397699356079,-0.6056254506111145,-0.40373870730400085,0.08986812829971313,-0.04354441165924072
0.9259380971482736,0.007182353856985224,-0.20377311981599705,0.6415039896965027,0.6819503307342529,-0.4944877624511719,0.004317169543355703,-0.7991849780082703,-0.6010697484016418,-0.41963091492652893,0.09010899066925049,-0.03453505039215088
0.9328724865246468,0.02039845012630736,-0.2125616866221146,0.7563394904136658,0.560987651348114,-0.5425194501876831,0.012147024273872375,-0.8033338785171509,-0.5954049825668335,-0.43225201964378357,0.0859571099281311,-0.020256519317626953
0.9407598781282418,0.03356180745212508,-0.222590235222962,0.8526193499565125,0.4645323157310486,-0.6016044616699219,0.01977004110813141,-0.8080060482025146,-0.5888424515724182,-0.4627937376499176,0.08499878644943237,-0.007837116718292236
0.9494583135500829,0.047008813457131544,-0.23394010682774188,0.9428581595420837,0.3935430943965912,-0.6561540365219116,0.02735486440360546,-0.813100278377533,-0.5814805626869202,-0.4861713945865631,0.09366357326507568,0.005903840065002441
0.9588428623265132,0.060977770807192806,-0.24638777133551518,1.0133832693099976,0.3809551000595093,-0.6793038249015808,0.03500804677605629,-0.8185274004936218,-0.5733999013900757,-0.4847608804702759,0.11129772663116455,0.02991241216659546
0.9686977195568619,0.07574452006727861,-0.2594676477632972,1.054984450340271,0.42779025435447693,-0.6726014614105225,0.042858678847551346,-0.8241488337516785,-0.564749538898468,-0.43807655572891235,0.1339021921157837,0.07404220104217529
0.978557479181539,0.0909772717812993,-0.2724496111700197,1.026723861694336,0.46667665243148804,-0.6193375587463379,0.05071531608700752,-0.8296930193901062,-0.5559115409851074,-0.38770565390586853,0.15400320291519165,0.1274753212928772
0.9877713792827487,0.1056676174941968,-0.284685133622194,0.9343392848968506,0.42695268988609314,-0.5546115636825562,0.05806729570031166,-0.8348010778427124,-0.5474810004234314,-0.35817715525627136,0.17110466957092285,0.16514158248901367
0.9959052861384335,0.1189754502975386,-0.29602806110134,0.8299787640571594,0.33661508560180664,-0.500362753868103,0.0645395964384079,-0.8392515778541565,-0.5398995280265808,-0.3515879213809967,0.17991924285888672,0.16972142457962036
1.003300755575661,0.130777749101218,-0.30669886366945065,0.7921717166900635,0.22495487332344055,-0.46771612763404846,0.07009570300579071,-0.8432497978210449,-0.532931923866272,-0.358074814081192,0.16345542669296265,0.14776968955993652
1.0105744660770166,0.14112281314669933,-0.3174382536437735,0.8169801831245422,0.0183904767036438,-0.4849250912666321,0.07474035769701004,-0.8471372127532959,-0.5260916352272034,-0.36323827505111694,0.14012116193771362,0.11906349658966064
1.0183208128172205,0.15023142384374935,-0.32967127136298263,0.9127197861671448,-0.28494569659233093,-0.5790286660194397,0.07854463905096054,-0.8512279987335205,-0.51888507604599,-0.33147433400154114,0.12703049182891846,0.08100366592407227
1.0270346961994066,0.15840525670754985,-0.3446847938412801,1.057141900062561,-0.6467981338500977,-0.7043339014053345,0.0816100463271141,-0.855768620967865,-0.5108814835548401,-0.2738402783870697,0.11574780941009521,0.05098170042037964
1.0369343491711802,0.16594178301436824,-0.36310546739544886,1.207761287689209,-1.0049371719360352,-0.8409510850906372,0.08405441045761108,-0.8608483076095581,-0.5018715858459473,-0.2311491221189499,0.12673264741897583,0.022700011730194092
1.0479883835919035,0.17308028681001603,-0.3845400409833374,1.3378721475601196,-1.251982569694519,-0.9101955890655518,0.085990771651268,-0.866420567035675,-0.49185487627983093,-0.1904371827840805,0.1651265025138855,-0.00661921501159668
1.0599713796179067,0.18001692343269815,-0.4073421224575119,1.4114006757736206,-1.3081984519958496,-0.8805980086326599,0.08753520250320435,-0.872341513633728,-0.4809969961643219,-0.14205484092235565,0.21946358680725098,-0.018255233764648438
1.0721795707804909,0.18683228284811423,-0.4296441025664357,1.3724929094314575,-1.222008466720581,-0.8004358410835266,0.08882642537355423,-0.8782448768615723,-0.46988925337791443,-0.11142468452453613,0.2775368094444275,-0.010350525379180908
1.0834859208876404,0.19396127849297298,-0.4505999907943879,1.215678334236145,-1.0435230731964111,-0.7303747534751892,0.09025420993566513,-0.8835954666137695,-0.45947080850601196,-0.09600676596164703,0.3079270124435425,0.02291691303253174
1.092755304480083,0.20165965015737167,-0.46996712398115226,0.952536404132843,-0.8539756536483765,-0.6723400950431824,0.09214416146278381,-0.8878978490829468,-0.45071831345558167,-0.06890499591827393,0.3135263919830322,0.06775331497192383
1.0991917384899352,0.20947824905499177,-0.4873182170797339,0.6335554718971252,-0.6728301048278809,-0.6263656616210938,0.0944749265909195,-0.890840470790863,-0.44438493251800537,-0.0540848970413208,0.305192768573761,0.10425132513046265
1.1024670166161854,0.21715006029808906,-0.502846375458674,0.30463486909866333,-0.5849366784095764,-0.6187477707862854,0.0972522422671318,-0.8923236727714539,-0.4407956302165985,-0.061104148626327515,0.29300397634506226,0.1286160945892334
1.1025687909809345,0.2239807339932906,-0.5173886262207418,0.012588903307914734,-0.6647383570671082,-0.6703022718429565,0.10024064034223557,-0.8923696279525757,-0.4400322139263153,-0.08019059151411057,0.27686047554016113,0.12179499864578247
1.1000567400333419,0.22971572514151914,-0.5322370098315106,-0.18508240580558777,-0.8441309332847595,-0.7623022794723511,0.1032726839184761,-0.8912330865859985,-0.441631555557251,-0.0973522737622261,0.24766308069229126,0.08124956488609314
1.0959630686528274,0.2347346212875759,-0.5485716813385787,-0.25450727343559265,-1.0739803314208984,-0.8851101994514465,0.10633555799722672,-0.8893689513206482,-0.44465234875679016,-0.10609138756990433,0.22120177745819092,0.022777438163757324
1.0914329470293251,0.23961002420822913,-0.5676221616037196,-0.199951633810997,-1.340311884880066,-1.0408644676208496,0.10945721715688705,-0.8872887492179871,-0.4480380117893219,-0.12157268077135086,0.20859295129776,-0.03993797302246094
1.0874331181135328,0.24527403654626123,-0.5905866698867726,-0.05770207196474075,-1.5913811922073364,-1.22645902633667,0.11285400390625,-0.8854368329048157,-0.4508500099182129,-0.0841674730181694,0.20210236310958862,-0.09022659063339233
1.0845550883319732,0.25265626847454253,-0.617694756209947,0.12116916477680206,-1.7119717597961426,-1.36927330493927,0.1168157160282135,-0.8840956091880798,-0.45247015357017517,0.01202952116727829,0.19749575853347778,-0.12466293573379517
1.08275015183508,0.26224683736648374,-0.6479135056167086,0.2369719296693802,-1.70723557472229,-1.4680933952331543,0.12156321853399277,-0.8832507133483887,-0.4528694748878479,0.10029958933591843,0.19744431972503662,-0.11846530437469482
1.081128677378536,0.2739657787628977,-0.6801617028926165,0.23741106688976288,-1.637458086013794,-1.5519676208496094,0.12724924087524414,-0.8824892044067383,-0.45279207825660706,0.15755608677864075,0.19512635469436646,-0.08694177865982056
1.0784282274407688,0.28787575886588845,-0.7136517408686581,0.11146192997694016,-1.4845333099365234,-1.6498042345046997,0.13421115279197693,-0.8812158703804016,-0.4532616138458252,0.18491119146347046,0.19344115257263184,-0.04956120252609253
1.0737492083249072,0.30402651622880894,-0.7481157629491076,-0.05563598871231079,-1.3755868673324585,-1.7775942087173462,0.1427466720342636,-0.8789944052696228,-0.4549642503261566,0.19848564267158508,0.19530898332595825,0.0027701258659362793
1.0668750438089705,0.3210131132889542,-0.7838747742845451,-0.19493742287158966,-1.5536085367202759,-1.9192485809326172,0.15235695242881775,-0.8756958842277527,-0.4581969082355499,0.24988001585006714,0.20380538702011108,0.057211220264434814
1.0582759535711124,0.3345130223798027,-0.8199496575465347,-0.2923039197921753,-2.0900566577911377,-1.952164649963379,0.16099479794502258,-0.8715113401412964,-0.4631941020488739,0.4252631664276123,0.2033746838569641,0.10682517290115356
1.0492431390661272,0.33987745943920145,-0.853885392272009,-0.2827852666378021,-2.7271738052368164,-1.8129949569702148,0.16609492897987366,-0.8670463562011719,-0.4697267711162567,0.6914490461349487,0.1800040602684021,0.10157805681228638
1.0415562381623467,0.3359591341412515,-0.8837016127183686,-0.16156402230262756,-3.1955807209014893,-1.5298188924789429,0.16644546389579773,-0.8631910085678101,-0.47665226459503174,0.9152958989143372,0.1731579303741455,0.046262919902801514
1.0365511127013791,0.32389562071667505,-0.9081355264258314,0.020006299018859863,-3.401110887527466,-1.150546908378601,0.16205637156963348,-0.8606532216072083,-0.4827151298522949,1.0595470666885376,0.2117273211479187,-0.0353359580039978
1.0346841125762232,0.3057283694065265,-0.9262778025256903,0.18290388584136963,-3.3336293697357178,-0.7459774017333984,0.15374384820461273,-0.8597010374069214,-0.48711082339286804,1.1202887296676636,0.2638300657272339,-0.11771699786186218
1.035514851427599,0.2834843900325961,-0.9376769715875366,0.3173898160457611,-3.061912775039673,-0.3320798873901367,0.1426716148853302,-0.8601250648498535,-0.4897240400314331,1.1388835906982422,0.277681827545166,-0.15129759907722473
1.0385481681646396,0.2585728758279705,-0.9421345016596463,0.37680327892303467,-2.6890783309936523,0.04139555245637894,0.12976112961769104,-0.8616683483123779,-0.49060142040252686,1.1425625085830688,0.24734944105148315,-0.18681246042251587
1.042456713504759,0.2321401916313393,-0.94023218302348,0.3191985785961151,-2.275209903717041,0.3146457374095917,0.11597370356321335,-0.8636452555656433,-0.4905783236026764,1.0902793407440186,0.20367205142974854,-0.17945030331611633
1.0458808984863002,0.20559196080684394,-0.9334479805649374,0.199946790933609,-1.8749138116836548,0.4839838445186615,0.1023060604929924,-0.8653663396835327,-0.4905861020088196,1.0035136938095093,0.16297364234924316,-0.14898598194122314
1.048354063814831,0.18036021488746,-0.9236757369996782,0.10433583706617355,-1.4838004112243652,0.5613143444061279,0.08951228111982346,-0.8666030764579773,-0.4909040927886963,0.9097095131874084,0.10555559396743774,-0.15120095014572144
1.0500312080503442,0.15820118563856272,-0.9128910293793985,0.049842268228530884,-1.0819371938705444,0.5462073087692261,0.0783841535449028,-0.8674387335777283,-0.49133095145225525,0.8027803897857666,0.032584547996520996,-0.17863667011260986
1.0511712839248537,0.14061058180842126,-0.9027286077291746,0.027455734089016914,-0.6794895529747009,0.4879853129386902,0.06959100067615509,-0.8680054545402527,-0.49165403842926025,0.6892591118812561,-0.03185117244720459,-0.19384697079658508
1.0519819119802867,0.1278011822912287,-0.8937814170382591,0.013249590992927551,-0.3413327634334564,0.4176517128944397,0.06319796293973923,-0.868407666683197,-0.4918070137500763,0.5984994173049927,-0.07592827081680298,-0.19856154918670654
1.0524876764010636,0.1190583402226618,-0.8860677082810974,-0.0047696237452328205,-0.07648728042840958,0.35690394043922424,0.058843646198511124,-0.8686583638191223,-0.4919046461582184,0.5098056793212891,-0.10532552003860474,-0.18402910232543945
1.0527661600057663,0.11371306724981928,-0.8794865239288692,-0.010138796642422676,0.14897669851779938,0.2992178499698639,0.056185998022556305,-0.8687962889671326,-0.4919717311859131,0.4127623736858368,-0.13356882333755493,-0.16847431659698486
1.0530437504429213,0.11165331478455483,-0.8742771632616241,0.00879601202905178,0.3368890583515167,0.21847932040691376,0.055145666003227234,-0.8689336776733398,-0.4918467402458191,0.31457480788230896,-0.14806461334228516,-0.15317270159721375
1.0534862049688336,0.11272853641356798,-0.8709159835711219,0.04521764814853668,0.4502289593219757,0.12360437214374542,0.05563122406601906,-0.8691526055335999,-0.49140509963035583,0.24154895544052124,-0.15108060836791992,-0.1298411786556244
1.0542998766356027,0.11596868345345246,-0.8694462181800955,0.10585170239210129,0.44714078307151794,0.043565455824136734,0.05714131146669388,-0.8695546984672546,-0.4905197024345398,0.19900798797607422,-0.15756022930145264,-0.10654136538505554
1.0557542023169162,0.12001166293370216,-0.8692301094429293,0.18179574608802795,0.40162786841392517,0.021785693243145943,0.058972522616386414,-0.8702719807624817,-0.4890285134315491,0.17785915732383728,-0.1577126383781433,-0.09783965349197388
1.0579809000993925,0.1236216900361254,-0.8689056884808775,0.2556268274784088,0.38284140825271606,0.0741780623793602,0.060498446226119995,-0.8713666200637817,-0.48688822984695435,0.1703365296125412,-0.13824641704559326,-0.0954023003578186
1.0609561044947546,0.12590261022439608,-0.8669733704825496,0.3099544942378998,0.4216010570526123,0.19329504668712616,0.06128304451704025,-0.8728225231170654,-0.4841749668121338,0.15510186553001404,-0.10413682460784912,-0.09808510541915894
1.064540813570121,0.12653990980799062,-0.8626048239675609,0.3489266633987427,0.4731156527996063,0.31812992691993713,0.06119634211063385,-0.874566376209259,-0.4810289442539215,0.11214353144168854,-0.07630044221878052,-0.09779787063598633
1.068587513550566,0.1256580565851549,-0.8560022006686658,0.37973520159721375,0.5028884410858154,0.41605961322784424,0.06032807379961014,-0.8765214681625366,-0.477567583322525,0.04843660444021225,-0.07359766960144043,-0.08668708801269531
1.0731146222183259,0.12359158343975825,-0.8479658728600535,0.4267706274986267,0.49401503801345825,0.45272016525268555,0.058851297944784164,-0.8786916732788086,-0.4737486243247986,-0.019300490617752075,-0.09852707386016846,-0.07169193029403687
1.0781355082744482,0.12145137599443757,-0.8400166154034542,0.4809286594390869,0.4747167229652405,0.41310372948646545,0.05730200558900833,-0.8810774683952332,-0.4694882035255432,-0.09497594833374023,-0.1400255560874939,-0.05930507183074951
1.0834945840825547,0.12042538938675507,-0.8336699363259529,0.5086873173713684,0.440939337015152,0.2998139262199402,0.05625221133232117,-0.8835995197296143,-0.46485230326652527,-0.15926426649093628,-0.17711526155471802,-0.047430962324142456
1.0887926357918722,0.12183862252414714,-0.8303318196864451,0.5033591389656067,0.4428040385246277,0.13747769594192505,0.05633935704827309,-0.8860678672790527,-0.4601193070411682,-0.2067299485206604,-0.21457916498184204,-0.04035365581512451
1.0937093111403655,0.12659421162670764,-0.8304600063929302,0.47760850191116333,0.49284565448760986,-0.02162354253232479,0.05797610431909561,-0.8883363008499146,-0.4555189609527588,-0.21016724407672882,-0.2546080946922302,-0.033403098583221436
1.0980878768675282,0.13457317716064837,-0.8334090317581677,0.42625582218170166,0.5824147462844849,-0.12612929940223694,0.06108633801341057,-0.8903384208679199,-0.4511830508708954,-0.16776052117347717,-0.29409468173980713,-0.022724390029907227
1.1017181669621678,0.1449831246047206,-0.8379636062559498,0.3505573272705078,0.6924959421157837,-0.17894750833511353,0.06531229615211487,-0.8919854164123535,-0.44732123613357544,-0.12474526464939117,-0.3406500816345215,-0.01678997278213501
1.104477172912682,0.15722299041642537,-0.8434103659404727,0.27159807085990906,0.7810250520706177,-0.22711621224880219,0.07039685547351837,-0.8932292461395264,-0.4440562427043915,-0.11087841540575027,-0.3958028554916382,-0.029408633708953857
1.1064638114841432,0.17119603480044882,-0.850043286118816,0.22252053022384644,0.8210979104042053,-0.29811421036720276,0.07629211246967316,-0.8941206932067871,-0.44127964973449707,-0.12107664346694946,-0.45503097772598267,-0.05756059288978577
1.1079846404642641,0.18693591889329753,-0.8586913698393511,0.22843195497989655,0.7739617228507996,-0.41754791140556335,0.08297526836395264,-0.8948007225990295,-0.43868768215179443,-0.13110145926475525,-0.5132498741149902,-0.0979790985584259
1.109543446360754,0.20482682976133323,-0.8705917673534762,0.29144662618637085,0.6718233823776245,-0.570039689540863,0.0905262902379036,-0.895495593547821,-0.43576693534851074,-0.128490149974823,-0.569546639919281,-0.14641684293746948
1.111401794475948,0.2253442587972679,-0.8867662220625192,0.38821497559547424,0.5343837738037109,-0.7596529722213745,0.09907543659210205,-0.8963211178779602,-0.432195246219635,-0.11045848578214645,-0.6203415989875793,-0.20199048519134521
1.1137187581940098,0.24894456747332816,-0.9077568462504502,0.5002411603927612,0.4371868968009949,-0.9361534714698792,0.1087348461151123,-0.8973460793495178,-0.42772290110588074,-0.07753061503171921,-0.660423755645752,-0.2642936408519745
1.1165364726123532,0.27600438832163954,-0.9330395056962065,0.6233388185501099,0.44914689660072327,-1.066754698753357,0.11957823485136032,-0.8985860347747803,-0.42218995094299316,-0.027216754853725433,-0.6709178686141968,-0.31751030683517456
1.1197629450447044,0.3069557811121623,-0.9621734400476878,0.7266198992729187,0.5033592581748962,-1.198106288909912,0.13170947134494781,-0.8999971151351929,-0.41552114486694336,0.01915419101715088,-0.6589323878288269,-0.35014957189559937
1.1228948058063255,0.34233443728272944,-0.9955220714947914,0.7872185707092285,0.5699366927146912,-1.3564625978469849,0.14537769556045532,-0.901357889175415,-0.4079453945159912,0.02204175293445587,-0.635034441947937,-0.346662700176239
1.1252611254042413,0.3821892161676113,-1.0331182244446753,0.8062455058097839,0.6150586605072021,-1.5189156532287598,0.16072063148021698,-0.9023801684379578,-0.39984890818595886,0.009872660040855408,-0.6018466353416443,-0.325187623500824
1.1263588453947635,0.4254255720188486,-1.0742110127479532,0.7849738001823425,0.6148810386657715,-1.6504935026168823,0.17744417488574982,-0.9028526544570923,-0.3916260004043579,0.020065635442733765,-0.5551705956459045,-0.2937835454940796
1.125965203752565,0.4707188968408923,-1.1174073351513252,0.7567881941795349,0.6568604707717896,-1.7348049879074097,0.1951553225517273,-0.9026833176612854,-0.38350677490234375,0.05461582541465759,-0.4932823181152344,-0.259178102016449
1.1242682406997118,0.5173563076419024,-1.1614225981545439,0.7474160194396973,0.7343541383743286,-1.769129991531372,0.2135797142982483,-0.9019518494606018,-0.3753223419189453,0.08846805989742279,-0.42315202951431274,-0.2337321639060974
1.1215221765034664,0.5647450181228614,-1.205221166773741,0.7326841950416565,0.8572915196418762,-1.7644445896148682,0.23244406282901764,-0.9007625579833984,-0.3668743968009949,0.11092449724674225,-0.34380537271499634,-0.19768548011779785
1.1177795173521679,0.6119150794098609,-1.2474152622473638,0.6854839324951172,0.9849722385406494,-1.7103863954544067,0.2514193654060364,-0.8991308212280273,-0.35826295614242554,0.132705420255661,-0.2609797716140747,-0.1420269012451172
1.1131464145951298,0.657367223077276,-1.2864148285257062,0.6009395122528076,1.1042087078094482,-1.6006462574005127,0.26998046040534973,-0.8970933556556702,-0.34976324439048767,0.15894412994384766,-0.19084316492080688,-0.08151108026504517
1.107817946673503,0.6997416284477457,-1.320675346632258,0.48446428775787354,1.2372856140136719,-1.4416359663009644,0.28762897849082947,-0.8947262763977051,-0.34166428446769714,0.19419780373573303,-0.1374087929725647,-0.032191187143325806
1.1022013537984654,0.7383421353451262,-1.3493475851466625,0.3730890154838562,1.3625221252441406,-1.2414687871932983,0.3039775788784027,-0.8922037482261658,-0.3340214788913727,0.24059340357780457,-0.10721653699874878,0.0012273788452148438
1.0967900250999758,0.7733511402245442,-1.372721669398977,0.3011000454425812,1.4790300130844116,-1.054050326347351,0.318850576877594,-0.8897467255592346,-0.3266270160675049,0.2723970413208008,-0.08908945322036743,0.013409972190856934
1.0919112355530562,0.8054171435526999,-1.3916731127218878,0.24440933763980865,1.5601719617843628,-0.8656333088874817,0.3322848081588745,-0.8875092267990112,-0.3192402124404907,0.2827207148075104,-0.05887150764465332,0.024226903915405273
1.0876951136014243,0.8335775435353159,-1.4061155333205033,0.15106423199176788,1.5050641298294067,-0.6618314981460571,0.3439091444015503,-0.8855586051940918,-0.3122703433036804,0.2768184542655945,-0.030426621437072754,0.0628654956817627
1.0841613012642644,0.8562636319414637,-1.415502819893481,0.03309977799654007,1.3670905828475952,-0.4516492187976837,0.35326579213142395,-0.8839114904403687,-0.306437224149704,0.27483177185058594,-0.022048592567443848,0.10027584433555603
1.0813665072632883,0.8730279163656108,-1.4201057961252521,-0.061565518379211426,1.1710561513900757,-0.2580757141113281,0.36024463176727295,-0.8826010823249817,-0.3020581901073456,0.26240554451942444,-0.015256643295288086,0.10705098509788513
1.0794916157036063,0.8844423182449558,-1.4212728538295016,-0.07933439314365387,0.9046737551689148,-0.10656953603029251,0.36494848132133484,-0.881718099117279,-0.2989749014377594,0.22423917055130005,-0.005061805248260498,0.06676673889160156
1.0788286875079476,0.8922767380246555,-1.421428262794828,0.023608507588505745,0.6452359557151794,-0.013332339003682137,0.36773452162742615,-0.8814051151275635,-0.2964733839035034,0.16900867223739624,-0.0010870099067687988,-0.01952075958251953
1.0796639801029853,0.8994063972377001,-1.4234547927295624,0.23876528441905975,0.4329429268836975,0.023336725309491158,0.36926236748695374,-0.8817993998527527,-0.29338598251342773,0.12388646602630615,0.004342615604400635,-0.11702960729598999
1.0822090093409356,0.9082173416878251,-1.4293409141115456,0.5135800838470459,0.3057287633419037,0.03727929666638374,0.3700625002384186,-0.8829967975616455,-0.2887396514415741,0.11255776882171631,0.022538363933563232,-0.19471973180770874
1.0866125559152124,0.9206314801606484,-1.4396981674602025,0.7894771695137024,0.3594290018081665,0.07350627332925797,0.3705196976661682,-0.8850551843643188,-0.2817671000957489,0.11815834045410156,0.0505061149597168,-0.23460549116134644
1.0927673230945911,0.937222478531126,-1.4539271932362057,0.989968478679657,0.4393099546432495,0.12860548496246338,0.3707461357116699,-0.8879033923149109,-0.27235114574432373,0.12955909967422485,0.10259443521499634,-0.22130107879638672
1.1003142928801033,0.9564766604863377,-1.4701013850701858,1.081191062927246,0.532518744468689,0.24190302193164825,0.37043464183807373,-0.8913498520851135,-0.26129278540611267,0.15431517362594604,0.1471480131149292,-0.17002734541893005
1.10925636705607,0.9762706767474937,-1.4859142072445588,1.1050997972488403,0.5997582674026489,0.42949941754341125,0.36891570687294006,-0.8953678011894226,-0.24943503737449646,0.18801486492156982,0.17213165760040283,-0.10902433097362518
1.119867899333922,0.9953159997101244,-1.5001376357523262,1.1195011138916016,0.656464159488678,0.6564124226570129,0.3656071722507477,-0.9000428915023804,-0.23717951774597168,0.21402844786643982,0.20025962591171265,-0.06532587110996246
1.13257526867235,1.0132153148669103,-1.5126809694376495,1.1622172594070435,0.6536515951156616,0.9187069535255432,0.3600596487522125,-0.9055079817771912,-0.2245277315378189,0.23086753487586975,0.22989434003829956,-0.03171303868293762
1.1478690625884163,1.029258934786367,-1.5235456745633875,1.212174415588379,0.5778065919876099,1.222019910812378,0.35170626640319824,-0.9118914008140564,-0.21155883371829987,0.2510007321834564,0.25655674934387207,0.005214303731918335
1.1659384330844005,1.0424379318450687,-1.5324252752597227,1.2436788082122803,0.4269561469554901,1.5200488567352295,0.3401760756969452,-0.919158399105072,-0.1985655277967453,0.2501865029335022,0.26849299669265747,0.05151665210723877
1.1862962233455645,1.0519557177545797,-1.5390223367194567,1.2333720922470093,0.2656239867210388,1.7459385395050049,0.3257313370704651,-0.926986038684845,-0.18600019812583923,0.2063884437084198,0.26965266466140747,0.09014458954334259
1.2079100298121597,1.0579998744696661,-1.5432016960680182,1.1653621196746826,0.17960494756698608,1.8549895286560059,0.3093160092830658,-0.9348761439323425,-0.17415601015090942,0.12256881594657898,0.27041685581207275,0.11319726705551147
1.229370586040526,1.06094552438372,-1.5444931877555104,1.0059781074523926,0.16829636693000793,1.8363045454025269,0.2922460436820984,-0.942278265953064,-0.1634131371974945,0.01697331666946411,0.26541364192962646,0.12282486259937286
1.2489953929880402,1.0604625695836902,-1.542146322495734,0.7792226672172546,0.186848446726799,1.6476919651031494,0.27597641944885254,-0.9486673474311829,-0.15449076890945435,-0.14546796679496765,0.22118926048278809,0.0964464545249939
1.2650913172387508,1.0589719305268308,-1.5380210820256757,0.5903909802436829,0.3136029541492462,1.2688077688217163,0.2623980939388275,-0.9536349773406982,-0.1474038064479828,-0.33808162808418274,0.16031521558761597,0.02631014585494995
1.2766867481792616,1.0624055660367056,-1.5373147008371273,0.5219823718070984,0.5274813771247864,0.771592378616333,0.2532256245613098,-0.9570606350898743,-0.141109436750412,-0.43305039405822754,0.09977602958679199,-0.04899972677230835
1.2837359164292177,1.0754042335912084,-1.543942033160701,0.4946221113204956,0.7958662509918213,0.29315465688705444,0.24909669160842896,-0.9590803384780884,-0.13459549844264984,-0.40906980633735657,0.03841066360473633,-0.09276038408279419
1.286845765929767,1.0963164142260677,-1.5567980959749448,0.43656790256500244,0.8979862332344055,-0.06396785378456116,0.24920237064361572,-0.959956169128418,-0.12799398601055145,-0.31388434767723083,-0.014897406101226807,-0.0847286581993103
1.2868673994084627,1.1198697928000891,-1.572152956697127,0.33430251479148865,0.862238347530365,-0.30226242542266846,0.2521290183067322,-0.9599622488021851,-0.12208044528961182,-0.22222179174423218,-0.006972014904022217,-0.048588983714580536
1.2845804311793771,1.1419094998959256,-1.5864975879300374,0.19452857971191406,0.7882972955703735,-0.4480692446231842,0.25675395131111145,-0.9593191146850586,-0.11740700155496597,-0.16945841908454895,0.05250447988510132,-0.01679389923810959
1.280585050035186,1.1590106787542183,-1.5969378245267625,0.028841610997915268,0.6188150644302368,-0.5203312039375305,0.26223453879356384,-0.9581834673881531,-0.1145324632525444,-0.15813905000686646,0.11952978372573853,-0.01458728313446045
1.2755359871556304,1.170017050777037,-1.6033385526103785,-0.07791733741760254,0.34955033659935,-0.5548095703125,0.26793038845062256,-0.9567264318466187,-0.11352535337209702,-0.16177499294281006,0.17187529802322388,-0.030975274741649628
1.2698967834402513,1.1763470936491436,-1.607689302183903,-0.11490358412265778,0.09597690403461456,-0.5919473767280579,0.27362051606178284,-0.9550702571868896,-0.11389877647161484,-0.16819748282432556,0.19800525903701782,-0.0653003603219986
1.2636476772349563,1.1805520007438444,-1.6120577753816672,-0.11891565471887589,-0.08212330937385559,-0.6733481884002686,0.2796110212802887,-0.9531995058059692,-0.11501535028219223,-0.1968015432357788,0.21003538370132446,-0.11655193567276001
1.2565741020106245,1.1848358026241192,-1.61789737599207,-0.07668617367744446,-0.15134258568286896,-0.7780961990356445,0.2863405644893646,-0.9510370492935181,-0.11635182797908783,-0.21413594484329224,0.2189660668373108,-0.17495357990264893
1.2486924609778636,1.1921800268695644,-1.6267433156418218,0.0060060890391469,-0.03995753824710846,-0.8924378752708435,0.29414302110671997,-0.948571503162384,-0.11701278388500214,-0.21108943223953247,0.23641330003738403,-0.23192505538463593
1.2402623882003254,1.2045386294073388,-1.6392242529374277,0.13144683837890625,0.1506422460079193,-0.9675880074501038,0.3030222952365875,-0.9458692073822021,-0.11622847616672516,-0.17266646027565002,0.24849671125411987,-0.2700018882751465
1.2318475053116908,1.2227344932532422,-1.655665371275251,0.3007469177246094,0.3825007677078247,-0.980178713798523,0.31255829334259033,-0.9431046843528748,-0.11340665817260742,-0.12489038705825806,0.2733200788497925,-0.287044882774353
1.2242854698662755,1.246920993006251,-1.6763926510369793,0.524996817111969,0.5389001965522766,-0.8971216678619385,0.32196155190467834,-0.940563440322876,-0.1080811619758606,-0.06749069690704346,0.3020898103713989,-0.27904945611953735
1.2186274670564219,1.2758549242192787,-1.7014929063252726,0.7680968046188354,0.5029057264328003,-0.6931625008583069,0.33004021644592285,-0.9386268258094788,-0.1002669483423233,0.012840092182159424,0.3332037329673767,-0.23734891414642334
1.2157654678906469,1.3066300399989907,-1.7302700919012457,0.9888795018196106,0.22834770381450653,-0.40421169996261597,0.3355610966682434,-0.9376357793807983,-0.09076512604951859,0.07041430473327637,0.37170231342315674,-0.14872145652770996
1.2160532847664862,1.3362989456679004,-1.761574092411861,1.1285673379898071,-0.1765424758195877,-0.07493697851896286,0.33784323930740356,-0.9377357959747314,-0.08070816099643707,0.08383345603942871,0.4048835039138794,-0.05033421516418457
1.219397303997619,1.3626203861204509,-1.7937834533472425,1.1840626001358032,-0.5973232984542847,0.23403896391391754,0.3367806375026703,-0.9388920664787292,-0.07114028185606003,0.07317730784416199,0.4241366386413574,0.03261195868253708
1.2252029189596492,1.3848782308042018,-1.825322169578133,1.1510601043701172,-0.858148455619812,0.4752148687839508,0.33291783928871155,-0.9408745765686035,-0.06261859834194183,0.021131902933120728,0.4412558674812317,0.08773469179868698
1.2325881719336227,1.403382221714185,-1.85454073593185,1.033466100692749,-0.9297321438789368,0.6280195713043213,0.32715874910354614,-0.9433507323265076,-0.055288489907979965,-0.05036425590515137,0.447653591632843,0.11325675249099731
1.2406076141401516,1.4183616826279304,-1.8800074455337443,0.8695660829544067,-0.8727665543556213,0.6828389763832092,0.32046234607696533,-0.9459812045097351,-0.04923147335648537,-0.12862879037857056,0.44207483530044556,0.11354738473892212
1.2483188642246152,1.4301490498820124,-1.9007189377792029,0.6708855032920837,-0.6811617016792297,0.6397085189819336,0.31378814578056335,-0.9484531879425049,-0.04442678019404411,-0.22051113843917847,0.43606293201446533,0.09478092193603516
1.2549454191316343,1.4392225566490422,-1.915963488285088,0.4574049115180969,-0.3923102021217346,0.5412449836730957,0.307941198348999,-0.9505324363708496,-0.04075241833925247,-0.30539292097091675,0.4333813190460205,0.07827389240264893
1.2602505289492252,1.4457779813020688,-1.9252657297597502,0.2545791268348694,-0.06811481714248657,0.4470135569572449,0.3031942546367645,-0.9521669149398804,-0.03810356557369232,-0.34469807147979736,0.41884148120880127,0.07716619968414307
1.2645377096855408,1.450002341164959,-1.9289245382830331,0.08070296049118042,0.20121514797210693,0.3826030194759369,0.29929691553115845,-0.9534682631492615,-0.03633013740181923,-0.32856321334838867,0.3958051800727844,0.07682710886001587
1.268196055098542,1.4522018624813586,-1.9283123846117167,-0.018798064440488815,0.33679986000061035,0.3514310121536255,0.2959100604057312,-0.9545648097991943,-0.03525875136256218,-0.2882501482963562,0.3754022717475891,0.07419931888580322
1.2716393442568903,1.4532957828539805,-1.9258623540144697,-0.033898208290338516,0.3359902799129486,0.3587566018104553,0.2926830053329468,-0.9555853009223938,-0.03454956039786339,-0.2325328290462494,0.34628647565841675,0.07712173461914062
1.2755359165790658,1.4545210510552886,-1.9241493389818418,0.04081277921795845,0.22417481243610382,0.4389989972114563,0.28902462124824524,-0.9567263722419739,-0.03375869616866112,-0.17290520668029785,0.3271944522857666,0.07822293043136597
1.280576811779978,1.4575316474399422,-1.9259357894156557,0.17903031408786774,0.026113644242286682,0.5526049137115479,0.28432905673980713,-0.9581810832023621,-0.03234286606311798,-0.12325727939605713,0.33119744062423706,0.08280378580093384
1.286726636082026,1.4623383834170074,-1.93201421636217,0.2964794337749481,-0.22620488703250885,0.6301724314689636,0.27861788868904114,-0.9599227905273438,-0.030337370932102203,-0.09557345509529114,0.31957244873046875,0.09921568632125854
1.293462385432113,1.4678805322300232,-1.9412962248786976,0.3526681363582611,-0.4390353858470917,0.6492762565612793,0.2723444700241089,-0.9617887735366821,-0.028127925470471382,-0.090230792760849,0.29620033502578735,0.11343991756439209
1.3000886900070203,1.473341982755485,-1.9520710904616108,0.35980966687202454,-0.5253633856773376,0.6090537309646606,0.26614513993263245,-0.963581919670105,-0.026019424200057983,-0.09948861598968506,0.28641200065612793,0.12076139450073242
1.3062150447250995,1.4789250698421634,-1.963111324405919,0.3379856050014496,-0.4766690731048584,0.5577751398086548,0.26040297746658325,-0.9652020931243896,-0.023991083726286888,-0.09659984707832336,0.2741314172744751,0.11824476718902588
1.3117117347946379,1.4847480080376647,-1.973303032214511,0.2786703407764435,-0.32287469506263733,0.4873148500919342,0.25524863600730896,-0.966624915599823,-0.022018086165189743,-0.06545978784561157,0.25849491357803345,0.1208035945892334
1.3163082898130962,1.489051117505255,-1.980289571331878,0.14844685792922974,-0.17260214686393738,0.4012760519981384,0.2509096562862396,-0.9677923321723938,-0.02055647037923336,-0.03322771191596985,0.24704331159591675,0.14221489429473877
1.3199181139856258,1.4894359455569357,-1.9818765267704144,-0.014895197004079819,-0.06525144726037979,0.32073113322257996,0.24743443727493286,-0.9686947464942932,-0.02017589844763279,0.0007803440093994141,0.2370356321334839,0.1665993332862854
1.3227706113878266,1.484394578273284,-1.977084014153295,-0.16961321234703064,-0.021054329350590706,0.2756974995136261,0.2445751279592514,-0.9693989753723145,-0.021184461191296577,0.046837255358695984,0.24254649877548218,0.17658007144927979
1.3252648796277704,1.4740011045263886,-1.9665336859628364,-0.2929316759109497,-0.015252899378538132,0.2761923372745514,0.24193409085273743,-0.9700082540512085,-0.023491475731134415,0.09403392672538757,0.24956458806991577,0.16298741102218628
1.327717766938507,1.459319572543274,-1.951638962945344,-0.3638308346271515,-0.03589005768299103,0.29701289534568787,0.2391977459192276,-0.9706016182899475,-0.026775995269417763,0.1323995590209961,0.250615656375885,0.12923890352249146
1.3302614819606962,1.4427199238816997,-1.9351203147360838,-0.35234248638153076,-0.08080080896615982,0.3216407597064972,0.23627157509326935,-0.9712107181549072,-0.030427368357777596,0.15468914806842804,0.2508279085159302,0.08061361312866211
1.3330284258721787,1.4266812628828636,-1.9197749400388127,-0.2923164367675781,-0.1457265317440033,0.3381003737449646,0.23309291899204254,-0.9718661308288574,-0.03382670879364014,0.17755162715911865,0.23369157314300537,0.04112052917480469
1.335936366450196,1.4122981893383957,-1.9068741783738714,-0.22136026620864868,-0.2282184660434723,0.33859679102897644,0.22978991270065308,-0.9725469350814819,-0.0367293581366539,0.19223769009113312,0.21951043605804443,0.01902926340699196
1.3389446500523299,1.3992573201940097,-1.8963384682625515,-0.16556595265865326,-0.32712510228157043,0.34274569153785706,0.22640810906887054,-0.9732425808906555,-0.03922330215573311,0.22177307307720184,0.20831942558288574,0.004036668688058853
1.342102284431235,1.3870129003283143,-1.887343811787663,-0.12803110480308533,-0.3597107529640198,0.35682183504104614,0.2228880524635315,-0.9739633202552795,-0.04143064096570015,0.2685365080833435,0.18609094619750977,-0.009792979806661606
1.3454292771296843,1.375865831045664,-1.8792413539879569,-0.11056015640497208,-0.2791272699832916,0.3659813106060028,0.2192329317331314,-0.9747121334075928,-0.043284822255373,0.30525749921798706,0.15197330713272095,-0.01874202862381935
1.348715023698789,1.3659035927100598,-1.8710837243908651,-0.12064847350120544,-0.11469520628452301,0.3552306592464447,0.21565362811088562,-0.9754411578178406,-0.04481474682688713,0.30998116731643677,0.10964208841323853,-0.010040462017059326
1.3517428644253062,1.3555737740403013,-1.8607597398646283,-0.20185232162475586,0.05986176058650017,0.33601027727127075,0.21229271590709686,-0.9761036038398743,-0.04640896990895271,0.3001890182495117,0.08825558423995972,0.0059275031089782715
1.3542966794985483,1.3424770983480474,-1.8459316599562925,-0.3141365349292755,0.20981396734714508,0.3020398020744324,0.20923760533332825,-0.9766553640365601,-0.04862077906727791,0.26813358068466187,0.07154977321624756,0.015219397842884064
1.3560326513557586,1.3259998969411657,-1.82639233455035,-0.4076286554336548,0.30294981598854065,0.23304970562458038,0.20676349103450775,-0.9770267605781555,-0.051650840789079666,0.20060044527053833,0.05029940605163574,0.005081117153167725
1.3567350738548787,1.3082400733134718,-1.8049783836385032,-0.4307166635990143,0.31970295310020447,0.12771156430244446,0.20515058934688568,-0.9771762490272522,-0.055136390030384064,0.13254167139530182,0.023395001888275146,-0.024804294109344482
1.3561477412209606,1.2925805780605482,-1.7861374223706727,-0.3591148853302002,0.21293090283870697,-0.027184830978512764,0.2048138976097107,-0.977051317691803,-0.058499667793512344,0.0857439935207367,-0.013366281986236572,-0.061876773834228516
1.3542771479883517,1.2830365530699344,-1.7753959767016363,-0.17517752945423126,-0.03687254711985588,-0.1979115754365921,0.20599821209907532,-0.976651132106781,-0.060970257967710495,0.09424901008605957,-0.053820669651031494,-0.09941476583480835
1.3515211062053578,1.2823139778141337,-1.7767371976419382,0.08091362565755844,-0.37901443243026733,-0.3384752571582794,0.20853401720523834,-0.976055383682251,-0.06188470870256424,0.13796260952949524,-0.07498538494110107,-0.1400957703590393
1.348421473674109,1.291327845563474,-1.7916493103280475,0.3777615427970886,-0.7194721698760986,-0.42587754130363464,0.21199046075344086,-0.9753764271736145,-0.0608367994427681,0.20516960322856903,-0.06019192934036255,-0.18962085247039795
1.3455580482891984,1.3112171661147483,-1.8201443950038456,0.6863132119178772,-0.8089209794998169,-0.45481806993484497,0.21585658192634583,-0.9747409224510193,-0.05732524022459984,0.2916507422924042,-0.03854948282241821,-0.2459430694580078
1.3429289371730568,1.3428335881940556,-1.859453147972894,0.8918141722679138,-0.4904372990131378,-0.4756048321723938,0.22005672752857208,-0.9741503596305847,-0.05105215683579445,0.3581293225288391,-0.01852548122406006,-0.2788427472114563
1.3401678350903086,1.3833447930775111,-1.9035638975277915,0.946252167224884,0.012680383399128914,-0.45842865109443665,0.22458571195602417,-0.9735229015350342,-0.04259905964136124,0.4018944501876831,0.02601301670074463,-0.2520785331726074
1.3374509341395684,1.427151316666074,-1.945629803143701,0.8627128005027771,0.555229127407074,-0.3713211715221405,0.22885270416736603,-0.9728982448577881,-0.033101532608270645,0.46278247237205505,0.06989830732345581,-0.16977918148040771
1.335181510376649,1.4683062832746538,-1.9799997961459652,0.6629666686058044,0.9708718657493591,-0.24359235167503357,0.23221687972545624,-0.972370982170105,-0.023883603513240814,0.5142126083374023,0.09311354160308838,-0.052776459604501724
1.333716368342593,1.5015154798940449,-2.0028247865015993,0.37513381242752075,1.2186859846115112,-0.1111176609992981,0.23430286347866058,-0.9720279574394226,-0.0162587221711874,0.5259969234466553,0.1117066740989685,0.0711904764175415
1.3331772707026126,1.5226443588180765,-2.0116167046428557,0.03712775558233261,1.2806178331375122,0.009240848943591118,0.2351173609495163,-0.9719011783599854,-0.01133012119680643,0.5116325616836548,0.1275712251663208,0.168221116065979
1.333651656349522,1.5291525272646111,-2.005783249660749,-0.29987528920173645,1.1340744495391846,0.13366958498954773,0.23472510278224945,-0.9720127582550049,-0.009780499152839184,0.5014809966087341,0.12412750720977783,0.2370908260345459
1.3352487257538679,1.5201169012932336,-1.98622069413157,-0.5913417339324951,0.8688059449195862,0.2623821496963501,0.233076274394989,-0.9723867177963257,-0.011822295375168324,0.4785784184932709,0.11694836616516113,0.2532469630241394
1.3378037376593384,1.4977454258721308,-1.9553950524037162,-0.7931292057037354,0.668870210647583,0.36630719900131226,0.2302750051021576,-0.9729797840118408,-0.01685178279876709,0.4421340823173523,0.11500847339630127,0.20496225357055664
1.3408861699641101,1.4665179483739668,-1.9168582835453503,-0.9076270461082458,0.615730345249176,0.4316374361515045,0.22665256261825562,-0.9736868739128113,-0.023721003904938698,0.4087691903114319,0.0900808572769165,0.12079751491546631
1.3439142328880544,1.431582643011263,-1.8741554790405799,-0.9349673390388489,0.7385159134864807,0.4361392557621002,0.22276459634304047,-0.9743724465370178,-0.03121378645300865,0.3646682798862457,0.05384021997451782,0.030695142224431038
1.346471666334388,1.3970509889741145,-1.8300970757427022,-0.9351502060890198,0.948516309261322,0.4183492660522461,0.2190987765789032,-0.974944531917572,-0.03845512494444847,0.3250601589679718,0.026580333709716797,-0.04510187730193138
1.348688142856635,1.3638529390776248,-1.7853587774188724,-0.9274749755859375,1.1319057941436768,0.43375274538993835,0.21558701992034912,-0.975435197353363,-0.04526228830218315,0.31189408898353577,0.0038775205612182617,-0.0849713683128357
1.3509537189006846,1.3316904255944217,-1.740191252267483,-0.9008575081825256,1.2444480657577515,0.48893389105796814,0.2118721902370453,-0.9759317636489868,-0.05164792761206627,0.3017234206199646,-0.006215512752532959,-0.10565483570098877
1.3536687152809614,1.3004020870507047,-1.6950613875763605,-0.8566998839378357,1.304785966873169,0.5689493417739868,0.20759843289852142,-0.9765202403068542,-0.05754267796874046,0.28410080075263977,-0.007213890552520752,-0.11654471606016159
1.3569830916324848,1.2692542342594009,-1.6497517993044624,-0.8216356635093689,1.3232084512710571,0.6364346146583557,0.2026139497756958,-0.9772288799285889,-0.06301835179328918,0.2537611722946167,-0.019124269485473633,-0.11608921736478806
1.3604359407423856,1.2375626608358403,-1.6036974746379526,-0.8118922114372253,1.346974492073059,0.6385470032691956,0.1973257064819336,-0.97795569896698,-0.0683027058839798,0.1799630969762802,-0.02981102466583252,-0.10599832981824875
1.363407939709027,1.2058933483142018,-1.5574069866190439,-0.7938184142112732,1.383817195892334,0.5915942788124084,0.1923477202653885,-0.9785720109939575,-0.07347892224788666,0.08894804120063782,-0.035191357135772705,-0.09453551471233368
1.365544656542103,1.1753438591361103,-1.5120712051875949,-0.7808418869972229,1.3763206005096436,0.5035861730575562,0.18808363378047943,-0.979009747505188,-0.0785142034292221,0.01882554590702057,-0.05710780620574951,-0.08032964915037155
1.3663877271925973,1.146261858595406,-1.4686611624358719,-0.7761107683181763,1.3068408966064453,0.3617091774940491,0.18496987223625183,-0.9791812300682068,-0.08361052721738815,-0.05818454921245575,-0.06409293413162231,-0.057731516659259796
1.365695386301964,1.1195563920945495,-1.4286353794310858,-0.7597184777259827,1.1976529359817505,0.21805372834205627,0.18328101933002472,-0.9790404438972473,-0.08881527930498123,-0.10472875833511353,-0.045205891132354736,-0.040975868701934814
1.363674377498751,1.0954035292181046,-1.3923281685875228,-0.7573488354682922,1.0800187587738037,0.09670419245958328,0.182840958237648,-0.9786268472671509,-0.09412083774805069,-0.10920204222202301,-0.04056870937347412,-0.026926979422569275
1.3605821613981564,1.0726451035896796,-1.3586873701366788,-0.7714470624923706,0.9604453444480896,0.02399616315960884,0.18330974876880646,-0.9779862761497498,-0.09970296919345856,-0.11018960177898407,-0.032038867473602295,-0.022870779037475586
1.356810882030763,1.0501675779600455,-1.3261023116213995,-0.802492082118988,0.9270599484443665,-6.677606143057346e-05,0.18422070145606995,-0.9771923422813416,-0.10563160479068756,-0.10640089213848114,-0.026912331581115723,-0.028493039309978485
1.3525677773064884,1.027734723916211,-1.2935433621249357,-0.8354625105857849,0.9566170573234558,-0.014206829480826855,0.1853533536195755,-0.9762824773788452,-0.11187909543514252,-0.12090019881725311,-0.04630070924758911,-0.04104436933994293
