attitudeX,attitudeY,attitudeZ,gyroX,gyroY,gyroZ,gravityX,gravityY,gravityZ,accX,accY,accZ
1.3873571267660412,0.11538366710268089,-0.26041559103927653,0.8210405707359314,1.16422438621521,0.8200631141662598,0.021000685170292854,-0.9832221865653992,-0.18119901418685913,-0.1358230710029602,0.28412550687789917,0.017792776226997375
1.3969664144789937,0.08501117333078398,-0.21907312615877733,0.9377304315567017,0.8772079348564148,0.8245593309402466,0.014685460366308689,-0.9849295616149902,-0.1723310798406601,-0.14014321565628052,0.243169367313385,0.02339012920856476
1.407390333960233,0.04831596317225093,-0.17456282465477885,1.0315463542938232,0.5569848418235779,0.7948877215385437,0.007856972515583038,-0.9866788983345032,-0.16248993575572968,-0.14613211154937744,0.18518048524856567,0.049620822072029114
1.4181600946382757,0.006821343603620352,-0.12807250523994582,1.0656521320343018,0.34584781527519226,0.7151721119880676,0.001037135487422347,-0.9883736968040466,-0.15204034745693207,-0.1624598503112793,0.1268014907836914,0.0756702572107315
1.428691716719248,-0.03509264859781004,-0.08236127101215561,1.0481274127960205,0.33505135774612427,0.5876202583312988,-0.004969045985490084,-0.9899201393127441,-0.1415397971868515,-0.1952720284461975,0.07810062170028687,0.09855593740940094
1.4386982859709074,-0.07315432057245162,-0.04013845120093583,0.999391496181488,0.4162559509277344,0.45843562483787537,-0.00962690357118845,-0.9912877082824707,-0.13136236369609833,-0.21814103424549103,0.0329747200012207,0.11065633594989777
1.4478705701397936,-0.10806821999579398,-0.00042260344960919733,0.9063703417778015,0.4745454490184784,0.390526682138443,-0.013225236907601357,-0.9924541115760803,-0.12190181016921997,-0.2034953385591507,0.011054515838623047,0.12362617254257202
1.4557590397074411,-0.14426909555861953,0.0410596612538362,0.7728045582771301,0.5196868181228638,0.3905344009399414,-0.016502391546964645,-0.9933905005455017,-0.11359149217605591,-0.17211149632930756,0.006055295467376709,0.14690154790878296
1.4620255257780435,-0.1841621795639024,0.08664729452677042,0.6310272216796875,0.5522106289863586,0.40976768732070923,-0.01987920142710209,-0.9940902590751648,-0.10672089457511902,-0.14146722853183746,0.002070605754852295,0.18039047718048096
1.4668228775045773,-0.22885471547336136,0.13706699852326068,0.5291533470153809,0.5202742218971252,0.4393538236618042,-0.02354545332491398,-0.9945996403694153,-0.10108137875795364,-0.12127571552991867,-0.005232632160186768,0.20055359601974487
1.470718333424541,-0.2785465362787347,0.19172640906655924,0.5118557214736938,0.4015427231788635,0.43380454182624817,-0.027471628040075302,-0.9949963688850403,-0.09606090933084488,-0.1225985661149025,-0.016188383102416992,0.19625020027160645
1.4746524390744682,-0.3315883096717902,0.24823822432381043,0.5756421685218811,0.22927986085414886,0.3778690993785858,-0.03125116601586342,-0.9953817129135132,-0.09076713025569916,-0.15402103960514069,-0.021647095680236816,0.16101866960525513
1.479408484550841,-0.3877565604066775,0.3059621371711377,0.694849967956543,0.028998209163546562,0.2973053455352783,-0.034506671130657196,-0.9958270192146301,-0.08448513597249985,-0.1654444932937622,-0.0318371057510376,0.1213046982884407
1.48533704592235,-0.44946353825040325,0.36729100554670224,0.8196302652359009,-0.13705973327159882,0.20861941576004028,-0.037086475640535355,-0.9963505864143372,-0.07688011229038239,-0.16191864013671875,-0.04768639802932739,0.08835482597351074
1.4922321805423453,-0.5164786827292006,0.43294538111482767,0.8826868534088135,-0.16340094804763794,0.10289836674928665,-0.03875679150223732,-0.9969154000282288,-0.06824634224176407,-0.16705374419689178,-0.06314319372177124,0.06726992875337601
1.499437347980874,-0.5838916091959827,0.49923843434506376,0.8466050028800964,-0.09516729414463043,-0.0077967229299247265,-0.03930564597249031,-0.9974550008773804,-0.05948688089847565,-0.17108254134655,-0.07404768466949463,0.07691258192062378
1.5061972099828695,-0.6446963110207509,0.559602218414641,0.7178748250007629,-0.022181464359164238,-0.09635749459266663,-0.03879501298069954,-0.99791419506073,-0.05159808695316315,-0.16724440455436707,-0.0680953860282898,0.12239903211593628
1.5119317292368508,-0.6931216497433437,0.6080085862653211,0.546088695526123,-0.007589206099510193,-0.1376974731683731,-0.037588849663734436,-0.9982680082321167,-0.045255180448293686,-0.14588283002376556,-0.048042356967926025,0.17251360416412354
1.5162825581724677,-0.7271916408394693,0.6419266668152631,0.3622487187385559,-0.03661300987005234,-0.13358107209205627,-0.03622306510806084,-0.9985144734382629,-0.04070589318871498,-0.09954963624477386,-0.03301030397415161,0.20969706773757935
1.5191722938252208,-0.7461275289135364,0.6603501330096591,0.20032425224781036,-0.06707105040550232,-0.10501200705766678,-0.03502847999334335,-0.9986677765846252,-0.03789364919066429,-0.06155965104699135,-0.019948124885559082,0.22261667251586914
1.5206950952201126,-0.7536472769575651,0.6671652526550571,0.07955183833837509,-0.070498526096344,-0.05056608468294144,-0.034271616488695145,-0.9987452030181885,-0.03652007132768631,-0.04988060146570206,-0.011401951313018799,0.19627970457077026
1.5212748373636955,-0.755871263414608,0.6687655032815546,0.022571107372641563,-0.05844425782561302,-0.023760035634040833,-0.03395562618970871,-0.9987740516662598,-0.03602246195077896,-0.04757208377122879,-0.00876384973526001,0.15366780757904053
1.5216178627131511,-0.7541188032288801,0.6662696309070884,0.013777832500636578,-0.0941314771771431,-0.04442090541124344,-0.03365832939743996,-0.998790979385376,-0.03583267331123352,-0.05374401435256004,-0.01761239767074585,0.11464446783065796
1.5222573328487305,-0.7481228868752807,0.6589220578240105,0.033178430050611496,-0.17643007636070251,-0.09204435348510742,-0.033006563782691956,-0.9988222122192383,-0.03556372597813606,-0.056882958859205246,-0.04185771942138672,0.0918688178062439
1.5234959723779775,-0.7390486837893546,0.6474309837846628,0.07622597366571426,-0.3054533302783966,-0.1532144844532013,-0.031850531697273254,-0.9988815188407898,-0.03494887053966522,-0.05427006632089615,-0.05814063549041748,0.08013027906417847
1.5253786100658553,-0.7281089362617843,0.632840442620321,0.11578936129808426,-0.41854608058929443,-0.19547033309936523,-0.030215036123991013,-0.998968780040741,-0.03389168530702591,-0.05146525055170059,-0.04673135280609131,0.07690638303756714
1.5277980530876938,-0.7175006833527968,0.6173835225626665,0.15622800588607788,-0.5546349883079529,-0.22200694680213928,-0.028264962136745453,-0.999075710773468,-0.03238959237933159,-0.03705790638923645,-0.028268098831176758,0.07331377267837524
1.5305760617699116,-0.7114962382343915,0.6048706287172673,0.19172607362270355,-0.744326114654541,-0.21466833353042603,-0.02625793032348156,-0.9991912841796875,-0.030456913635134697,-0.0036645419895648956,-0.025146663188934326,0.07164055109024048
1.5334054463094386,-0.7149511662174513,0.6001022841022284,0.21042172610759735,-0.8758656978607178,-0.17785467207431793,-0.02450796589255333,-0.999301016330719,-0.028229307383298874,0.03312918543815613,-0.009884774684906006,0.06579655408859253
1.5360727397638345,-0.7291464547428977,0.605414042417944,0.21285505592823029,-0.8953935503959656,-0.15036551654338837,-0.023128168657422066,-0.9993972182273865,-0.025888342410326004,0.05660596862435341,0.01700592041015625,0.05549049749970436
1.5386627887549598,-0.7499679016891749,0.6169507174470097,0.218673974275589,-0.9679779410362244,-0.14047867059707642,-0.021903010085225105,-0.9994837641716003,-0.02351277694106102,0.06468866765499115,0.012835025787353516,0.05273347720503807
1.541338214459282,-0.7812053186940553,0.6378627366946746,0.2564477324485779,-1.0961811542510986,-0.14092260599136353,-0.02074335142970085,-0.9995661377906799,-0.02091803215444088,0.05206964910030365,0.012322306632995605,0.03483414649963379
1.5443956140564068,-0.8244390801572387,0.6696973153955573,0.28829658031463623,-1.1648118495941162,-0.17894423007965088,-0.019384708255529404,-0.9996514916419983,-0.017927274107933044,0.023763982579112053,0.02797168493270874,0.00514054112136364
1.5479054527041258,-0.8635447562331491,0.6973088079915879,0.2673873007297516,-1.1245118379592896,-0.25076010823249817,-0.01740427501499653,-0.9997380375862122,-0.014876495115458965,0.006097523495554924,0.028607487678527832,-0.003296615555882454
1.5515126395468752,-0.8692771576870615,0.6919270456871662,0.1755485236644745,-1.0943853855133057,-0.30363449454307556,-0.014730671420693398,-0.9998140931129456,-0.012445776723325253,0.009069666266441345,0.02512836456298828,0.017221927642822266
1.5545908174170093,-0.8131596600529809,0.6248030170871057,0.0607023648917675,-1.1066678762435913,-0.30134791135787964,-0.01177347544580698,-0.9998686909675598,-0.011137275025248528,0.032143980264663696,0.039175331592559814,0.048841893672943115
1.556661443930753,-0.6998245925753837,0.5000689504313551,-0.013743475079536438,-1.1595407724380493,-0.2547091543674469,-0.009103982709348202,-0.9999001026153564,-0.010812478139996529,0.06484435498714447,0.059867143630981445,0.05051600933074951
1.557853405042637,-0.5581056959231288,0.3466097811943384,-0.03151741251349449,-1.1704323291778564,-0.22086651623249054,-0.0068560512736439705,-0.9999162554740906,-0.01098173949867487,0.05466185510158539,0.1008225679397583,0.025538742542266846
1.5586906141671542,-0.40976008950248016,0.1867012953337067,0.002146713901311159,-1.1265137195587158,-0.21312296390533447,-0.0048218537122011185,-0.999926745891571,-0.011101411655545235,0.03182992339134216,0.14342039823532104,-0.01735609769821167
1.5596516954167157,-0.26020855328545633,0.02624323667070081,0.057463496923446655,-1.0406677722930908,-0.19279877841472626,-0.0028680935502052307,-0.999937891960144,-0.010772389359772205,0.02709907293319702,0.16870009899139404,-0.0451662540435791
1.560777146875059,-0.13171866439433805,-0.11222212381658664,0.10322340577840805,-0.9406152963638306,-0.13650062680244446,-0.0013158139772713184,-0.9999498128890991,-0.009931739419698715,0.020877599716186523,0.19875657558441162,-0.047502219676971436
1.5620370088471625,-0.029976983075669,-0.22277065580920385,0.12565387785434723,-0.8102878928184509,-0.0920838862657547,-0.0002625460911076516,-0.9999616146087646,-0.008755631744861603,0.010699570178985596,0.23781567811965942,-0.03621184825897217
1.5632598854834778,0.06466103021008743,-0.32497819424762747,0.1153293028473854,-0.7024509906768799,-0.07224062830209732,0.00048745592357590795,-0.9999716281890869,-0.007528125774115324,-0.005171880125999451,0.27740687131881714,-0.0022221202962100506
1.5642993592339047,0.1646431625036487,-0.43147089903517155,0.1050867810845375,-0.604115903377533,-0.048081766813993454,0.0010699809063225985,-0.9999788999557495,-0.006439959164708853,-0.03315919637680054,0.30225539207458496,0.04431241750717163
1.5652516971404036,0.23893569061442513,-0.5117329616301131,0.10690200328826904,-0.5965403914451599,-0.00847814790904522,0.001316542155109346,-0.999984622001648,-0.005404769442975521,-0.02412840723991394,0.3012693524360657,0.07419151067733765
1.5665907346303523,0.2793370898707767,-0.5587073294733668,0.16870065033435822,-0.7464752793312073,0.0339348204433918,0.0011698332382366061,-0.9999911785125732,-0.004078393802046776,-0.02691139280796051,0.3142762780189514,0.10345906019210815
1.5688160175404826,0.397984106277907,-0.6861922258449137,0.2723053991794586,-1.006300687789917,0.025556249544024467,0.0007866686210036278,-0.9999980330467224,-0.0018711538286879659,-0.05573354661464691,0.31968486309051514,0.1531316637992859
1.569306283643143,2.7469669155431014,-3.0464700382720302,0.38701653480529785,-1.241572380065918,0.028304629027843475,0.0005914639914408326,-0.9999988675117493,0.0014201750745996833,-0.03312318027019501,0.327284574508667,0.2118673324584961
1.5648644648320684,-3.1148823484426074,2.801898401567062,0.5110687613487244,-1.4375591278076172,0.14412856101989746,-0.00015818719111848623,-0.9999824166297913,0.005920919589698315,-0.02324877679347992,0.34263384342193604,0.24885523319244385
1.5588544073622206,-2.9522362757406126,2.624298426351768,0.6430491209030151,-1.5259653329849243,0.29761427640914917,-0.0022483919747173786,-0.9999287128448486,0.011731608770787716,-0.07135999202728271,0.38702887296676636,0.26600897312164307
1.5511272629470692,-2.8488126829621483,2.5054074494051792,0.7515003085136414,-1.5499781370162964,0.43510541319847107,-0.0056756059639155865,-0.9998065829277039,0.01882813312113285,-0.10241763293743134,0.42361950874328613,0.28547799587249756
1.5421486686830324,-2.7730473197623464,2.4140357646570263,0.788513720035553,-1.5535545349121094,0.5647011995315552,-0.010320491157472134,-0.9995896816253662,0.02672382816672325,-0.1298467367887497,0.43274086713790894,0.31231141090393066
1.5326184776198817,-2.7071337154302753,2.3325423101166542,0.7325654625892639,-1.542074203491211,0.6773468255996704,-0.016066908836364746,-0.9992713332176208,0.03462480008602142,-0.14672908186912537,0.4351385831832886,0.35297906398773193
1.5234635126004845,-2.641760237403327,2.2514935487397416,0.5732490420341492,-1.5769059658050537,0.7562856078147888,-0.022677315399050713,-0.9988800287246704,0.04152708500623703,-0.15736111998558044,0.4504638910293579,0.4051131010055542
1.5154312752906238,-2.5720815473929255,2.165465605449556,0.3489231765270233,-1.6670958995819092,0.8153367638587952,-0.029840810224413872,-0.998467743396759,0.04660594463348389,-0.16457140445709229,0.4753199815750122,0.47034668922424316
1.5087500526191822,-2.493097603345141,2.0687794872582916,0.09649041295051575,-1.8386567831039429,0.8753817081451416,-0.037452779710292816,-0.9980757236480713,0.04942092299461365,-0.1635054349899292,0.497144877910614,0.529757022857666
1.5030927035151667,-2.4031304638620234,1.958887137484399,-0.1309773176908493,-2.0908164978027344,0.9376973509788513,-0.045540615916252136,-0.9977089762687683,0.05002959072589874,-0.16599196195602417,0.513593316078186,0.5675547122955322
1.4977924198685633,-2.3052173759178287,1.8383073008924855,-0.31383955478668213,-2.365316152572632,1.006012201309204,-0.05413660779595375,-0.9973363876342773,0.04888053610920906,-0.17471468448638916,0.5225439667701721,0.5837794542312622
1.4920843931942875,-2.2050921051902805,1.7130649597329357,-0.42469322681427,-2.5499420166015625,1.069144368171692,-0.06333719938993454,-0.9969038367271423,0.04659811779856682,-0.19972428679466248,0.5446332693099976,0.560396671295166
1.4854247464348034,-2.110952509248895,1.5930653666127002,-0.46726253628730774,-2.4984946250915527,1.1216899156570435,-0.07312986254692078,-0.9963580369949341,0.04385173320770264,-0.23227477073669434,0.5705309510231018,0.4997732639312744
1.4776504299612103,-2.024496339620849,1.4819815842567956,-0.5350945591926575,-2.310004472732544,1.1826943159103394,-0.08360235393047333,-0.9956650733947754,0.04076673835515976,-0.2500310242176056,0.5903305411338806,0.4065753221511841
1.4688760521925335,-1.940922282563513,1.375846567886892,-0.6612615585327148,-2.0930333137512207,1.2450597286224365,-0.09485464543104172,-0.9948106408119202,0.03680436685681343,-0.2418152391910553,0.6103806495666504,0.384490966796875
1.459110137881392,-1.855612266639411,1.2696456051348248,-0.8547559976577759,-1.9642183780670166,1.3286421298980713,-0.10696492344141006,-0.9937695860862732,0.03131673485040665,-0.22180092334747314,0.6414593458175659,0.3999425172805786
1.4477095686798291,-1.7686924245951463,1.1623384257127138,-1.029415488243103,-1.9708250761032104,1.4841086864471436,-0.1203814446926117,-0.9924343824386597,0.024138960987329483,-0.17054259777069092,0.6763179302215576,0.43310606479644775
1.433458900972155,-1.6882101848981166,1.0605442180335878,-1.1126463413238525,-2.1213791370391846,1.7401909828186035,-0.1359635442495346,-0.9905840158462524,0.016037771478295326,-0.1186903566122055,0.7077013254165649,0.4425652027130127
1.41556733462562,-1.624278162744253,0.9733084726576469,-1.094523549079895,-2.343524932861328,2.0277669429779053,-0.1543862372636795,-0.9879761338233948,0.00826474092900753,-0.1027396023273468,0.7205047607421875,0.4099940061569214
1.3943829363287554,-1.5814294572874539,0.9049156670533246,-1.0169878005981445,-2.561936140060425,2.2503018379211426,-0.17549048364162445,-0.9844794869422913,0.0018660834757611156,-0.12345969676971436,0.7086920738220215,0.3749345541000366
1.371181685284178,-1.556492021125122,0.8523314597376155,-0.9573808908462524,-2.7612643241882324,2.353085517883301,-0.19827178120613098,-0.9801430702209473,-0.0028363338205963373,-0.17939847707748413,0.6809486746788025,0.3639357089996338
1.347334748482498,-1.5424864341936197,0.8088471168354072,-0.9748326539993286,-2.915196418762207,2.3506693840026855,-0.2215185910463333,-0.9751361608505249,-0.006272843107581139,-0.2576074004173279,0.6559832096099854,0.38171541690826416
1.3237728315009705,-1.532739175138761,0.7684148925436981,-1.0720305442810059,-2.9579851627349854,2.2763378620147705,-0.24434223771095276,-0.9696445465087891,-0.009303461760282516,-0.33689552545547485,0.6492708921432495,0.41205930709838867
1.3008810422568002,-1.5216899488501494,0.7265435896864066,-1.2721744775772095,-2.903427839279175,2.1926701068878174,-0.26632845401763916,-0.9637935161590576,-0.013088949024677277,-0.39561304450035095,0.6431300044059753,0.44741523265838623
1.2783329778438652,-1.5059353388129628,0.6800317574801248,-1.5613445043563843,-2.868504047393799,2.1559863090515137,-0.28770577907562256,-0.9575365781784058,-0.018687093630433083,-0.40499746799468994,0.6463945508003235,0.48812389373779297
1.255281293044564,-1.4852263125732652,0.6281512737011358,-1.8691731691360474,-2.8745083808898926,2.2045443058013916,-0.30917051434516907,-0.9506366848945618,-0.026520486921072006,-0.39232173562049866,0.662291407585144,0.5180672407150269
1.2307437606104314,-1.4615984248298326,0.5726678245655877,-2.1491005420684814,-2.8892993927001953,2.3245792388916016,-0.3315502405166626,-0.9427371621131897,-0.036349184811115265,-0.3844073414802551,0.6740298271179199,0.5106992721557617
1.2040942812910416,-1.4373389522326327,0.5157823768167109,-2.3832569122314453,-2.914273262023926,2.4678382873535156,-0.3553503155708313,-0.9335148930549622,-0.047707699239254,-0.39115533232688904,0.6824162602424622,0.47120022773742676
1.175579809923025,-1.414102214940497,0.45937075165453395,-2.5702452659606934,-2.882852792739868,2.534470796585083,-0.380291223526001,-0.9229132533073425,-0.060081932693719864,-0.44980213046073914,0.6753851175308228,0.4340749979019165
1.146283229355471,-1.391861472706333,0.40403748654781385,-2.743290662765503,-2.793250322341919,2.467763662338257,-0.4053013026714325,-0.9112393856048584,-0.07330657541751862,-0.5621058940887451,0.6465145349502563,0.386874794960022
1.1173794599887021,-1.3693818882859519,0.34854997375235564,-2.9736223220825195,-2.7447903156280518,2.288524866104126,-0.4291847348213196,-0.8989556431770325,-0.08763223886489868,-0.7024222612380981,0.6006615161895752,0.34689438343048096
1.089359450977839,-1.3453655409644911,0.29091964811043736,-3.2753312587738037,-2.719407558441162,2.0733304023742676,-0.45133745670318604,-0.8863304853439331,-0.10350465774536133,-0.8237480521202087,0.5516897439956665,0.3419538736343384
1.0619325812059273,-1.3191654729620952,0.23069960272291468,-3.545865535736084,-2.598849058151245,1.895707607269287,-0.4718426764011383,-0.8732986450195312,-0.12130123376846313,-0.905278205871582,0.5287551879882812,0.3247619867324829
1.0346251879045383,-1.29157444215289,0.17018208182303765,-3.670647382736206,-2.3487308025360107,1.7880269289016724,-0.49106308817863464,-0.8596709370613098,-0.14079371094703674,-0.986750602722168,0.5338500142097473,0.2176370769739151
1.0066407679882914,-1.2649093405432543,0.11259585642501667,-3.673677444458008,-2.1327271461486816,1.833556890487671,-0.5098817348480225,-0.8450404405593872,-0.16101983189582825,-1.0294554233551025,0.5323877334594727,0.06978762149810791
0.9773813185902809,-1.2414249816660692,0.05959767499355614,-3.641608953475952,-2.0462653636932373,1.884941816329956,-0.5291366577148438,-0.8290358781814575,-0.1808708757162094,-1.0167770385742188,0.48083019256591797,-0.03253847360610962
0.9476698556429131,-1.2210842008027492,0.009844830607850949,-3.6939685344696045,-2.0367419719696045,1.7924388647079468,-0.5482537746429443,-0.8120579123497009,-0.19994941353797913,-1.0465490818023682,0.39141881465911865,-0.09146283566951752
0.9184930691880929,-1.2010247315560536,-0.04010411757452011,-3.921694755554199,-1.9437735080718994,1.5422390699386597,-0.5659899711608887,-0.794687807559967,-0.21937793493270874,-1.1255078315734863,0.31170129776000977,-0.09170293807983398
0.8904982852274934,-1.1773215950713096,-0.09352948640085604,-4.276008129119873,-1.6799527406692505,1.1783982515335083,-0.580956220626831,-0.7773852944374084,-0.2411680519580841,-1.2031776905059814,0.2650865912437439,-0.07256782054901123
0.8635207682127628,-1.147554249835128,-0.15166494696232105,-4.655803203582764,-1.281721591949463,0.8201519250869751,-0.5924314856529236,-0.7601349353790283,-0.26687073707580566,-1.2337098121643066,0.26143181324005127,-0.08461540937423706
0.8365858145350086,-1.111642213745378,-0.21347408749007818,-4.9758148193359375,-0.8157051801681519,0.5833260416984558,-0.6006078124046326,-0.7423599362373352,-0.2969379127025604,-1.2002191543579102,0.27690577507019043,-0.1540050506591797
0.8083815784333513,-1.0714928340727095,-0.27653831435528625,-5.190115451812744,-0.40869078040122986,0.4711203873157501,-0.6063502430915833,-0.7231703400611877,-0.3307024836540222,-1.107196569442749,0.31435680389404297,-0.2575848698616028
0.7784397457224727,-1.0298353224644172,-0.3384452622643436,-5.267335414886475,-0.10076278448104858,0.40540289878845215,-0.6103451251983643,-0.7021693587303162,-0.36665672063827515,-0.9991519451141357,0.3400324583053589,-0.3464169502258301
0.7473799873013921,-0.9892889755022501,-0.39745362762423836,-5.209799289703369,0.032599326223134995,0.303158164024353,-0.612915575504303,-0.6797193884849548,-0.40288472175598145,-0.9077295064926147,0.33970773220062256,-0.41240763664245605
0.7162445341640766,-0.951875434012478,-0.4530180453926591,-5.093908786773682,0.010291359387338161,0.15542569756507874,-0.6143621206283569,-0.6565566658973694,-0.4375985860824585,-0.8581719994544983,0.3310866355895996,-0.4596792459487915
0.6853589687404207,-0.9180407676707618,-0.5057916903257783,-5.065258026123047,-0.03341630473732948,0.03769681230187416,-0.6150282025337219,-0.6329509615898132,-0.4702269434928894,-0.8131943941116333,0.32699692249298096,-0.4537537693977356
0.6535429571401556,-0.8852111595881086,-0.5583190012425111,-5.396780967712402,0.12025793641805649,-0.19407464563846588,-0.6145440936088562,-0.6080030798912048,-0.5026607513427734,-0.747699499130249,0.30830520391464233,-0.3950595259666443
0.6190449816149334,-0.8480979137797721,-0.6144624617938474,-5.901784420013428,0.6249595880508423,-0.3747226595878601,-0.6108440160751343,-0.5802576541900635,-0.5386748909950256,-0.752009928226471,0.3070032000541687,-0.2731383442878723
0.5813925913731763,-0.808129584788196,-0.6727181737449238,-6.214648723602295,0.7115192413330078,-0.5959040522575378,-0.6042069792747498,-0.5491882562637329,-0.5773440599441528,-0.710230827331543,0.30973201990127563,-0.2095974087715149
0.5417224876127713,-0.7701084678543189,-0.7319112165431463,-6.416100025177002,0.5927606225013733,-0.8218093514442444,-0.596530556678772,-0.5156126022338867,-0.6150568127632141,-0.6430476307868958,0.3627500534057617,-0.32876020669937134
0.5011587526668063,-0.7356721728044132,-0.7903568137221029,-6.360900402069092,0.4447466731071472,-1.023055076599121,-0.5885598659515381,-0.4804421067237854,-0.6502097249031067,-0.6012594103813171,0.358158141374588,-0.39358294010162354
0.4615241370022659,-0.7068626663580718,-0.8465544497784259,-6.104485511779785,0.10510668903589249,-1.2194271087646484,-0.581502377986908,-0.44531330466270447,-0.6808458566665649,-0.5034433007240295,0.4115607738494873,-0.47587716579437256
0.42423860657417306,-0.6846425022088405,-0.899830227911277,-5.74549674987793,-0.20881128311157227,-1.3766318559646606,-0.5763357281684875,-0.41162699460983276,-0.7059747576713562,-0.41980379819869995,0.4912931025028229,-0.5727880597114563
0.3893766696875026,-0.668339696339026,-0.9500528067688345,-5.445873737335205,-0.5121853351593018,-1.4335793256759644,-0.5732978582382202,-0.3796118199825287,-0.7261022329330444,-0.310857355594635,0.5039098262786865,-0.6052271127700806
0.35583083546484484,-0.6581839354302779,-0.9976999343204913,-5.287431240081787,-0.9310803413391113,-1.4162397384643555,-0.5733639001846313,-0.3483692705631256,-0.7415475845336914,-0.16333049535751343,0.49190863966941833,-0.5248708724975586
0.32231464242087926,-0.654202486225992,-1.0437671030653808,-5.308743476867676,-1.3112385272979736,-1.3732211589813232,-0.5771903991699219,-0.31676286458969116,-0.7526703476905823,-0.08998489379882812,0.5178736448287964,-0.4441070556640625
0.28770662725769064,-0.6547760819441508,-1.0895919475954,-5.487452507019043,-1.5239449739456177,-1.347672939300537,-0.5839507579803467,-0.2837538719177246,-0.7605822086334229,-0.061694324016571045,0.5611433386802673,-0.3983991742134094
0.251277710433893,-0.6578685838687784,-1.1363575169675073,-5.750677585601807,-1.5492637157440186,-1.3428133726119995,-0.592229962348938,-0.2486417442560196,-0.7664470076560974,-0.045694172382354736,0.6020963191986084,-0.3793354630470276
0.21308637302888872,-0.6619672190028184,-1.1843900152492361,-5.962433815002441,-1.4671931266784668,-1.3547639846801758,-0.6007677316665649,-0.21147747337818146,-0.7709445357322693,-0.04058969020843506,0.640051007270813,-0.4039059281349182
0.1738395817581409,-0.6669820210285671,-1.2331652183501105,-6.060701847076416,-1.4084393978118896,-1.3278026580810547,-0.6092937588691711,-0.17296533286571503,-0.7738502025604248,0.005305111408233643,0.6711952686309814,-0.4565727710723877
0.13417133369541398,-0.6737217730071532,-1.281467141938724,-6.033882141113281,-1.4192981719970703,-1.2033361196517944,-0.6182916164398193,-0.13376913964748383,-0.7744812965393066,0.08369994163513184,0.6877394318580627,-0.5233855247497559
0.0944510719215041,-0.6830102263389766,-1.328053321257382,-5.909308433532715,-1.5008572340011597,-1.01308012008667,-0.6283177733421326,-0.0943107008934021,-0.7722190618515015,0.18784236907958984,0.6936453580856323,-0.5761696100234985
0.05551151777424784,-0.6954945247805506,-1.3725226074060997,-5.688409328460693,-1.6569701433181763,-0.8954514265060425,-0.639778196811676,-0.05548301339149475,-0.7665543556213379,0.2726669907569885,0.7146168947219849,-0.6196455955505371
0.018865755139908687,-0.7113576693843419,-1.415364144459081,-5.387013912200928,-1.8074967861175537,-0.8878540992736816,-0.6527466177940369,-0.01886463537812233,-0.7573414444923401,0.26863712072372437,0.724766731262207,-0.6871013641357422
-0.014356170976829112,-0.7298860444843988,-1.4563787996176334,-4.965854644775391,-1.9024803638458252,-0.8933745622634888,-0.6667159795761108,0.014355678111314774,-0.7451735734939575,0.23376315832138062,0.7157316207885742,-0.7631576657295227
-0.04278277612192324,-0.7505671492794169,-1.4949739925214354,-4.377084732055664,-1.9795814752578735,-0.9708396196365356,-0.6814295053482056,0.04276972636580467,-0.7306329607963562,0.23234814405441284,0.6857611536979675,-0.9122045040130615
-0.06483985423000951,-0.77146486316795,-1.529909751822382,-3.5859315395355225,-1.7599692344665527,-1.027116298675537,-0.6957210898399353,0.06479442864656448,-0.7153837084770203,0.2181209921836853,0.6337834596633911,-1.138253927230835
-0.07999768087958525,-0.7890001467482335,-1.5597758470589445,-2.746920108795166,-1.2878634929656982,-1.06635320186615,-0.7073796987533569,0.07991237938404083,-0.7023019790649414,0.22079217433929443,0.5949838757514954,-1.329878807067871
-0.08898720937390725,-0.8018107880396055,-1.5843152835294294,-2.0128824710845947,-0.8606804609298706,-1.0495587587356567,-0.7157731652259827,0.08886981010437012,-0.692655086517334,0.2482132911682129,0.5600712299346924,-1.377016544342041
-0.09407951954287137,-0.8110682154960298,-1.603701645913479,-1.4995980262756348,-0.6503728628158569,-0.8527355194091797,-0.721817135810852,0.09394080191850662,-0.6856786608695984,0.34735119342803955,0.5094069838523865,-1.2817590236663818
-0.09847724311901104,-0.8190028663056441,-1.6183261317417534,-1.245102882385254,-0.6644777655601501,-0.489553302526474,-0.7269261479377747,0.09831815212965012,-0.67964106798172,0.5049107670783997,0.4372653663158417,-1.0874640941619873
-0.10465282499574012,-0.8271290754736224,-1.6292013645509067,-1.1883496046066284,-0.7438617944717407,-0.07530372589826584,-0.731964111328125,0.1044619008898735,-0.6732876300811768,0.6217193603515625,0.3579404652118683,-0.8773257732391357
-0.11365976899426157,-0.8362805895001865,-1.6374345382295794,-1.2318315505981445,-0.9141459465026855,0.29878997802734375,-0.737366795539856,0.1134152039885521,-0.6659033298492432,0.6519633531570435,0.2912784218788147,-0.7186944484710693
-0.12539793068315924,-0.8474856230811642,-1.6439395136033534,-1.2819856405258179,-1.1622834205627441,0.5731719136238098,-0.7437325716018677,0.1250695437192917,-0.6566730737686157,0.5918923616409302,0.2382422387599945,-0.6439250707626343
-0.13876774082286006,-0.860629252357295,-1.6493745306861176,-1.2722057104110718,-1.287229061126709,0.7132201194763184,-0.7509640455245972,0.13832280039787292,-0.645693302154541,0.45015227794647217,0.17765620350837708,-0.663297176361084
-0.1524729908296343,-0.8743199444665296,-1.6541885475149103,-1.213036298751831,-1.2760096788406372,0.746030330657959,-0.7582078576087952,0.15188290178775787,-0.6340761780738831,0.27819687128067017,0.11104130744934082,-0.7478208541870117
-0.16518199021075347,-0.8865102132633677,-1.6585223930452353,-1.0389126539230347,-0.9852393269538879,0.6504803895950317,-0.764323353767395,0.1644318401813507,-0.6235159039497375,0.10061180591583252,0.04894709587097168,-0.8419077396392822
-0.1752514163277852,-0.8949370907344439,-1.6620556844416958,-0.7484970092773438,-0.5719226002693176,0.4662167429924011,-0.7682197093963623,0.17435571551322937,-0.6159859299659729,-0.034484148025512695,0.016241833567619324,-0.9281730055809021
-0.18172419060173206,-0.8995805532270849,-1.6642905998572213,-0.3980143666267395,-0.3130548298358917,0.2744385302066803,-0.7701717615127563,0.18072563409805298,-0.6116973757743835,-0.10722380876541138,0.004104092717170715,-0.975628674030304
-0.18473077659042117,-0.9027469929750374,-1.6647826653829993,-0.0533536821603775,-0.33292722702026367,0.14563244581222534,-0.7716748118400574,0.1836818903684616,-0.6089162826538086,-0.1282275915145874,-0.006603628396987915,-0.9676675796508789
-0.18490326326231163,-0.9068150842546511,-1.6631091103311704,0.2961028516292572,-0.5585598349571228,0.09156867861747742,-0.774120569229126,0.1838514506816864,-0.6057524681091309,-0.10318350791931152,-0.024442851543426514,-0.9239563941955566
-0.18231678553102662,-0.9129642052070356,-1.6585809356521992,0.7343428134918213,-0.8259463906288147,0.04640480503439903,-0.7782044410705566,0.18130844831466675,-0.6012696027755737,-0.05310964584350586,-0.04439133405685425,-0.9072295427322388
-0.1765732611835725,-0.9210451323219543,-1.6505843515990133,1.2042871713638306,-1.070168375968933,0.0035244496539235115,-0.7838540077209473,0.17565715312957764,-0.595581591129303,-0.03441375494003296,-0.08216653764247894,-0.9476464986801147
-0.16790526604069658,-0.9309569191504767,-1.639146968928429,1.6189186573028564,-1.2903445959091187,-0.03844244033098221,-0.7909104228019714,0.16711744666099548,-0.5886700749397278,-0.06423783302307129,-0.12861953675746918,-0.9476458430290222
-0.1565537336835741,-0.9424647283280623,-1.6250451444006726,1.9473292827606201,-1.4445632696151733,-0.14933113753795624,-0.7991155385971069,0.1559150218963623,-0.5806073546409607,-0.17541754245758057,-0.1598365306854248,-0.9032335877418518
-0.1426580271648136,-0.9547855487180719,-1.6093640134728269,2.164459705352783,-1.465132713317871,-0.3037733733654022,-0.8078986406326294,0.1421746462583542,-0.5719144344329834,-0.32735520601272583,-0.2109612673521042,-0.8777620196342468
-0.1269197899778215,-0.9669989507395683,-1.5932898722426123,2.21557354927063,-1.3905359506607056,-0.44652387499809265,-0.8165642619132996,0.12657931447029114,-0.5632056593894958,-0.46367865800857544,-0.29409027099609375,-0.8377953171730042
-0.11041442892614739,-0.9784742513725458,-1.5779461237912316,2.13328218460083,-1.2544537782669067,-0.5549206733703613,-0.8245944976806641,0.11019021272659302,-0.5548893809318542,-0.6018123626708984,-0.3767765164375305,-0.738735556602478
-0.09399854301702001,-0.9891990836069696,-1.563921470544819,1.9924390316009521,-1.1841689348220825,-0.6241292953491211,-0.831897497177124,0.09386017918586731,-0.5469340682029724,-0.7266199588775635,-0.4328646957874298,-0.6378040909767151
-0.07808627832963329,-0.9998954714166968,-1.5512658550603624,1.8407180309295654,-1.1648271083831787,-0.6645610332489014,-0.8388505578041077,0.07800694555044174,-0.5387436151504517,-0.8237013220787048,-0.46622103452682495,-0.5428604483604431
-0.06273866332610999,-1.0104786637992038,-1.5400978778271854,1.6650618314743042,-1.093217372894287,-0.7347286939620972,-0.8454197645187378,0.06269751489162445,-0.5304097533226013,-0.9215785264968872,-0.5154410600662231,-0.45553696155548096
-0.047597110580064994,-1.0203337422238705,-1.531100135624848,1.445960521697998,-0.9674850702285767,-0.9035134315490723,-0.8513174653053284,0.04757913947105408,-0.5224891304969788,-1.0129404067993164,-0.567217230796814,-0.34923022985458374
-0.03149315157986206,-1.028980862503989,-1.5251637772974767,1.2380571365356445,-0.7903760671615601,-1.248494029045105,-0.8563490509986877,0.03148794546723366,-0.515436589717865,-1.1378679275512695,-0.6001372337341309,-0.2285667061805725
-0.012729812865984572,-1.0353941459896494,-1.522706234539042,1.1122462749481201,-0.48504698276519775,-1.7152152061462402,-0.8599939346313477,0.012729468755424023,-0.5101457238197327,-1.3237981796264648,-0.6588476300239563,-0.1793837547302246
0.009525966181576912,-1.0388107181608262,-1.5232642197776314,1.051806926727295,-0.21868667006492615,-2.150531530380249,-0.861762523651123,-0.009525822475552559,-0.507222592830658,-1.4454121589660645,-0.7012590765953064,-0.15998327732086182
0.03489348954974395,-1.0409056922064506,-1.526098411815842,1.026331901550293,-0.25516343116760254,-2.4815545082092285,-0.8623371720314026,-0.03488640859723091,-0.5051313042640686,-1.4300975799560547,-0.6802473068237305,-0.0749925971031189
0.0627110187936,-1.0447003697954274,-1.5302141500094573,1.0739620923995972,-0.5703336000442505,-2.70818829536438,-0.8630743026733398,-0.06266992539167404,-0.5011740326881409,-1.3327417373657227,-0.6297281384468079,0.026503562927246094
0.09273193106291157,-1.0525443692569556,-1.5342954014692232,1.2259621620178223,-1.071275234222412,-2.876805305480957,-0.8649541735649109,-0.09259908646345139,-0.4932340979576111,-1.2234400510787964,-0.5680301785469055,0.08118569850921631
0.12522151633607076,-1.0656135157189275,-1.537026879730323,1.4896297454833984,-1.581158995628357,-3.0399904251098633,-0.8682341575622559,-0.12489451467990875,-0.48017799854278564,-1.1668152809143066,-0.48895132541656494,0.07376015186309814
0.16062555129854056,-1.083363621810751,-1.5374077274799973,1.8048596382141113,-1.9349852800369263,-3.1977343559265137,-0.872164785861969,-0.15993574261665344,-0.462330162525177,-1.1470155715942383,-0.39864271879196167,0.02382311224937439
0.19868312095454918,-1.103620418341679,-1.5351740143023311,2.050809144973755,-1.9745529890060425,-3.334599256515503,-0.8752792477607727,-0.19737853109836578,-0.4415067732334137,-1.158808946609497,-0.3089538812637329,-0.0016390085220336914
0.23837951546072506,-1.1227852726132437,-1.5312424093110824,2.099956512451172,-1.641176462173462,-3.421020269393921,-0.8758230805397034,-0.23612827062606812,-0.4209243953227997,-1.214524269104004,-0.2366805523633957,0.004740983247756958
0.2783046666893262,-1.1377696362645735,-1.5275481985277357,1.907592535018921,-1.1557376384735107,-3.477945327758789,-0.8727739453315735,-0.27472594380378723,-0.4034741520881653,-1.2401564121246338,-0.16860291361808777,0.08262762427330017
0.317557772806873,-1.147617860209836,-1.5264014628246978,1.5218676328659058,-0.7605692744255066,-3.547961711883545,-0.8661996722221375,-0.3122473657131195,-0.390127956867218,-1.2040518522262573,-0.0746544897556305,0.250906765460968
0.355618175406094,-1.1529695867755376,-1.52941808962191,1.0520678758621216,-0.5268697142601013,-3.6047117710113525,-0.8567870259284973,-0.3481699228286743,-0.3803863525390625,-1.165963888168335,0.042750000953674316,0.4098663330078125
0.39226834268598987,-1.1548336198801747,-1.5371169606008943,0.6078806519508362,-0.42258420586586,-3.6536142826080322,-0.8452489376068115,-0.3822854459285736,-0.37337926030158997,-1.127056360244751,0.1811898648738861,0.5002255439758301
0.42765447390129735,-1.1543022679740031,-1.5490097905682223,0.27204301953315735,-0.43074095249176025,-3.672318696975708,-0.8321528434753418,-0.41473764181137085,-0.36812275648117065,-1.0825352668762207,0.30501168966293335,0.5049330592155457
0.46194779987503765,-1.1526435995305184,-1.56375341895572,0.09684892743825912,-0.5041998624801636,-3.6444945335388184,-0.8180574178695679,-0.44569259881973267,-0.36351093649864197,-1.0339627265930176,0.4137406647205353,0.43554767966270447
0.4953822690723324,-1.1509090484711653,-1.5794060127438427,0.11359354853630066,-0.5887733101844788,-3.5663020610809326,-0.8033643364906311,-0.4753679931163788,-0.3586518466472626,-0.9766650199890137,0.5111804008483887,0.3069702982902527
0.5285777146370249,-1.1503591511663906,-1.5937632426536186,0.33064398169517517,-0.7089405059814453,-3.496194839477539,-0.788321316242218,-0.5043056607246399,-0.35245609283447266,-0.909218966960907,0.5848110914230347,0.14595893025398254
0.5626094985993456,-1.1525371207262116,-1.6049329445102773,0.7065646052360535,-0.8780539035797119,-3.483726739883423,-0.7729503512382507,-0.5333952903747559,-0.34356576204299927,-0.895354151725769,0.6353697776794434,-0.030839145183563232
0.5984630592590952,-1.1582618585493933,-1.6116703118474678,1.1502283811569214,-0.9922099709510803,-3.514606237411499,-0.7568904757499695,-0.563373327255249,-0.33125144243240356,-0.9449833035469055,0.6897465586662292,-0.20059365034103394
0.6365097576189932,-1.1674872759147332,-1.613765250250044,1.5314403772354126,-1.0852346420288086,-3.586998462677002,-0.7396542429924011,-0.5943922996520996,-0.3156099319458008,-0.9696658849716187,0.7822889685630798,-0.2891111373901367
0.6765693363830615,-1.1797713804022787,-1.6121882292977823,1.7664330005645752,-1.170225739479065,-3.680981159210205,-0.7208709120750427,-0.6261217594146729,-0.2971815764904022,-0.9490967988967896,0.8841173052787781,-0.2819657325744629
0.718139741741349,-1.1943603985364593,-1.6083153926357578,1.8719021081924438,-1.2361804246902466,-3.778698444366455,-0.7003045678138733,-0.6579849720001221,-0.2768205404281616,-0.8816962838172913,0.9424392580986023,-0.23778215050697327
0.7606609525939451,-1.2103670891754175,-1.6031473063776058,1.8844884634017944,-1.2544634342193604,-3.845158576965332,-0.6778358817100525,-0.6894003748893738,-0.2554715871810913,-0.7989097237586975,0.9688955545425415,-0.2083956003189087
0.803141931542559,-1.2271805223269985,-1.59690161448246,1.8642852306365967,-1.215256929397583,-3.7809200286865234,-0.6538538336753845,-0.7195415496826172,-0.23395566642284393,-0.7024236917495728,0.9964580535888672,-0.20316284894943237
0.8442356956615764,-1.2446917157353246,-1.5893650894107183,1.7803163528442383,-1.1691536903381348,-3.6174581050872803,-0.629292368888855,-0.747463583946228,-0.21281298995018005,-0.58027184009552,1.0102198123931885,-0.19949471950531006
0.883388553662949,-1.2619321335011628,-1.5812773313670971,1.6430250406265259,-1.0162914991378784,-3.483893871307373,-0.6045092940330505,-0.772893488407135,-0.192884162068367,-0.5464307069778442,1.0296072959899902,-0.22448945045471191
0.9214417941868642,-1.27618148445567,-1.5740902066223428,1.4452580213546753,-0.684842050075531,-3.5233917236328125,-0.5786197781562805,-0.796474277973175,-0.17557959258556366,-0.5661556124687195,1.0464742183685303,-0.24983549118041992
0.9599065673396824,-1.2838367208743313,-1.570566682734195,1.1287741661071777,-0.26962992548942566,-3.71411395072937,-0.5501416921615601,-0.8191379904747009,-0.16234935820102692,-0.5949999094009399,1.0863956212997437,-0.24603688716888428
0.9991076475211363,-1.2816168834501311,-1.5739217662219331,0.7309826612472534,0.14803501963615417,-3.8695831298828125,-0.5185878276824951,-0.8409885168075562,-0.15428993105888367,-0.5930607914924622,1.167663812637329,-0.20461203157901764
1.0380869634947891,-1.268265834145002,-1.5857369351795718,0.35687270760536194,0.4879190921783447,-3.912856101989746,-0.484804630279541,-0.8614342212677002,-0.15131288766860962,-0.502561092376709,1.1774742603302002,-0.1494836062192917
1.07608853749684,-1.2437445362545783,-1.6068452634609347,0.02865736559033394,0.7245804667472839,-3.9298856258392334,-0.4496084749698639,-0.8801074624061584,-0.1525225192308426,-0.3677590489387512,1.1122088432312012,-0.12257818877696991
1.112715971830066,-1.2071665154640132,-1.6385582346456646,-0.2851618230342865,0.9483123421669006,-3.913010358810425,-0.4133109748363495,-0.8969030976295471,-0.15728656947612762,-0.2795448899269104,1.0918798446655273,-0.10720926523208618
1.1469235438402863,-1.1565065659512932,-1.6829600087905023,-0.632543683052063,1.1381820440292358,-3.8215880393981934,-0.3764992654323578,-0.9115029573440552,-0.16556212306022644,-0.24702060222625732,1.1400489807128906,-0.07522152364253998
1.1773811053235528,-1.0897172441476284,-1.742126847924814,-0.9552029371261597,1.3621679544448853,-3.6736834049224854,-0.33983394503593445,-0.9236052632331848,-0.17738759517669678,-0.20833805203437805,1.190298318862915,-0.02288399636745453
1.2035314412817413,-1.0063775284091558,-1.815580443784309,-1.133602261543274,1.6488219499588013,-3.564486026763916,-0.30337297916412354,-0.9333128929138184,-0.19207221269607544,-0.14041361212730408,1.1934905052185059,0.0029242783784866333
1.2259532577210095,-0.9080953248867701,-1.9016064097749912,-1.1658374071121216,1.8482203483581543,-3.5365917682647705,-0.26649540662765503,-0.9411284923553467,-0.20798419415950775,-0.08129817247390747,1.1440856456756592,-0.027886152267456055
1.2452784100591783,-0.797224844918654,-1.999023487954705,-1.1022167205810547,1.8885610103607178,-3.564889430999756,-0.22879108786582947,-0.9474852085113525,-0.2234424203634262,-0.06169047951698303,1.0879576206207275,-0.05527466535568237
1.2617387153194388,-0.6762484713394783,-2.1068190198807084,-0.9612818956375122,1.798287272453308,-3.5928163528442383,-0.19036565721035004,-0.9526206254959106,-0.2372230738401413,-0.03183278441429138,1.0550682544708252,-0.05339577794075012
1.2754635047958185,-0.5487692260909275,-2.222435621293573,-0.7387889623641968,1.585018277168274,-3.584418773651123,-0.1518271118402481,-0.9567053318023682,-0.24832166731357574,0.0347464382648468,1.0351965427398682,-0.007751345634460449
1.2866955865380714,-0.4186184126103595,-2.3438033367236444,-0.4952833354473114,1.1493394374847412,-3.5709011554718018,-0.11393943428993225,-0.9599140882492065,-0.25609174370765686,0.10049644112586975,1.0155932903289795,0.039722055196762085
1.2956718187941698,-0.28758688358979745,-2.470644746684485,-0.2423977106809616,0.6773504614830017,-3.600679397583008,-0.0770554468035698,-0.9623913764953613,-0.2605102062225342,0.1421952247619629,0.9998974204063416,0.10075068473815918
1.3025956933569116,-0.15333702502490365,-2.605093231149461,0.017236515879631042,0.2700585722923279,-3.723846435546875,-0.0404747799038887,-0.964249312877655,-0.2618875801563263,0.1773461401462555,0.978897750377655,0.1425791084766388
1.3074223030230132,-0.013594133306143813,-2.749252359553342,0.3181464970111847,-0.15474018454551697,-3.865983247756958,-0.0035389820113778114,-0.9655171036720276,-0.26031553745269775,0.22166340053081512,0.9626332521438599,0.14654603600502014
1.3101426860406478,0.12893240423042626,-2.9011064659012304,0.6818506717681885,-0.6858527660369873,-3.901407480239868,0.033135440200567245,-0.9662217497825623,-0.2555728852748871,0.30530452728271484,0.970707893371582,0.11935767531394958
1.3113079942757644,0.2671097845655553,-3.0542009653099718,1.0931313037872314,-1.262406349182129,-3.7088751792907715,0.06772466748952866,-0.9665213823318481,-0.24748733639717102,0.44420772790908813,0.9754324555397034,0.07057696580886841
1.3121569099977275,0.3934762169740698,3.082193355244678,1.489781141281128,-1.8312498331069946,-3.3056819438934326,0.09806092828512192,-0.9667388796806335,-0.2362206131219864,0.6169201731681824,0.9521514177322388,0.026961565017700195
1.3135611157406053,0.5047052364694478,2.9454518207571017,1.7619023323059082,-2.3346264362335205,-2.83282208442688,0.12301866710186005,-0.9670970439910889,-0.22268733382225037,0.7502265572547913,0.9121654629707336,0.004685014486312866
1.3154157083967155,0.6008848810784897,2.8200356566513918,1.8566948175430298,-2.6527483463287354,-2.3646750450134277,0.14282098412513733,-0.9675672054290771,-0.20836497843265533,0.8058637380599976,0.8614270091056824,0.02574777603149414
1.3170702438939244,0.6814073710633943,2.7084707613996333,1.7290892601013184,-2.803056478500366,-1.929732322692871,0.15810956060886383,-0.9679838418960571,-0.19495828449726105,0.8240987062454224,0.7937132120132446,0.08387428522109985
1.3176238618465403,0.744058684106385,2.614704607938256,1.399030089378357,-2.780332088470459,-1.5452344417572021,0.169642835855484,-0.968122661113739,-0.18428225815296173,0.7924238443374634,0.7452680468559265,0.14026063680648804
1.3166309736744817,0.7868746860231923,2.5426214547272,0.9498680830001831,-2.5724918842315674,-1.1945348978042603,0.17805571854114532,-0.9678735136985779,-0.1775306910276413,0.7309103608131409,0.7193230390548706,0.175287663936615
1.3142189317156274,0.8101463389468974,2.493788463294443,0.4758874475955963,-2.192882776260376,-0.8677095770835876,0.18382905423641205,-0.9672641754150391,-0.17494817078113556,0.6691677570343018,0.6870976090431213,0.17009587585926056
1.310745170436304,0.815967257299162,2.467605854619618,0.019803069531917572,-1.6735843420028687,-0.5559386014938354,0.18729060888290405,-0.9663768410682678,-0.1761762946844101,0.6181445717811584,0.6451793313026428,0.10839678347110748
1.3064526326111572,0.8076314220212599,2.462061832746401,-0.39471688866615295,-1.0483622550964355,-0.26776331663131714,0.18881136178970337,-0.9652642011642456,-0.18059685826301575,0.5690469145774841,0.6076440215110779,0.03870542347431183
1.3012317218495906,0.7890212120715154,2.4740033721405212,-0.775029182434082,-0.3605286478996277,-0.05217484012246132,0.18899182975292206,-0.9638869166374207,-0.18762731552124023,0.5329014658927917,0.5672500133514404,-0.020060032606124878
1.2946200739043587,0.7650302279135903,2.499166065582198,-1.1054750680923462,0.4172094464302063,0.08474253118038177,0.18884626030921936,-0.9621050953865051,-0.19670012593269348,0.471493124961853,0.5155261158943176,-0.0739755630493164
1.2864445235123798,0.7399748884066305,2.533497553232414,-1.3721833229064941,1.1467440128326416,0.17743319272994995,0.1891566962003708,-0.9598436951637268,-0.20717161893844604,0.4021061360836029,0.45349597930908203,-0.11930543184280396
1.2767854603084388,0.7154689008070662,2.573952405256637,-1.5900019407272339,1.6686426401138306,0.2580516040325165,0.19009621441364288,-0.9570892453193665,-0.21873196959495544,0.3520333170890808,0.41436463594436646,-0.14160434901714325
1.2658017632237335,0.691474794965409,2.6181732595095215,-1.7546876668930054,1.9386192560195923,0.30271074175834656,0.19148574769496918,-0.9538486003875732,-0.23131367564201355,0.30996382236480713,0.40297579765319824,-0.13067053258419037
1.253554440964349,0.6685008618703404,2.663169697244324,-1.8628714084625244,2.00136137008667,0.2895451486110687,0.1933482140302658,-0.9500994086265564,-0.24480128288269043,0.2588002383708954,0.3648180365562439,-0.08346103131771088
1.2401645659610976,0.6475347381357704,2.706284235148157,-1.911937952041626,1.9566199779510498,0.236679807305336,0.1958303600549698,-0.9458374381065369,-0.2589246928691864,0.22633454203605652,0.30126047134399414,-0.0430772602558136
1.2259652711672233,0.6294636862389783,2.745579801047116,-1.903342366218567,1.8195090293884277,0.15585020184516907,0.19900664687156677,-0.9411326050758362,-0.2732505798339844,0.20661775767803192,0.2458200454711914,-0.03322216868400574
1.2112663139577216,0.6147609346969616,2.779761100440169,-1.8412774801254272,1.652448296546936,0.03873083367943764,0.20292524993419647,-0.9360622763633728,-0.2874176502227783,0.16902300715446472,0.2032741904258728,-0.04331660270690918
1.1963387514915547,0.6053260137454091,2.807063112580828,-1.7074016332626343,1.5589313507080078,-0.1557004451751709,0.20813299715518951,-0.9307061433792114,-0.30077704787254333,0.12696526944637299,0.19486629962921143,-0.08140984177589417
1.1814833665194557,0.6038050463235013,2.8253429890364035,-1.4871853590011597,1.5231282711029053,-0.4114644229412079,0.21550223231315613,-0.9251700639724731,-0.31244099140167236,0.06763988733291626,0.18813997507095337,-0.15197551250457764
1.1674974912045344,0.6106113174232712,2.8343569144193435,-1.188981294631958,1.4871971607208252,-0.5997520685195923,0.22502131760120392,-0.9197713732719421,-0.32153749465942383,0.04022228717803955,0.1730365753173828,-0.22510865330696106
1.1554131440562194,0.623686258605255,2.836024123270385,-0.8528459668159485,1.419608235359192,-0.669498860836029,0.23568043112754822,-0.9149617552757263,-0.327566534280777,0.07994765043258667,0.16364949941635132,-0.2638946771621704
1.145792458298946,0.6399720740049458,2.83328165999283,-0.5720427632331848,1.325972318649292,-0.6340430974960327,0.24622906744480133,-0.9110371470451355,-0.3307305872440338,0.14839377999305725,0.161388099193573,-0.2513769268989563
1.1384238888803517,0.6569878745024081,2.828650357603918,-0.379250705242157,1.2247675657272339,-0.5543431043624878,0.2559136152267456,-0.9079741835594177,-0.33179959654808044,0.1958380937576294,0.159454345703125,-0.19560518860816956
1.1326638542483427,0.6732433738498376,2.8238645500043713,-0.2893567681312561,1.1567634344100952,-0.4748653769493103,0.2645299732685089,-0.9055455327033997,-0.33167949318885803,0.21583199501037598,0.16109973192214966,-0.13491898775100708
1.1275590761401257,0.6884497292209292,2.8198008994012613,-0.2945423424243927,1.1467509269714355,-0.4386158287525177,0.27247610688209534,-0.9033680558204651,-0.3311840891838074,0.19584664702415466,0.16003620624542236,-0.08362612128257751
1.1223897691593827,0.7025189717384396,2.8168900694489474,-0.3389846384525299,1.1298617124557495,-0.41529932618141174,0.2801223397254944,-0.9011390805244446,-0.33087781071662903,0.1718430519104004,0.14927732944488525,-0.02121874690055847
1.1169339951829134,0.7151421447986425,2.815404016912131,-0.40139180421829224,1.1225587129592896,-0.38752445578575134,0.28749606013298035,-0.8987604379653931,-0.33102232217788696,0.14956143498420715,0.13701117038726807,0.02241334319114685
1.1113483650353206,0.7264537258209761,2.815495016230383,-0.4331190884113312,1.1581430435180664,-0.34258416295051575,0.2945519983768463,-0.8962974548339844,-0.3314968943595886,0.14162054657936096,0.11507785320281982,0.035689979791641235
1.1059345505389706,0.7376843255350107,2.816508512398216,-0.4253169298171997,1.2699871063232422,-0.31459569931030273,0.30151548981666565,-0.8938835263252258,-0.3317541778087616,0.13622871041297913,0.09040141105651855,0.012662410736083984
1.1008037997144062,0.7503088816900364,2.8176585412867947,-0.39403223991394043,1.4578057527542114,-0.30184635519981384,0.30880284309387207,-0.8915717005729675,-0.33127182722091675,0.10091093182563782,0.07673704624176025,-0.027508080005645752
1.0960490658678463,0.7650626346293029,2.8185955163592,-0.3528815507888794,1.6426608562469482,-0.2863900065422058,0.31658902764320374,-0.8894082903862,-0.3297341763973236,0.07490578293800354,0.07110977172851562,-0.03579011559486389
1.0917449824645649,0.7816723546789985,2.8193449090740383,-0.3098882734775543,1.799423336982727,-0.25899434089660645,0.3247155249118805,-0.8874325752258301,-0.32714423537254333,0.057089924812316895,0.07690095901489258,-0.033695608377456665
1.087893330525134,0.7991739567058159,2.820417282221399,-0.31002962589263916,1.865332007408142,-0.2213025987148285,0.3328385055065155,-0.885650634765625,-0.32379230856895447,0.066407710313797,0.06990057229995728,-0.016158193349838257
1.0839775867069585,0.8157470679936757,2.8224689650066863,-0.3743321895599365,1.7768421173095703,-0.21098630130290985,0.34068188071250916,-0.8838256001472473,-0.3206063508987427,0.06318777799606323,0.05547165870666504,0.034916043281555176
1.0795840169221262,0.8293031075316657,2.8259726556845335,-0.4641989767551422,1.5259044170379639,-0.20909275114536285,0.3478567600250244,-0.8817616701126099,-0.31857815384864807,0.046613484621047974,0.04347431659698486,0.09921777248382568
1.0746174922954155,0.838610583769017,2.831096070490897,-0.5601249933242798,1.232496738433838,-0.19678974151611328,0.3540593385696411,-0.8794081211090088,-0.3182503283023834,0.055944353342056274,0.017134010791778564,0.1521737277507782
1.06918427870607,0.8434959016259871,2.838116528990613,-0.6640015840530396,0.9821448922157288,-0.16076511144638062,0.35917386412620544,-0.8768085837364197,-0.3196890354156494,0.06531044840812683,-0.0037914514541625977,0.17744654417037964
1.0634269870450876,0.8443706813067366,2.8474991447787468,-0.7711828947067261,0.8414008021354675,-0.09612458944320679,0.363221138715744,-0.8740257024765015,-0.32272234559059143,0.06129369139671326,0.0010092854499816895,0.16395461559295654
1.0574995927670277,0.8423190317471253,2.8591769470942956,-0.8557589054107666,0.7975412607192993,-0.030981549993157387,0.3664175868034363,-0.8711304068565369,-0.3269101083278656,0.060309767723083496,0.03169846534729004,0.1222592294216156
1.0516153318043393,0.8397301566881958,2.8721378827302217,-0.8671862483024597,0.9617406129837036,-0.002248171716928482,0.3693796694278717,-0.8682258129119873,-0.33127424120903015,0.04919949173927307,0.048554182052612305,0.04196763038635254
1.0459528857373495,0.8396851433009804,2.884806172593923,-0.8196446895599365,1.2148574590682983,0.004744581878185272,0.37301868200302124,-0.8654024004936218,-0.3345681428909302,0.015653222799301147,0.052597224712371826,-0.059413760900497437
1.0408825783912519,0.8426869569422784,2.896892791347556,-0.7574955224990845,1.4667400121688843,0.05291637033224106,0.3772917687892914,-0.8628506660461426,-0.3363625705242157,0.0055055320262908936,0.07061433792114258,-0.12809967994689941
1.0366300608386383,0.848345566244415,2.9089771604437002,-0.7221807241439819,1.7287671566009521,0.12850992381572723,0.38193830847740173,-0.8606933951377869,-0.3366454839706421,0.019306838512420654,0.09400022029876709,-0.1540619134902954
1.033294670829259,0.8552389566893196,2.9220824606483564,-0.7226536870002747,1.8710036277770996,0.2526648938655853,0.3864143490791321,-0.858990490436554,-0.3358861207962036,0.043959856033325195,0.10937190055847168,-0.12116038799285889
1.031030111486599,0.8610645856858007,2.9371326159110103,-0.7428914904594421,1.848730206489563,0.4111582040786743,0.3898389935493469,-0.8578288555145264,-0.3348959982395172,0.09095022082328796,0.11066693067550659,-0.0629006028175354
1.0298590091939688,0.8641770228055058,2.954525092914957,-0.7605788707733154,1.7406539916992188,0.5687465071678162,0.3916432559490204,-0.8572263717651367,-0.33433306217193604,0.1270488202571869,0.10554790496826172,-0.007784247398376465
1.0297807283450064,0.8646473130068772,2.973595320271645,-0.7269002795219421,1.607255458831787,0.6838193535804749,0.3918514549732208,-0.8571860790252686,-0.33419233560562134,0.16138648986816406,0.08670878410339355,0.022455304861068726
1.0307945232893312,0.8635419730007287,2.9927193592639645,-0.6266613006591797,1.4387341737747192,0.7320600748062134,0.39082106947898865,-0.8577077388763428,-0.3340604603290558,0.15449759364128113,0.04993796348571777,0.002166569232940674
1.0326558749783727,0.862021719007223,3.0102479161020423,-0.49733760952949524,1.263451099395752,0.7113583087921143,0.3891000747680664,-0.8586632609367371,-0.3336144983768463,0.09373381733894348,0.04776543378829956,-0.037494510412216187
1.0350003903300555,0.8610124287845562,3.02549368955332,-0.3800056576728821,1.1579089164733887,0.6564133167266846,0.38723504543304443,-0.8598625659942627,-0.3326941430568695,0.043902069330215454,0.060042619705200195,-0.05445179343223572
1.0376966465340463,0.8612164859978477,3.038637976126344,-0.28529080748558044,1.1502909660339355,0.6258513927459717,0.38554272055625916,-0.8612359166145325,-0.33110344409942627,0.019974857568740845,0.055800795555114746,-0.07110294699668884
1.040820971999106,0.8629882824392453,3.0504893249646114,-0.22426821291446686,1.2504218816757202,0.630767285823822,0.3840825855731964,-0.8628195524215698,-0.32866886258125305,0.017681390047073364,0.05858975648880005,-0.09259575605392456
1.044373954088396,0.8664923734482536,3.0619612798785747,-0.19663569331169128,1.4330195188522339,0.6601200699806213,0.38289329409599304,-0.8646101355552673,-0.32533395290374756,0.013362228870391846,0.07898080348968506,-0.11350882053375244
1.0483625378811285,0.8716139882565419,3.073885003553096,-0.20326003432273865,1.6510077714920044,0.7230279445648193,0.3819120526313782,-0.8666073083877563,-0.3211466372013092,0.009048700332641602,0.08178675174713135,-0.12175500392913818
1.0527734713962489,0.8776379196941438,3.0872220504838537,-0.25402042269706726,1.8499847650527954,0.7972113490104675,0.3808954358100891,-0.8687998652458191,-0.31639453768730164,0.016931802034378052,0.06623333692550659,-0.11890816688537598
1.0571832148317193,0.8835929362997449,3.1024988908560602,-0.3520830571651459,1.977642297744751,0.8279716372489929,0.3798075020313263,-0.8709749579429626,-0.31168726086616516,0.01843169331550598,0.053592145442962646,-0.09450173377990723
1.0609325848119384,0.8888337701768644,3.119758928712973,-0.47848913073539734,2.0555460453033447,0.8122513890266418,0.3788977861404419,-0.8728110194206238,-0.30763185024261475,-0.002142995595932007,0.033272504806518555,-0.044830888509750366
1.0637415993583386,0.8929012096388537,3.138478539596089,-0.5754106044769287,1.999782681465149,0.7606177926063538,0.3782348930835724,-0.8741785287857056,-0.3045494258403778,-0.022384583950042725,0.005510926246643066,0.0011894702911376953
1.065635292356029,0.8957854856768629,-3.1257237060982406,-0.6099749207496643,1.8851070404052734,0.6769493818283081,0.37781867384910583,-0.8750965595245361,-0.3024221956729889,-0.03550294041633606,-0.015803158283233643,0.01790684461593628
1.066777027850497,0.8984867304448015,-3.1079993555486456,-0.5718328356742859,1.7455589771270752,0.5641182065010071,0.3778522312641144,-0.8756484985351562,-0.3007780611515045,-0.05038326978683472,-0.02736663818359375,0.004498124122619629
1.0676014688343212,0.902230037322049,-3.0929763328748052,-0.45028334856033325,1.6269210577011108,0.4653450846672058,0.3784087896347046,-0.876046359539032,-0.2989138960838318,-0.06601554155349731,-0.03743624687194824,-0.03182035684585571
1.068705513655105,0.9080951042450804,-3.0814622700306824,-0.2797214686870575,1.5628336668014526,0.39674898982048035,0.3793928027153015,-0.8765782713890076,-0.29609420895576477,-0.06796085834503174,-0.03565317392349243,-0.08194229006767273
1.0704691681379004,0.9167765107604444,-3.073383980519728,-0.1217660903930664,1.5976552963256836,0.3612406253814697,0.3807213008403778,-0.8774256706237793,-0.2918483018875122,-0.06314006447792053,-0.014099538326263428,-0.1235111653804779
1.0729096717366233,0.9283396314795125,-3.0675640912029616,-0.036981698125600815,1.7414507865905762,0.3657251298427582,0.38235488533973694,-0.8785938024520874,-0.2861427068710327,-0.06031811237335205,0.008140981197357178,-0.1382804811000824
1.0757332044442414,0.9419914199092632,-3.062155867008799,-0.05355345457792282,1.9303556680679321,0.39681100845336914,0.3842177093029022,-0.8799387216567993,-0.2794361114501953,-0.044450193643569946,0.003596007823944092,-0.1199168860912323
1.0785850679305269,0.9563270912077665,-3.055315595555274,-0.14626368880271912,2.1274375915527344,0.44425973296165466,0.38613227009773254,-0.8812900185585022,-0.27245190739631653,-0.033333659172058105,-0.011669695377349854,-0.07837823033332825
1.0812736320355962,0.9703384933435154,-3.0460348794578316,-0.2629953622817993,2.294508218765259,0.4921085834503174,0.3879552483558655,-0.8825573921203613,-0.26567530632019043,-0.027664631605148315,-0.016673564910888672,-0.05146333575248718
1.083730306312327,0.9835522935430508,-3.0342761570168775,-0.36823683977127075,2.3979127407073975,0.5258891582489014,0.3896254599094391,-0.8837098479270935,-0.2593235969543457,-0.0377730131149292,-0.026797235012054443,-0.04840037226676941
1.0859249926592585,0.9958895497674548,-3.0209057609100873,-0.4223215579986572,2.405749559402466,0.513023853302002,0.3911665081977844,-0.8847349286079407,-0.2534419000148773,-0.050941288471221924,-0.04026806354522705,-0.048163264989852905
1.0877674717944485,1.0077733430876634,-3.0076558978194945,-0.40806645154953003,2.2830135822296143,0.45249632000923157,0.39277184009552,-0.8855922222137451,-0.24790529906749725,-0.06038948893547058,-0.06763976812362671,-0.04585692286491394
1.0892422789774137,1.0193511421475272,-2.9960209873422947,-0.34457385540008545,2.0711822509765625,0.3691287934780121,0.3945024013519287,-0.8862762451171875,-0.2426566183567047,-0.06872722506523132,-0.09284967184066772,-0.04513935744762421
1.090492457953111,1.0305734543682086,-2.9866415013997436,-0.26071542501449585,1.8248331546783447,0.29379570484161377,0.3962504267692566,-0.8868545889854431,-0.23764429986476898,-0.06571447849273682,-0.09512484073638916,-0.042583346366882324
1.0917207133646034,1.0416425822754405,-2.979719644173213,-0.1614796668291092,1.6090015172958374,0.2482338845729828,0.39791586995124817,-0.8874214291572571,-0.23269355297088623,-0.048764169216156006,-0.0850059986114502,-0.04707634449005127
1.0932434670527968,1.0525863835553066,-2.9748682023435276,-0.07205551117658615,1.4372931718826294,0.24403752386569977,0.39926424622535706,-0.8881223201751709,-0.22765542566776276,-0.03207665681838989,-0.0555117130279541,-0.06781578063964844
1.095419316312164,1.0634241189669502,-2.971576193890712,0.022558612748980522,1.306803584098816,0.28509894013404846,0.4000178873538971,-0.8891202211380005,-0.22237546741962433,-0.0008021295070648193,-0.019998371601104736,-0.0817779153585434
1.0985721401517508,1.0740724788208709,-2.9695222374740085,0.11339450627565384,1.186579942703247,0.3591667711734772,0.3998965620994568,-0.8905587792396545,-0.21676640212535858,0.03763395547866821,-0.0007832646369934082,-0.09606923162937164
1.102876689677279,1.0843998450306664,-2.968208791397223,0.1854611337184906,1.1123546361923218,0.4533602297306061,0.3987216055393219,-0.8925085067749023,-0.21083132922649384,0.058004558086395264,0.012640953063964844,-0.10932856798171997
1.1082627058491066,1.0945755826154528,-2.967359232954425,0.24253854155540466,1.0686264038085938,0.5322585701942444,0.3965681791305542,-0.8949248194694519,-0.20455648005008698,0.06209579110145569,0.022488296031951904,-0.11523716151714325
1.114591052519465,1.1046714990972846,-2.9669711597668056,0.2944098114967346,1.0120346546173096,0.6064227223396301,0.3935459852218628,-0.8977307081222534,-0.19799312949180603,0.05500146746635437,0.029505610466003418,-0.11298096179962158
1.1216583162406488,1.1146248845440685,-2.9670602109334516,0.3386608958244324,0.9539908170700073,0.651329755783081,0.38979166746139526,-0.9008216857910156,-0.19126664102077484,0.0489749014377594,0.025577545166015625,-0.10492169857025146
1.1291716134572272,1.1245080472869642,-2.967707801524756,0.3638237416744232,0.8990322947502136,0.6731586456298828,0.3855465352535248,-0.9040584564208984,-0.18447840213775635,0.03963971138000488,0.017461776733398438,-0.09281957149505615
1.1369681380262373,1.134227438317585,-2.9688110589121837,0.38572344183921814,0.8436710238456726,0.6948069334030151,0.38092219829559326,-0.90736323595047,-0.17773665487766266,0.0300123393535614,0.02445918321609497,-0.08357004821300507
1.145136063368417,1.1438326961546657,-2.9703323543939333,0.41368910670280457,0.7969386577606201,0.729234516620636,0.37585321068763733,-0.9107663035392761,-0.170994833111763,0.032716214656829834,0.03245514631271362,-0.08069883286952972
1.1537380951053648,1.1536950202531724,-2.972622385862871,0.4613839089870453,0.7503706216812134,0.7549566626548767,0.37034475803375244,-0.9142845273017883,-0.16409985721111298,0.03863665461540222,0.025292158126831055,-0.08048319816589355
1.1626499840345903,1.1642643585648298,-2.976239206297865,0.514075756072998,0.6934661269187927,0.7528077960014343,0.36455973982810974,-0.9178581237792969,-0.15694814920425415,0.038806408643722534,0.019863128662109375,-0.07646547257900238
1.1714628539706389,1.175959306152386,-2.98170050730489,0.5654561519622803,0.6381171345710754,0.6927386522293091,0.35888969898223877,-0.9213203191757202,-0.1495566964149475,0.027798593044281006,0.009760260581970215,-0.07201611995697021
1.1797171114509335,1.1891919164184377,-2.9894580662144548,0.611239492893219,0.5681268572807312,0.6023668646812439,0.3537672460079193,-0.9244982004165649,-0.14195770025253296,-0.00025159120559692383,-0.011002898216247559,-0.06725549697875977
1.1872565434655928,1.2039107033813328,-2.9997326267059616,0.6565574407577515,0.46911609172821045,0.513519287109375,0.3493019938468933,-0.9273458123207092,-0.13423137366771698,-0.01632457971572876,-0.026191234588623047,-0.05863972008228302
1.1940899741650157,1.2198747429457233,-3.0122829090620464,0.689028263092041,0.3963126540184021,0.43814292550086975,0.34544116258621216,-0.9298812747001648,-0.12645676732063293,-0.017239809036254883,-0.025746166706085205,-0.04964481294155121
1.200309459027628,1.2367634135751562,-3.0262490353656255,0.6816427707672119,0.38480034470558167,0.39249634742736816,0.34205690026283264,-0.932151198387146,-0.11870646476745605,-0.017258286476135254,-0.013435959815979004,-0.04764483869075775
1.2061107369042203,1.2540065099768207,-3.0404463255636194,0.6522427797317505,0.4107402563095093,0.3832452595233917,0.3389085531234741,-0.9342359304428101,-0.11110454797744751,-0.011668503284454346,0.0031141042709350586,-0.041071295738220215
1.2116761292526579,1.2711897699009553,-3.054254627771677,0.6128788590431213,0.4430803656578064,0.3786923289299011,0.33579444885253906,-0.9362064003944397,-0.10372865200042725,-0.002786576747894287,0.024982094764709473,-0.035004183650016785
1.2170501465477337,1.2881913867499268,-3.0673634275183326,0.5695476531982422,0.5035264492034912,0.386886864900589,0.33267298340797424,-0.9380815625190735,-0.09660051017999649,-0.00238114595413208,0.04004085063934326,-0.036822304129600525
1.22233800030805,1.3049378446649116,-3.079446558345776,0.5145195126533508,0.5717193484306335,0.4048464298248291,0.3294534981250763,-0.9399002194404602,-0.08971166610717773,-0.004364907741546631,0.043842971324920654,-0.03992701321840286
1.227557687201282,1.321130484466906,-3.090320184599871,0.4603855311870575,0.6154991388320923,0.415409654378891,0.32610437273979187,-0.9416697025299072,-0.08315204828977585,-0.005013644695281982,0.05051058530807495,-0.04035257548093796
1.2326618800539986,1.3366329403833273,-3.1000492965908744,0.41721194982528687,0.6474935412406921,0.4175441861152649,0.32267457246780396,-0.9433751702308655,-0.07697056978940964,-0.009945660829544067,0.05639702081680298,-0.04558794945478439
1.2375789874694643,1.3523089404650999,-3.1095063450479197,0.416332483291626,0.6984374523162842,0.39718762040138245,0.3193090856075287,-0.9449948668479919,-0.07089673727750778,-0.01791742444038391,0.05641460418701172,-0.05504923313856125
1.2421563903471866,1.3696157607759438,-3.120217547451703,0.4544790983200073,0.7278094291687012,0.3474791646003723,0.3162465989589691,-0.9464821815490723,-0.06449514627456665,-0.01526692509651184,0.042612552642822266,-0.06514346599578857
1.2461518472347939,1.389127281826019,-3.1330302373954564,0.5009849667549133,0.7470731735229492,0.2804914116859436,0.3137228488922119,-0.9477641582489014,-0.057629119604825974,-0.013582378625869751,0.028681516647338867,-0.07057517766952515
1.2495024798154535,1.4108954631778972,3.135377963459685,0.5295450091362,0.7996213436126709,0.22031621634960175,0.311766117811203,-0.9488276243209839,-0.05028093606233597,-0.01367032527923584,0.03468877077102661,-0.06455665826797485
1.2522196233581646,1.4340958380925881,3.119707618390137,0.5172425508499146,0.8606464266777039,0.17550167441368103,0.3102935254573822,-0.9496821761131287,-0.04268348217010498,-0.002676248550415039,0.04833018779754639,-0.04093468189239502
1.2545261436905315,1.457515134353165,3.1044632756169532,0.48121851682662964,0.918686032295227,0.16850927472114563,0.30903083086013794,-0.9504020810127258,-0.03515790030360222,0.015722066164016724,0.06238621473312378,-0.010786239057779312
1.256882286158348,1.4804228446779752,3.090152217791273,0.4459356665611267,0.928051233291626,0.2142965942621231,0.3075238764286041,-0.9511322379112244,-0.027867913246154785,0.04406920075416565,0.08025211095809937,0.00713128037750721
1.2597290169927073,1.5021811538330174,3.0767802337531562,0.4211791753768921,0.8640977740287781,0.2860277593135834,0.305355042219162,-0.9520074129104614,-0.020984932780265808,0.07884606719017029,0.09824758768081665,0.014026999473571777
1.2632451926727173,1.5227593181977452,3.063804743904454,0.4094264507293701,0.7757216095924377,0.3656001687049866,0.30237695574760437,-0.9530777335166931,-0.01453646644949913,0.11031234264373779,0.10633695125579834,0.015070557594299316
1.2673845568283557,1.5426477889204369,3.0507619643119703,0.4021408259868622,0.7137652635574341,0.43162980675697327,0.2986597716808319,-0.9543226957321167,-0.008409056812524796,0.11882069706916809,0.10089856386184692,0.005906702019274235
1.271987687490079,1.5622404800024976,3.0376598510057065,0.38891205191612244,0.705457329750061,0.46850669384002686,0.2943715453147888,-0.9556878805160522,-0.002518659457564354,0.09858813881874084,0.0951836109161377,-0.0030201675835996866
1.276713033819778,1.5819202616077541,3.024584402456583,0.37126272916793823,0.722416877746582,0.4704577326774597,0.2898448705673218,-0.9570682644844055,0.0032243484165519476,0.0741230845451355,0.09747964143753052,-0.0006302597466856241
1.2813351077302977,1.601789619874757,3.0114517280639284,0.3643624484539032,0.7292889952659607,0.4656781554222107,0.2852992117404938,-0.9583978056907654,0.00884519424289465,0.06177729368209839,0.1005638837814331,0.003651857376098633
1.2859067747798885,1.622208053557313,2.997744763226053,0.37459883093833923,0.7149462699890137,0.47651350498199463,0.28067976236343384,-0.9596927165985107,0.014442958869040012,0.06761735677719116,0.10213357210159302,0.001655098982155323
1.2904814175616819,1.643637993691913,2.982684887180182,0.407388299703598,0.6664109230041504,0.4838072955608368,0.2759249210357666,-0.9609683752059937,0.02013445273041725,0.08412158489227295,0.10978734493255615,-0.0015645027160644531
1.2949331919842455,1.6665379044586828,2.9653373595680996,0.4674084782600403,0.5707494020462036,0.4774857461452484,0.27113020420074463,-0.9621904492378235,0.026038041338324547,0.08940446376800537,0.12423878908157349,-0.012305023148655891
1.2991944891570184,1.6917470039733677,2.9447274608693528,0.5479135513305664,0.5058722496032715,0.4919399619102478,0.26631516218185425,-0.9633424282073975,0.03236899524927139,0.09235799312591553,0.13901680707931519,-0.02896619215607643
1.3035645915107825,1.7204030095080076,2.9201798053706916,0.6233172416687012,0.4957045018672943,0.5533982515335083,0.2611129581928253,-0.9645056128501892,0.03935832530260086,0.09714820981025696,0.1586279273033142,-0.04799473658204079
1.308411652565135,1.7522613345789966,2.893114510568297,0.5837035179138184,0.6599904298782349,0.6342942118644714,0.25512567162513733,-0.9657741785049438,0.046811338514089584,0.10518020391464233,0.18916285037994385,-0.05433392524719238
1.314245058330293,1.783379798304771,2.8672656135678682,0.49457791447639465,0.5454944968223572,0.7734670639038086,0.24803434312343597,-0.9672708511352539,0.05353691428899765,0.13703653216362,0.20312589406967163,0.05129098892211914
1.3214676427498626,1.816215222863069,2.8391368855058405,0.564855694770813,0.6027101278305054,0.9447647333145142,0.239360049366951,-0.9690783023834229,0.05995198339223862,0.17181864380836487,0.21782702207565308,0.0173184871673584
1.3293471529728553,1.8577514571610112,2.80333511078403,0.6968259811401367,0.7464806437492371,1.0156476497650146,0.2293333113193512,-0.9709925055503845,0.06767620891332626,0.18178430199623108,0.20056092739105225,-0.08949613571166992
1.3366548232826583,1.9087655897345583,2.7593176155662027,0.8204391598701477,0.9017777442932129,0.9959031939506531,0.21888349950313568,-0.9727138876914978,0.07692740857601166,0.1210060715675354,0.19305074214935303,-0.13190484046936035
1.342439135015729,1.9687957671959673,2.707852129627903,0.9630002975463867,1.077348232269287,0.9194406270980835,0.20868366956710815,-0.974039614200592,0.08773834258317947,0.06411303579807281,0.21207672357559204,-0.1469881534576416
1.345956530172651,2.0364145599834638,2.6501738009811713,1.0898698568344116,1.189876914024353,0.7954116463661194,0.19921620190143585,-0.9748298525810242,0.10009931027889252,0.022738218307495117,0.1984015703201294,-0.1524522304534912
1.346898373583135,2.107406519810585,2.589948808122467,1.1507539749145508,1.250831127166748,0.6574745178222656,0.1908247470855713,-0.9750393629074097,0.11350850015878677,-0.003187328577041626,0.16556060314178467,-0.1291487216949463
1.3459433651397084,2.1758425082811503,2.5325339015393484,1.0764366388320923,1.2242374420166016,0.571307361125946,0.18338192999362946,-0.9748268723487854,0.12682154774665833,-0.00874502956867218,0.1199226975440979,-0.05888940393924713
1.344469362466968,2.2369314117084262,2.4821112169674486,0.9010733962059021,1.1553242206573486,0.5401182770729065,0.1764269471168518,-0.9744971990585327,0.138668492436409,0.009715110063552856,0.08089667558670044,0.03288602828979492
1.3437702839305585,2.2902942962829504,2.438957389007924,0.6765136122703552,1.1028740406036377,0.609420120716095,0.1692914366722107,-0.9743400812149048,0.14832977950572968,0.038380756974220276,0.06715935468673706,0.1258401721715927
1.3450847786524605,2.3389791865734857,2.3999110845211935,0.435378760099411,1.0075033903121948,0.7809745669364929,0.160951167345047,-0.974635124206543,0.1555027812719345,0.08970500528812408,0.06200695037841797,0.1980128139257431
1.349082090436552,2.3856696291554234,2.3614848830660176,0.19445893168449402,0.8328568339347839,0.9980828166007996,0.15084432065486908,-0.9755219221115112,0.16000942885875702,0.1206248551607132,0.06275641918182373,0.24112890660762787
1.3558344527967827,2.4329283158232617,2.321104599454061,-0.020559901371598244,0.7537478804588318,1.1954022645950317,0.13882650434970856,-0.9769845008850098,0.16195176541805267,0.11915387213230133,0.06246429681777954,0.245473250746727
1.364617699113903,2.4834213389437925,2.277306369282078,-0.17195101082324982,0.7843151092529297,1.3204227685928345,0.12522175908088684,-0.9788203835487366,0.1619570404291153,0.06807659566402435,0.04066431522369385,0.1983487457036972
1.374370164029379,2.53820768866642,2.2298425319504247,-0.266247421503067,0.8718066215515137,1.3478994369506836,0.1107434555888176,-0.9807703495025635,0.16070325672626495,-0.010294780135154724,-0.0052678585052490234,0.13809441030025482
1.3839009232921868,2.596163601051158,2.1801294936125832,-0.2910997271537781,0.9541561603546143,1.2633792161941528,0.09639503806829453,-0.9825858473777771,0.15884920954704285,-0.08394382148981094,-0.0569344162940979,0.09009800851345062
1.3921528149506128,2.6543418068363382,2.1310089044222966,-0.2507592439651489,1.0103027820587158,1.0952908992767334,0.08319618552923203,-0.9840856194496155,0.15701481699943542,-0.16364046931266785,-0.0967705249786377,0.05683715641498566
1.3984954829374578,2.7105826819461236,2.0842855028223735,-0.15370795130729675,1.0193816423416138,0.9326934218406677,0.07162969559431076,-0.9851928949356079,0.15576955676078796,-0.21652710437774658,-0.1317352056503296,0.039054736495018005
1.4028591169160634,2.765044060149592,2.0390334517896735,-0.048935212194919586,0.9371150732040405,0.8222907185554504,0.06146277114748955,-0.9859316349029541,0.15543816983699799,-0.21154817938804626,-0.16441315412521362,0.04277358949184418
1.4056604836359712,2.817049719217466,1.9951375183191404,0.018742311745882034,0.8014578819274902,0.7374953627586365,0.05241899564862251,-0.9863960146903992,0.15580540895462036,-0.18445321917533875,-0.1954582929611206,0.06636261940002441
1.407395529418327,2.864697593204036,1.9544105774088996,0.039867039769887924,0.6930203437805176,0.631144642829895,0.044470708817243576,-0.9866797924041748,0.15647920966148376,-0.1796482503414154,-0.22166389226913452,0.09136940538883209
1.4086185454549578,2.90478304038906,1.9204750565664384,-0.0029242318123579025,0.6223820447921753,0.48942166566848755,0.03788074105978012,-0.986877977848053,0.15696142613887787,-0.20052409172058105,-0.24026429653167725,0.1176663488149643
1.4099729325738146,2.9348811421573915,1.8960184462352714,-0.09581688791513443,0.5665470361709595,0.332108736038208,0.03286609426140785,-0.9870957732200623,0.15672390162944794,-0.22639325261116028,-0.24317491054534912,0.14938287436962128
1.4120818864921478,2.9539523289217495,1.8822690926243513,-0.23069451749324799,0.5321247577667236,0.18002904951572418,0.029482664540410042,-0.9874312877655029,0.155274897813797,-0.2254665195941925,-0.24557042121887207,0.1784958690404892
1.4151792791412434,2.9639536916226,1.877480607592001,-0.3466187119483948,0.5231238007545471,0.08882962912321091,0.027387721464037895,-0.987916111946106,0.15255118906497955,-0.20602229237556458,-0.23222249746322632,0.18581245839595795
1.4191344256548075,2.9690484204293597,1.8776125291010555,-0.4200326204299927,0.5150719881057739,0.046315997838974,0.02593923546373844,-0.9885213375091553,0.14883896708488464,-0.17600935697555542,-0.22118031978607178,0.1636306196451187
1.4233976050359318,2.97082023537963,1.8808404149135667,-0.41888266801834106,0.46453264355659485,0.005964845418930054,0.02495909482240677,-0.9891564846038818,0.1447305977344513,-0.151210218667984,-0.21177148818969727,0.1287679821252823
1.427154173507219,2.9696200045888004,1.886194138361778,-0.3376867473125458,0.3418041169643402,-0.029523927718400955,0.02449658326804638,-0.9897012114524841,0.14103761315345764,-0.14360666275024414,-0.19801247119903564,0.09399354457855225
1.4298885352078794,2.9659677726355755,1.8924094106596094,-0.2306167632341385,0.15319213271141052,-0.047339145094156265,0.024538591504096985,-0.990088939666748,0.13828212022781372,-0.1295190155506134,-0.18276268243789673,0.06664346158504486
1.4315526662814457,2.959959297820385,1.899154817728299,-0.13204899430274963,-0.014365565963089466,-0.07796953618526459,0.025071224197745323,-0.9903212785720825,0.13651077449321747,-0.1126261055469513,-0.16649329662322998,0.05217956006526947
1.4322334997013189,2.950439340813802,1.9078908369248904,-0.048451051115989685,-0.15454983711242676,-0.1424422711133957,0.026241544634103775,-0.9904155135154724,0.13560394942760468,-0.1001703143119812,-0.1489734649658203,0.04409883916378021
1.431966867659307,2.9341991098107743,1.9222729646013477,0.015096234157681465,-0.22879956662654877,-0.2619636058807373,0.028494585305452347,-0.9903786778450012,0.13541825115680695,-0.09970731288194656,-0.134255051612854,0.037067145109176636
1.4310235730909566,2.909118578895116,1.9454576343031418,0.021354928612709045,-0.18110528588294983,-0.4009760916233063,0.032096974551677704,-0.9902476668357849,0.13557064533233643,-0.1383439004421234,-0.1320973038673401,0.014804825186729431
1.4300065191838458,2.8761046653872078,1.977451612923533,-0.05469035729765892,-0.0801328718662262,-0.5025219917297363,0.03681830316781998,-0.9901054501533508,0.1354079246520996,-0.156599760055542,-0.12886714935302734,0.005827397108078003
1.4298648506915146,2.8393303072836398,2.0146758212547673,-0.21472370624542236,0.10314427316188812,-0.4920664131641388,0.04181380942463875,-0.9900856018066406,0.13409735262393951,-0.11755838990211487,-0.09026718139648438,0.019345030188560486
1.43145308731832,2.804665753682093,2.051597684257118,-0.41159337759017944,0.26358675956726074,-0.37097471952438354,0.04591662064194679,-0.9903074502944946,0.1310843527317047,-0.051089316606521606,-0.03963041305541992,0.030872583389282227
1.4352283295600519,2.7758425437778067,2.08375445071456,-0.5933674573898315,0.32516542077064514,-0.19059589505195618,0.048338133841753006,-0.9908246994018555,0.12621517479419708,0.01983822137117386,-0.008961796760559082,0.03786267340183258
1.4411016732084716,2.753512706825351,2.1094906961568824,-0.7377586364746094,0.30143389105796814,-0.014460676349699497,0.04894078150391579,-0.9916014075279236,0.11971458047628403,0.0644778311252594,0.0035184621810913086,0.03003525733947754
1.4486801549423194,2.735609372697691,2.1304099396279725,-0.8538234233856201,0.2626737058162689,0.10832250118255615,0.048107367008924484,-0.9925530552864075,0.11191299557685852,0.07507691532373428,0.0076590776443481445,0.014033094048500061
1.4572173202461758,2.719719827546703,2.148272828310051,-0.8514267802238464,0.10438106209039688,0.19304758310317993,0.04640737548470497,-0.9935568571090698,0.10339846462011337,0.06279987096786499,0.010310947895050049,0.018504135310649872
1.4652170888380323,2.7100934057404245,2.1586374025238406,-0.678175687789917,0.04473664611577988,0.2523476481437683,0.04407491162419319,-0.9944316744804382,0.09572412073612213,0.004448052495718002,0.014069736003875732,-0.20743370056152344
1.4713427674789181,2.708855360352399,2.1597881499646348,-0.4362458884716034,-0.08150209486484528,0.23005925118923187,0.04163800925016403,-0.9950585961341858,0.09013760834932327,0.006884988397359848,0.014696598052978516,-0.20184707641601562
1.4750151900345538,2.7123920667615296,2.1544670535023362,-0.1857984960079193,-0.26610416173934937,0.1684904396533966,0.03979796543717384,-0.995416522026062,0.08696085214614868,-0.020358238369226456,0.0012301206588745117,-0.2248544692993164
1.4762811870062713,2.7190506963359398,2.1443447492655356,0.027180952951312065,-0.4040452539920807,0.11203034222126007,0.0387018546462059,-0.995536744594574,0.08607587218284607,-0.034093618392944336,-0.0141679048538208,-0.2231149673461914
1.475692528421524,2.7282885455482178,2.1306843573660315,0.173980250954628,-0.4572775661945343,0.07618898898363113,0.03814017027616501,-0.995481014251709,0.08696579933166504,-0.04383161664009094,-0.02299743890762329,-0.20256638526916504
1.4740750857647462,2.73959336188159,2.1147397493464344,0.2322419434785843,-0.4435409903526306,0.08067117631435394,0.03778492286801338,-0.9953261613845825,0.08887393772602081,-0.032474782317876816,-0.016087651252746582,-0.16713619232177734
1.4723647275684855,2.7539329914927455,2.0961465640374266,0.21045462787151337,-0.3786384165287018,0.12706157565116882,0.03714950010180473,-0.9951595067977905,0.09098093956708908,-0.007959369570016861,-0.015094399452209473,-0.1365436315536499
1.4713855191517506,2.771581274286655,2.075145380088563,0.1165638417005539,-0.26884007453918457,0.18547022342681885,0.03589063510298729,-0.9950628280639648,0.09253115206956863,0.010099437087774277,-0.02596384286880493,-0.11821151524782181
1.4716398980623073,2.790732282637308,2.053808311222331,-0.018972154706716537,-0.1440776288509369,0.2260165810585022,0.03402527794241905,-0.9950880408287048,0.09296426922082901,0.014299392700195312,-0.03379690647125244,-0.09574127197265625
1.4733837930675902,2.8098898574696443,2.033771453174768,-0.17777571082115173,-0.01381791103631258,0.2633059024810791,0.0316726490855217,-0.995259165763855,0.09195709228515625,0.01393594965338707,-0.03498375415802002,-0.0712660625576973
1.4766810379187705,2.829612246753379,2.014451968641285,-0.32495930790901184,0.11184866726398468,0.2941841781139374,0.028846051543951035,-0.995574414730072,0.08944164961576462,0.02246931567788124,-0.037277936935424805,-0.05292724817991257
1.4811839884514364,2.849943425656069,1.9957656736479887,-0.4216728210449219,0.2326156497001648,0.2944609522819519,0.025732669979333878,-0.9959874749183655,0.0857156366109848,0.029595736414194107,-0.04496729373931885,-0.04924701899290085
1.4862124460850532,2.8693648418867017,1.9791548469255473,-0.4496120512485504,0.3333398401737213,0.25777751207351685,0.022716421633958817,-0.9964249134063721,0.08137475699186325,0.013034971430897713,-0.05678272247314453,-0.0630640909075737
1.4909550801578981,2.8859653684566693,1.9661967456336606,-0.39841577410697937,0.3991123139858246,0.19682766497135162,0.020166723057627678,-0.9968143701553345,0.07716520130634308,-0.013544352725148201,-0.05939900875091553,-0.0854048803448677
1.494656573978545,2.8995360829007333,1.9566640877958577,-0.2721603512763977,0.39770111441612244,0.12908989191055298,0.01823342591524124,-0.9971027970314026,0.07385016977787018,-0.02398592233657837,-0.05633360147476196,-0.10416936874389648
1.4966912856487826,2.9092530219969226,1.9505000799544834,-0.09114671498537064,0.31274038553237915,0.055407166481018066,0.017047714442014694,-0.9972555041313171,0.07204905152320862,-0.02261713147163391,-0.05608928203582764,-0.11802363395690918
1.4965175048459523,2.914964891664415,1.9474589399783984,0.13487204909324646,0.22811256349086761,-0.02298830822110176,0.01667514443397522,-0.9972425699234009,0.07231542468070984,-0.022336063906550407,-0.06554752588272095,-0.12482082098722458
1.4940733060438276,2.9200070539362146,1.9447500836379354,0.34011146426200867,0.2472299039363861,-0.033044878393411636,0.016845189034938812,-0.9970582127571106,0.07477282732725143,-0.02532905712723732,-0.06640297174453735,-0.12938393652439117
1.489940440889819,2.928757353643557,1.938457281190847,0.47846001386642456,0.2298455834388733,-0.05345028638839722,0.01706116460263729,-0.9967329502105713,0.0789472684264183,0.013883739709854126,-0.01678645610809326,-0.12428116798400879
1.4845490001198087,2.9350299819560717,1.9339663888155407,0.5774574875831604,0.13586018979549408,-0.09729744493961334,0.01766737923026085,-0.9962829947471619,0.08431040495634079,0.016512364149093628,-0.04381716251373291,-0.08817076683044434
1.4784725064424384,2.936026919304922,1.9343173167695447,0.5951347351074219,0.14060381054878235,-0.15883083641529083,0.018818842247128487,-0.9957411885261536,0.09025344252586365,0.0013075191527605057,-0.07925593852996826,-0.04383610934019089
1.472406725399845,2.9300313153222355,1.9420729225378495,0.5512565970420837,0.21072927117347717,-0.23668628931045532,0.02062722109258175,-0.99516361951828,0.09604095667600632,-0.009411962702870369,-0.054167985916137695,-0.017366662621498108
1.4667505714703464,2.917617380367113,1.9573097425870172,0.4792572557926178,0.3427320718765259,-0.3047691881656647,0.023067930713295937,-0.9945921301841736,0.10126519948244095,-0.0328945517539978,-0.027746915817260742,-0.0038835853338241577
1.4616510325098988,2.9010926351074944,1.9780289868133525,0.4058402478694916,0.4569963812828064,-0.3525177538394928,0.02594580501317978,-0.9940495491027832,0.10579470545053482,-0.027669966220855713,-0.021941721439361572,0.006494760513305664
1.4571558287928503,2.8818011811533224,2.0020740283302216,0.33347469568252563,0.45003965497016907,-0.38804110884666443,0.029129372909665108,-0.9935498833656311,0.10959203541278839,-0.013977345079183578,-0.028163552284240723,0.021648898720741272
1.4531537292616605,2.8590081838845505,2.0297106349454817,0.26667147874832153,0.48708927631378174,-0.430437833070755,0.03272756189107895,-0.9930880665779114,0.11271584779024124,-0.014447484165430069,-0.03338587284088135,0.04364107549190521
1.4495971452003953,2.8359975338264585,2.0579213056788435,0.22313599288463593,0.49943411350250244,-0.40447309613227844,0.03637508302927017,-0.9926643371582031,0.1153016909956932,0.008760452270507812,-0.03384023904800415,0.05794668197631836
1.4464699445050815,2.8178533208788124,2.08094678736446,0.2002691924571991,0.43087273836135864,-0.3165321946144104,0.03944813087582588,-0.992281436920166,0.11756451427936554,0.024745669215917587,-0.021146297454833984,0.06953881680965424
1.4436640310289122,2.806581183725161,2.096059176818629,0.20805519819259644,0.3093242049217224,-0.21827538311481476,0.04168602451682091,-0.9919295907020569,0.11974132061004639,0.03712570294737816,-0.0021805167198181152,0.08480285853147507
1.4411116698626816,2.8029690417372577,2.1021282891245203,0.21826979517936707,0.18087714910507202,-0.09150753170251846,0.04295920953154564,-0.9916027188301086,0.12197771668434143,0.04958542808890343,0.018763422966003418,0.09681819379329681
1.4390139906666697,2.8095325424055635,2.0974350513460083,0.21552728116512299,0.21424603462219238,0.06545465439558029,0.042835693806409836,-0.9913292527198792,0.1242232471704483,0.07204779982566833,0.036205410957336426,0.0971817821264267
1.4374270789606838,2.8248631070627392,2.0839273083599754,0.1993388682603836,0.1623484045267105,0.16260190308094025,0.041416194289922714,-0.9911195039749146,0.12635990977287292,0.06600576639175415,0.04716503620147705,0.053190335631370544
1.4360431767615072,2.8436512095936677,2.0664464263332643,0.20326276123523712,0.131158247590065,0.19383731484413147,0.03943774476647377,-0.9909345507621765,0.12842734158039093,0.02242147922515869,0.01991093158721924,0.04927659034729004
1.4345153476594321,2.861459467331019,2.04934562890035,0.22091959416866302,0.030964024364948273,0.1515357494354248,0.03756324201822281,-0.9907281398773193,0.1305646002292633,-0.0025748014450073242,-0.0006965398788452148,0.05826294422149658
1.432540952792963,2.872671747631294,2.037661199718305,0.2424488514661789,-0.09741232544183731,0.04232484847307205,0.03661636263132095,-0.9904579520225525,0.13286210596561432,-0.05199715867638588,-0.01730877161026001,0.07175825536251068
1.4301051931654378,2.873753397580716,2.0350443916450116,0.2398063838481903,-0.19877031445503235,-0.10326077044010162,0.03711099922657013,-0.9901193380355835,0.135227769613266,-0.09962621331214905,-0.041878342628479004,0.09000729024410248
1.427549270320659,2.8637041452361998,2.0428545933410183,0.18602517247200012,-0.2559872567653656,-0.2402375340461731,0.03916202485561371,-0.9897576570510864,0.13728074729442596,-0.12688472867012024,-0.0569799542427063,0.10318253934383392
1.425371947610035,2.844733618466228,2.0594357570081283,0.09169894456863403,-0.2457793802022934,-0.33479979634284973,0.04238978400826454,-0.9894444942474365,0.13857486844062805,-0.12127766013145447,-0.05669820308685303,0.11200499534606934
1.423919444155368,2.8202372758966967,2.0819997781990716,-0.01789306104183197,-0.1773523986339569,-0.3646056354045868,0.046225205063819885,-0.9892329573631287,0.13885851204395294,-0.1083742082118988,-0.04226124286651611,0.10871541500091553
1.4234491776750438,2.794904596541977,2.1063699281463144,-0.12790563702583313,-0.061776041984558105,-0.3296002149581909,0.04988585039973259,-0.9891640543937683,0.13808093965053558,-0.09070306271314621,-0.019136905670166016,0.09824730455875397
1.4241197359681128,2.772534489585889,2.1290725499515872,-0.22614379227161407,0.07864338159561157,-0.24018408358097076,0.05272255465388298,-0.9892622828483582,0.13631147146224976,-0.06177093833684921,0.006824970245361328,0.08411706984043121
1.4258305127182131,2.7551751038038703,2.148062864546863,-0.2860305905342102,0.20395991206169128,-0.14792805910110474,0.05444246903061867,-0.9895108342170715,0.13380692899227142,-0.03358367830514908,0.02048623561859131,0.05686698853969574
1.4280591909311449,2.742748433441513,2.1630508258506462,-0.2776256799697876,0.2625313401222229,-0.08526067435741425,0.055244456976652145,-0.9898303151130676,0.13108763098716736,-0.03441614285111427,0.020439505577087402,0.01985238492488861
1.4299826206298571,2.7330160864021247,2.1754767432946527,-0.20619039237499237,0.24043942987918854,-0.09615480899810791,0.05576150491833687,-0.9901021122932434,0.12879732251167297,-0.05438816547393799,0.010609865188598633,-0.007734060287475586
1.430888296812996,2.722383329470868,2.1883366374759188,-0.10012732446193695,0.17323537170886993,-0.16500070691108704,0.0567624568939209,-0.9902288317680359,0.12737731635570526,-0.08340424299240112,-0.006688952445983887,-0.01635432243347168
1.4304928691085799,2.7091137235626626,2.203074975099323,-0.0005838964134454727,0.08971226215362549,-0.24076685309410095,0.058612070977687836,-0.9901735782623291,0.12696906924247742,-0.10695182532072067,-0.00889575481414795,-0.01252804696559906
