attitudeX,attitudeY,attitudeZ,gyroX,gyroY,gyroZ,gravityX,gravityY,gravityZ,accX,accY,accZ
0.5709884628520376,0.10638442687809985,-0.9810245179096961,-0.014627508819103241,0.09503958374261856,-0.09639333933591843,0.08933962136507034,-0.5404639840126038,-0.8366104960441589,-0.09768611192703247,-0.042208194732666016,-0.11288285255432129
0.570994424136246,0.10859035708972639,-0.982147823444771,0.020203709602355957,0.2166549563407898,-0.09196023643016815,0.09118455648422241,-0.5404689908027649,-0.8364081978797913,-0.06455790996551514,-0.04096722602844238,-0.11067432165145874
0.5713815895392814,0.11152895166528282,-0.9833549907951058,0.06374705582857132,0.21605883538722992,-0.10130956768989563,0.0936187282204628,-0.5407946705818176,-0.8359286189079285,-0.050207436084747314,-0.02803778648376465,-0.08937954902648926
0.5721791935488724,0.11401922877667678,-0.9847795365336939,0.09695560485124588,0.10488250851631165,-0.10825376212596893,0.09565103054046631,-0.5414654016494751,-0.8352640867233276,-0.04200106859207153,-0.029961049556732178,-0.05581861734390259
0.5732002673101974,0.11539061388683941,-0.9862685857569384,0.1144428551197052,-0.02260822057723999,-0.09805754572153091,0.09673269838094711,-0.5423235893249512,-0.834582507610321,-0.01325179636478424,-0.039814531803131104,-0.02180171012878418
0.5742572514102952,0.11526745551046436,-0.9875715993119331,0.11825543642044067,-0.1530091017484665,-0.08947630971670151,0.0965639278292656,-0.5432113409042358,-0.8340244889259338,0.009271085262298584,-0.045137107372283936,0.006723523139953613
0.5753002273007992,0.11356862952385104,-0.9887046257881873,0.11982539296150208,-0.28407999873161316,-0.09504400193691254,0.09508267045021057,-0.5440866947174072,-0.833624005317688,0.01661171019077301,-0.03966879844665527,0.02362644672393799
0.5763529386092215,0.1105865784076595,-0.9899309810955925,0.12991876900196075,-0.38665589690208435,-0.10820508003234863,0.09253308176994324,-0.5449696779251099,-0.8333340883255005,0.012615308165550232,-0.03623765707015991,0.01674473285675049
0.5776236314608452,0.10762958110431431,-0.9914083528217892,0.1484723687171936,-0.3411894738674164,-0.10772185772657394,0.08999405056238174,-0.5460346341133118,-0.8329148888587952,0.010515645146369934,-0.03135800361633301,-0.013642668724060059
0.579058481428967,0.10569880911979405,-0.9928582669699969,0.16043369472026825,-0.19651536643505096,-0.10397346317768097,0.08830296993255615,-0.5472361445426941,-0.8323071599006653,0.017501547932624817,-0.018697142601013184,-0.02929556369781494
0.5804996698384214,0.10525315323571317,-0.9943643380150847,0.15134800970554352,-0.057250767946243286,-0.11697768419981003,0.08784908801317215,-0.5484418272972107,-0.831561267375946,0.010188698768615723,-0.006230473518371582,-0.01939082145690918
0.5817974147652397,0.10626616305997544,-0.9959760490934233,0.13615840673446655,0.08288450539112091,-0.11798622459173203,0.08861585706472397,-0.5495265126228333,-0.8307633996009827,0.004539087414741516,0.0009272098541259766,-0.010880827903747559
0.5830563988937255,0.10842498499169151,-0.9973939913290422,0.13211806118488312,0.19022157788276672,-0.0954255610704422,0.09033418446779251,-0.5505779385566711,-0.8298817276954651,0.010953709483146667,0.004648923873901367,-0.015684008598327637
0.5843709854574228,0.11132563062573188,-0.9985641111384621,0.122480608522892,0.24260567128658295,-0.06286203116178513,0.09266050159931183,-0.5516748428344727,-0.828896164894104,0.020376667380332947,0.01589292287826538,-0.00859767198562622
0.5856611102893836,0.11424544419331689,-0.9992627912791571,0.11298547685146332,0.24304412305355072,-0.014039487577974796,0.09499911218881607,-0.5527504086494446,-0.827914297580719,0.03338839113712311,0.032685041427612305,0.0074797868728637695
0.5868785263233331,0.11644373849428687,-0.9992843654294958,0.10136610269546509,0.1785341054201126,0.04163256287574768,0.09674062579870224,-0.5537645816802979,-0.8270345330238342,0.04904189705848694,0.0435563325881958,0.016609787940979004
0.5880825672173077,0.11745333400013465,-0.9985867622260235,0.11708752065896988,0.09913917630910873,0.10187062621116638,0.09749734401702881,-0.5547667145729065,-0.8262736201286316,0.07045618444681168,0.043520987033843994,0.021357357501983643
0.5894917274664074,0.11720527611745549,-0.9972684496648528,0.15744319558143616,-0.011470161378383636,0.1519942432641983,0.09720086306333542,-0.5559386014938354,-0.8255205750465393,0.08868175745010376,0.036071598529815674,0.021092534065246582
0.5913618160262478,0.11561507869484615,-0.9955619960423933,0.2071525752544403,-0.11818022280931473,0.17425581812858582,0.09576790034770966,-0.5574920773506165,-0.8246399760246277,0.09621822834014893,0.02602839469909668,0.013147115707397461
0.5937120933850801,0.1126344552218288,-0.9934727629134943,0.24434815347194672,-0.23458726704120636,0.2226875275373459,0.09316200762987137,-0.5594416856765747,-0.8236175179481506,0.09746608883142471,0.025414645671844482,0.01320803165435791
0.5965416400937953,0.10862115144183213,-0.9907548789987124,0.271663635969162,-0.24944373965263367,0.2822612226009369,0.0896838828921318,-0.5617848038673401,-0.8224078416824341,0.09238405525684357,0.05070686340332031,0.024953067302703857
0.5997930352543104,0.10435840892145776,-0.987299384276837,0.30996817350387573,-0.21043509244918823,0.3528006374835968,0.08598662912845612,-0.5644716620445251,-0.8209616541862488,0.08462193608283997,0.06927812099456787,0.029152631759643555
0.6034165736503577,0.0999289882187721,-0.9829998476742158,0.3256432116031647,-0.19745062291622162,0.4204557538032532,0.0821448266506195,-0.567458987236023,-0.8192939162254333,0.08342836797237396,0.07682782411575317,0.045017242431640625
0.6069359549025437,0.09453896534691264,-0.9777493955503662,0.28317350149154663,-0.27027344703674316,0.49693959951400757,0.0775386318564415,-0.5703533291816711,-0.8177315592765808,0.08005419373512268,0.08640551567077637,0.07589501142501831
0.6098089351377647,0.08843799227720288,-0.9716516989270009,0.19048917293548584,-0.23462778329849243,0.5487679839134216,0.07240323722362518,-0.5727108716964722,-0.8165537714958191,0.06657387316226959,0.10731774568557739,0.09034228324890137
0.6117133413522319,0.08230589800626512,-0.96469283744346,0.09435625374317169,-0.18677130341529846,0.6199313402175903,0.06730493158102036,-0.5742709636688232,-0.8158939480781555,0.07101603597402573,0.10265231132507324,0.04685103893280029
0.6127858612395645,0.07616726141981163,-0.9566343578010776,0.015322161838412285,-0.10956383496522903,0.7046722769737244,0.062248315662145615,-0.5751486420631409,-0.8156771063804626,0.07117457687854767,0.09306246042251587,0.0474124550819397
0.6128957780361396,0.07009100777377755,-0.9475919292338366,-0.10860004276037216,-0.07487562298774719,0.7604740262031555,0.05728651210665703,-0.5752385854721069,-0.8159772753715515,0.06695058941841125,0.08781170845031738,0.08305191993713379
0.6115147942948027,0.0638648029300026,-0.938040278080679,-0.27494800090789795,-0.06482991576194763,0.7702555060386658,0.05225563794374466,-0.5741084218025208,-0.8171101212501526,0.05560877546668053,0.09139657020568848,0.13716328144073486
0.6081775438933167,0.05808635627604121,-0.9282939001932412,-0.4995558261871338,0.043752752244472504,0.7818722724914551,0.047644127160310745,-0.5713727474212646,-0.8193065524101257,0.05631406605243683,0.08956116437911987,0.183182954788208
0.6019078881279987,0.053095997389894886,-0.9180510727931032,-0.8623775243759155,0.10821948945522308,0.8302168250083923,0.04374418035149574,-0.5662161111831665,-0.8230952620506287,0.07980626821517944,0.07378435134887695,0.23448753356933594
0.5913072659923986,0.047660633680587164,-0.9068904325490302,-1.3559789657592773,0.031882643699645996,0.9025467038154602,0.039553482085466385,-0.5574468374252319,-0.8292699456214905,0.11289714276790619,0.05636334419250488,0.3479467034339905
0.5755593595786923,0.03978657823625899,-0.8946476821452829,-1.870582938194275,-0.2750248312950134,0.9982714056968689,0.03336767852306366,-0.5443041324615479,-0.8382241129875183,0.11763335764408112,0.027855098247528076,0.4979074001312256
0.5548389299757079,0.02803481962316098,-0.8813456573508915,-2.321376323699951,-0.6374669671058655,1.0956922769546509,0.02382606454193592,-0.5268064141273499,-0.8496513366699219,0.11766873300075531,-0.016803264617919922,0.5878105163574219
0.5300118126776611,0.013002808750178684,-0.8674575099123717,-2.669060468673706,-0.9337427020072937,1.171332597732544,0.011218521744012833,-0.5055435299873352,-0.8627281785011292,0.11967141926288605,-0.0671188235282898,0.6035424470901489
0.5016585466874803,-0.005004335961016849,-0.8533387716103499,-2.9888076782226562,-1.2635184526443481,1.2586939334869385,-0.004387714434415102,-0.48088037967681885,-0.8767752647399902,0.1176079660654068,-0.11886638402938843,0.5941061973571777
0.4699491533045607,-0.026096397605536312,-0.838913650366438,-3.2960257530212402,-1.6070631742477417,1.385722279548645,-0.023264681920409203,-0.4528409540653229,-0.8912877440452576,0.11365778744220734,-0.1550692915916443,0.5904760360717773
0.43473275456718347,-0.05044947276406972,-0.8241490696732843,-3.624790668487549,-1.9237442016601562,1.5347716808319092,-0.04573738947510719,-0.4211680293083191,-0.9058286547660828,0.07843701541423798,-0.19388329982757568,0.60817551612854
0.39555018461987734,-0.07563067057671136,-0.8092807094178931,-4.00102424621582,-1.9027955532073975,1.6524131298065186,-0.06972431391477585,-0.3853159546852112,-0.9201468229293823,0.003104478120803833,-0.2184133529663086,0.6489371061325073
0.35209435597854555,-0.10134768229215844,-0.795331804256375,-4.4093017578125,-2.249380350112915,1.6837949752807617,-0.09496748447418213,-0.3448644280433655,-0.9338359832763672,-0.06076367199420929,-0.2062373161315918,0.640073835849762
0.3037751193346618,-0.13026598688714516,-0.7831176309208439,-4.905726909637451,-2.725102663040161,1.7285137176513672,-0.12395038455724716,-0.2991245985031128,-0.9461293816566467,-0.08337074518203735,-0.22130697965621948,0.7665181756019592
0.24974020161676588,-0.16267323756604685,-0.7726951843712941,-5.4687676429748535,-3.1474645137786865,1.8314390182495117,-0.1569322943687439,-0.24715222418308258,-0.9561840891838074,-0.03303958475589752,-0.2521611452102661,0.8743817806243896
0.18908413128587653,-0.19737448869999946,-0.7637256597134603,-6.113405227661133,-3.350041627883911,2.063755512237549,-0.19260042905807495,-0.1879594326019287,-0.9631076455116272,0.003895014524459839,-0.20188742876052856,0.9349094033241272
0.12173545726956919,-0.23322052588248343,-0.7560376093935615,-6.658072471618652,-3.5747909545898438,2.2730660438537598,-0.22940167784690857,-0.1214350014925003,-0.965726912021637,0.03439438343048096,-0.08677122741937637,0.977720320224762
0.048954313430172626,-0.2706929094599605,-0.750467923185389,-7.112265586853027,-3.791586399078369,2.4171087741851807,-0.26707881689071655,-0.04893476143479347,-0.9624314308166504,-0.009425640106201172,0.016143586486577988,0.9854264855384827
-0.028315784827313385,-0.30962255748484363,-0.74771923720927,-7.478089332580566,-3.9197800159454346,2.496049642562866,-0.3045770227909088,0.02831200137734413,-0.9520668387413025,-0.1105383038520813,0.14394444227218628,0.9925636649131775
-0.10806668571448079,-0.34716431185396945,-0.7494041524349279,-7.641436576843262,-3.4040367603302,2.2695631980895996,-0.3382478952407837,0.10785646736621857,-0.9348557591438293,-0.18665441870689392,0.31879448890686035,1.025386095046997
-0.18709877343355988,-0.3743992542193434,-0.7577213120302407,-7.622663497924805,-1.7383172512054443,1.7283129692077637,-0.35933104157447815,0.18600909411907196,-0.914484441280365,-0.37771421670913696,0.5978043675422668,0.9379677176475525
-0.2613800843784562,-0.38749706261450223,-0.7731653256834116,-7.2212300300598145,-0.23135966062545776,1.006842851638794,-0.3650375306606293,0.25841400027275085,-0.8944103121757507,-0.5785812139511108,0.8680202960968018,0.7236797213554382
-0.32934953157994423,-0.3915450561176573,-0.7947270887691382,-6.892514228820801,0.5700954794883728,0.3460656702518463,-0.36110618710517883,0.32342758774757385,-0.8746410012245178,-0.5814902186393738,0.8907294869422913,0.4151530861854553
-0.39230944508292803,-0.3949678029530467,-0.8224613410610659,-6.692086219787598,0.6505736112594604,-0.31493642926216125,-0.3555462956428528,0.38232341408729553,-0.8528866767883301,-0.5359789729118347,0.6270912289619446,0.13470125198364258
-0.45129792066866053,-0.40298668522489434,-0.8576204034811289,-6.65500545501709,0.6637474894523621,-1.0198460817337036,-0.35290443897247314,0.43613386154174805,-0.8277957439422607,-0.47157371044158936,0.36916399002075195,-0.08910495042800903
-0.5075625867428344,-0.4158028493424024,-0.902179610448479,-6.773722171783447,0.8561333417892456,-1.7289782762527466,-0.35300248861312866,0.48604854941368103,-0.7994661331176758,-0.44672590494155884,0.26393619179725647,-0.3203458786010742
-0.5614971552620003,-0.4373247213793045,-0.9558693299503369,-6.797987461090088,0.14673909544944763,-2.163801670074463,-0.3584901690483093,0.5324540734291077,-0.7667969465255737,-0.5515287518501282,0.26675552129745483,-0.6355925798416138
-0.6124660538427302,-0.4772681923424237,-1.0152734510037262,-6.641749382019043,-1.507139801979065,-2.1535375118255615,-0.3758588433265686,0.5748870372772217,-0.726797878742218,-0.6014971137046814,0.4529602527618408,-0.9863826632499695
-0.6578659812447369,-0.524637157679236,-1.073454519766976,-5.574213027954102,-0.5953966975212097,-1.595001220703125,-0.3963608145713806,0.6114295721054077,-0.6848737597465515,-0.5275740623474121,0.7397819757461548,-1.3477801084518433
-0.6913443718222608,-0.5476982422307884,-1.1149967330515569,-3.450805902481079,0.8581573963165283,-0.5259889960289001,-0.40116000175476074,0.6375734210014343,-0.6577011346817017,-0.37612268328666687,0.9871671795845032,-2.3717637062072754
-0.7115363351195906,-0.5514929586353199,-1.1333763998503747,-1.4811036586761475,0.722721517086029,0.15451042354106903,-0.39682573080062866,0.6529980897903442,-0.6450759172439575,-0.18230634927749634,1.2181261777877808,-3.063328742980957
-0.7176982344110661,-0.5467539507982627,-1.1356450721614766,0.21693892776966095,0.4837612807750702,0.10777371376752853,-0.3916647434234619,0.6576524376869202,-0.6434997916221619,-0.1272408664226532,1.2668776512145996,-2.2295775413513184
-0.7091166236138084,-0.5414514997347377,-1.1309337518575409,1.568091869354248,-0.06746885180473328,-0.41246548295021057,-0.39114150404930115,0.6511635780334473,-0.6503801941871643,-0.14787521958351135,0.9514365196228027,-1.4642438888549805
-0.6874809459928898,-0.5415599380938795,-1.1247833460477936,2.5753042697906494,-0.735448956489563,-0.995418906211853,-0.3983820378780365,0.6345923542976379,-0.6622569561004639,-0.17986491322517395,0.5361533761024475,-0.9268850088119507
-0.6553620353530343,-0.5474322101995786,-1.1186580049294397,3.3776891231536865,-1.1584423780441284,-1.486915946006775,-0.4126637876033783,0.6094462871551514,-0.6769666075706482,-0.056757569313049316,0.27916449308395386,-0.518864631652832
-0.6148621033718175,-0.5565604976819576,-1.1122196892012008,4.012378692626953,-1.4244942665100098,-1.8488340377807617,-0.4315180480480194,0.5768458843231201,-0.693571150302887,0.0500178337097168,0.16576886177062988,-0.27766603231430054
-0.5683282024997413,-0.5683130175481651,-1.105186005494291,4.415323257446289,-1.6857378482818604,-2.098487615585327,-0.4536052644252777,0.5382238030433655,-0.7103220224380493,0.1296459436416626,0.15164130926132202,-0.10967004299163818
-0.5187830551404443,-0.5822675759966525,-1.0981875492787772,4.481019020080566,-1.8011648654937744,-2.266568183898926,-0.47756266593933105,0.4958236813545227,-0.7253225445747375,0.19481733441352844,0.1948959231376648,0.07508450746536255
-0.46898317823182045,-0.5975865545878359,-1.092250514937105,4.323972225189209,-1.797900676727295,-2.374638080596924,-0.5018987655639648,0.45197948813438416,-0.7374361753463745,0.24793154001235962,0.24925336241722107,0.2652682662010193
-0.4210744417382669,-0.6130568393012255,-1.0875137349893595,3.9903273582458496,-1.6759498119354248,-2.3361096382141113,-0.5251119136810303,0.4087412655353546,-0.7464503049850464,0.28554898500442505,0.2841603457927704,0.40802568197250366
-0.37748993848146944,-0.6273382519778685,-1.0836688055014885,3.471299171447754,-1.4589844942092896,-2.114328622817993,-0.5456634163856506,0.36858829855918884,-0.752591609954834,0.34288936853408813,0.29780882596969604,0.503171443939209
-0.34058702146302405,-0.6394203172979406,-1.080424923440586,2.799086093902588,-1.162774682044983,-1.7345553636550903,-0.5624534487724304,0.33404046297073364,-0.7563485503196716,0.4077599048614502,0.28874698281288147,0.5718545317649841
-0.31233357797871086,-0.6484038149470575,-1.0776704147435305,2.0026934146881104,-0.7990846633911133,-1.2145752906799316,-0.574696958065033,0.30728015303611755,-0.758486807346344,0.43330907821655273,0.25756970047950745,0.6084776520729065
-0.29422300128316603,-0.6538844444347871,-1.0754565434031964,1.1177186965942383,-0.4165593087673187,-0.6340402960777283,-0.5821352601051331,0.28999632596969604,-0.7596187591552734,0.42702972888946533,0.21038514375686646,0.6166896820068359
-0.28673705131034755,-0.655415536218686,-1.074014772990806,0.2427922636270523,0.038576770573854446,-0.0618944987654686,-0.5846044421195984,0.28282400965690613,-0.76042640209198,0.3886510729789734,0.1350226104259491,0.59221351146698
-0.28915151400216615,-0.6527728446429231,-1.0734019694636934,-0.5374829769134521,0.4404374063014984,0.4385107159614563,-0.5821763277053833,0.2851390540599823,-0.7614239454269409,0.3003770112991333,0.04011726379394531,0.4967144727706909
-0.299912411214426,-0.6468432099406155,-1.0735365338994647,-1.1650686264038086,0.7409048080444336,0.8196964263916016,-0.5757685303688049,0.2954365313053131,-0.7623698711395264,0.1849452257156372,-0.0346028208732605,0.38399767875671387
-0.3163715832213451,-0.6387685069399525,-1.074662141971815,-1.556894302368164,0.918511152267456,0.9374521374702454,-0.5666177868843079,0.31112027168273926,-0.7629865407943726,0.08294469118118286,-0.07721832394599915,0.27679580450057983
-0.33489230036054435,-0.6303977216834894,-1.0773396039004184,-1.6794617176055908,0.8979718089103699,0.8284971117973328,-0.5567187070846558,0.32866746187210083,-0.7629168033599854,-0.06497013568878174,-0.09485703706741333,0.12052172422409058
-0.3524791125604113,-0.623329299634865,-1.0810135604014914,-1.535224437713623,0.755563497543335,0.668898344039917,-0.5478529930114746,0.34522557258605957,-0.7620212435722351,-0.1991257667541504,-0.08210301399230957,-0.05081444978713989
-0.3671146646517453,-0.6174546050681301,-1.0843675244289015,-1.1845223903656006,0.6618289947509766,0.5137768983840942,-0.5403836369514465,0.35892385244369507,-0.7610251307487488,-0.24889248609542847,-0.06381887197494507,-0.20062953233718872
-0.3773063555251689,-0.6119459425624358,-1.0864807713834137,-0.6894420981407166,0.5873151421546936,0.33557164669036865,-0.5340539813041687,0.3684176206588745,-0.7609565258026123,-0.2455022931098938,-0.0602816641330719,-0.32249385118484497
-0.3820788319553867,-0.6068626236748517,-1.0869615670585273,-0.14082296192646027,0.45976728200912476,0.13733074069023132,-0.5291701555252075,0.3728502094745636,-0.7622084617614746,-0.24907386302947998,-0.06077742576599121,-0.4250626564025879
-0.3811336254584166,-0.6022586260325092,-1.0857499667026813,0.4157012104988098,0.37078404426574707,-0.05822456255555153,-0.5258548259735107,0.3719729781150818,-0.7649267911911011,-0.26265835762023926,-0.06661409139633179,-0.4981500506401062
-0.37462532214803274,-0.5977082692992469,-1.0830631285669872,0.92509925365448,0.34631091356277466,-0.2637782692909241,-0.5237199068069458,0.36592385172843933,-0.7692965269088745,-0.24091321229934692,-0.05153179168701172,-0.5116787552833557
-0.36302562185194853,-0.593259555167694,-1.0795750372029809,1.342295527458191,0.2756354808807373,-0.49518340826034546,-0.5226303935050964,0.3551042973995209,-0.7750861644744873,-0.22466880083084106,0.007200390100479126,-0.47907954454421997
-0.3470340191271105,-0.5896074308065578,-1.0759045984825721,1.677465796470642,0.21131321787834167,-0.7031906843185425,-0.522887110710144,0.3401101529598236,-0.7816099524497986,-0.23341470956802368,0.0797048807144165,-0.42891550064086914
-0.32738894880067065,-0.5863701399281634,-1.0721476578715408,1.9665569067001343,0.1975947916507721,-0.879645049571991,-0.5239505767822266,0.3215717673301697,-0.7887125015258789,-0.19551658630371094,0.12554126977920532,-0.3735036849975586
-0.3043519028855295,-0.5829674858028484,-1.0685838078594252,2.235992193222046,0.2686420679092407,-1.0963187217712402,-0.5252033472061157,0.299674928188324,-0.7964649796485901,-0.17160451412200928,0.15047460794448853,-0.3529338836669922
-0.2776004946339161,-0.5788260134251754,-1.0656751219082632,2.52105712890625,0.3990977108478546,-1.3774938583374023,-0.5260984897613525,0.2740488052368164,-0.8050575256347656,-0.18107008934020996,0.1570119857788086,-0.3821983337402344
-0.24674652036800424,-0.5738483218019931,-1.0639730900836493,2.8143832683563232,0.5102874040603638,-1.705773115158081,-0.5264257192611694,0.2442503124475479,-0.8143818378448486,-0.21672308444976807,0.1586427539587021,-0.42455554008483887
-0.21157701390401132,-0.5677244588220693,-1.0637110395790492,3.106550693511963,0.7173916697502136,-2.0318543910980225,-0.5257243514060974,0.21000200510025024,-0.8243258595466614,-0.2616596817970276,0.17488566040992737,-0.4159085750579834
-0.1724964333715448,-0.5593042371401576,-1.0647061546964405,3.3633625507354736,0.9993036985397339,-2.28467059135437,-0.5227221846580505,0.1716422587633133,-0.8350451588630676,-0.27830320596694946,0.2109260857105255,-0.3733593821525574
-0.1303293992258468,-0.548395221043788,-1.0667574699414875,3.56463885307312,1.227749228477478,-2.4710817337036133,-0.5168972015380859,0.12996076047420502,-0.8461250066757202,-0.2507724165916443,0.2566511631011963,-0.2936149835586548
-0.08593939948727722,-0.5357115006171025,-1.0695711543267166,3.7243704795837402,1.3473200798034668,-2.5569581985473633,-0.5085691809654236,0.08583365380764008,-0.856732189655304,-0.23105484247207642,0.28556525707244873,-0.2597992420196533
-0.04029731873144852,-0.5226437863962775,-1.0723838895386937,3.8310112953186035,1.2434775829315186,-2.4925050735473633,-0.4987674951553345,0.040286414325237274,-0.865799069404602,-0.18296468257904053,0.26879560947418213,-0.27821338176727295
0.0040357180622376965,-0.513276862652467,-1.0738723188663009,3.6495487689971924,0.5746976137161255,-2.0918002128601074,-0.4910304844379425,-0.004035707097500563,-0.871133029460907,-0.1358920931816101,0.19896671175956726,-0.316550076007843
0.04362647035817195,-0.5101794864504618,-1.072186182728294,3.4247426986694336,0.1486218422651291,-1.473193883895874,-0.4878692328929901,-0.043612632900476456,-0.8718265295028687,-0.05648800730705261,-0.005108710378408432,-0.3631435036659241
0.07907582059918725,-0.5092140476965614,-1.066200896043625,3.309321165084839,0.10835032165050507,-0.9443355798721313,-0.48596781492233276,-0.07899343967437744,-0.870399534702301,0.07915329933166504,-0.22487011551856995,-0.4471206068992615
0.1100411658571751,-0.5098796924876967,-1.0566625817699817,2.9445953369140625,-0.04301149398088455,-0.40314799547195435,-0.48512017726898193,-0.10981921851634979,-0.8675241470336914,0.06968441605567932,-0.2950422763824463,-0.4881124496459961
0.13458785150264463,-0.5116897774505275,-1.0454033490229073,2.4483213424682617,-0.02030971460044384,-0.09437068551778793,-0.4852232336997986,-0.1341819018125534,-0.8640333414077759,-0.10536816716194153,-0.3359872102737427,-0.4759629964828491
0.15450359018917595,-0.5116470137544709,-1.0349595222361399,2.0215163230895996,0.370266854763031,-0.08020365238189697,-0.48378175497055054,-0.15388962626457214,-0.8615527749061584,-0.3632946312427521,-0.35058122873306274,-0.5197033286094666
0.17145645848102098,-0.5066844993930011,-1.0272505219685737,1.6767476797103882,0.8665839433670044,-0.27238962054252625,-0.47816547751426697,-0.17061762511730194,-0.8615378141403198,-0.6005698442459106,-0.41603705286979675,-0.7052193880081177
0.18738798825540673,-0.49635218477977927,-1.0237326754807063,1.4574048519134521,1.3220514059066772,-0.6744634509086609,-0.46788445115089417,-0.18629324436187744,-0.8639322519302368,-0.827449381351471,-0.5495465993881226,-0.9494374990463257
0.20452139774430372,-0.4802682138780162,-1.0251917135684339,1.4515597820281982,1.8433399200439453,-1.1820502281188965,-0.45238783955574036,-0.20309855043888092,-0.8683871626853943,-1.003559947013855,-0.6365926265716553,-1.2162227630615234
0.2249999691014102,-0.4582891435532599,-1.0308227596371184,1.7145259380340576,2.2867188453674316,-1.6242318153381348,-0.4312629997730255,-0.22310632467269897,-0.8742058277130127,-1.0690269470214844,-0.6248093843460083,-1.4340064525604248
0.2507731539354805,-0.43184990219145464,-1.0387585175389036,2.270522117614746,2.645242214202881,-1.957947015762329,-0.4054596424102783,-0.24815300107002258,-0.8797855377197266,-1.1220366954803467,-0.5030982494354248,-1.6027278900146484
0.28367950917249096,-0.40089282085092426,-1.0474341566123504,3.0722010135650635,3.08467698097229,-2.2106423377990723,-0.3746434152126312,-0.2798899710178375,-0.8839139938354492,-1.1752375364303589,-0.2985707223415375,-1.7307863235473633
0.3251885957975004,-0.36531520755506647,-1.0560201705775087,3.991488456726074,3.4823520183563232,-2.385786771774292,-0.33852076530456543,-0.3194875121116638,-0.8850601315498352,-1.190882921218872,-0.06578171253204346,-1.7824814319610596
0.375435177103961,-0.3261359654224167,-1.0644891792611504,4.881855010986328,3.7330427169799805,-2.4877524375915527,-0.29806965589523315,-0.3666774332523346,-0.881307065486908,-1.174617052078247,0.1785060167312622,-1.6991677284240723
0.43363944160969997,-0.28441881249990175,-1.0733197272448345,5.680443286895752,3.8766021728515625,-2.540386915206909,-0.25462809205055237,-0.4201761484146118,-0.8709859848022461,-1.1194257736206055,0.43825778365135193,-1.5012216567993164
0.4987420229878725,-0.24107426680762895,-1.0836967086280764,6.350003719329834,3.795079231262207,-2.6184628009796143,-0.20966312289237976,-0.4783211946487427,-0.8527897000312805,-1.0362474918365479,0.6807594895362854,-1.2589809894561768
0.5692548373328703,-0.19781894475144582,-1.0973430010544165,6.838637828826904,3.415250778198242,-2.7259063720703125,-0.16553886234760284,-0.5390045642852783,-0.8258758783340454,-0.9577215909957886,0.8965637683868408,-0.9920409321784973
0.6435546379819451,-0.15510946148185578,-1.1159517315139147,7.194281101226807,2.9915225505828857,-2.8821933269500732,-0.12358564138412476,-0.6000428199768066,-0.7903639674186707,-0.8748579025268555,1.1010499000549316,-0.7103531360626221
0.7206564817726662,-0.11036795773280524,-1.1419209723586403,7.501190185546875,2.6558496952056885,-3.1430885791778564,-0.08275921642780304,-0.6598780751228333,-0.7468010783195496,-0.7787519693374634,1.280925989151001,-0.45784974098205566
0.7999048275854337,-0.060165241428304976,-1.1784934045653186,7.783721446990967,2.3160083293914795,-3.4700584411621094,-0.04189635440707207,-0.7172898054122925,-0.6955143213272095,-0.7011608481407166,1.446781873703003,-0.26900893449783325
0.8803951389537801,-0.0008748030248298938,-1.2295870200493537,8.035940170288086,1.8945503234863281,-3.815325975418091,-0.00055711530148983,-0.7709906101226807,-0.6368464231491089,-0.6147229671478271,1.6014195680618286,-0.13167768716812134
0.9606633823619757,0.07185566898903574,-1.3001067976329914,8.241658210754395,1.3961561918258667,-4.103481292724609,0.04113619029521942,-0.819571852684021,-0.5714979767799377,-0.49886927008628845,1.7071144580841064,-0.04001319408416748
1.0387576561011258,0.16344925208944197,-1.395186506827988,8.399542808532715,0.9031907320022583,-4.213647365570068,0.08254767954349518,-0.8617746829986572,-0.5005300641059875,-0.3524145781993866,1.7695505619049072,0.0308493971824646
1.1123484248732682,0.28015453760011805,-1.5202040293564385,8.478398323059082,0.4120630919933319,-4.083555698394775,0.12236882001161575,-0.8967404961585999,-0.42530280351638794,-0.17153257131576538,1.813488483428955,0.0867408812046051
1.1785957348993479,0.42907766238378764,-1.682003527896256,8.472405433654785,-0.13616646826267242,-3.7998900413513184,0.15901708602905273,-0.9240701794624329,-0.3475744128227234,0.010538637638092041,1.8300607204437256,0.13393616676330566
1.2338359401966363,0.6188921720647734,-1.8895131985085283,8.3694486618042,-0.6958891153335571,-3.471137523651123,0.19180355966091156,-0.9437639713287354,-0.2692970633506775,0.1421351134777069,1.8240129947662354,0.16202783584594727
1.2733958924091144,0.8549952077052014,-2.148043438404477,8.192375183105469,-1.2308582067489624,-3.1634750366210938,0.22111572325229645,-0.9561014771461487,-0.19229689240455627,0.2189478874206543,1.8057106733322144,0.17662617564201355
1.2927242478778613,1.1269751010241456,-2.4470616601281705,7.98407506942749,-1.727077841758728,-2.9161489009857178,0.24790804088115692,-0.9615864157676697,-0.11786963790655136,0.25961464643478394,1.779076099395752,0.17661601305007935
1.289710756287315,1.4008692045762998,-2.7518058385581896,7.75853967666626,-2.0701146125793457,-2.694489002227783,0.27340391278266907,-0.9607548713684082,-0.04691113531589508,0.2673066556453705,1.7406924962997437,0.15433311462402344
1.2678163319886362,1.6383163500986566,-3.0229408952059162,7.5126447677612305,-2.395490884780884,-2.4154927730560303,0.2976858913898468,-0.9544516205787659,0.020130358636379242,0.2889383137226105,1.7021780014038086,0.11895358562469482
1.23346036169577,1.8221291644784385,3.039223512489163,7.232378959655762,-2.8136985301971436,-2.1066009998321533,0.32057562470436096,-0.9436397552490234,0.08231168240308762,0.3284570276737213,1.6856746673583984,0.08541297167539597
1.1919567688611015,1.9553030064489678,2.8640891543945295,6.962456226348877,-3.31518292427063,-1.8901140689849854,0.3428382873535156,-0.9290944337844849,0.1387287676334381,0.33691033720970154,1.6543904542922974,0.05417299270629883
1.147288240089184,2.051011019972502,2.7229498538462655,6.723333835601807,-3.4896583557128906,-1.5682263374328613,0.3644796907901764,-0.9116528630256653,0.1898515522480011,0.2745889723300934,1.57388436794281,-0.009828239679336548
1.1025758360606508,2.121185924453616,2.606277346058778,6.373800754547119,-3.5062198638916016,-1.2288951873779297,0.38465189933776855,-0.8923727869987488,0.23603832721710205,0.3703988790512085,1.547691822052002,-0.11079403758049011
1.0599234021984507,2.172600267811023,2.507950751291523,5.987209320068359,-3.546959161758423,-0.8717736005783081,0.4030400812625885,-0.8723180294036865,0.27680322527885437,0.35144609212875366,1.439655065536499,-0.10501968860626221
1.0200330949704115,2.210829795872221,2.4223437457080705,5.670773506164551,-3.5402283668518066,-0.5831306576728821,0.41975653171539307,-0.852125346660614,0.312548965215683,0.2988103926181793,1.3535902500152588,-0.1515686810016632
0.9823937979377766,2.23961074477742,2.346547898289979,5.353590488433838,-3.4243273735046387,-0.42125043272972107,0.4354551136493683,-0.8318284153938293,0.3441515862941742,0.2333986759185791,1.3206895589828491,-0.22926810383796692
0.946835023544182,2.261466653385142,2.2798624773858234,4.984005451202393,-3.1156208515167236,-0.3331942856311798,0.4503547251224518,-0.811570405960083,0.3722018003463745,0.1456383764743805,1.3109753131866455,-0.27648332715034485
0.9137188028427102,2.279451545887121,2.2216645864552174,4.560718059539795,-2.571577310562134,-0.2517201900482178,0.46374690532684326,-0.7917806506156921,0.39752063155174255,0.09081864356994629,1.2877368927001953,-0.3257889151573181
0.883689344139114,2.2966113931569714,2.1712254724409905,4.082432746887207,-1.8658287525177002,-0.14352679252624512,0.47443273663520813,-0.773084282875061,0.4210159182548523,0.060128480195999146,1.244626760482788,-0.37150099873542786
0.8574089894635651,2.3148368252741847,2.127780635813307,3.5666332244873047,-1.1257150173187256,0.0011233279947191477,0.4814663231372833,-0.7561495304107666,0.4432023763656616,0.04694563150405884,1.2084505558013916,-0.40035557746887207
0.8353919237767389,2.3351219171703557,2.0904713954878256,3.028521776199341,-0.3982110917568207,0.17632918059825897,0.4842795133590698,-0.7415595054626465,0.46428781747817993,0.03734228014945984,1.1792426109313965,-0.41585636138916016
0.8180112289840776,2.358315580751298,2.0583367159345434,2.496075391769409,0.3013363182544708,0.39216160774230957,0.48240432143211365,-0.7297875881195068,0.4844551384449005,0.033037781715393066,1.1461081504821777,-0.4306830167770386
0.8055796391181486,2.3852400685298933,2.0301167639538114,1.9764281511306763,0.984818696975708,0.6713719964027405,0.4753769040107727,-0.7212322950363159,0.5038264393806458,0.045085251331329346,1.1214550733566284,-0.4449427127838135
0.7985375561335053,2.4166051409280125,2.0044583043354303,1.4661513566970825,1.5618925094604492,1.003130555152893,0.4626995325088501,-0.7163364291191101,0.5222749710083008,0.06668895483016968,1.1099064350128174,-0.45692163705825806
0.7965576677566475,2.451378494579082,1.9798683799795143,1.0783277750015259,1.8216983079910278,1.3490161895751953,0.4451647400856018,-0.7149535417556763,0.539138674736023,0.11147606372833252,1.1137723922729492,-0.45880091190338135
0.7991063926328243,2.4885255719664006,1.9538912481575634,0.774273693561554,1.8699856996536255,1.8198015689849854,0.4237259328365326,-0.7167332172393799,0.5538500547409058,0.1758834719657898,1.1172153949737549,-0.465013325214386
0.8067929631248303,2.5294137070108063,1.92405079502154,0.418810099363327,2.0251197814941406,2.4387009143829346,0.39755451679229736,-0.722072184085846,0.5661821961402893,0.2456187605857849,1.1346545219421387,-0.48381519317626953
0.8208134238891698,2.577579855153887,1.888313207357459,-0.047156549990177155,2.4349634647369385,3.1958060264587402,0.3643849492073059,-0.7317005395889282,0.5760537385940552,0.354441374540329,1.1498676538467407,-0.4867439866065979
0.8426988087858936,2.6381305292662556,1.84422075685472,-0.7426242232322693,3.2159078121185303,4.1577839851379395,0.3210539221763611,-0.7464417815208435,0.5828797817230225,0.5131898522377014,1.1589784622192383,-0.4625338315963745
0.8759122177139513,2.7220526023160407,1.7866395588341077,-1.9115508794784546,4.9507975578308105,5.575297832489014,0.2608187794685364,-0.7681279182434082,0.5847679376602173,0.7111814618110657,1.157715082168579,-0.34587615728378296
0.9244081153255868,2.849043318795832,1.70269369899425,-3.573763608932495,7.280524730682373,7.59608793258667,0.1737019568681717,-0.7982643842697144,0.5767164826393127,1.1224254369735718,1.1714942455291748,-0.16497325897216797
0.9869187178868797,3.043146783357265,1.5702721476808703,-5.721441745758057,9.856491088867188,9.712501525878906,0.0541820302605629,-0.8343313336372375,0.5485946536064148,1.4449788331985474,1.2052265405654907,0.013447821140289307
1.0523467725320825,-2.9499093151545077,1.3639725038904535,-8.29747486114502,13.00849723815918,11.01848316192627,-0.09440508484840393,-0.8685885071754456,0.4864586293697357,1.123122215270996,1.2504854202270508,0.31491780281066895
1.1018307590351115,-2.540641758781775,1.067065412719968,-11.569990158081055,16.148170471191406,10.799413681030273,-0.25555291771888733,-0.8920363187789917,0.37277951836586,0.12643301486968994,1.189124584197998,0.8003315925598145
1.1161627010757482,-2.0293568133024666,0.6907133775999124,-15.467717170715332,18.68031883239746,8.647217750549316,-0.3937667906284332,-0.8984220027923584,0.1943858116865158,-0.9693312644958496,0.7134243249893188,1.4405171871185303
1.0730530679958517,-1.4609325943871587,0.28307856294657086,-19.51468849182129,22.053417205810547,6.107691287994385,-0.4745653569698334,-0.8786622881889343,-0.0523483082652092,-1.5083142518997192,0.2863771319389343,2.1298325061798096
0.9469583764934496,-0.9359814572706726,-0.061677219466435555,-23.382564544677734,23.689327239990234,3.7320868968963623,-0.470350444316864,-0.8116424679756165,-0.3464202880859375,-1.1097886562347412,0.5462615489959717,2.6206817626953125
0.7431970203942442,-0.5352843520031916,-0.279199105421421,-25.69108772277832,23.180368423461914,2.0599095821380615,-0.37558069825172424,-0.6766453385353088,-0.6333168745040894,-0.04191499948501587,0.9863071441650391,2.7141733169555664
0.4983744013552189,-0.25040461794666413,-0.3833530963656024,-25.575084686279297,20.891550064086914,0.9399250149726868,-0.2176542729139328,-0.4779983162879944,-0.8509666919708252,0.9337034821510315,1.2988600730895996,1.8594200611114502
0.25851683804232617,-0.053253172493043295,-0.4167892679761411,-22.187034606933594,15.304956436157227,0.09197665750980377,-0.05145924910902977,-0.2556469440460205,-0.9653996825218201,1.3727941513061523,1.7453930377960205,0.26265621185302734
0.07030160691195987,0.056757803578474465,-0.41891446899548873,-14.885334014892578,6.077066421508789,-0.7386006116867065,0.05658721178770065,-0.0702437087893486,-0.9959235191345215,1.0779647827148438,1.8626325130462646,-1.8719048500061035
-0.030787455162765105,0.06162810091158437,-0.426581183084385,-4.930974006652832,-5.105509281158447,-2.19305419921875,0.06155991181731224,0.030782591551542282,-0.9976285696029663,-0.05846234783530235,1.4912052154541016,-3.9856019020080566
-0.032766712549040525,-0.038309653044667186,-0.4577639204625434,4.2585554122924805,-14.053780555725098,-4.205007553100586,-0.03827972337603569,0.032760851085186005,-0.9987298846244812,-1.142521619796753,0.7742001414299011,-5.419574737548828
0.045297934232284356,-0.20656666470399954,-0.5027901912536799,9.499073028564453,-19.0953311920166,-6.7437944412231445,-0.2048903852701187,-0.04528244584798813,-0.9777368903160095,-1.4824570417404175,0.14658549427986145,-5.330963611602783
0.16739515137688812,-0.40748890750659345,-0.548592807476101,10.518056869506836,-21.665538787841797,-9.196324348449707,-0.39076557755470276,-0.16661447286605835,-0.9052855372428894,-1.5506558418273926,0.08656680583953857,-3.6755402088165283
0.3036295201509,-0.6220791680248786,-0.5869717454146357,9.364554405212402,-22.675498962402344,-10.461349487304688,-0.5560708045959473,-0.29898566007614136,-0.7754952311515808,-1.4768118858337402,0.2632647752761841,-1.7735159397125244
0.44042035752679254,-0.8432532698109585,-0.6081857368291624,8.420802116394043,-22.832317352294922,-10.670084953308105,-0.6755443811416626,-0.42631974816322327,-0.6015740036964417,-1.0873035192489624,0.3936048150062561,-0.9513586759567261
0.5768489647053517,-1.07456429236229,-0.5999828356608011,8.450483322143555,-22.287145614624023,-10.807616233825684,-0.7370857000350952,-0.545385479927063,-0.39907294511795044,-0.8905845284461975,0.2298184633255005,-1.2621818780899048
0.7114947219568964,-1.3215142215552256,-0.5500487558760377,8.71076488494873,-20.796892166137695,-11.404288291931152,-0.7339757680892944,-0.6529665589332581,-0.18685361742973328,-1.121386170387268,0.04005146026611328,-1.8691461086273193
0.8382957836140303,-1.5931935296758708,-0.44714134238950626,8.584244728088379,-18.872581481933594,-12.045856475830078,-0.6685629487037659,-0.743504524230957,0.014976444654166698,-1.4749000072479248,0.10924255847930908,-1.9346237182617188
0.943578640437069,-1.896894136653017,-0.28465056888663065,7.802125453948975,-16.285982131958008,-12.095245361328125,-0.555965006351471,-0.8096635937690735,0.1880110651254654,-1.4840130805969238,0.2809310555458069,-1.5855940580368042
1.0141763342636956,-2.226344966558762,-0.06657179786420121,6.944180488586426,-13.047828674316406,-11.601153373718262,-0.4188060760498047,-0.8490456938743591,0.32206055521965027,-1.0848255157470703,0.45466697216033936,-1.1150903701782227
1.0421221289141018,-2.5358929310747467,0.16988122798005367,5.636722087860107,-7.866550922393799,-9.546207427978516,-0.2871677875518799,-0.863476574420929,0.4146605134010315,-0.7113826274871826,0.6631284356117249,-0.9730557799339294
1.0387704067156938,-2.727955373923783,0.34196137216562783,3.202784776687622,-0.7630629539489746,-5.016758441925049,-0.2038976550102234,-0.861781120300293,0.4644990861415863,0.4219610095024109,0.7704266309738159,-0.6863312721252441
1.0336166272259635,-2.7473100334221954,0.39304576600469315,-0.4164620637893677,5.475960731506348,0.6489015221595764,-0.1965733915567398,-0.8591552972793579,0.47245267033576965,2.104898691177368,0.48133230209350586,0.06313097476959229
1.042160969322933,-2.600186572046327,0.31268233996059885,-4.817227840423584,9.746979713439941,5.622803211212158,-0.25991564989089966,-0.8634961247444153,0.43222561478614807,2.744046449661255,0.24473673105239868,1.1055248975753784
1.0494987424874154,-2.3184169526710536,0.11362124914159409,-8.78798770904541,11.823566436767578,8.578694343566895,-0.36519190669059753,-0.8671737313270569,0.3385920226573944,2.21882963180542,0.5171676278114319,1.7486425638198853
1.0273262717582647,-1.9554477792306357,-0.16130106277262918,-12.244946479797363,13.280248641967773,9.812033653259277,-0.4793235659599304,-0.8559194207191467,0.19403798878192902,1.0733635425567627,0.9260793924331665,1.4692769050598145
0.955668830901045,-1.575130045490415,-0.4436876430334058,-15.092496871948242,15.311354637145996,9.89301872253418,-0.5770571827888489,-0.8166998624801636,0.00250081904232502,0.3840335011482239,1.3684272766113281,0.9165818691253662
0.8343046087270556,-1.2319687470239358,-0.6719901156988872,-16.751617431640625,17.358625411987305,9.020310401916504,-0.6335040330886841,-0.740829586982727,-0.22325840592384338,0.22499573230743408,1.79730224609375,0.21231788396835327
0.6821266926386428,-0.9459771095403321,-0.8229175445310735,-16.35679054260254,18.646896362304688,7.720902442932129,-0.6295790672302246,-0.6304452419281006,-0.4540584683418274,0.2274031639099121,1.8787667751312256,-0.7458010911941528
0.5264749671304852,-0.7145174384467651,-0.9014053510962557,-13.871084213256836,18.20292854309082,6.571944236755371,-0.5665210485458374,-0.5024887919425964,-0.6531147956848145,0.4518054723739624,1.5868240594863892,-1.8640666007995605
0.39434779643206375,-0.5377781148605508,-0.9246045174723352,-9.71689510345459,14.323075294494629,5.5250325202941895,-0.47291406989097595,-0.3842061161994934,-0.792930006980896,0.6765121221542358,1.1887409687042236,-2.579674243927002
0.3136192596596903,-0.4358626384496454,-0.9143538074758489,-3.290754556655884,6.215424060821533,3.490368127822876,-0.40159937739372253,-0.3085033595561981,-0.8622897863388062,0.43907496333122253,0.8351604342460632,-2.8624720573425293
0.3147931828762523,-0.43411779385808463,-0.8943517868618521,5.142679214477539,-4.797569274902344,-0.32338351011276245,-0.3999415934085846,-0.30961981415748596,-0.8626600503921509,-0.7738102078437805,0.3734320402145386,-3.151362895965576
0.40529674050651565,-0.5430463092003809,-0.8760769468658236,11.924347877502441,-15.371160507202148,-5.173653602600098,-0.47488245368003845,-0.394291490316391,-0.7867788076400757,-2.2045302391052246,-0.021357983350753784,-3.0556588172912598
0.5601754608423611,-0.7463374297231157,-0.8520229300549466,14.84793758392334,-22.345531463623047,-9.799662590026855,-0.5751842260360718,-0.5313348770141602,-0.6219697594642639,-2.3982958793640137,0.04792112112045288,-2.1773924827575684
0.7446251079510549,-1.0235410713081394,-0.7966251840267939,15.035895347595215,-25.6767578125,-12.876795768737793,-0.6279497742652893,-0.677696168422699,-0.3826318085193634,-1.4910688400268555,0.4492720365524292,-1.440396785736084
0.9259113063954653,-1.3822737890931753,-0.6662821769634878,14.171577453613281,-26.033851623535156,-14.365789413452148,-0.5904563069343567,-0.7991688847541809,-0.11265207082033157,-0.626020073890686,0.7381031513214111,-1.405704140663147
1.0669103530514006,-1.8565228046625073,-0.4062617375376658,12.494046211242676,-24.448945999145508,-14.847613334655762,-0.4632567763328552,-0.8757129311561584,0.13608844578266144,-0.1775207817554474,0.8039813041687012,-1.7611188888549805
1.131354434120569,-2.4400283328950496,-0.01164830677987049,10.381511688232422,-21.345417022705078,-15.199403762817383,-0.27458131313323975,-0.9049892425537109,0.3249613344669342,-0.030426621437072754,0.9213618040084839,-1.8323312997817993
1.1085427645188206,-3.0038308091154335,0.39805474713323613,7.981256008148193,-17.01254653930664,-15.20840072631836,-0.06124301254749298,-0.8950497508049011,0.44174128770828247,-0.12341882288455963,1.130370855331421,-1.7402794361114502
1.0344172393881355,2.8894565346840793,0.6905030954480084,4.846590042114258,-8.750049591064453,-13.058419227600098,0.12748755514621735,-0.8595647215843201,0.4948694407939911,-0.15837131440639496,1.5720279216766357,-1.578258752822876
0.9705230347888194,2.713891870905278,0.8601455507567735,0.8232595920562744,2.2667551040649414,-8.047554016113281,0.23429585993289948,-0.825181245803833,0.5139857530593872,1.1755552291870117,1.937424898147583,-1.1905605792999268
0.963201971851753,2.7152801598007192,0.9452219869042402,-3.6478211879730225,11.453248023986816,-1.2116265296936035,0.23607388138771057,-0.8210237622261047,0.5197970867156982,3.4792733192443848,1.4920138120651245,-0.370627224445343
1.0260000728335785,2.86137413267892,0.9408455057980655,-8.002918243408203,16.343326568603516,5.8714213371276855,0.1433284729719162,-0.8552328944206238,0.4980298578739166,5.057690620422363,0.7545706629753113,0.6064623594284058
1.1358296610580816,-3.1063055297008093,0.7798580534272113,-11.88419246673584,17.84442901611328,11.472413063049316,-0.014866223558783531,-0.9068840742111206,0.42111825942993164,5.295628070831299,0.7095726132392883,0.9892517328262329
1.221949876424299,-2.5038127026993315,0.32770670924804707,-15.255799293518066,18.57004737854004,14.996037483215332,-0.20352084934711456,-0.9397676587104797,0.2746204137802124,4.168623924255371,1.3817535638809204,0.6623303890228271
1.1685417834585548,-1.7289572459525973,-0.2963646903684522,-17.8968563079834,19.484527587890625,16.84946632385254,-0.38660767674446106,-0.9201806783676147,0.061661235988140106,2.724940776824951,2.5003044605255127,0.0917048454284668
0.9770968967285298,-1.2111427558277552,-0.6531674533822962,-19.458906173706055,20.767030715942383,16.942607879638672,-0.5236384868621826,-0.828876793384552,-0.1968919336795807,1.6836879253387451,3.3880653381347656,-0.6403731107711792
0.7420292572658349,-0.884027975587149,-0.7938631009343414,-19.54697036743164,22.816749572753906,13.981670379638672,-0.5699978470802307,-0.6757850646972656,-0.4673512279987335,0.4573116898536682,3.4451637268066406,-1.5564982891082764
0.5326641951896496,-0.6223375150316789,-0.8558463642523277,-17.116077423095703,21.155637741088867,7.025440216064453,-0.502174437046051,-0.5078302025794983,-0.6999495029449463,-1.0844801664352417,2.213655948638916,-2.474778890609741
0.39790346708626173,-0.4212079945827821,-0.9014359279946326,-9.409870147705078,14.34526252746582,-0.45124584436416626,-0.3769208788871765,-0.38748645782470703,-0.8412995338439941,-2.588060140609741,0.48201459646224976,-3.6015563011169434
0.3733282857097939,-0.31467878316443687,-0.9487612266228089,1.9430272579193115,2.919433355331421,-5.4873576164245605,-0.2881914973258972,-0.36471647024154663,-0.8853968381881714,-3.444535493850708,-0.11364662647247314,-4.939874649047852
0.4631083213355872,-0.3353932103165039,-0.9968681065296403,11.812785148620605,-10.943145751953125,-8.306707382202148,-0.2944715619087219,-0.44673117995262146,-0.8448182344436646,-2.7862932682037354,0.2331385612487793,-5.0606536865234375
0.6342901984099811,-0.48726831409607707,-1.0284817051862785,16.87242889404297,-21.688451766967773,-10.163918495178223,-0.3771427869796753,-0.5926059484481812,-0.7117454409599304,-1.3579950332641602,1.2005465030670166,-3.6397712230682373
0.8433456375545745,-0.7432797156823342,-1.0118112112063238,18.289995193481445,-26.253747940063477,-11.780179977416992,-0.44998782873153687,-0.7468720078468323,-0.4895845651626587,0.0032410919666290283,1.9360198974609375,-2.1945126056671143
1.0511130201464716,-1.104707059374605,-0.8932250238296259,17.544530868530273,-25.767562866210938,-12.946134567260742,-0.44363367557525635,-0.8679764866828918,-0.22317250072956085,0.7031551599502563,1.795100450515747,-1.9843469858169556
1.2191878377005043,-1.6454511865443056,-0.5661121522305774,15.681163787841797,-22.28227424621582,-14.2760591506958,-0.34344959259033203,-0.938819944858551,0.025687919929623604,0.20996567606925964,1.5827406644821167,-2.132545232772827
1.2875914041298717,-2.4635052704279907,0.07853262088542803,13.122302055358887,-18.123092651367188,-15.546453475952148,-0.17529092729091644,-0.9601647853851318,0.2176167517900467,-0.7014638185501099,1.6149191856384277,-2.1070971488952637
1.222465783370882,3.090029879385633,0.6808941665500835,9.836033821105957,-12.451126098632812,-15.38019847869873,0.01759207621216774,-0.9399438500404358,0.34087544679641724,-1.1603227853775024,2.0267510414123535,-1.7001283168792725
1.1136584457971688,2.7287668833318177,0.9876434832150333,5.196473121643066,-2.3338427543640137,-12.41981029510498,0.17708195745944977,-0.8973194360733032,0.40430137515068054,-0.6514014005661011,2.6215474605560303,-1.198948621749878
1.049054995262415,2.63148519715033,1.1385731684635942,-0.18761767446994781,8.867948532104492,-5.640200614929199,0.2433498054742813,-0.866952657699585,0.43494170904159546,1.4784215688705444,3.1266417503356934,-0.11147052049636841
1.0669923166389332,2.6985572763017576,1.196289237606282,-5.736387729644775,13.616625785827637,2.1083133220672607,0.20695151388645172,-0.8757524490356445,0.43615204095840454,4.294589519500732,2.6790971755981445,1.2168631553649902
1.163199134499051,2.881134352247422,1.1478732468662194,-10.77588176727295,13.73309326171875,8.067564964294434,0.10208344459533691,-0.9180759787559509,0.3830345869064331,5.348447799682617,1.1529240608215332,1.968482255935669
1.2984670876958675,-3.0138799424767444,0.8787945853246572,-14.627233505249023,12.955739974975586,11.090259552001953,-0.03425825759768486,-0.963146984577179,0.2667846977710724,4.1561455726623535,1.4837770462036133,2.030548095703125
1.3725027574223592,-2.078060946854689,0.05512039470557524,-17.408601760864258,13.447495460510254,11.99148941040039,-0.17219024896621704,-0.9804041385650635,0.09569868445396423,2.2246804237365723,2.502239465713501,1.107578992843628
1.255955815311052,-1.1892083262002353,-0.7136199079487229,-18.97122573852539,14.857841491699219,11.79701042175293,-0.28739213943481445,-0.9508457779884338,-0.11531759798526764,0.9696125984191895,2.9675540924072266,0.08357936143875122
1.0580483893645505,-0.8035296704501932,-0.9582591220927072,-18.478479385375977,16.972936630249023,10.388689994812012,-0.3531202971935272,-0.8713997602462769,-0.3405417799949646,0.459229975938797,3.1060492992401123,-0.7678261399269104
0.8643915094349778,-0.577097842259217,-1.023948113870424,-15.749361991882324,16.732744216918945,8.485703468322754,-0.3541468381881714,-0.7607004046440125,-0.543980598449707,0.21858784556388855,2.6178629398345947,-1.8302412033081055
0.7112235594252891,-0.4330817865913077,-1.0202034936697881,-10.425860404968262,11.927257537841797,6.759141445159912,-0.317926824092865,-0.6527611613273621,-0.6876230239868164,0.13071680068969727,1.8280082941055298,-2.725417137145996
0.6258818665712886,-0.3684462277192173,-0.9883943714616837,-3.2343862056732178,4.716399192810059,4.325800895690918,-0.29189568758010864,-0.5858122110366821,-0.7560561895370483,-0.2916918694972992,0.9386869668960571,-3.106462001800537
0.6183613154571521,-0.3797681498837745,-0.9576148444716528,3.4552035331726074,-3.493269920349121,0.7403521537780762,-0.3020614981651306,-0.5797007083892822,-0.7567734122276306,-1.2250990867614746,0.09784334897994995,-3.0441603660583496
0.6797719670056613,-0.465420581543056,-0.9430865969060015,8.349018096923828,-11.70709228515625,-3.6712515354156494,-0.3490379750728607,-0.62861567735672,-0.69499272108078,-2.0477819442749023,-0.2403419017791748,-2.1999809741973877
0.7936782880042088,-0.6131338995428638,-0.9424794699522533,10.887357711791992,-17.21843147277832,-7.769557952880859,-0.40350982546806335,-0.7129374146461487,-0.5734981894493103,-2.3690578937530518,-0.2255544662475586,-1.2813754081726074
0.9404923332152265,-0.8056272398380334,-0.9357763955265592,11.73576831817627,-19.811664581298828,-10.463409423828125,-0.4251069128513336,-0.8078483939170837,-0.40824663639068604,-1.8998137712478638,0.007448434829711914,-0.8564781546592712
1.102109304891202,-1.0531328173943684,-0.8841201374506236,11.800882339477539,-20.421253204345703,-12.058721542358398,-0.392530620098114,-0.8921621441841125,-0.22353187203407288,-1.0560319423675537,0.3650624752044678,-0.9510286450386047
1.260068163043515,-1.4222954840867947,-0.7017011920057454,11.498968124389648,-19.064830780029297,-13.077808380126953,-0.3023874759674072,-0.9521111845970154,-0.04523782059550285,-0.6047780513763428,0.7123954892158508,-1.268925428390503
1.372079413214913,-2.135256211148018,-0.14854559016463456,10.748652458190918,-15.687503814697266,-13.571487426757812,-0.1667891889810562,-0.9803206920623779,0.10560756921768188,-0.4353988766670227,1.0131728649139404,-1.560441493988037
1.3526421712422416,-3.0666623938297364,0.6707376397747064,9.062163352966309,-9.250199317932129,-12.648775100708008,-0.01620185747742653,-0.9762986302375793,0.21582099795341492,-0.4024992883205414,1.358241319656372,-1.5559241771697998
1.2565029811339719,2.7996455722732025,1.0570064397352215,6.6793060302734375,0.8335375785827637,-9.576318740844727,0.10366322845220566,-0.951015055179596,0.29124683141708374,0.06616717576980591,1.8326219320297241,-1.0449851751327515
1.1895764504467117,2.7156059637806536,1.1993178855453748,1.4542820453643799,8.53107738494873,-4.216847896575928,0.1537397801876068,-0.9282114505767822,0.3388036787509918,1.4921190738677979,2.0554237365722656,-0.21497854590415955
1.2038382285809575,2.7871508000835847,1.2421264402592476,-5.341733455657959,13.334680557250977,2.3473596572875977,0.124519944190979,-0.9334230422973633,0.3364763557910919,3.422461986541748,1.5363283157348633,1.448847770690918
1.299291671821771,3.0319668409209424,1.1408197683560266,-11.734241485595703,16.0286808013916,7.887817859649658,0.02934079058468342,-0.9633684754371643,0.26657187938690186,4.645387649536133,0.30566883087158203,2.7981863021850586
1.4152830941699306,-2.4391080164789916,0.4854973513313565,-17.058895111083984,17.57752799987793,11.415630340576172,-0.10007580369710922,-0.9879321455955505,0.11821680516004562,3.9466943740844727,0.9790209531784058,2.6213767528533936
1.323563589700296,-1.1498660228336712,-0.639619462464837,-21.011110305786133,18.472732543945312,12.867053985595703,-0.2233605831861496,-0.969593346118927,-0.09999603778123856,2.8052239418029785,2.1999549865722656,1.7463126182556152
1.0823894797286508,-0.692269352946265,-0.9211648039646068,-23.70462417602539,19.84290885925293,12.67286205291748,-0.29949623346328735,-0.8830814957618713,-0.3612050712108612,1.8497587442398071,3.126169204711914,0.7215414047241211
0.8130343432561419,-0.4432067378057675,-0.9730137954192337,-24.57109832763672,21.115703582763672,10.992670059204102,-0.294739693403244,-0.7263759970664978,-0.6208916306495667,1.0079660415649414,3.4652676582336426,-0.20248782634735107
0.5528956324375053,-0.2327403226809388,-0.9590071762983311,-23.39712142944336,22.421232223510742,8.207657814025879,-0.19628046452999115,-0.525153636932373,-0.8280625939369202,0.35935118794441223,3.0488505363464355,-1.2909406423568726
0.3246843616336529,-0.02454069491409535,-0.920264956198078,-20.645341873168945,21.786094665527344,4.679627418518066,-0.023256145417690277,-0.3190096616744995,-0.9474660754203796,0.30410945415496826,2.39322829246521,-1.851865530014038
0.14314581356662656,0.15634255186873913,-0.8705704861987669,-15.669290542602539,15.395525932312012,2.938168525695801,0.15411387383937836,-0.14265745878219604,-0.9777002334594727,0.3615569472312927,1.8957396745681763,-2.0884618759155273
0.03699285345611778,0.24352224289448007,-0.8211114669771677,-6.687647819519043,2.4571926593780518,2.2079854011535645,0.24095746874809265,-0.03698441758751869,-0.9698307514190674,0.759271502494812,1.2036713361740112,-2.629732847213745
0.02221589396262413,0.19629689336538933,-0.8064964984983631,2.9478588104248047,-11.59347152709961,-0.25294509530067444,0.19499056041240692,-0.022214066237211227,-0.9805535078048706,0.35826265811920166,0.13206204771995544,-3.6605749130249023
0.08740883145167883,0.030872695825318208,-0.831717947101542,10.146217346191406,-20.737089157104492,-3.3496150970458984,0.03074994683265686,-0.08729756623506546,-0.9957075715065002,-1.040103554725647,0.2717305123806,-3.5254411697387695
0.21750279872963194,-0.18779972239342982,-0.8694312679329522,14.794557571411133,-23.2788143157959,-6.134344577789307,-0.18229904770851135,-0.21579192578792572,-0.9592710137367249,-1.385922908782959,0.5437795519828796,-2.9661593437194824
0.393594441385552,-0.4097917736643896,-0.8932261283048937,17.173856735229492,-22.0189208984375,-8.64428997039795,-0.367953896522522,-0.3835104703903198,-0.8470712304115295,-0.807613730430603,0.46239835023880005,-2.9807944297790527
0.5966691991462814,-0.6198137003371635,-0.8905757790589158,18.122066497802734,-19.41088104248047,-10.943829536437988,-0.48051372170448303,-0.5618903040885925,-0.6733394265174866,-0.5798957943916321,0.5607153177261353,-2.996307849884033
0.8112982422253365,-0.8289836803687406,-0.8472951002955444,18.154705047607422,-16.59268569946289,-12.434916496276855,-0.507635772228241,-0.7251816987991333,-0.4652070105075836,-0.48886996507644653,1.0450057983398438,-2.817049980163574
1.0194194104100969,-1.0786471975118668,-0.728146694679012,17.5692138671875,-14.14797306060791,-12.911083221435547,-0.4616886377334595,-0.8518040180206299,-0.24753524363040924,-0.20924031734466553,1.8823367357254028,-2.304008960723877
1.192871318829303,-1.4576653541900852,-0.4477914312078083,16.37312889099121,-10.791234016418457,-12.22887134552002,-0.36663392186164856,-0.9294322729110718,-0.041655514389276505,0.09781989455223083,2.561527729034424,-1.6744393110275269
1.2793299227468444,-2.0333835113766576,0.07776988192464647,14.073372840881348,-4.207889080047607,-9.998249053955078,-0.2571558952331543,-0.9578235149383545,0.1282372623682022,0.5469967126846313,2.7509753704071045,-1.190676212310791
1.2610325040758132,-2.511087978103242,0.5755934412253699,10.036404609680176,3.7920780181884766,-5.95587158203125,-0.17971573770046234,-0.952405571937561,0.24622373282909393,1.3015419244766235,2.428739070892334,-0.5234606266021729
1.2196732703089295,-2.63235931928655,0.7717956446546992,3.4622089862823486,8.644207000732422,-0.3120923340320587,-0.16767962276935577,-0.9389870166778564,0.3003113567829132,2.5437021255493164,1.274817705154419,0.8858458995819092
1.2061029417612859,-2.4851674779845516,0.7213110079861077,-3.0923354625701904,10.871334075927734,4.420225620269775,-0.21766743063926697,-0.9342331886291504,0.282540887594223,3.694230079650879,-0.013505518436431885,2.9203248023986816
1.2027516411309156,-2.159596370753252,0.4884111304174612,-8.41520881652832,10.557907104492188,7.082783222198486,-0.2992055416107178,-0.9330326318740845,0.19981518387794495,3.1675679683685303,0.11243027448654175,3.611067533493042
1.1686948651994948,-1.7435841453060958,0.15343465100349776,-12.142717361450195,10.531363487243652,8.242669105529785,-0.38552576303482056,-0.9202406406402588,0.06728510558605194,2.0349855422973633,0.6155682802200317,3.1080079078674316
1.0802313048430172,-1.3516766026698095,-0.1571757439547286,-14.790807723999023,11.683832168579102,8.446282386779785,-0.4598594605922699,-0.8820667862892151,-0.10240854322910309,1.1513420343399048,0.9555683732032776,1.9518043994903564
0.9457563264463182,-1.0387418887419901,-0.3784595692246065,-16.581533432006836,13.11086654663086,7.6680779457092285,-0.5042452216148376,-0.8109397292137146,-0.2968390882015228,0.5248445868492126,1.1615867614746094,1.0091956853866577
0.7876244186876998,-0.7882079518721034,-0.5232179200414289,-17.195343017578125,14.831851959228516,5.70528507232666,-0.5002854466438293,-0.70867919921875,-0.49748194217681885,-0.15099012851715088,1.2390594482421875,0.46157804131507874
0.6266998612125144,-0.5740631707191377,-0.6173535645744243,-16.511411666870117,15.536430358886719,3.450580358505249,-0.43985146284103394,-0.5864749550819397,-0.6801307201385498,-0.7542555332183838,1.0732150077819824,-0.17622298002243042
0.4767015239487331,-0.3851410924417117,-0.6761058869165392,-14.497637748718262,15.776274681091309,1.5941218137741089,-0.33380547165870667,-0.4588509500026703,-0.8234256505966187,-0.6640124917030334,0.7323646545410156,-0.7481380701065063
0.34644468997844496,-0.22109187072898276,-0.7087589059267837,-12.052094459533691,14.022486686706543,0.6465203166007996,-0.20626582205295563,-0.33955588936805725,-0.9176906943321228,-0.2876611053943634,0.5262624621391296,-0.9695621132850647
0.24126969520415428,-0.09267806045795624,-0.719154124233866,-8.884954452514648,10.753875732421875,0.76680988073349,-0.08986490219831467,-0.23893573880195618,-0.9668681621551514,0.20358869433403015,0.2143232524394989,-1.0441181659698486
0.16948258347578513,-0.008657886186891256,-0.7123690664055329,-5.342511177062988,6.161051273345947,1.2648992538452148,-0.00853373110294342,-0.1686723679304123,-0.9856352210044861,0.6961711049079895,-0.1879713535308838,-1.2718873023986816
0.13380701313155258,0.02759522995849161,-0.6985471786676454,-1.8305943012237549,1.5744701623916626,1.3163671493530273,0.027345091104507446,-0.1334080845117569,-0.9906838536262512,0.6599413156509399,-0.3960414230823517,-1.4192739725112915
0.13197632742539886,0.023158057004044538,-0.6870761751019349,1.3534659147262573,-2.0475385189056396,0.8788318634033203,0.02295461669564247,-0.13159354031085968,-0.9910379648208618,0.11564100533723831,-0.2325575202703476,-1.3562368154525757
0.15929505878940747,-0.012578685563552234,-0.6832052772851019,4.02252197265625,-4.852653503417969,-0.16702426970005035,-0.012419103644788265,-0.15862223505973816,-0.9872612357139587,-0.3205886781215668,-0.15990504622459412,-1.214139461517334
0.20867506108223757,-0.06947533511948635,-0.6901325659061102,5.645148754119873,-6.57412052154541,-1.626422643661499,-0.0679134875535965,-0.20716388523578644,-0.9759461283683777,-0.6494631767272949,-0.23973558843135834,-0.9876463413238525
0.27210149361958935,-0.13493401523950518,-0.7081237487504173,6.471127986907959,-7.260096549987793,-3.0963313579559326,-0.12957552075386047,-0.2687562108039856,-0.9544528722763062,-0.8514577746391296,-0.2683379650115967,-0.6350399255752563
0.34359972754819845,-0.2012210327485867,-0.7341004364891085,6.701684951782227,-7.468883991241455,-4.07877779006958,-0.18818333745002747,-0.33687859773635864,-0.9225507378578186,-0.7804140448570251,-0.11272168159484863,-0.3783220648765564
0.4185616917073252,-0.26477703565996646,-0.7624795372423709,6.56862735748291,-7.242619514465332,-4.397739410400391,-0.23910319805145264,-0.4064467251300812,-0.8818337321281433,-0.4180775582790375,0.1217786967754364,-0.2532523274421692
0.4915696886807558,-0.3223270348104317,-0.7878164699225805,5.989626407623291,-6.369258403778076,-4.105678081512451,-0.2792662978172302,-0.4720102846622467,-0.836191713809967,-0.017883330583572388,0.28135165572166443,-0.21603906154632568
0.5562671493530091,-0.36798196081997725,-0.808305255378877,4.873081207275391,-4.635172367095947,-3.5367343425750732,-0.3054969906806946,-0.5280198454856873,-0.7923803925514221,0.24708637595176697,0.3439377546310425,-0.1154106855392456
0.6062241102075496,-0.39436857599221287,-0.8244782573779884,3.313812732696533,-2.353522300720215,-2.6666550636291504,-0.3157583773136139,-0.569768488407135,-0.7587229609489441,0.3273398280143738,0.38016271591186523,0.04807543754577637
0.6368849337654011,-0.3983066316777649,-0.837945872233,1.4487732648849487,-0.02848014235496521,-1.6867207288742065,-0.3118193447589874,-0.5946939587593079,-0.7410180568695068,0.3782561421394348,0.4354684352874756,0.1933954358100891
0.6459598602060422,-0.38214955983079024,-0.8490320156731053,-0.4325832426548004,1.8510963916778564,-0.6558076739311218,-0.29778164625167847,-0.6019651889801025,-0.740921139717102,0.48450344800949097,0.29535502195358276,0.36363232135772705
0.6352804254841897,-0.35193102585263586,-0.8572853501547059,-1.9642010927200317,3.1033239364624023,0.13892273604869843,-0.2774598300457001,-0.5934032797813416,-0.7555717825889587,0.544259786605835,0.14011037349700928,0.43676990270614624
0.6109622296329038,-0.31366438018922,-0.8634190134136869,-2.8501436710357666,3.749964714050293,0.428471177816391,-0.2527291476726532,-0.573655903339386,-0.7791321277618408,0.3751351833343506,0.1443650722503662,0.3395875096321106
0.5817217696942641,-0.27087933702498596,-0.8696328926103756,-2.92637300491333,4.041881561279297,0.22726096212863922,-0.22356687486171722,-0.5494633316993713,-0.8050515055656433,0.05189026892185211,0.19719886779785156,0.10600066184997559
0.5555983251193987,-0.2263706370602653,-0.8771244811211234,-2.361588716506958,3.9821884632110596,-0.16990824043750763,-0.1906827688217163,-0.5274516940116882,-0.8279098868370056,-0.2042604386806488,0.17741501331329346,-0.2297987937927246
0.53800109395621,-0.18374923430653028,-0.8856417927087418,-1.3216012716293335,3.592642068862915,-0.5073907971382141,-0.156905397772789,-0.5124204754829407,-0.8442783951759338,-0.2804114520549774,0.1644895076751709,-0.5061702132225037
0.5320852943116229,-0.14691243508062082,-0.8934933969923555,-0.055519089102745056,2.922064781188965,-0.5882182717323303,-0.12614701688289642,-0.5073314309120178,-0.8524680733680725,-0.1934635490179062,0.17842817306518555,-0.6918129324913025
0.5381004652531456,-0.1192720960610832,-0.8987828458115418,1.0864753723144531,2.028857707977295,-0.4403986632823944,-0.10217435657978058,-0.512505829334259,-0.8525832295417786,-0.00872647762298584,0.19753384590148926,-0.7292648553848267
0.553555872219624,-0.10296647023768156,-0.900279424313713,1.9041649103164673,1.0735979080200195,-0.13822121918201447,-0.08743482083082199,-0.5257154107093811,-0.8461551070213318,0.16839802265167236,0.21216261386871338,-0.5820828080177307
0.5748416138724816,-0.09782207156942468,-0.897313499584745,2.304999589920044,0.26409128308296204,0.21417465806007385,-0.08196908235549927,-0.5437018871307373,-0.8352660536766052,0.29350173473358154,0.21682798862457275,-0.3536529541015625
0.5975103453368346,-0.10463009351294723,-0.8893189722241877,2.3211944103240967,-0.6095235347747803,0.6595909595489502,-0.08634401857852936,-0.5625859498977661,-0.8222176432609558,0.39191657304763794,0.19845008850097656,-0.028536081314086914
0.6194396334448855,-0.1190902432606961,-0.8764167181973983,2.2225635051727295,-0.8070809245109558,0.8984956741333008,-0.09673471003770828,-0.5805789828300476,-0.8084370493888855,0.40393996238708496,0.17046844959259033,0.08762717247009277
0.6388341922337372,-0.13551340562278327,-0.8623828453131613,1.8785446882247925,-0.7593733668327332,0.8382107615470886,-0.10845635086297989,-0.5962599515914917,-0.7954315543174744,0.18795466423034668,0.14347058534622192,0.12512826919555664
0.6542529309064923,-0.14883935760409023,-0.8497987511574787,1.4494597911834717,-0.35936495661735535,0.6983164548873901,-0.11766886711120605,-0.6085665822029114,-0.7847297787666321,-0.009940341114997864,0.1116335391998291,0.20439225435256958
0.665878928192854,-0.15607235566130484,-0.8398540418260217,1.0968633890151978,0.13886216282844543,0.49355533719062805,-0.12223361432552338,-0.6177505254745483,-0.7768161296844482,-0.09224388003349304,0.046781837940216064,0.17059969902038574
0.6749654143347749,-0.15625428623976553,-0.8331130193956463,0.8697723150253296,0.6540877223014832,0.27062106132507324,-0.12149637192487717,-0.6248703002929688,-0.7712170481681824,-0.15000322461128235,0.01247406005859375,0.07877326011657715
0.6826748490699764,-0.1502499893002111,-0.82890292248812,0.7672299742698669,1.0413895845413208,0.1587565690279007,-0.11613904684782028,-0.6308706402778625,-0.7671467065811157,-0.16488201916217804,0.0074117183685302734,-0.009113669395446777
0.6900652347012791,-0.1413547550873722,-0.825186920091218,0.7850049734115601,1.164339542388916,0.21872083842754364,-0.10865074396133423,-0.6365875005722046,-0.7635124921798706,-0.08916416019201279,0.020819008350372314,-0.050528526306152344
0.6979802751730916,-0.1338164788431094,-0.8196483131597851,0.9040674567222595,1.01051664352417,0.4163079559803009,-0.1022166982293129,-0.6426715850830078,-0.7592924237251282,0.024030685424804688,0.04551881551742554,-0.05679333209991455
0.7069359435267425,-0.13110587036518814,-0.8111291174359844,1.02105712890625,0.6039184331893921,0.6244826912879944,-0.09940174221992493,-0.6495070457458496,-0.7538301944732666,0.1157287061214447,0.06739944219589233,-0.0347440242767334
0.716032016099949,-0.13439632047425548,-0.8003070213067034,0.965183436870575,0.16581298410892487,0.7437014579772949,-0.10108581930398941,-0.6563963294029236,-0.747613251209259,0.1292383074760437,0.05600869655609131,0.022698700428009033
0.7237937184774443,-0.1419418296821011,-0.7885717504923342,0.8424574136734009,-0.10067342966794968,0.7743581533432007,-0.10600006580352783,-0.6622320413589478,-0.7417632341384888,0.09011570364236832,0.024506211280822754,0.13850706815719604
0.7323586339241144,-0.15246366769184294,-0.7767066721052687,0.9227578639984131,-0.5225276947021484,0.7276604771614075,-0.11293318122625351,-0.6686253547668457,-0.7349736094474792,0.05162341147661209,-0.0005488395690917969,0.16859793663024902
0.7386095698659036,-0.16631371398521436,-0.7654565797860993,0.5950397253036499,-0.619724452495575,0.7204895615577698,-0.12240713834762573,-0.6732604503631592,-0.729202926158905,0.03720209002494812,-0.017276108264923096,0.0977332592010498
0.7427494188013045,-0.17868675156806943,-0.7548624539319988,0.49883460998535156,-0.46164271235466003,0.6586219668388367,-0.13092347979545593,-0.6763157248497009,-0.7248835563659668,0.03668522834777832,-0.11831629276275635,0.2655177712440491
0.7457986506694787,-0.1897275676055975,-0.7458326842206733,0.3300867974758148,-0.507714569568634,0.5304752588272095,-0.13852906227111816,-0.6785586476325989,-0.7213652729988098,-0.018941611051559448,-0.0916593074798584,0.1400054693222046
0.7476007175955756,-0.19864739224094893,-0.7388390633798794,0.2485722154378891,-0.30305442214012146,0.4015212953090668,-0.14471638202667236,-0.6798812747001648,-0.7189010381698608,-0.08468422293663025,-0.05557715892791748,0.12968289852142334
0.749147600774992,-0.20427827115371364,-0.7338514976801346,0.16560834646224976,-0.17518195509910583,0.2529907524585724,-0.14854857325553894,-0.6810148358345032,-0.7170440554618835,-0.07847163081169128,-0.0654604434967041,0.12045592069625854
0.7488501064467474,-0.20727327225974432,-0.7311163251014863,-0.16465584933757782,-0.019384102895855904,0.16355116665363312,-0.15073713660240173,-0.6807969212532043,-0.7167941331863403,-0.07764111459255219,-0.08150166273117065,0.11983990669250488
0.7447007076292095,-0.2062520814419061,-0.7301633488064604,-0.6207408905029297,0.3686007857322693,0.1493697315454483,-0.15058232843875885,-0.6777517795562744,-0.7197065949440002,-0.07376761734485626,-0.11166173219680786,0.21262657642364502
0.7362010352286941,-0.20014492749340146,-0.7305312994364036,-1.0396982431411743,0.7932897210121155,0.13673275709152222,-0.14732415974140167,-0.6714776158332825,-0.7262323498725891,-0.07337892055511475,-0.1086280345916748,0.2402399778366089
0.7241611830380326,-0.18936352491553987,-0.7320622223212435,-1.3406474590301514,1.1415022611618042,0.1030096560716629,-0.14099757373332977,-0.6625073552131653,-0.7356654405593872,-0.08907440304756165,-0.08018374443054199,0.20980185270309448
0.7098852448950891,-0.17506965840239297,-0.7343354926696394,-1.508113145828247,1.401675820350647,0.08141808211803436,-0.13210202753543854,-0.6517467498779297,-0.7468435764312744,-0.08850948512554169,-0.07264906167984009,0.1636069416999817
0.6941543114476127,-0.15839974956343478,-0.7366791574368344,-1.6480244398117065,1.6186074018478394,0.08895588666200638,-0.12123679369688034,-0.6397356986999512,-0.7589730024337769,-0.06513403356075287,-0.08220350742340088,0.13064658641815186
0.676733932327432,-0.13968502559062496,-0.7388333528408544,-1.8427917957305908,1.8376665115356445,0.09679170697927475,-0.10854775458574295,-0.6262500882148743,-0.7720286250114441,-0.056521788239479065,-0.08935666084289551,0.13985705375671387
0.6570015676475299,-0.11883796291529532,-0.74091654931116,-2.1065707206726074,2.0577425956726074,0.08434221148490906,-0.09387779235839844,-0.610745370388031,-0.7862424254417419,-0.06517979502677917,-0.08513176441192627,0.19118022918701172
0.6344588986563808,-0.09596895324889985,-0.743136961259192,-2.3996081352233887,2.2240049839019775,0.03948366269469261,-0.07717408984899521,-0.5927417874336243,-0.8016865253448486,-0.07768730819225311,-0.08786129951477051,0.2455952763557434
0.6093780627743426,-0.0718961316069256,-0.7458224161724298,-2.600313901901245,2.235182046890259,-0.06454450637102127,-0.05890434980392456,-0.5723575949668884,-0.8178857564926147,-0.09766604006290436,-0.09965479373931885,0.277068555355072
0.58262996931039,-0.04846069176677635,-0.7495792199147153,-2.7718441486358643,1.976359248161316,-0.24317391216754913,-0.04044973850250244,-0.5502219200134277,-0.8340381979942322,-0.15187199413776398,-0.11522918939590454,0.26015520095825195
0.5538480689764619,-0.02792201122142962,-0.7549781789924734,-2.984098196029663,1.5407536029815674,-0.44301047921180725,-0.023744776844978333,-0.5259639024734497,-0.8501753211021423,-0.19689726829528809,-0.14006704092025757,0.2427382469177246
0.5237136394083057,-0.01046361215915647,-0.7617068336085593,-3.0178089141845703,1.2763835191726685,-0.582265317440033,-0.009060987271368504,-0.5000994801521301,-0.8659205436706543,-0.1836727261543274,-0.16733527183532715,0.20275837182998657
0.49412103311169137,0.005357732109179364,-0.7688430145763507,-2.8652148246765137,1.2109287977218628,-0.6402358412742615,0.00471684942021966,-0.4742580056190491,-0.8803732395172119,-0.13946716487407684,-0.1624913215637207,0.04643470048904419
0.4667735136338908,0.020765207357870307,-0.7759354444679507,-2.5486855506896973,1.2043102979660034,-0.6836634278297424,0.018542515113949776,-0.45000728964805603,-0.8928323984146118,-0.11513060331344604,-0.11035653948783875,-0.09590661525726318
0.44304203138501547,0.03611889749688523,-0.7832196576080475,-2.1357202529907227,1.2175456285476685,-0.7609056830406189,0.032624587416648865,-0.42868977785110474,-0.9028624892234802,-0.10630922019481659,-0.03427723050117493,-0.1995849609375
0.42361738991410164,0.05158047391294093,-0.7911065707565393,-1.6644288301467896,1.2047536373138428,-0.8228273391723633,0.04700032249093056,-0.41106078028678894,-0.9103955626487732,-0.07916580140590668,0.011021018028259277,-0.2788134217262268
0.4091794764867751,0.0665328839771483,-0.7990246425157174,-1.112609624862671,1.1172831058502197,-0.7767982482910156,0.06099541112780571,-0.3978566825389862,-0.9154177308082581,-0.06781604140996933,0.03469744324684143,-0.30496490001678467
0.40050893715812724,0.07926895814788243,-0.8063962484175147,-0.5128663182258606,0.8108516931533813,-0.699885368347168,0.07291940599679947,-0.3898870646953583,-0.9179710745811462,-0.045819737017154694,0.04993641376495361,-0.32116466760635376
0.39771726911057753,0.08767953073798432,-0.8136464015621016,0.06446543335914612,0.2871566116809845,-0.6860609650611877,0.08073239028453827,-0.3873147964477539,-0.9184060096740723,-0.04221916198730469,0.04194730520248413,-0.30873632431030273
0.40028516895705085,0.09110590554844059,-0.8218666958168731,0.5696191787719727,-0.22908064723014832,-0.7878938317298889,0.0837879553437233,-0.38968098163604736,-0.9171304702758789,-0.03918646275997162,0.027254194021224976,-0.2635945677757263
0.40719006262560997,0.09062443218608891,-0.8322700665838912,0.9589255452156067,-0.6718355417251587,-0.999436616897583,0.08310087770223618,-0.3960306942462921,-0.9144692420959473,-0.053590327501297,-0.010249882936477661,-0.20673131942749023
0.4171314813260936,0.08736674967347532,-0.8457563304415007,1.2180479764938354,-1.0409454107284546,-1.2821264266967773,0.0797739028930664,-0.4051395654678345,-0.9107678532600403,-0.06832975894212723,-0.0429195761680603,-0.14846670627593994
0.42901325296369214,0.08257327084978217,-0.8625378815593727,1.3960095643997192,-1.2488170862197876,-1.5523370504379272,0.07500490546226501,-0.4159736931324005,-0.9062781929969788,-0.06298092007637024,-0.03928762674331665,-0.10290753841400146
0.4424608816525882,0.07812450913454759,-0.8821782549025036,1.5616956949234009,-1.2956655025482178,-1.7596098184585571,0.07052937895059586,-0.42816466093063354,-0.9009442925453186,-0.04846511781215668,-0.01540839672088623,-0.08217942714691162
0.4575853657442156,0.07455341445809174,-0.9040538152575446,1.7371524572372437,-1.3004564046859741,-1.918221354484558,0.06682156026363373,-0.44178318977355957,-0.8946298360824585,-0.05116600543260574,0.017069995403289795,-0.06737571954727173
0.47431042298699755,0.072219430376254,-0.9275923686671095,1.8933521509170532,-1.2676957845687866,-2.0063586235046387,0.06419114023447037,-0.4567250907421112,-0.8872889876365662,-0.05897258222103119,0.05253499746322632,-0.05515486001968384
0.49261689734619785,0.07144759450591379,-0.9520157626733123,2.0505292415618896,-1.1276477575302124,-2.019382953643799,0.06289880722761154,-0.47293326258659363,-0.8788503408432007,-0.07338154315948486,0.08767929673194885,-0.06505835056304932
0.5122935071361628,0.07321528516594271,-0.9763573484962246,2.1428816318511963,-0.8423207402229309,-1.9155704975128174,0.06375909596681595,-0.49017760157585144,-0.8692874908447266,-0.06620045751333237,0.13014644384384155,-0.05092424154281616
0.5316010422943113,0.07766157538090045,-0.9983594599006613,1.9764986038208008,-0.4869544506072998,-1.5773682594299316,0.06687673926353455,-0.5069140791893005,-0.8593984246253967,-0.013058952987194061,0.18312257528305054,-0.011039137840270996
0.549626826716199,0.08279961127785182,-1.0163209460347715,1.8401005268096924,-0.3392683267593384,-1.16923987865448,0.070524200797081,-0.5223690271377563,-0.8497981429100037,0.07371720671653748,0.22238117456436157,0.04608726501464844
0.566425604720631,0.08670101103797806,-1.0286540463552314,1.6789627075195312,-0.16991303861141205,-0.6200904846191406,0.07306881248950958,-0.5366193056106567,-0.8406549096107483,0.1326807588338852,0.19289976358413696,0.049944519996643066
0.5822831558851245,0.08981953968273139,-1.0345691738252951,1.5573734045028687,0.17554955184459686,-0.10067421197891235,0.0749172791838646,-0.5499323010444641,-0.8318424820899963,0.1678043156862259,0.14525389671325684,0.06182295083999634
0.5972052402384723,0.0939083362335609,-1.0351704872524587,1.4050383567810059,0.5526823401451111,0.24595682322978973,0.07753970474004745,-0.5623336434364319,-0.8232669830322266,0.17702272534370422,0.08192586898803711,0.05730634927749634
0.6106281407029241,0.09911225389548464,-1.0327392813088723,1.2196882963180542,0.7357560396194458,0.38409844040870667,0.08106860518455505,-0.5733821988105774,-0.8152673244476318,0.13543841242790222,0.04580950736999512,0.055318593978881836
0.6222243607512086,0.10501637006221201,-1.029522792876793,1.0278230905532837,0.8093419075012207,0.3554142713546753,0.08517786115407944,-0.582844078540802,-0.8081074357032776,0.06669293344020844,0.03857827186584473,0.05534565448760986
0.6318323751007766,0.11194331943350881,-1.0269492250267185,0.8299838304519653,0.8767683506011963,0.26549476385116577,0.09014373272657394,-0.5906243920326233,-0.8018958568572998,0.009953968226909637,0.04269653558731079,0.06204301118850708
0.6392686801965618,0.11993582299109173,-1.0250819275828822,0.5997180938720703,0.9370191693305969,0.2082202285528183,0.09602177143096924,-0.5966086983680725,-0.7967671155929565,-0.007886946201324463,0.044713497161865234,0.07087606191635132
0.6442198991165711,0.12863883303910023,-1.0234068656523698,0.3457622528076172,1.0012456178665161,0.17948952317237854,0.10257212072610855,-0.6005748510360718,-0.7929620742797852,0.0038732364773750305,0.03670156002044678,0.08866220712661743
0.6466286370253238,0.13801548964894567,-1.0216964724546762,0.09697677195072174,1.0726988315582275,0.15517491102218628,0.10980349779129028,-0.6024990677833557,-0.790530264377594,0.014693021774291992,0.011037826538085938,0.09936821460723877
0.6466729771078567,0.14815127395394073,-1.019953471531252,-0.12555482983589172,1.15956449508667,0.12308675050735474,0.11780641973018646,-0.6025344729423523,-0.7893502712249756,0.02869325876235962,-0.01227271556854248,0.09397679567337036
0.6447878958957884,0.1590490724210165,-1.0179282149209201,-0.28567686676979065,1.256307601928711,0.14640167355537415,0.1265811026096344,-0.6010289192199707,-0.7891396880149841,0.040380626916885376,-0.020858347415924072,0.0649271011352539
0.6418385498563697,0.17035299817846372,-1.014995961393479,-0.3614313006401062,1.3446087837219238,0.2221190631389618,0.13579311966896057,-0.5986691117286682,-0.7894020080566406,0.052256256341934204,-0.0025119781494140625,0.0215798020362854
0.6386654688389075,0.18181640934301063,-1.0110067663478344,-0.36425405740737915,1.4130710363388062,0.29350799322128296,0.1451759934425354,-0.5961244702339172,-0.7896578311920166,0.058116912841796875,0.02681899070739746,-0.024871528148651123
0.6359046624174536,0.1935283946615601,-1.006295695638251,-0.31576669216156006,1.474960446357727,0.3409159779548645,0.15473023056983948,-0.5939055681228638,-0.789515495300293,0.0394684374332428,0.038104116916656494,-0.056157052516937256
0.6337447448509382,0.2053076353861086,-1.0013707938742622,-0.2621341049671173,1.4364910125732422,0.33791759610176086,0.16428031027317047,-0.5921664834022522,-0.7888922095298767,0.01595655083656311,0.03412199020385742,-0.06726312637329102
0.6321918982667533,0.2163147173334606,-0.9968809499876056,-0.18878479301929474,1.2741748094558716,0.2992066740989685,0.17315073311328888,-0.5909144282341003,-0.787933349609375,0.008444175124168396,0.015658020973205566,-0.050048768520355225
0.6314455651905901,0.22562737033476193,-0.99301458098613,-0.08951754868030548,1.0281121730804443,0.27659520506858826,0.18057946860790253,-0.5903121829032898,-0.7867162823677063,0.020928144454956055,-0.013142406940460205,-0.02544790506362915
0.6317336936116152,0.23248954360821208,-0.9896642304183355,0.015753746032714844,0.7342303991317749,0.2623361051082611,0.18593458831310272,-0.5905447602272034,-0.7852931022644043,0.04377128183841705,-0.032074928283691406,-0.010086476802825928
0.6326715133246182,0.2369990263310163,-0.9867933693750117,0.045634716749191284,0.5232625007629395,0.23038017749786377,0.18934383988380432,-0.5913013219833374,-0.7839080095291138,0.04498545825481415,-0.03829169273376465,0.01022636890411377
0.6333568103965951,0.24022686193799453,-0.9843080977020904,-0.01877702958881855,0.4162806570529938,0.18801115453243256,0.19177670776844025,-0.5918538570404053,-0.7828989624977112,0.025889962911605835,-0.04069936275482178,0.05952560901641846
0.6330168378919251,0.24279121784186844,-0.9822575015353153,-0.13068272173404694,0.33530130982398987,0.10182016342878342,0.19383206963539124,-0.5915797352790833,-0.7825998663902283,0.00038182735443115234,-0.04333853721618652,0.11240339279174805
0.6313329420343772,0.24556405852633756,-0.9817529633999422,-0.2108531892299652,0.2998626232147217,-0.099296435713768,0.19624322652816772,-0.5902212858200073,-0.7830245494842529,-0.07368458807468414,-0.057972073554992676,0.1382492184638977
0.6281461926111532,0.24966269848581546,-0.9827032313380489,-0.3867224156856537,0.3530891239643097,-0.18821106851100922,0.19991463422775269,-0.5876458287239075,-0.7840322852134705,-0.1538482904434204,-0.0687263011932373,0.14340734481811523
0.6231029373967369,0.25290379212921477,-0.9832734636954031,-0.5536613464355469,0.2534293532371521,-0.13991624116897583,0.20319367945194244,-0.5835577845573425,-0.7862396240234375,-0.03983302414417267,-0.050628066062927246,0.221466064453125
0.6171619759630337,0.25486806345443164,-0.9825444196288234,-0.6143859624862671,0.20548410713672638,-0.03984125331044197,0.20560809969902039,-0.5787230134010315,-0.7891799211502075,0.06360277533531189,-0.07430744171142578,0.1666061282157898
0.6111169182319499,0.25530766783236025,-0.9806475994245739,-0.6208657026290894,0.11122976243495941,0.03411739319562912,0.20683474838733673,-0.5737825632095337,-0.7924600839614868,0.07656680047512054,-0.07935470342636108,0.09958904981613159
0.6055863564259699,0.25509200266143406,-0.9780024324165811,-0.5522182583808899,0.15238144993782043,0.11157175153493881,0.207461416721344,-0.5692442655563354,-0.7955631613731384,0.057629600167274475,-0.010559260845184326,0.0389256477355957
0.6011370586299823,0.25488980518198984,-0.9746810172927279,-0.4342796206474304,0.17472431063652039,0.18463903665542603,0.207937091588974,-0.5655805468559265,-0.7980481386184692,0.03135128319263458,0.010099589824676514,-0.026552021503448486
0.5983196013035031,0.2549402368143591,-0.9713699002571258,-0.24069534242153168,0.22161278128623962,0.18591803312301636,0.2083783745765686,-0.5632547736167908,-0.799576461315155,0.009120464324951172,0.002341628074645996,-0.0845482349395752
0.5972116825697092,0.2565070172808837,-0.9691625883056697,-0.0770006775856018,0.3267700970172882,0.10344152897596359,0.20978908240795135,-0.5623390078544617,-0.7998521327972412,-0.03493857383728027,-0.014031291007995605,-0.139784038066864
0.5969339705391441,0.25910437271273656,-0.9683653338205137,-0.02635255455970764,0.26335814595222473,0.01388194877654314,0.21190588176250458,-0.5621092915534973,-0.7994555234909058,-0.09255155920982361,-0.03391432762145996,-0.11141788959503174
0.5966004231374948,0.26133104299973803,-0.968498206648994,-0.040217772126197815,0.16661617159843445,-0.04788421466946602,0.21373391151428223,-0.5618334412574768,-0.799162745475769,-0.10387057065963745,-0.02648448944091797,-0.05806070566177368
0.5957904197798928,0.2628038202866632,-0.9691339355203988,-0.09193876385688782,0.052518852055072784,-0.08732527494430542,0.2150288075208664,-0.5611631870269775,-0.7992863059043884,-0.08044624328613281,-0.02205836772918701,-0.011458933353424072
0.5944396703043023,0.2629906058467156,-0.9697370730892663,-0.14057955145835876,-0.08086370676755905,-0.07307203859090805,0.21537496149539948,-0.5600446462631226,-0.7999773025512695,-0.031048744916915894,-0.024458587169647217,0.021596014499664307
0.5928230559080435,0.26161520147418554,-0.9697515463221984,-0.1637735217809677,-0.18940556049346924,-0.008765929378569126,0.21450835466384888,-0.5587046146392822,-0.8011462688446045,0.0272519588470459,-0.034282565116882324,0.028014004230499268
0.591344379061963,0.25894806346237287,-0.9689367132717707,-0.1544812172651291,-0.2433798462152481,0.05919155105948448,0.21258214116096497,-0.557477593421936,-0.8025132417678833,0.052585139870643616,-0.035753607749938965,0.009758234024047852
0.5901792116830201,0.2556750683274781,-0.967503567995339,-0.1282125562429428,-0.24606935679912567,0.10688786208629608,0.21011851727962494,-0.5565099120140076,-0.8038326501846313,0.036539867520332336,-0.014519751071929932,-0.018234550952911377
0.5893977098710157,0.25226960357585587,-0.965708402501946,-0.09416963905096054,-0.2304035872220993,0.1419142782688141,0.20748837292194366,-0.5558604598045349,-0.8049644827842712,0.011521100997924805,0.0027903318405151367,-0.03442150354385376
0.5891000072940666,0.24896986250280778,-0.9636692721788842,-0.04615195468068123,-0.2021191567182541,0.16887210309505463,0.20487183332443237,-0.5556129813194275,-0.8058050870895386,0.0036853551864624023,0.008646368980407715,-0.039913296699523926
0.5893283779044158,0.2457654811803538,-0.961467672139655,0.00046881241723895073,-0.19593635201454163,0.19382086396217346,0.20225781202316284,-0.5558028221130371,-0.806334376335144,0.0038885027170181274,0.008210539817810059,-0.03537094593048096
0.5899956270157184,0.24242974663910274,-0.9592394460321532,0.035537585616111755,-0.23237639665603638,0.19233375787734985,0.1994778960943222,-0.5563573837280273,-0.8066443204879761,0.0031283795833587646,0.0033330321311950684,-0.01754385232925415
0.5907061671472801,0.23880729197593795,-0.9572995461337882,0.020851846784353256,-0.2689650356769562,0.15039774775505066,0.1964610069990158,-0.556947648525238,-0.8069773316383362,-0.015171274542808533,-0.007871747016906738,0.003434300422668457
0.5909645012548708,0.23537067638371273,-0.9558585541205371,-0.030700303614139557,-0.24987180531024933,0.09592394530773163,0.19365301728248596,-0.5571622252464294,-0.8075078129768372,-0.045383304357528687,-0.017560124397277832,0.021344542503356934
0.5905337512049094,0.23244559040470672,-0.9548711779505002,-0.08963552862405777,-0.22523356974124908,0.0456668958067894,0.1913454234600067,-0.5568044781684875,-0.8083042502403259,-0.05874648690223694,-0.020557641983032227,0.0380558967590332
0.5894656503772358,0.22993247722910687,-0.9541957685649033,-0.14062775671482086,-0.2010444849729538,0.01831335946917534,0.18944890797138214,-0.5559169054031372,-0.8093611598014832,-0.05363035202026367,-0.023901820182800293,0.04556727409362793
0.5877677706703079,0.22786130739781313,-0.953716262027805,-0.18193365633487701,-0.18608896434307098,0.00718560628592968,0.1879851222038269,-0.5545048117637634,-0.8106701374053955,-0.03556501865386963,-0.028854012489318848,0.05120968818664551
0.5855667560860495,0.22592685848167296,-0.9531847111101212,-0.22954843938350677,-0.15269415080547333,-0.0032363745849579573,0.18668951094150543,-0.5526717901229858,-0.8122197985649109,-0.02490052580833435,-0.030366599559783936,0.05639094114303589
0.5828089877437741,0.22460651313151384,-0.9526481549236128,-0.2927092909812927,-0.06530704349279404,-0.013984093442559242,0.1859557032585144,-0.5503714084625244,-0.8139483332633972,-0.03873884677886963,-0.026777148246765137,0.04600405693054199
0.5797275808208353,0.22404899846357157,-0.952007629275219,-0.3247933089733124,0.02426612563431263,-0.019444428384304047,0.18587778508663177,-0.5477960705757141,-0.8157014846801758,-0.048884302377700806,-0.017572641372680664,0.021847784519195557
0.5764039006542255,0.2244268260654442,-0.9514317991689253,-0.34712284803390503,0.11936228722333908,-0.03406438231468201,0.18659013509750366,-0.5450124144554138,-0.8174017667770386,-0.04060925543308258,-0.014298558235168457,-0.007091641426086426
0.5725229668955778,0.22623584222371473,-0.9509330445729135,-0.43650609254837036,0.3116152882575989,-0.055022623389959335,0.18854156136512756,-0.541754424571991,-0.8191179633140564,-0.03839501738548279,-0.01752603054046631,-0.016758441925048828
0.5674230468140776,0.2301955200525876,-0.9501826621286739,-0.5871139764785767,0.5563334226608276,-0.04775006324052811,0.1924114227294922,-0.5374607443809509,-0.8210443258285522,-0.04154771566390991,-0.019439339637756348,0.011748731136322021
0.5608590736219872,0.23587800515290505,-0.9487148971790655,-0.7423474192619324,0.7144831418991089,-0.012316102162003517,0.19789406657218933,-0.5319138765335083,-0.8233502507209778,-0.032854944467544556,-0.022804200649261475,0.04741036891937256
0.5529797671278855,0.2419942393473188,-0.9463002782264224,-0.873792290687561,0.7393640279769897,0.03931779786944389,0.20392417907714844,-0.5252252221107483,-0.8261678814888,-0.019414842128753662,-0.032163143157958984,0.07102572917938232
0.5441611237029974,0.24723046846821892,-0.9429266593119436,-0.9625335931777954,0.6421328186988831,0.09031085669994354,0.20937274396419525,-0.5177005529403687,-0.8295475840568542,-2.2083520889282227e-05,-0.04302948713302612,0.08607840538024902
0.5349712414573683,0.25064577121841675,-0.9387787069700279,-0.9791660904884338,0.4580349028110504,0.1452081799507141,0.2133757323026657,-0.5098162889480591,-0.8334015607833862,0.01936662197113037,-0.04802983999252319,0.0856141448020935
0.5261903537966928,0.25185507764650505,-0.9341945884906536,-0.904094934463501,0.2424154430627823,0.17948998510837555,0.2154906988143921,-0.5022426843643188,-0.8374461531639099,0.0319000780582428,-0.04599034786224365,0.05500602722167969
0.5186422222342354,0.2508759640947308,-0.9297253104419857,-0.7336084246635437,0.00244093406945467,0.18795163929462433,0.21560564637184143,-0.4957013726234436,-0.841305136680603,0.021195560693740845,-0.03750181198120117,0.0038570761680603027
0.5131355676390328,0.24780005662750207,-0.9259569839936008,-0.4834006130695343,-0.2490871548652649,0.17188207805156708,0.2136831283569336,-0.4909113943576813,-0.8445978760719299,0.0012522339820861816,-0.019083172082901,-0.04299062490463257
0.510140722185088,0.2425822336897874,-0.923206686039924,-0.21695666015148163,-0.5237845182418823,0.13852518796920776,0.2096255123615265,-0.48830005526542664,-0.8471246957778931,-0.012298792600631714,-0.00603899359703064,-0.07757312059402466
0.5091970587031571,0.2355888149558348,-0.9217031422932043,-0.043474409729242325,-0.7046000957489014,0.06629219651222229,0.20380359888076782,-0.48747631907463074,-0.8490176200866699,-0.029014095664024353,-0.003063291311264038,-0.0824856162071228
0.509349683649768,0.22813096934406268,-0.9215525481362475,0.061467185616493225,-0.7584662437438965,-0.038391873240470886,0.19744931161403656,-0.4876095950603485,-0.8504414558410645,-0.06671194732189178,-0.011429190635681152,-0.06378883123397827
0.5100753193884714,0.22113542574138229,-0.9228576307526574,0.12943895161151886,-0.7591403722763062,-0.1507820338010788,0.19141757488250732,-0.4882429838180542,-0.8514564633369446,-0.08626919984817505,-0.016853541135787964,-0.051894307136535645
0.5112182549685901,0.21492436615878993,-0.925406410068751,0.18617787957191467,-0.7236521244049072,-0.22805552184581757,0.1860063374042511,-0.4892401099205017,-0.8520832061767578,-0.07212993502616882,-0.013491272926330566,-0.05457872152328491
0.5127251806561116,0.20942428174907585,-0.9285792574102302,0.21863408386707306,-0.6803663372993469,-0.242525115609169,0.18116353452205658,-0.4905538260936737,-0.8523712754249573,-0.037624046206474304,-0.006302922964096069,-0.046707093715667725
0.5143895656170493,0.20430196211270993,-0.9316714393652226,0.20850686728954315,-0.6440011262893677,-0.21374832093715668,0.1766291707754135,-0.49200350046157837,-0.8524873852729797,-0.0001459568738937378,0.0008687973022460938,-0.025167644023895264
0.5158218549526493,0.199547465478195,-0.9342534152517205,0.1570264846086502,-0.5440626740455627,-0.167805016040802,0.17243416607379913,-0.49324992299079895,-0.8526259064674377,0.024678915739059448,0.005609482526779175,-0.00046241283416748047
0.5167924461135831,0.1958610002353,-0.9361970622010815,0.09812455624341965,-0.3830293118953705,-0.12554197013378143,0.16919657588005066,-0.49409401416778564,-0.8527858257293701,0.022835344076156616,0.00819307565689087,-0.0014011859893798828
0.5174089177274428,0.19333380889637103,-0.937614430457672,0.07380932569503784,-0.26731550693511963,-0.0961083471775055,0.16698233783245087,-0.4946298897266388,-0.852911651134491,0.009806036949157715,0.01315397024154663,-0.015527069568634033
0.5179169180677929,0.19148167451184706,-0.9387128126883559,0.060718026012182236,-0.21989765763282776,-0.07330556213855743,0.16535450518131256,-0.49507132172584534,-0.8529726266860962,0.01294448971748352,0.02108749747276306,-0.02913796901702881
0.5181987235934712,0.18980992651670334,-0.9395389830863817,0.013947984203696251,-0.18502047657966614,-0.05861559882760048,0.16390198469161987,-0.49531614780426025,-0.8531107902526855,0.02016483247280121,0.01997429132461548,-0.026436269283294678
0.5179250921170823,0.18893669140134828,-0.9401054535859072,-0.04519017040729523,-0.019336432218551636,-0.04503294453024864,0.16318240761756897,-0.4950784146785736,-0.8533867001533508,0.015711694955825806,0.01244288682937622,-0.018866658210754395
0.5172904035900563,0.19035596543803393,-0.9404567586673153,-0.0629841536283493,0.27571001648902893,-0.03952515870332718,0.16445285081863403,-0.49452686309814453,-0.8534626364707947,-0.02251555025577545,0.015172004699707031,-0.06075239181518555
0.5167676685861795,0.19462420675772765,-0.9409301235327526,-0.020932313054800034,0.5150203704833984,-0.06288347393274307,0.1681441068649292,-0.49407246708869934,-0.8530064225196838,-0.054115116596221924,0.034828633069992065,-0.11902415752410889
