attitudeX,attitudeY,attitudeZ,gyroX,gyroY,gyroZ,gravityX,gravityY,gravityZ,accX,accY,accZ
0.34669173801693487,0.03300027442342984,0.1999032615944478,0.39465034008026123,0.46169060468673706,0.9769498109817505,0.031031189486384392,-0.3397882580757141,-0.9399899244308472,0.05545562505722046,0.021627336740493774,-0.08752167224884033
0.3503779104656106,0.033762291665658827,0.21044487647993357,0.25928476452827454,0.3908941447734833,1.0274195671081543,0.03170497342944145,-0.3432527780532837,-0.9387078285217285,0.11191074550151825,0.015982329845428467,0.02585071325302124
0.3522118301243816,0.03290155986409786,0.22183238766760816,0.028485385701060295,0.21007055044174194,1.1221492290496826,0.030876226723194122,-0.34497469663619995,-0.938103973865509,0.15634912252426147,0.018894463777542114,0.1273740530014038
0.35162506827382123,0.029855073975757318,0.23443277386060124,-0.22001329064369202,0.06071848049759865,1.2357288599014282,0.028024204075336456,-0.34442389011383057,-0.9383958578109741,0.19508980214595795,0.029253661632537842,0.18268907070159912
0.3486709245577771,0.025174485252399514,0.24838176641319162,-0.43751949071884155,-0.040819860994815826,1.3604437112808228,0.02365717850625515,-0.34164899587631226,-0.9395298361778259,0.2112671434879303,0.03542041778564453,0.18927043676376343
0.3437056596668625,0.01914992320888807,0.26359548025446655,-0.6037801504135132,-0.13319361209869385,1.4660502672195435,0.01802878826856613,-0.33697831630706787,-0.9413397908210754,0.21120400726795197,0.039493054151535034,0.16573554277420044
0.33735151630815896,0.012085239429065038,0.27973701851281474,-0.7040851712226868,-0.1903248131275177,1.5429102182388306,0.011403772048652172,-0.3309890627861023,-0.9435656666755676,0.19301822781562805,0.04345250129699707,0.12003356218338013
0.33020305693060514,0.004753934396936978,0.2964243741624681,-0.7411608695983887,-0.1786660999059677,1.5817604064941406,0.004497093614190817,-0.32423511147499084,-0.9459658265113831,0.16040463745594025,0.05455133318901062,0.07499414682388306
0.32268960125670376,-0.0022109904929219462,0.313292834671296,-0.7603271007537842,-0.12878137826919556,1.596144199371338,-0.0020968704484403133,-0.31711849570274353,-0.948383629322052,0.11270783841609955,0.059702783823013306,0.027927696704864502
0.31497513243507114,-0.008555311588023634,0.3300290909160109,-0.7585412263870239,-0.09402863681316376,1.5771584510803223,-0.008134325966238976,-0.30979281663894653,-0.950769305229187,0.06315752863883972,0.056954771280288696,-0.01975071430206299
0.30736091217446726,-0.01416493300126315,0.34639781842321044,-0.7179626822471619,-0.018425220623612404,1.5431666374206543,-0.013500646688044071,-0.3025442957878113,-0.9530397057533264,0.02636381983757019,0.052132368087768555,-0.07663863897323608
0.3003199634779847,-0.018478475089963756,0.36228213773353135,-0.6339302062988281,0.1075868085026741,1.500351071357727,-0.017650408670306206,-0.29582586884498596,-0.9550787806510925,0.005000889301300049,0.05372998118400574,-0.12773066759109497
0.2941861639591478,-0.02133785291592885,0.37776159684217253,-0.5279670357704163,0.22496244311332703,1.4751410484313965,-0.020419595763087273,-0.2899610698223114,-0.9568206071853638,0.019702449440956116,0.06219318509101868,-0.149105966091156
0.2890588851304008,-0.02300152532625295,0.39313373101958066,-0.43230700492858887,0.3160901367664337,1.4873002767562866,-0.022045306861400604,-0.28505027294158936,-0.9582590460777283,0.059581950306892395,0.07685944437980652,-0.13274437189102173
0.28463120883253334,-0.024074000421406002,0.4088818765306544,-0.38361936807632446,0.34823235869407654,1.5520305633544922,-0.023103157058358192,-0.28080353140830994,-0.9594871401786804,0.11418287456035614,0.08906164765357971,-0.0873572826385498
0.2804528881995296,-0.025298583740153785,0.4255914922027652,-0.3783887028694153,0.33030325174331665,1.6726285219192505,-0.024307578802108765,-0.2767908573150635,-0.9606226682662964,0.16339147090911865,0.09525713324546814,-0.03322798013687134
0.2760511143944506,-0.027262087867269143,0.44364687088896554,-0.41500264406204224,0.25933295488357544,1.8142708539962769,-0.026226675137877464,-0.27255839109420776,-0.9617817401885986,0.1896483302116394,0.10378098487854004,0.020955324172973633
0.2710022762824663,-0.030587588802817506,0.4631617226120517,-0.48574820160865784,0.12146676331758499,1.9598454236984253,-0.029466640204191208,-0.267697274684906,-0.9630523920059204,0.1942310631275177,0.11747455596923828,0.06514894962310791
0.26512787926107967,-0.03576320549399573,0.48404193615308166,-0.5494177341461182,-0.05244564265012741,2.0874552726745605,-0.03450624644756317,-0.262032687664032,-0.9644418954849243,0.18422549962997437,0.12674832344055176,0.07848608493804932
0.2586180663402613,-0.04274714915379168,0.5060722671030494,-0.5769508481025696,-0.19268634915351868,2.201777219772339,-0.04131297767162323,-0.2557448148727417,-0.9658612012863159,0.16069775819778442,0.13626855611801147,0.05939757823944092
0.25183445999234544,-0.050859896151777995,0.5290261746112661,-0.5653125643730164,-0.2596571147441864,2.2788894176483154,-0.049234386533498764,-0.24918097257614136,-0.9672046303749084,0.12241556495428085,0.14714550971984863,0.020061075687408447
0.2450344363591568,-0.05932018190714106,0.5525514200221796,-0.5360039472579956,-0.2687215209007263,2.3284106254577637,-0.057514481246471405,-0.24258972704410553,-0.9684225916862488,0.0828135758638382,0.1591394692659378,-0.01035243272781372
0.23829265003628536,-0.0675454681724867,0.5763423904824855,-0.5116943120956421,-0.2332191914319992,2.3476195335388184,-0.06558689475059509,-0.23604387044906616,-0.9695265293121338,0.04803931713104248,0.16757775843143463,-0.03235030174255371
0.23153370177212504,-0.07508649803301976,0.6000376122421509,-0.508716881275177,-0.164253830909729,2.3263421058654785,-0.07301420718431473,-0.22947056591510773,-0.9705731272697449,0.013733834028244019,0.1629728227853775,-0.04940062761306763
0.22452694562802744,-0.0814682289013298,0.623264031404242,-0.5356800556182861,-0.05766214057803154,2.2788524627685547,-0.07933551073074341,-0.22264520823955536,-0.9716660976409912,-0.013117462396621704,0.15489624440670013,-0.05254960060119629
0.2169715617549137,-0.08644349016608759,0.6458637851671505,-0.600655198097229,0.04619767889380455,2.231675386428833,-0.08431163430213928,-0.2152731865644455,-0.9729074835777283,-0.02132493257522583,0.15194925665855408,-0.04074913263320923
0.2085750796297548,-0.09023261700034214,0.66797291350005,-0.6885960102081299,0.12232041358947754,2.214953899383545,-0.08815725892782211,-0.20706607401371002,-0.974346935749054,-0.007622122764587402,0.1539502888917923,-0.018847644329071045
0.19921255311139396,-0.09324474925978614,0.689972314913613,-0.7782979607582092,0.15825116634368896,2.2367589473724365,-0.09126823395490646,-0.1978975236415863,-0.9759644865989685,0.014684394001960754,0.16287864744663239,0.007977426052093506
0.18893119959889437,-0.09602429099834275,0.7121939114878096,-0.8504672050476074,0.1347828507423401,2.2878336906433105,-0.0941707119345665,-0.18780921399593353,-0.9776806831359863,0.03987997770309448,0.1803935021162033,0.028172016143798828
0.17794960633521859,-0.09908715163698734,0.7349356738030063,-0.8893429040908813,0.07855580747127533,2.365778684616089,-0.0973629355430603,-0.17701193690299988,-0.9793810248374939,0.062054120004177094,0.20223475992679596,0.034449994564056396
0.16664545063465883,-0.10267852125537766,0.7585450069043462,-0.8820031881332397,0.006431274116039276,2.4755935668945312,-0.10107826441526413,-0.16587521135807037,-0.9809529185295105,0.06850078701972961,0.22521670162677765,0.0334736704826355
0.15537877247530266,-0.1071093997686636,0.7832744147910653,-0.8370234370231628,-0.10275772213935852,2.601057529449463,-0.10561683028936386,-0.15475432574748993,-0.9822912812232971,0.06420451402664185,0.2465817630290985,0.03404909372329712
0.14442012441327012,-0.11272374623107641,0.8092436434308332,-0.7723730802536011,-0.24978019297122955,2.729410171508789,-0.11131414771080017,-0.14391861855983734,-0.9833090305328369,0.053254492580890656,0.2629067301750183,0.039324045181274414
0.13387360746753066,-0.11989823207143822,0.8364462835946386,-0.6944721341133118,-0.43457576632499695,2.8497440814971924,-0.1185409277677536,-0.13347408175468445,-0.9839373826980591,0.035044871270656586,0.26631712913513184,0.04135614633560181
0.12378803952208392,-0.1287867717193023,0.8647577430729676,-0.6057356595993042,-0.6106703877449036,2.952470064163208,-0.12744830548763275,-0.12347213923931122,-0.9841298460960388,-0.002495497465133667,0.2509441077709198,0.02632039785385132
0.11423675696054926,-0.13901361913443314,0.8939167609686798,-0.5100980997085571,-0.7349876165390015,3.0203757286071777,-0.13766315579414368,-0.11398845165967941,-0.9838981032371521,-0.046037375926971436,0.2375236451625824,0.0115622878074646
0.10523714945749034,-0.14997702241782387,0.9235240371881015,-0.42126283049583435,-0.7996182441711426,3.041607141494751,-0.14858879148960114,-0.10504300892353058,-0.9833043217658997,-0.08137637376785278,0.24035799503326416,0.010434389114379883
0.09666837827305773,-0.16127428765568433,0.9532083064738408,-0.3557949662208557,-0.8575279116630554,3.0385754108428955,-0.159826397895813,-0.0965178906917572,-0.9824153184890747,-0.10589009523391724,0.254599004983902,0.022378087043762207
0.08828725535254069,-0.17291618918071341,0.9829241972628292,-0.3127489686012268,-0.917850136756897,3.0651419162750244,-0.17138566076755524,-0.08817260712385178,-0.981250524520874,-0.10733133554458618,0.27753421664237976,0.04709219932556152
0.07973798222880715,-0.18485862188562632,1.0131329099827557,-0.3044598698616028,-0.949628472328186,3.1520278453826904,-0.18322353065013885,-0.07965350896120071,-0.9798389673233032,-0.08385097980499268,0.3028286099433899,0.0761372447013855
0.07040769604347605,-0.19666260605250063,1.0444023543843395,-0.34929153323173523,-0.9332873225212097,3.310581922531128,-0.19491323828697205,-0.07034953683614731,-0.978294312953949,-0.05282841622829437,0.3278111219406128,0.10128015279769897
0.059681232757497725,-0.2079437123525118,1.0770417042275686,-0.44399237632751465,-0.8953539133071899,3.478485345840454,-0.20608079433441162,-0.05964580923318863,-0.9767154455184937,-0.0360761433839798,0.3429862856864929,0.11456334590911865
0.04721007749457298,-0.21869632582525508,1.1107756211511453,-0.5620074272155762,-0.8923136591911316,3.6009151935577393,-0.21671545505523682,-0.047192543745040894,-0.9750934839248657,-0.0526326447725296,0.3344240188598633,0.11573374271392822
0.033149410047341135,-0.22900404306137362,1.1448974404513546,-0.6584079265594482,-0.8860167860984802,3.6356444358825684,-0.2268829643726349,-0.033143337815999985,-0.9733579158782959,-0.10371391475200653,0.29162725806236267,0.0857694149017334
0.018089905577150966,-0.23864518074386393,1.1785758697319886,-0.6968706250190735,-0.8703930377960205,3.5771102905273438,-0.2363477498292923,-0.018088918179273605,-0.9715001583099365,-0.16944444179534912,0.2305218130350113,0.025760412216186523
0.002964469374796925,-0.24772330062274453,1.2110968817434231,-0.659197211265564,-0.8702904582023621,3.433708667755127,-0.24519632756710052,-0.002964464947581291,-0.969468891620636,-0.2289399802684784,0.16829347610473633,-0.031202495098114014
-0.011259879105301284,-0.2562037771381127,1.2419605479405267,-0.5452237725257874,-0.8421967625617981,3.22934889793396,-0.2533940076828003,0.011259641498327255,-0.9672976136207581,-0.26763254404067993,0.11160415410995483,-0.06920140981674194
-0.02388658185144865,-0.26390085982415273,1.2710293439713256,-0.3962651789188385,-0.7934612035751343,3.0236048698425293,-0.2607739269733429,0.023884311318397522,-0.9651044011116028,-0.28758111596107483,0.07181884348392487,-0.08996456861495972
-0.03470730755187283,-0.27072870071328364,1.2985650454354734,-0.23493725061416626,-0.7272984385490417,2.843669891357422,-0.26727262139320374,0.034700341522693634,-0.9629959464073181,-0.2955172657966614,0.047758180648088455,-0.09779506921768188
-0.04373313992370423,-0.2764640837704875,1.3249572396156453,-0.07707814127206802,-0.6137818694114685,2.7104218006134033,-0.27269473671913147,0.043719202280044556,-0.9611067771911621,-0.29583242535591125,0.025433652102947235,-0.08431863784790039
-0.05111986917314468,-0.28063074406468724,1.3504763579247594,0.05762774497270584,-0.4536651372909546,2.578329563140869,-0.2765999734401703,0.05109760910272598,-0.9596257209777832,-0.29478055238723755,-0.00727434828877449,-0.0548090934753418
-0.05709178069582861,-0.28294223750584563,1.374758137146071,0.13881421089172363,-0.26261237263679504,2.38631272315979,-0.2787272334098816,0.05706077069044113,-0.9586736559867859,-0.31860852241516113,-0.05672505497932434,-0.01804143190383911
-0.06193916568318391,-0.28307981561579093,1.396774061787147,0.14994435012340546,-0.015437189489603043,2.076751470565796,-0.2787785828113556,0.061899568885564804,-0.9583584666252136,-0.37873783707618713,-0.13488233089447021,0.011031806468963623
-0.0659248036008837,-0.28053857514777064,1.4151084704803687,0.0927550196647644,0.29166409373283386,1.631437063217163,-0.2762717604637146,0.06587706506252289,-0.9588191509246826,-0.45027539134025574,-0.2227984368801117,0.03579974174499512
-0.06940212630852925,-0.27527148220798375,1.4283292955071059,-0.04388831928372383,0.5709924101829529,1.0775773525238037,-0.27115386724472046,0.06934642791748047,-0.9600347280502319,-0.5139565467834473,-0.2938947379589081,0.07059991359710693
-0.07283860144381388,-0.26800330581623083,1.4355112452620602,-0.23748354613780975,0.7720059156417847,0.48280444741249084,-0.2641043961048126,0.07277420908212662,-0.9617446660995483,-0.5543159246444702,-0.3381092846393585,0.11453092098236084
-0.07673102055475835,-0.2593384942877038,1.4364621285695445,-0.46040770411491394,0.9378194212913513,-0.09204817563295364,-0.2556866705417633,0.07665574550628662,-0.9637158513069153,-0.561131477355957,-0.3706163167953491,0.15185672044754028
-0.08127959842512603,-0.24971635447707383,1.4315455704159556,-0.653802216053009,1.0500495433807373,-0.6206067204475403,-0.24631325900554657,0.08119013160467148,-0.9657835960388184,-0.5482423305511475,-0.3855571746826172,0.17704153060913086
-0.08616585217969533,-0.2397640838184286,1.421383081564611,-0.7656232714653015,1.0987858772277832,-1.096022367477417,-0.23659244179725647,0.08605926483869553,-0.9677901864051819,-0.5311229228973389,-0.3739315867424011,0.17819362878799438
-0.09071853698461942,-0.23004628234233412,1.406680732595621,-0.7838811278343201,1.0956166982650757,-1.5241632461547852,-0.2270849347114563,0.09059415757656097,-0.9696520566940308,-0.5156060457229614,-0.3446072041988373,0.14988887310028076
-0.09423554535908998,-0.22078093291431472,1.3881134708784582,-0.7157689332962036,1.0998902320861816,-1.9065083265304565,-0.2180200219154358,0.09409613162279129,-0.9713975191116333,-0.5041326284408569,-0.3075208067893982,0.10308092832565308
-0.09621522178165294,-0.21171734105764345,1.3661601601997428,-0.5980588793754578,1.124642014503479,-2.2604873180389404,-0.20916728675365448,0.09606683999300003,-0.9731496572494507,-0.49349987506866455,-0.27532708644866943,0.06259667873382568
-0.09641427647555123,-0.20260186827746948,1.3410015328849683,-0.4687432646751404,1.1788253784179688,-2.618278980255127,-0.20028415322303772,0.09626497328281403,-0.9749971032142639,-0.4913661479949951,-0.25121796131134033,0.028524935245513916
-0.09485577770494363,-0.19325690819248553,1.3123767653140284,-0.3445783853530884,1.2307233810424805,-3.018321990966797,-0.19119280576705933,0.09471359848976135,-0.9769721627235413,-0.5135953426361084,-0.22957074642181396,-0.0017265677452087402
-0.091604835079908,-0.18361900910471302,1.2797561300110596,-0.23087260127067566,1.3023730516433716,-3.467751979827881,-0.18182337284088135,0.09147677570581436,-0.9790670275688171,-0.5429385304450989,-0.20962554216384888,-0.03399449586868286
-0.08672941889879236,-0.17315169150643936,1.2427819557408557,-0.11431403458118439,1.4526029825210571,-3.929251194000244,-0.17164020240306854,0.08662073314189911,-0.9813442230224609,-0.5636502504348755,-0.18502463400363922,-0.07029151916503906
-0.08045556718611385,-0.1610312039807822,1.2014615086052653,-0.021991558372974396,1.64955735206604,-4.365958213806152,-0.15981750190258026,0.08036879450082779,-0.9838694930076599,-0.5731383562088013,-0.1289680153131485,-0.08300971984863281
-0.07341840809336511,-0.14712019100602705,1.1562269647601775,0.023588553071022034,1.808571457862854,-4.724445343017578,-0.14619514346122742,0.07335247099399567,-0.9865325093269348,-0.5574638843536377,-0.04196511209011078,-0.060006797313690186
-0.066395717699009,-0.13184490454794112,1.1078282759849947,0.021618612110614777,1.8994824886322021,-4.991424560546875,-0.13117359578609467,0.06634694337844849,-0.9891367554664612,-0.5201782584190369,0.047468386590480804,-0.018065333366394043
-0.06004311006140092,-0.11591483838749518,1.0570606272046925,-0.017617329955101013,1.9070637226104736,-5.176253795623779,-0.1154470220208168,0.060007039457559586,-0.9914994239807129,-0.477051705121994,0.1283474862575531,0.023756563663482666
-0.054811589975680586,-0.10014857318646074,1.0047060524161244,-0.0695982351899147,1.825615406036377,-5.290121078491211,-0.09983109682798386,0.054784148931503296,-0.9934950470924377,-0.43605750799179077,0.1964976191520691,0.04792320728302002
-0.05065765969945801,-0.0852998928459644,0.9513695494212252,-0.08378390967845917,1.6933603286743164,-5.354088306427002,-0.08508719503879547,0.05063599720597267,-0.9950860142707825,-0.39976078271865845,0.2508319318294525,0.04212886095046997
-0.04710943673833755,-0.07174109700013497,0.8975660352266209,-0.04510735720396042,1.5322966575622559,-5.377187252044678,-0.0716000497341156,0.0470920130610466,-0.9963211417198181,-0.3583468198776245,0.2989468574523926,0.010832250118255615
-0.04357049277350007,-0.05974280177680034,0.8436632521880116,0.05163361504673958,1.3440814018249512,-5.378873825073242,-0.05965060368180275,0.043556708842515945,-0.997268557548523,-0.3168141841888428,0.33667710423469543,-0.041046202182769775
-0.03939197131847951,-0.049401064082532566,0.7898390589726962,0.2018636018037796,1.1717288494110107,-5.36884069442749,-0.04934266582131386,0.039381783455610275,-0.998005211353302,-0.28198665380477905,0.3557140827178955,-0.121288001537323
-0.033950384298892924,-0.04015902855267108,0.7362019859899049,0.4076322615146637,1.0704054832458496,-5.351123332977295,-0.04012509807944298,0.03394386172294617,-0.998617947101593,-0.25357604026794434,0.3679116666316986,-0.20562094449996948
-0.026848935378421594,-0.031310636270652566,0.6829735142687139,0.6298887729644775,1.0246609449386597,-5.29111385345459,-0.031294237822294235,0.02684571035206318,-0.9991496205329895,-0.22847135365009308,0.39115360379219055,-0.262492835521698
-0.01803326836936697,-0.022401365278097177,0.6306554844897795,0.8409174084663391,0.9869552850723267,-5.173257350921631,-0.022395849227905273,0.018032291904091835,-0.9995865225791931,-0.21060582995414734,0.4162023663520813,-0.2903761863708496
-0.007762475159428241,-0.013440400969754135,0.5797984475401107,1.0190649032592773,0.928886890411377,-4.991909980773926,-0.01343959104269743,0.007762397173792124,-0.9998795390129089,-0.1991458386182785,0.4318433701992035,-0.2981703281402588
0.003684192216926723,-0.004516386161336482,0.5309477296239369,1.1709070205688477,0.8778987526893616,-4.763433456420898,-0.00451634032651782,-0.0036841838154941797,-0.999983012676239,-0.2029116153717041,0.43076249957084656,-0.3081377148628235
0.01610614405567731,0.004679095981618089,0.4842944101355248,1.3036634922027588,0.8672325015068054,-4.543029308319092,0.0046784719452261925,-0.016105446964502335,-0.9998593330383301,-0.23499462008476257,0.4122999608516693,-0.31982749700546265
0.029340205137680844,0.014294920019523025,0.4394107365153192,1.4154670238494873,0.8464399576187134,-4.386851787567139,0.014288281090557575,-0.029335996136069298,-0.9994674921035767,-0.2940123975276947,0.3922053277492523,-0.32046353816986084
0.043201916809854864,0.02423624980543133,0.3955565176437114,1.514411211013794,0.8202764987945557,-4.299149513244629,0.02421126514673233,-0.04318847879767418,-0.9987735152244568,-0.35514387488365173,0.37879034876823425,-0.31009483337402344
0.057556537720375056,0.034718417941402846,0.3522068427504495,1.5937548875808716,0.8420056104660034,-4.249068260192871,0.03465396538376808,-0.05752476304769516,-0.9977424740791321,-0.4057171940803528,0.36642375588417053,-0.2963401675224304
0.07202856404192619,0.04614272056894834,0.3089041110981497,1.6309185028076172,0.8742637038230896,-4.251121520996094,0.04600674659013748,-0.07196629792451859,-0.9963454604148865,-0.4499831795692444,0.34924906492233276,-0.270362913608551
0.08605083140745733,0.05850721052255882,0.2650744802306065,1.611501932144165,0.9042614698410034,-4.312662601470947,0.05825747922062874,-0.08594467490911484,-0.9945951700210571,-0.48815858364105225,0.3300701081752777,-0.23555314540863037
0.09908934544265581,0.07197340162187273,0.22011213446820185,1.5561470985412598,0.9543344974517822,-4.429354190826416,0.07155852764844894,-0.09892726689577103,-0.992518424987793,-0.521616518497467,0.3143966794013977,-0.20074939727783203
0.11065677806270509,0.08675697762371815,0.17365643783789467,1.470037579536438,1.0201627016067505,-4.570347309112549,0.08611822873353958,-0.11043108254671097,-0.990145742893219,-0.5445990562438965,0.31596702337265015,-0.15542304515838623
0.12040129647527496,0.10277822952781311,0.1256781388003345,1.3598090410232544,1.0697896480560303,-4.701979637145996,0.10185462236404419,-0.12011060863733292,-0.9875217080116272,-0.5489066243171692,0.324868381023407,-0.1109127402305603
0.12799731911141524,0.11991683777514879,0.07644992758379048,1.2275714874267578,1.1364970207214355,-4.805527210235596,0.11865101754665375,-0.12764810025691986,-0.9846968650817871,-0.5468736886978149,0.33207017183303833,-0.07884073257446289
0.13323399042115838,0.13831529332210124,0.02630370930285617,1.0836080312728882,1.2299470901489258,-4.887916088104248,0.13665278255939484,-0.13284015655517578,-0.9816718101501465,-0.5456340909004211,0.34303003549575806,-0.049028873443603516
0.13593731365699108,0.15776784377052971,-0.024436983854644212,0.9257038235664368,1.2867480516433716,-4.944127559661865,0.15566474199295044,-0.13551904261112213,-0.9784697890281677,-0.5402930974960327,0.3539486527442932,-0.020645201206207275
0.1360809231700901,0.17757761829749982,-0.07517452921951942,0.7778832316398621,1.2798115015029907,-4.922676086425781,0.1750127673149109,-0.135661318898201,-0.975175142288208,-0.5035192370414734,0.35274815559387207,0.0015270709991455078
0.1340673490423569,0.19677685558615476,-0.12507822818186595,0.670331597328186,1.1942195892333984,-4.830491065979004,0.19375498592853546,-0.13366608321666718,-0.9719014167785645,-0.44142040610313416,0.32778847217559814,0.011772632598876953
0.13059037865560538,0.2145374595818621,-0.1736640814603136,0.618329644203186,1.0663875341415405,-4.710832118988037,0.21108274161815643,-0.13021951913833618,-0.9687553644180298,-0.3975604176521301,0.29957687854766846,0.002187371253967285
0.1263572159779676,0.2305410931013473,-0.2211093286983286,0.636742353439331,0.9048124551773071,-4.63201904296875,0.22668258845806122,-0.12602125108242035,-0.9657813906669617,-0.3892344832420349,0.2812184691429138,-0.025582194328308105
0.12208748886754897,0.244561196838676,-0.26804633111826626,0.7298933267593384,0.739992082118988,-4.598610877990723,0.2403283268213272,-0.12178441882133484,-0.9630217552185059,-0.3959680199623108,0.2704508602619171,-0.08287668228149414
0.11846685703278054,0.2570947064604984,-0.3149481571288018,0.8802263736724854,0.6424715518951416,-4.574464797973633,0.2524896264076233,-0.11818995326757431,-0.9603541493415833,-0.3774286210536957,0.2799941897392273,-0.13269394636154175
0.11586613305953128,0.26866908334406475,-0.36189045756969673,1.030124545097351,0.5678809285163879,-4.536044120788574,0.2636686861515045,-0.11560706049203873,-0.9576606154441833,-0.3341490626335144,0.3147800862789154,-0.14567190408706665
0.11408145278569505,0.2792363822189393,-0.40865231644689776,1.1213934421539307,0.47633102536201477,-4.474363803863525,0.2738300859928131,-0.11383415758609772,-0.9550177454948425,-0.285655677318573,0.3711584210395813,-0.11717158555984497
0.1124374057591446,0.289095897292262,-0.45482343996901875,1.1141371726989746,0.4591219425201416,-4.390977382659912,0.28328561782836914,-0.11220064759254456,-0.95244961977005,-0.23235180974006653,0.43648046255111694,-0.05267733335494995
0.10998109170736943,0.29881611093206756,-0.4997824039758223,0.9830940961837769,0.48256927728652954,-4.270124435424805,0.2926103472709656,-0.10975950956344604,-0.9499115943908691,-0.16318532824516296,0.49631044268608093,0.03021860122680664
0.10582353652023156,0.3083744193918253,-0.5426139344805486,0.7555389404296875,0.5045629739761353,-4.063929080963135,0.3018122613430023,-0.10562613606452942,-0.9474980235099792,-0.059640079736709595,0.5378924012184143,0.11558878421783447
0.09970078731345348,0.3175656758036187,-0.58209346020441,0.493876188993454,0.5144816040992737,-3.743234634399414,0.31070423126220703,-0.09953569620847702,-0.9452806711196899,0.07769298553466797,0.5497921109199524,0.17736685276031494
0.09208959020714952,0.32583694891089277,-0.6170530917279332,0.2680606245994568,0.4570939838886261,-3.3043246269226074,0.3187454640865326,-0.09195948392152786,-0.9433688521385193,0.22394859790802002,0.530863344669342,0.2131289839744568
0.0840465575196059,0.33244643162544246,-0.6465930416196992,0.11582344025373459,0.33639049530029297,-2.7535762786865234,0.3252044916152954,-0.08394764363765717,-0.9419102072715759,0.3596099019050598,0.49431756138801575,0.22851604223251343
0.07671556795527491,0.3367734716877826,-0.6700964970078903,0.04746595770120621,0.1400769203901291,-2.1314709186553955,0.3294716477394104,-0.07664033770561218,-0.9410498142242432,0.4482688009738922,0.45955967903137207,0.2418157458305359
0.07107297267606001,0.33809906188923416,-0.6874388944861086,0.04643541947007179,-0.14059054851531982,-1.4958271980285645,0.33085697889328003,-0.07101315259933472,-0.9410051703453064,0.4716789722442627,0.4380786418914795,0.24163389205932617
0.0678797545841795,0.3359070037175322,-0.6991039345363531,0.1304299235343933,-0.45421159267425537,-0.9149621725082397,0.32886651158332825,-0.06782764196395874,-0.9419375061988831,0.4208740293979645,0.43809744715690613,0.21476465463638306
0.06767323685627187,0.33031757725364425,-0.7062708835439533,0.30775758624076843,-0.7470082640647888,-0.4642116129398346,0.32360103726387024,-0.06762159615755081,-0.9437741637229919,0.3050762712955475,0.4572395384311676,0.16925328969955444
0.07079718355953149,0.32190749884865066,-0.7105339068361387,0.5597307085990906,-0.98160320520401,-0.15620800852775574,0.31558409333229065,-0.0707380548119545,-0.9462572336196899,0.1680278778076172,0.4802077114582062,0.13191097974777222
0.07734183533020234,0.31126018831815927,-0.713153450127734,0.8425576686859131,-1.177549123764038,0.059445854276418686,0.30534300208091736,-0.07726474851369858,-0.9491026401519775,0.06677305698394775,0.49978065490722656,0.13237595558166504
0.08707326941124709,0.2986189722490147,-0.7146724102274238,1.0891804695129395,-1.3660314083099365,0.23243999481201172,0.2930859923362732,-0.08696328103542328,-0.9521228671073914,0.01840686798095703,0.510379433631897,0.17680853605270386
0.09915339737911696,0.28402886437754227,-0.7150526141358642,1.218812108039856,-1.54439377784729,0.3866274356842041,0.2788489758968353,-0.09899100661277771,-0.9552193284034729,0.00475078821182251,0.5080944299697876,0.2539559602737427
0.112176759765382,0.26763282252237736,-0.7138270690891302,1.1904891729354858,-1.6913195848464966,0.5568612217903137,0.2627871632575989,-0.11194164305925369,-0.9583381414413452,0.011901527643203735,0.49895036220550537,0.3484138250350952
0.12451986318593947,0.249695994637906,-0.7104262381423831,0.9956956505775452,-1.798872470855713,0.7209054231643677,0.245196133852005,-0.12419832497835159,-0.9614851474761963,0.01917758584022522,0.48317664861679077,0.4350111484527588
0.13454984795483457,0.23037543066731211,-0.7046399328348633,0.6610066294670105,-1.898553729057312,0.8640719056129456,0.22627924382686615,-0.13414424657821655,-0.9647813439369202,0.01628968119621277,0.46667909622192383,0.5058732628822327
0.1410791309749983,0.20988016898010642,-0.6964069162171412,0.2472030371427536,-1.9502220153808594,1.0052847862243652,0.20627278089523315,-0.14061160385608673,-0.9683387279510498,0.010844483971595764,0.4507312774658203,0.5429999828338623
0.14355588197126853,0.18876191247226434,-0.6858623199613554,-0.1698884665966034,-1.9512367248535156,1.1304184198379517,0.1857127547264099,-0.14306332170963287,-0.9721335768699646,-0.006940856575965881,0.43020325899124146,0.5344199538230896
0.14223826035100848,0.16760756298247423,-0.6735830958768257,-0.49901124835014343,-1.9084810018539429,1.2011805772781372,0.16513919830322266,-0.14175912737846375,-0.9760293960571289,-0.04137520492076874,0.40404248237609863,0.4727792739868164
0.1381777779436438,0.14702880544070668,-0.6604996986444523,-0.6885374784469604,-1.8262697458267212,1.2191592454910278,0.1451033055782318,-0.13773849606513977,-0.9797821640968323,-0.0773695856332779,0.37132006883621216,0.3788757920265198
0.13258125632724485,0.12754136784906758,-0.6472192741952126,-0.7615015506744385,-1.6878821849822998,1.2247971296310425,0.12607958912849426,-0.1321931779384613,-0.9831728935241699,-0.10436637699604034,0.3537813723087311,0.2943301200866699
0.1261830003113164,0.10990337004915897,-0.6340805775956239,-0.8129886984825134,-1.4867593050003052,1.1976786851882935,0.10881022363901138,-0.1258484125137329,-0.9860641360282898,-0.13433822989463806,0.3212067484855652,0.2296401858329773
0.11878668744866033,0.09406778263985822,-0.6214555214031628,-0.9148638844490051,-1.377913236618042,1.1369328498840332,0.09326720982789993,-0.11850753426551819,-0.9885631799697876,-0.1714380383491516,0.2541276812553406,0.18669861555099487
0.10981391337687567,0.07882564900613766,-0.6093691451626679,-1.0774564743041992,-1.3972824811935425,1.0948593616485596,0.07826972752809525,-0.10959333926439285,-0.9908900856971741,-0.19367200136184692,0.17378710210323334,0.15185505151748657
0.0989488561241487,0.06302010084467997,-0.5976835522705262,-1.2439862489700317,-1.521333932876587,1.0622570514678955,0.06267034262418747,-0.09878747165203094,-0.9931331276893616,-0.22268930077552795,0.09129545837640762,0.09623682498931885
0.08645134846810179,0.045639864580907165,-0.5865065895839509,-1.3551846742630005,-1.7418529987335205,1.0130373239517212,0.04545363411307335,-0.08634369820356369,-0.9952279925346375,-0.25417864322662354,0.03501318395137787,0.01926058530807495
0.07302631674577072,0.026030558486957938,-0.5760991875639522,-1.3813287019729614,-2.006143093109131,0.9549659490585327,0.02595824934542179,-0.07296142727136612,-0.9969968795776367,-0.2735168933868408,0.015634208917617798,-0.0657777190208435
0.05951099010904401,0.0037061392262490644,-0.5666001690529072,-1.3236722946166992,-2.31966233253479,0.891063928604126,0.0036995699629187584,-0.059475868940353394,-0.9982228875160217,-0.2834237217903137,0.006863608956336975,-0.16793006658554077
0.04682741272431606,-0.02144183134563526,-0.5582039737563853,-1.1776087284088135,-2.588651180267334,0.7996248006820679,-0.021416686475276947,-0.046810299158096313,-0.9986741542816162,-0.28217223286628723,-0.019321244210004807,-0.2916242480278015
0.03581631371302506,-0.048381654890860416,-0.5511240501683403,-0.9620552659034729,-2.692483901977539,0.6799620389938354,-0.048331763595342636,-0.03580865636467934,-0.9981892704963684,-0.27336931228637695,-0.05292115360498428,-0.4182230830192566
0.02698235880722963,-0.0750657482206068,-0.5455968065153843,-0.7287917733192444,-2.5629284381866455,0.5212382078170776,-0.07496797293424606,-0.02697908505797386,-0.9968209266662598,-0.2639145255088806,-0.09110863506793976,-0.5284476280212402
0.020374277394620763,-0.09963165918597697,-0.541868474064459,-0.5273310542106628,-2.3033816814422607,0.33230316638946533,-0.09944626688957214,-0.020372867584228516,-0.9948343634605408,-0.23188310861587524,-0.1172613650560379,-0.5852437615394592
0.015531494268427013,-0.12128837906310407,-0.5399321463027128,-0.4000280499458313,-2.003342628479004,0.16647110879421234,-0.12097662687301636,-0.015530870296061039,-0.9925338625907898,-0.16865047812461853,-0.13150277733802795,-0.5855606198310852
0.011651048928189786,-0.13977465994360982,-0.5392091638748233,-0.3581234812736511,-1.679379940032959,0.08961521089076996,-0.13931052386760712,-0.011650784872472286,-0.9901801943778992,-0.08593976497650146,-0.14205095171928406,-0.5456627011299133
0.007870155096358042,-0.1551782893622238,-0.5387708502490014,-0.3824268579483032,-1.403764247894287,0.11904198676347733,-0.1545514613389969,-0.007870073430240154,-0.9879533648490906,-0.0040026456117630005,-0.1421390324831009,-0.48456549644470215
0.0035576594058451196,-0.16855426968632276,-0.5377449509590737,-0.4332231879234314,-1.2803491353988647,0.22963161766529083,-0.16775621473789215,-0.0035576520022004843,-0.9858220815658569,0.06128036975860596,-0.1352820247411728,-0.4151178002357483
-0.0014108351893750617,-0.18135750493606934,-0.5354947220198943,-0.4575197994709015,-1.2837659120559692,0.3865940570831299,-0.18036480247974396,0.0014108347240835428,-0.9835987687110901,0.10512366890907288,-0.13886195421218872,-0.3526591658592224
-0.006753171246968763,-0.19469670377162432,-0.531723965681018,-0.43945637345314026,-1.3942018747329712,0.551103413105011,-0.19346456229686737,0.006753120105713606,-0.9810840487480164,0.12212969362735748,-0.154854878783226,-0.30796319246292114
-0.011996867205791828,-0.20955429361314795,-0.5264353400599834,-0.36772751808166504,-1.5819095373153687,0.6852672696113586,-0.20800898969173431,0.011996579356491566,-0.9780533313751221,0.11387749016284943,-0.1758759319782257,-0.28960108757019043
-0.016676031324579583,-0.2262903001934873,-0.5199887159224303,-0.26101332902908325,-1.7729287147521973,0.7593209743499756,-0.2243327498435974,0.016675258055329323,-0.9743699431419373,0.08839216828346252,-0.20191690325737,-0.29145342111587524
-0.020370687934266364,-0.24480060280664162,-0.5130351254746051,-0.1281600445508957,-1.9349374771118164,0.7528480887413025,-0.24231259524822235,0.020369278267025948,-0.9699844121932983,0.05697929859161377,-0.23377865552902222,-0.31279146671295166
-0.022785111244346883,-0.2645105845838574,-0.5061494450351036,0.009392758831381798,-2.010082721710205,0.6949267387390137,-0.2613690495491028,0.02278313972055912,-0.964970052242279,0.042832642793655396,-0.262040913105011,-0.34432560205459595
-0.02386896181859607,-0.2842387996165818,-0.49953583193749207,0.13467158377170563,-1.9305803775787354,0.6313728094100952,-0.28034698963165283,0.023866696283221245,-0.9596019983291626,0.045819371938705444,-0.2881641387939453,-0.3711475133895874
-0.023891530526589586,-0.30247811226688853,-0.49328378289679653,0.21269528567790985,-1.7261207103729248,0.5635982751846313,-0.2978017032146454,0.02388925850391388,-0.9543287754058838,0.051646918058395386,-0.2951447069644928,-0.37639015913009644
-0.023403363657270932,-0.3183289792826252,-0.4874578051805188,0.2256951779127121,-1.4568113088607788,0.5174424052238464,-0.31289422512054443,0.023401226848363876,-0.9494996666908264,0.06619009375572205,-0.2790469527244568,-0.3497404456138611
-0.023080526401530733,-0.33135038260056066,-0.4819448229864184,0.17932714521884918,-1.162337064743042,0.5146684050559998,-0.3252336084842682,0.023078477010130882,-0.9453520178794861,0.0965195894241333,-0.25934553146362305,-0.29993295669555664
-0.023565616923157385,-0.3415912874305265,-0.47643310485446266,0.08718544989824295,-0.9167043566703796,0.5597360134124756,-0.3348938524723053,0.023563435301184654,-0.9419611692428589,0.1355835497379303,-0.24789810180664062,-0.23481184244155884
-0.02530451046888437,-0.3499232918940698,-0.47064220428259324,-0.020444078370928764,-0.7813396453857422,0.6485790610313416,-0.3427160084247589,0.02530181035399437,-0.9390982985496521,0.17300772666931152,-0.2344082146883011,-0.1686745285987854
-0.028425248638078875,-0.3572099431405241,-0.46420275164726016,-0.11759460717439651,-0.7101539373397827,0.7761446833610535,-0.34952041506767273,0.028421420603990555,-0.9364975690841675,0.20987194776535034,-0.21737095713615417,-0.11349022388458252
-0.032908720015823754,-0.36407610093015336,-0.45665245276033417,-0.18423329293727875,-0.7148845195770264,0.9492876529693604,-0.3558933138847351,0.032902780920267105,-0.9339472055435181,0.24082675576210022,-0.19875051081180573,-0.07072198390960693
-0.038572572264461875,-0.3714103962151263,-0.4475878762683197,-0.21696968376636505,-0.8261283040046692,1.1432194709777832,-0.3626600503921509,0.03856300935149193,-0.9311232566833496,0.2584119737148285,-0.18063755333423615,-0.032118260860443115
-0.04507896978828336,-0.3803132451140181,-0.43682221980052666,-0.19745218753814697,-1.0413812398910522,1.324371337890625,-0.37083423137664795,0.04506370425224304,-0.9276050925254822,0.25738513469696045,-0.17728106677532196,-0.021522045135498047
-0.05181354428538269,-0.39106687092753506,-0.4244021149529286,-0.10950399190187454,-1.2112030982971191,1.4676012992858887,-0.3806634247303009,0.05179036408662796,-0.9232622385025024,0.23530817031860352,-0.18409927189350128,-0.05146920680999756
-0.058130590133390926,-0.40300346267251064,-0.41044357225952455,0.024858079850673676,-1.3143593072891235,1.578985571861267,-0.39152050018310547,0.05809785798192024,-0.9183334708213806,0.21027660369873047,-0.18700405955314636,-0.08793789148330688
-0.06380870774396255,-0.41559826488115537,-0.394953514528524,0.16430822014808655,-1.3805254697799683,1.70137357711792,-0.40291571617126465,0.06376541405916214,-0.9130131006240845,0.20204898715019226,-0.17477305233478546,-0.10813558101654053
-0.06907124558492414,-0.4284261034634695,-0.37775488634546517,0.27783265709877014,-1.4019471406936646,1.8562570810317993,-0.4144490659236908,0.06901633739471436,-0.9074517488479614,0.2131703495979309,-0.15071184933185577,-0.1007879376411438
-0.07437034655063963,-0.4411057093828835,-0.3585506431249907,0.3696042001247406,-1.394585132598877,2.0580036640167236,-0.4257594645023346,0.0743018090724945,-0.9017805457115173,0.2401973009109497,-0.13109497725963593,-0.07340866327285767
-0.08015865535284365,-0.4532525200202503,-0.3370425525918219,0.4363589882850647,-1.3509817123413086,2.2966387271881104,-0.4364858865737915,0.08007284253835678,-0.8961408734321594,0.265144944190979,-0.1194099485874176,-0.034263789653778076
-0.08681190527929733,-0.46442182600241594,-0.3132008005815558,0.4666222035884857,-1.2682769298553467,2.5342161655426025,-0.44621920585632324,0.08670290559530258,-0.8907137513160706,0.27309301495552063,-0.1156182512640953,0.008801579475402832
-0.09465782451658329,-0.4743290861741173,-0.2874378605966256,0.4454881548881531,-1.1735093593597412,2.727257251739502,-0.45469701290130615,0.09451653063297272,-0.8856168985366821,0.25169405341148376,-0.11539049446582794,0.05238020420074463
-0.10384812901521881,-0.48302594466642323,-0.2605178641465978,0.3828515112400055,-1.093647837638855,2.847627639770508,-0.4619588255882263,0.10366157442331314,-0.8808225393295288,0.19988912343978882,-0.12307068705558777,0.09034097194671631
-0.1143834122937318,-0.490743569791737,-0.2333068319253328,0.28454357385635376,-1.0362191200256348,2.889186382293701,-0.4682021737098694,0.11413415521383286,-0.8762192130088806,0.14323574304580688,-0.14190508425235748,0.12960666418075562
-0.12610874755020993,-0.4976949875793813,-0.206585937339154,0.1655244678258896,-0.9862242937088013,2.8672964572906494,-0.4736103117465973,0.12577475607395172,-0.8717074990272522,0.0882495641708374,-0.16898758709430695,0.16005289554595947
-0.13883749904575948,-0.5039526727912667,-0.18088232454546918,0.04715467989444733,-0.9393255710601807,2.8023533821105957,-0.47824397683143616,0.1383918970823288,-0.8672544956207275,0.03694453835487366,-0.19298779964447021,0.16852402687072754
-0.15231229710780372,-0.5097399452273592,-0.15645985926066064,-0.05348356068134308,-0.9254797101020813,2.7113564014434814,-0.4823012053966522,0.15172407031059265,-0.8627660870552063,0.0018324553966522217,-0.21011939644813538,0.15838992595672607
-0.1661558759620381,-0.515401731699389,-0.1332404239890802,-0.10110967606306076,-0.9358004927635193,2.6316356658935547,-0.4860963523387909,0.16539239883422852,-0.8581117391586304,-0.019061118364334106,-0.22015614807605743,0.12803971767425537
-0.17996432883922261,-0.5209694269636759,-0.11068243792145735,-0.08972880989313126,-0.9482529759407043,2.586361885070801,-0.48968303203582764,0.17899447679519653,-0.8533296585083008,-0.024309277534484863,-0.23195768892765045,0.08402729034423828
-0.1934223455597207,-0.5263223554666866,-0.08822191530842977,-0.0289837047457695,-0.9446926116943359,2.5665252208709717,-0.4929889738559723,0.19221854209899902,-0.8485363721847534,-0.03620108962059021,-0.24165695905685425,0.03806579113006592
-0.20620147431040475,-0.5310686361530625,-0.065570869094416,0.06565742194652557,-0.8909187316894531,2.534698724746704,-0.49572619795799255,0.20474332571029663,-0.8439998626708984,-0.06829971075057983,-0.24971093237400055,0.0007839202880859375
-0.21790844663098832,-0.5347941070012794,-0.04276869420165043,0.1805882751941681,-0.8097130656242371,2.4746079444885254,-0.49761125445365906,0.2161879986524582,-0.8400272727012634,-0.10700300335884094,-0.2583022117614746,-0.022765696048736572
-0.22847136275204,-0.5377113607177254,-0.01998619857064168,0.2669951915740967,-0.7821952104568481,2.4136970043182373,-0.49886223673820496,0.2264888733625412,-0.8365639448165894,-0.13797855377197266,-0.2602412700653076,-0.02128511667251587
-0.23839149931611325,-0.5404181010917345,0.0027816546650595944,0.29443106055259705,-0.8149139881134033,2.3957667350769043,-0.49994418025016785,0.2361399233341217,-0.8332429528236389,-0.15218594670295715,-0.25776156783103943,-0.005837857723236084
-0.24842524964724486,-0.5435254617714617,0.025635094902962525,0.26844966411590576,-0.9097759127616882,2.4314377307891846,-0.5012803077697754,0.24587786197662354,-0.8296156525611877,-0.1519331932067871,-0.26115185022354126,0.00902855396270752
-0.25917520297735175,-0.5474236776378297,0.04881515490953813,0.22536341845989227,-1.0282011032104492,2.505558729171753,-0.503105640411377,0.25628340244293213,-0.8253505229949951,-0.15550941228866577,-0.27331218123435974,0.009905636310577393
-0.27064944959296444,-0.5521323018715222,0.07251775151819376,0.21328312158584595,-1.1482675075531006,2.5732204914093018,-0.5054106116294861,0.2673572897911072,-0.820414662361145,-0.17441421747207642,-0.2956623136997223,-0.01500403881072998
-0.28240099689618164,-0.5575811554387278,0.09671988439753078,0.24539045989513397,-1.2500554323196411,2.601595640182495,-0.508175790309906,0.2786623537540436,-0.8149262070655823,-0.215884268283844,-0.3302675187587738,-0.06626886129379272
-0.293836097631148,-0.5633137861892913,0.12124796416570785,0.3145767152309418,-1.2681514024734497,2.577106237411499,-0.5111039876937866,0.28962603211402893,-0.8092523813247681,-0.2667280435562134,-0.36059460043907166,-0.13581591844558716
-0.30456872994612605,-0.5684649838465309,0.1457689163827167,0.38275817036628723,-1.194337010383606,2.505971670150757,-0.5135627388954163,0.29988178610801697,-0.8039429187774658,-0.31515729427337646,-0.3826454281806946,-0.20666193962097168
-0.31433049684954817,-0.5726223311013231,0.16983184609240387,0.4492945671081543,-1.0966747999191284,2.3872127532958984,-0.5152897834777832,0.3091798424720764,-0.799302339553833,-0.3591150641441345,-0.39926770329475403,-0.2628924250602722
-0.32288320830862044,-0.5757787852786745,0.19312765074522545,0.5148949027061462,-0.990075409412384,2.240978479385376,-0.5163515210151672,0.31730207800865173,-0.79542475938797,-0.39389628171920776,-0.41012126207351685,-0.30038517713546753
-0.33008094296470225,-0.5780987365954445,0.21560824498948614,0.6001718640327454,-0.9161306619644165,2.0993599891662598,-0.5169340372085571,0.32411959767341614,-0.7922914028167725,-0.4116547703742981,-0.40949249267578125,-0.31819748878479004
-0.3358070022792618,-0.580091973660843,0.2375224159431952,0.7044053077697754,-0.9207181930541992,1.9868665933609009,-0.5174865126609802,0.329531192779541,-0.7896941900253296,-0.40338134765625,-0.39580008387565613,-0.3130737543106079
-0.3401679579589518,-0.582437849626828,0.2592849765354457,0.8172855973243713,-0.9911374449729919,1.9186656475067139,-0.5185421705245972,0.33364543318748474,-0.7872704267501831,-0.37388330698013306,-0.37743815779685974,-0.2927923798561096
-0.34343579653257134,-0.5854827510393905,0.2813640313646552,0.9245284199714661,-1.0957121849060059,1.9058462381362915,-0.5203316807746887,0.3367242217063904,-0.7847749590873718,-0.3255087733268738,-0.3617943823337555,-0.2633970379829407
-0.34591583046801994,-0.589489178030472,0.30413497715242743,1.0322600603103638,-1.2412406206130981,1.9297829866409302,-0.5230057239532471,0.33905839920043945,-0.7819874286651611,-0.2735792398452759,-0.34938856959342957,-0.2419840693473816
-0.3477518780444391,-0.5948796324502046,0.32781804910464263,1.143742322921753,-1.4475743770599365,1.9607489109039307,-0.526863694190979,0.34078511595726013,-0.7786399722099304,-0.2238839864730835,-0.34533217549324036,-0.2246863842010498
-0.3489265655106651,-0.6023226615363726,0.35251553552520204,1.2720084190368652,-1.722472071647644,1.9972119331359863,-0.5324172973632812,0.34188926219940186,-0.774366557598114,-0.16829681396484375,-0.3468788266181946,-0.219438374042511
-0.34939897843070244,-0.612123172175311,0.37855951919672554,1.4337120056152344,-2.0024662017822266,2.070972204208374,-0.5398879647254944,0.3423331677913666,-0.7689792513847351,-0.11630100011825562,-0.3444540500640869,-0.2282131314277649
-0.34928240528276744,-0.6239312885929863,0.4063379653907754,1.5990020036697388,-2.2442779541015625,2.1623361110687256,-0.5489535331726074,0.3422236442565918,-0.7625830769538879,-0.0801052451133728,-0.328429639339447,-0.23615044355392456
-0.3487540339245207,-0.6374643902542899,0.435914271864699,1.7513258457183838,-2.465089797973633,2.2492315769195557,-0.5593306422233582,0.3417271077632904,-0.755229651927948,-0.05686497688293457,-0.306845486164093,-0.24022316932678223
-0.3479545255474516,-0.6523787069947837,0.4670577583995191,1.8817908763885498,-2.6132655143737793,2.317603349685669,-0.5706974267959595,0.34097564220428467,-0.7470207810401917,-0.04554396867752075,-0.2946498990058899,-0.23955142498016357
-0.3470280174242807,-0.6679075019740016,0.4994610733413744,1.9859287738800049,-2.670762538909912,2.362558126449585,-0.5824239253997803,0.34010449051856995,-0.738316535949707,-0.04646706581115723,-0.28811776638031006,-0.23432445526123047
-0.34606790876203075,-0.6835842143961898,0.5326481818572545,2.0492255687713623,-2.704583168029785,2.3692543506622314,-0.5941321849822998,0.3392014801502228,-0.7293485403060913,-0.05572432279586792,-0.2847122550010681,-0.2196565866470337
-0.34518126699473245,-0.699691525725729,0.5661225148032967,2.0826287269592285,-2.7648088932037354,2.353466510772705,-0.6059958934783936,0.3383672535419464,-0.7199142575263977,-0.05843275785446167,-0.28419849276542664,-0.20452415943145752
-0.3446207265223602,-0.7163820279434577,0.5995652401323155,2.078979253768921,-2.816532611846924,2.339934825897217,-0.6180511116981506,0.3378397226333618,-0.7098430395126343,-0.04907834529876709,-0.28803500533103943,-0.20067942142486572
-0.3446004621814798,-0.7338068422354772,0.632851628961245,2.0625152587890625,-2.9053680896759033,2.332005500793457,-0.6303301453590393,0.3378206491470337,-0.6989714503288269,-0.019327998161315918,-0.2988344430923462,-0.20762944221496582
-0.3450758362813371,-0.7521925537894697,0.6659786283125754,2.077761650085449,-2.985163688659668,2.3112380504608154,-0.6429641246795654,0.3382680416107178,-0.6871475577354431,0.016392529010772705,-0.3096882998943329,-0.23632961511611938
-0.34575294884357316,-0.7709700878644974,0.6991816388764344,2.1297688484191895,-2.9886062145233154,2.2863025665283203,-0.65559321641922,0.3389051556587219,-0.6747894287109375,0.051894545555114746,-0.31359079480171204,-0.277984619140625
-0.34627952119098077,-0.789354708414322,0.7325769426463368,2.2016491889953613,-2.927212953567505,2.240178346633911,-0.6677607297897339,0.3394005298614502,-0.6624974608421326,0.08157914876937866,-0.3046409785747528,-0.31736093759536743
-0.3464968917128471,-0.8068660041182554,0.7661631757957528,2.2783944606781006,-2.8318490982055664,2.1891705989837646,-0.6792056560516357,0.3396049737930298,-0.6506521105766296,0.11130410432815552,-0.2891440987586975,-0.34582310914993286
-0.3463904558028198,-0.823124150644855,0.8000578174689625,2.357551097869873,-2.7027392387390137,2.1567697525024414,-0.6897202730178833,0.3395048677921295,-0.6395485401153564,0.15232110023498535,-0.2802092134952545,-0.35878825187683105
-0.34609351890788964,-0.8379053600265841,0.8343838928140128,2.4322142601013184,-2.5692737102508545,2.14278244972229,-0.6991727948188782,0.33922556042671204,-0.6293515563011169,0.19544976949691772,-0.27172067761421204,-0.35438257455825806
-0.345770420762177,-0.8512820258768317,0.8691888311982022,2.49214768409729,-2.4532339572906494,2.144900321960449,-0.7076110243797302,0.33892160654067993,-0.6200150847434998,0.2317962646484375,-0.26310065388679504,-0.33404070138931274
-0.3455488748619864,-0.8634165047146299,0.9044127254839396,2.530402898788452,-2.3450284004211426,2.1479134559631348,-0.7151393294334412,0.3387131690979004,-0.6114319562911987,0.26344871520996094,-0.255552738904953,-0.30205070972442627
-0.34558477354552286,-0.8742811949421168,0.9399082157117501,2.5468101501464844,-2.2155826091766357,2.158343553543091,-0.7217307090759277,0.33874693512916565,-0.6036185026168823,0.2900749444961548,-0.25038325786590576,-0.27269381284713745
-0.34599523255277836,-0.8837344234399056,0.9754516775093214,2.530907392501831,-2.075542449951172,2.1557581424713135,-0.7272969484329224,0.339133083820343,-0.5966806411743164,0.3061697483062744,-0.2502048909664154,-0.24499410390853882
-0.34682595061071775,-0.8919992138527356,1.0106304102153338,2.47531795501709,-1.9548861980438232,2.1370835304260254,-0.73198401927948,0.339914470911026,-0.5904723405838013,0.32764142751693726,-0.2587987184524536,-0.21377265453338623
-0.34821345785102925,-0.8993202795080428,1.0451080621450493,2.3888871669769287,-1.8460396528244019,2.1169686317443848,-0.735917329788208,0.341219037771225,-0.5848037004470825,0.3567211627960205,-0.2779865860939026,-0.18814557790756226
-0.35026918918527095,-0.9058748951652936,1.0785764437535912,2.2792484760284424,-1.7447677850723267,2.089604616165161,-0.7391810417175293,0.34315067529678345,-0.5795334577560425,0.3922420144081116,-0.30060911178588867,-0.16785728931427002
-0.3529533779943522,-0.9118134371658607,1.1109928180263116,2.1801626682281494,-1.6698030233383179,2.061875343322754,-0.7418786883354187,0.3456706404685974,-0.5745675563812256,0.434612512588501,-0.327176958322525,-0.15532135963439941
-0.35614027733632964,-0.9175826438340537,1.1425538593725808,2.1111648082733154,-1.6701709032058716,2.0451321601867676,-0.74430251121521,0.34865930676460266,-0.5696055889129639,0.48406392335891724,-0.3494679927825928,-0.1508381962776184
-0.3598474093788502,-0.9236221208243981,1.1737233724675153,2.078657865524292,-1.7064892053604126,2.071065664291382,-0.7466926574707031,0.3521314263343811,-0.5643168091773987,0.5481301546096802,-0.3654828667640686,-0.15415853261947632
-0.36413439501916084,-0.9297678112608584,1.2050736028975937,2.087222099304199,-1.72629714012146,2.12164306640625,-0.7489299178123474,0.3561405837535858,-0.5588093400001526,0.6007061004638672,-0.3843082785606384,-0.1694774031639099
-0.36883792095613993,-0.9357070895227717,1.2368379680988042,2.101776599884033,-1.721290111541748,2.14715576171875,-0.7508788108825684,0.360531747341156,-0.5533515214920044,0.6102538704872131,-0.4026002287864685,-0.1908653974533081
-0.3736027519809155,-0.9413318711304569,1.2685748540858843,2.0881240367889404,-1.6895794868469238,2.0931153297424316,-0.7525822520256042,0.3649720251560211,-0.5481017231941223,0.568774938583374,-0.41906440258026123,-0.20749831199645996
-0.37780970797038094,-0.9466435747351764,1.2993186375956811,2.0309503078460693,-1.6142549514770508,1.914371371269226,-0.754230260848999,0.3688855469226837,-0.5431943535804749,0.4920080900192261,-0.4674725830554962,-0.22807639837265015
-0.38061996018086763,-0.951665741790796,1.3277675408972949,1.916419506072998,-1.4762400388717651,1.5932204723358154,-0.7561015486717224,0.37149614095687866,-0.5387959480285645,0.3990459442138672,-0.5613764524459839,-0.2654643654823303
-0.38120130130277774,-0.9562046089665353,1.3524252010341686,1.7260099649429321,-1.245450496673584,1.1289771795272827,-0.7583627700805664,0.37203580141067505,-0.5352339148521423,0.3195505142211914,-0.6515310406684875,-0.30152761936187744
-0.3789792841077048,-0.9598586433565842,1.3719220333172046,1.4749006032943726,-0.9103211164474487,0.5802139639854431,-0.7609886527061462,0.3699723780155182,-0.5329321622848511,0.259798526763916,-0.7092515230178833,-0.3354302644729614
-0.3737372844090444,-0.9618022825758816,1.385552584392748,1.1931616067886353,-0.4642661511898041,0.014062616974115372,-0.7636033296585083,0.3650972843170166,-0.5325542092323303,0.2319260835647583,-0.7388918399810791,-0.38013505935668945
-0.36548058832385383,-0.9611159102619551,1.3933010731240283,0.9386483430862427,0.047028373926877975,-0.5342394709587097,-0.7656829357147217,0.3573981821537018,-0.5347861051559448,0.24157410860061646,-0.7415076494216919,-0.43436068296432495
-0.3540806995006527,-0.9570327399177023,1.3959100886752012,0.780135452747345,0.5840859413146973,-1.0360546112060547,-0.7667738795280457,0.34672823548316956,-0.5402196049690247,0.2764022946357727,-0.7050808668136597,-0.5070826411247253
-0.33937048124583125,-0.9489325403177951,1.3949072262586053,0.7850428819656372,1.0966451168060303,-1.4434398412704468,-0.766435980796814,0.3328935503959656,-0.5493249297142029,0.33703845739364624,-0.6318894624710083,-0.5931769609451294
-0.3213578120486121,-0.9364791579132304,1.3924499836857165,0.967968225479126,1.5287584066390991,-1.7128674983978271,-0.7642421126365662,0.31585514545440674,-0.5622894763946533,0.40717124938964844,-0.5351849794387817,-0.6675383448600769
-0.30035792303065234,-0.9202092393824753,1.3906391789850403,1.2761738300323486,1.8046764135360718,-1.821050763130188,-0.7601041197776794,0.2958621382713318,-0.5785389542579651,0.4675321578979492,-0.4267825484275818,-0.6995677351951599
-0.27702085181441183,-0.9011597900052801,1.3911011694284785,1.6479157209396362,1.957741379737854,-1.7832632064819336,-0.7541550993919373,0.2734912931919098,-0.5970364809036255,0.504246711730957,-0.3327259123325348,-0.693750262260437
-0.2520338883921766,-0.880358543375685,1.394680705024042,2.0107994079589844,1.9834566116333008,-1.645595669746399,-0.7466103434562683,0.24937410652637482,-0.6167541742324829,0.4927040934562683,-0.2726437449455261,-0.6646789908409119
-0.22614000655005817,-0.8593831441920433,1.4014023655140435,2.298774480819702,1.8720685243606567,-1.4548166990280151,-0.7381548285484314,0.224217489361763,-0.6362812519073486,0.44768863916397095,-0.226048544049263,-0.6103922724723816
-0.1999654210496706,-0.839420052895182,1.410751163461408,2.500398635864258,1.7128583192825317,-1.26127028465271,-0.7294254302978516,0.19863544404506683,-0.6545857191085815,0.37784773111343384,-0.19590410590171814,-0.5377360582351685
-0.17378853391799307,-0.8209887272078353,1.421889026338755,2.619598865509033,1.5502166748046875,-1.1252472400665283,-0.7207964062690735,0.1729150414466858,-0.6712324023246765,0.29532039165496826,-0.1922173947095871,-0.46684443950653076
-0.14756624681351765,-0.8043936196965203,1.433749580873193,2.6568474769592285,1.378546953201294,-1.0699001550674438,-0.712580680847168,0.1470312625169754,-0.6860105991363525,0.21557140350341797,-0.2012457251548767,-0.40189528465270996
-0.12132870337658676,-0.789746644157579,1.4453326244945106,2.6219098567962646,1.243249773979187,-1.0746735334396362,-0.704954206943512,0.1210312470793724,-0.6988497376441956,0.1591779589653015,-0.2140030413866043,-0.35142797231674194
-0.09518480433109328,-0.7761253943310508,1.4557824830817028,2.5243232250213623,1.2670619487762451,-1.140769600868225,-0.6973485946655273,0.09504114091396332,-0.7104027271270752,0.10256105661392212,-0.23064598441123962,-0.3369147777557373
-0.0690431818413471,-0.7620347069950099,1.4642872925133659,2.392855167388916,1.4098989963531494,-1.2774055004119873,-0.6887499690055847,0.06898833811283112,-0.7217091917991638,0.016676604747772217,-0.22435331344604492,-0.34848129749298096
-0.04257448859213494,-0.7467704311412969,1.4704154080138128,2.2960760593414307,1.5576683282852173,-1.44672691822052,-0.6786566376686096,0.04256162792444229,-0.7332214117050171,-0.0804527997970581,-0.1948290765285492,-0.3793731927871704
-0.015266039331836644,-0.7306061549532049,1.4746596422590805,2.311882495880127,1.625179409980774,-1.5857503414154053,-0.6672434210777283,0.015265446156263351,-0.7446832656860352,-0.15998125076293945,-0.15845391154289246,-0.4324560761451721
0.013477158840811167,-0.7142770781403169,1.4781236928492236,2.4549572467803955,1.6258397102355957,-1.6802338361740112,-0.6550118327140808,-0.013476750813424587,-0.7554983496665955,-0.22487080097198486,-0.11936625093221664,-0.508524477481842
0.0442881724902121,-0.6979700101788928,1.4816731789979734,2.6788177490234375,1.65815007686615,-1.7706711292266846,-0.642033576965332,-0.04427369683980942,-0.7653971314430237,-0.2891339659690857,-0.06131710857152939,-0.5738363265991211
0.07758920775113069,-0.6808420497930854,1.4851988097224065,2.880608558654785,1.8175193071365356,-1.9212226867675781,-0.6275538802146912,-0.07751138508319855,-0.7747052311897278,-0.36055946350097656,0.0008664950728416443,-0.613997220993042
0.11338232831043411,-0.6615176552675909,1.487708548292287,3.0016634464263916,2.0899603366851807,-2.1280713081359863,-0.6103706359863281,-0.1131395548582077,-0.7839943170547485,-0.4255027770996094,0.046870648860931396,-0.618517279624939
0.1509910959883171,-0.6390067901727864,1.4882227949446685,3.0133674144744873,2.413076639175415,-2.3271639347076416,-0.5896129608154297,-0.15041802823543549,-0.7935559153556824,-0.46856874227523804,0.07795405387878418,-0.5926288366317749
0.18923943254093506,-0.6126940461035412,1.4860750872560806,2.9050228595733643,2.756038188934326,-2.473344564437866,-0.564807116985321,-0.18811196088790894,-0.8034966588020325,-0.4854857921600342,0.10266275703907013,-0.5496833324432373
0.22673472805064787,-0.5824151015477904,1.4809492400172413,2.700439929962158,3.0513060092926025,-2.55051589012146,-0.5359644889831543,-0.22479702532291412,-0.8137618899345398,-0.4987950325012207,0.10573270916938782,-0.511006236076355
0.2623069996647827,-0.5490436657996424,1.4729477969907576,2.4565422534942627,3.1906869411468506,-2.5499517917633057,-0.5040206909179688,-0.259309321641922,-0.8238457441329956,-0.514732301235199,0.08929592370986938,-0.48442763090133667
0.2954354953007088,-0.5143177792985777,1.4627455810989258,2.2505297660827637,3.1480681896209717,-2.47512149810791,-0.47062787413597107,-0.29115650057792664,-0.8329089283943176,-0.5116413831710815,0.07059073448181152,-0.4753338694572449
0.3261380802673073,-0.4802285557487723,1.4513834986992826,2.108734130859375,2.9370505809783936,-2.335453987121582,-0.4376293122768402,-0.3203870952129364,-0.8401384949684143,-0.4928363263607025,0.05972123146057129,-0.4828595519065857
0.35477220622373995,-0.448381104152692,1.4397101414804476,2.0194907188415527,2.6266119480133057,-2.180652618408203,-0.4065108597278595,-0.3473767638206482,-0.8450315594673157,-0.4769424796104431,0.05349248647689819,-0.5020296573638916
0.3818336489620437,-0.41946966043039857,1.4280660787916561,1.9656414985656738,2.3047752380371094,-2.058661460876465,-0.37794530391693115,-0.37262269854545593,-0.8475314974784851,-0.4846797585487366,0.03891298174858093,-0.5399044156074524
0.40775229707135785,-0.3932052293526231,1.4161292725092776,1.9123989343643188,2.0206940174102783,-2.0114455223083496,-0.3517381548881531,-0.3965469002723694,-0.8479568958282471,-0.5054242610931396,0.025941431522369385,-0.5898178219795227
0.4328661973341711,-0.3687983765790929,1.4032581230041838,1.8655900955200195,1.8095624446868896,-2.028815984725952,-0.32724541425704956,-0.41947436332702637,-0.8467299938201904,-0.5210516452789307,0.019739866256713867,-0.6419327259063721
0.45749436955293477,-0.34504596300657037,1.3890641187484143,1.8455157279968262,1.7228171825408936,-2.0797085762023926,-0.30345603823661804,-0.4417015314102173,-0.8442832231521606,-0.5232346057891846,0.028813987970352173,-0.6994789838790894
0.4819317151403685,-0.3207967541770595,1.3735737105695562,1.8613604307174683,1.723853588104248,-2.1121654510498047,-0.27940788865089417,-0.4634917378425598,-0.8408963084220886,-0.5140490531921387,0.06702262163162231,-0.7497256398200989
0.5063638834379077,-0.29545788043498394,1.3571816033925537,1.9156416654586792,1.7840499877929688,-2.0977160930633545,-0.2546391189098358,-0.4850006401538849,-0.8366201519966125,-0.4726557731628418,0.1251831352710724,-0.7820016741752625
0.5311550783751593,-0.26895120843230913,1.3406940956015676,2.046154499053955,1.870793104171753,-2.0096359252929688,-0.2291102111339569,-0.5065296292304993,-0.8312257528305054,-0.4044651985168457,0.18765145540237427,-0.7905088663101196
0.5568204034056393,-0.24170723669019675,1.3250604782738746,2.2372684478759766,1.9462295770645142,-1.8548901081085205,-0.2032027244567871,-0.5284895896911621,-0.8242617249488831,-0.3336777091026306,0.2589736580848694,-0.7637815475463867
0.5836921255584512,-0.2143700406845352,1.3109546700754895,2.443230152130127,1.9827030897140503,-1.6576111316680908,-0.17751066386699677,-0.5511085391044617,-0.815333902835846,-0.27971890568733215,0.32405775785446167,-0.7006573677062988
0.6117200201868465,-0.18743668243290965,1.2985812522866231,2.620784044265747,1.9976136684417725,-1.4557626247406006,-0.15255026519298553,-0.5742764472961426,-0.8043227195739746,-0.2568429708480835,0.3770108222961426,-0.6098923683166504
0.6405612164763272,-0.16108051848267826,1.287652347002379,2.7280566692352295,1.972070574760437,-1.284947156906128,-0.12859022617340088,-0.5976455211639404,-0.7913813591003418,-0.26642924547195435,0.41177821159362793,-0.5006260871887207
0.6696670711017975,-0.13566459788735494,1.2775904651338914,2.7663538455963135,1.8617697954177856,-1.1487680673599243,-0.10603892058134079,-0.6207249760627747,-0.7768244743347168,-0.28598982095718384,0.42971551418304443,-0.3759770393371582
0.6984955366143697,-0.11185615996659479,1.268019354459856,2.751516580581665,1.6681305170059204,-1.0328848361968994,-0.08548210561275482,-0.6430662870407104,-0.7610246539115906,-0.2959723174571991,0.43891894817352295,-0.24286633729934692
0.7267143962643484,-0.09033524507153708,1.258672473486041,2.702246904373169,1.393437147140503,-0.9414084553718567,-0.06742129474878311,-0.6644176840782166,-0.7443141341209412,-0.3011089265346527,0.44971132278442383,-0.11393171548843384
0.7540884703500247,-0.07161953967200324,1.2492752583301083,2.622019052505493,1.0721735954284668,-0.8813366293907166,-0.052158575505018234,-0.6846245527267456,-0.7270273566246033,-0.3054005801677704,0.4728478193283081,-0.0061269402503967285
0.7803685638541553,-0.05560244970462916,1.239499874634223,2.513113498687744,0.773738443851471,-0.855040967464447,-0.039493758231401443,-0.7035413980484009,-0.709555983543396,-0.3096120357513428,0.5010878443717957,0.077811598777771
0.8051982749449552,-0.04154087766533194,1.2289687612773292,2.356682300567627,0.5454370975494385,-0.8575981259346008,-0.028778234496712685,-0.7209680676460266,-0.6923705339431763,-0.3168943226337433,0.5291803479194641,0.14099419116973877
0.8281753927849275,-0.02845513152848382,1.2174692523948913,2.162076711654663,0.40551674365997314,-0.8673729300498962,-0.019239364191889763,-0.7366987466812134,-0.675947368144989,-0.3172321319580078,0.5610853433609009,0.178541362285614
0.8489406635100015,-0.015569414755683504,1.2050997691218743,1.938386082649231,0.3400799632072449,-0.8670158386230469,-0.010287521407008171,-0.7505808472633362,-0.6606985926628113,-0.3049895167350769,0.590638279914856,0.200874924659729
0.8672814994132055,-0.002455548666350378,1.1921420432123129,1.6992862224578857,0.32531142234802246,-0.8532799482345581,-0.0015884977765381336,-0.7625731825828552,-0.6469000577926636,-0.2771437466144562,0.6100615859031677,0.21658694744110107
0.8830035681736901,0.011086978249084029,1.178877430077823,1.4405465126037598,0.3487062454223633,-0.8267077207565308,0.007038238923996687,-0.7726491093635559,-0.634794294834137,-0.2469979077577591,0.6252340078353882,0.23574644327163696
0.8959711113571135,0.025210016389205038,1.1655588838972075,1.1719307899475098,0.40813812613487244,-0.7999829053878784,0.015748562291264534,-0.7808161377906799,-0.6245623230934143,-0.2209029346704483,0.6326839327812195,0.2650194764137268
0.9060699004012865,0.04010472608709024,1.1522657121016207,0.8922434449195862,0.4839910864830017,-0.7800589799880981,0.024731721729040146,-0.7870855927467346,-0.6163477897644043,-0.19674399495124817,0.6332159638404846,0.2996516227722168
0.9132292177291573,0.05581182846538836,1.139086922126598,0.6100586652755737,0.5749115943908691,-0.7680102586746216,0.03409409895539284,-0.7914815545082092,-0.6102414727210999,-0.17374248802661896,0.6285024285316467,0.3326077461242676
0.9174449272818719,0.07244589884183184,1.1259151269580587,0.3332805335521698,0.6619343757629395,-0.7788453102111816,0.04399780556559563,-0.7940511107444763,-0.6062566041946411,-0.16150569915771484,0.6312550902366638,0.3663731813430786
0.9188473032281893,0.09032939379065313,1.1125060119163046,0.08220566064119339,0.7839998602867126,-0.8224989175796509,0.054731667041778564,-0.7949027419090271,-0.604263186454773,-0.16331316530704498,0.6354637742042542,0.39822375774383545
0.9175813635022163,0.1101292414963173,1.0984306341878858,-0.16168157756328583,0.9360495805740356,-0.900192141532898,0.06679503619670868,-0.7941340208053589,-0.6040610074996948,-0.1710277795791626,0.6347101926803589,0.43101102113723755
0.9136170653465049,0.13211935039310588,1.0835562335066053,-0.4046318233013153,1.098361611366272,-0.9913902878761292,0.08047527819871902,-0.7917185425758362,-0.6055622100830078,-0.17921485006809235,0.6313944458961487,0.4645862579345703
0.9068299978521426,0.15609807288371014,1.068123733131094,-0.667772114276886,1.2573614120483398,-1.0729293823242188,0.09580452740192413,-0.7875542044639587,-0.6087526679039001,-0.18744876980781555,0.623079776763916,0.49483048915863037
0.8970283576835496,0.18162026531862377,1.052723442686664,-0.9414461851119995,1.4248769283294678,-1.1317873001098633,0.11269728094339371,-0.7814762592315674,-0.6136727333068848,-0.19297371804714203,0.6091587543487549,0.5131325721740723
0.8842168893770648,0.20811438891941075,1.0380596224030711,-1.2058255672454834,1.5781290531158447,-1.162807583808899,0.1309725046157837,-0.7734188437461853,-0.6202173233032227,-0.1924348622560501,0.5911983847618103,0.5263757705688477
0.8687248283718972,0.23455689378364522,1.0247556875531143,-1.4286028146743774,1.6391699314117432,-1.1696964502334595,0.15009182691574097,-0.7635060548782349,-0.6281169056892395,-0.17652000486850739,0.5698568820953369,0.540790855884552
0.8511243342488073,0.25956591006913543,1.0131248801787658,-1.5915381908416748,1.576790452003479,-1.1514956951141357,0.16917502880096436,-0.7520219683647156,-0.6370578408241272,-0.14398273825645447,0.5440600514411926,0.5422549843788147
0.8322471418942053,0.28175375598246716,1.00348809330568,-1.682507038116455,1.4042980670928955,-1.0845544338226318,0.18718138337135315,-0.7394460439682007,-0.6466704607009888,-0.10707269608974457,0.5205435156822205,0.5220824480056763
0.8129694734288307,0.30007163354594635,0.9960507381275367,-1.6989926099777222,1.14841890335083,-0.9801710247993469,0.2031712681055069,-0.7263314127922058,-0.6566308736801147,-0.07795760035514832,0.5065896511077881,0.5002740621566772
0.7941394624094343,0.31382615058887436,0.9906814845857427,-1.6477895975112915,0.8128464221954346,-0.8642582297325134,0.21636758744716644,-0.7132607102394104,-0.666666567325592,-0.06135350465774536,0.4968453645706177,0.47089624404907227
0.7764360764613637,0.3229415985916036,0.9867995293366043,-1.525291919708252,0.45968276262283325,-0.7615901827812195,0.2264077216386795,-0.7007412910461426,-0.6765361428260803,-0.05975119769573212,0.48675215244293213,0.4288707375526428
0.7604305753329421,0.3280554008718065,0.983642301330597,-1.349729299545288,0.13067448139190674,-0.6928471326828003,0.2334485501050949,-0.6892334818840027,-0.6859001517295837,-0.07410097122192383,0.47736525535583496,0.38237226009368896
0.746291370093117,0.3300282924813935,0.9804268529064706,-1.1705446243286133,-0.17155994474887848,-0.6634048223495483,0.2379358410835266,-0.6789205074310303,-0.6945886611938477,-0.09366396069526672,0.47532254457473755,0.34743601083755493
0.7337119752833402,0.32931200953618905,0.9768025642344432,-1.0390288829803467,-0.45706233382225037,-0.6521431803703308,0.2401813119649887,-0.6696311235427856,-0.7027852535247803,-0.11411315202713013,0.47329628467559814,0.3262441158294678
0.7220913923477007,0.32595735568696,0.9730116179255318,-0.9837231636047363,-0.7063091993331909,-0.6250979900360107,0.24029801785945892,-0.660955548286438,-0.7109111547470093,-0.12634533643722534,0.47000712156295776,0.3098186254501343
0.7108315770128183,0.3200334100351426,0.9696913395679253,-0.9972636103630066,-0.9040223956108093,-0.5569201111793518,0.23840872943401337,-0.6524642109870911,-0.7193412184715271,-0.12714160978794098,0.46789395809173584,0.2907676100730896
0.6995556969167176,0.31167175594954855,0.9674302247164931,-1.0398286581039429,-1.0385082960128784,-0.4706062376499176,0.23462681472301483,-0.6438778042793274,-0.728266179561615,-0.12593841552734375,0.46766936779022217,0.25716632604599
0.688218179043315,0.30202395101822965,0.9662047289445757,-1.0748547315597534,-1.0186362266540527,-0.4032108187675476,0.22974658012390137,-0.6351619362831116,-0.7374183535575867,-0.1287180781364441,0.45816004276275635,0.21639180183410645
0.6765813501500455,0.29299958031587614,0.9655093013872905,-1.1214464902877808,-0.856857419013977,-0.38792213797569275,0.22520220279693604,-0.6261311173439026,-0.7464876770973206,-0.13807447254657745,0.43037617206573486,0.18295001983642578
0.6642240007545378,0.28592424700355784,0.9646813363913259,-1.2130343914031982,-0.6591639518737793,-0.45005279779434204,0.22208036482334137,-0.6164482831954956,-0.7554281949996948,-0.16218958795070648,0.38301944732666016,0.1497763991355896
0.6504107403512954,0.28113173584450657,0.9630112681975201,-1.3680906295776367,-0.5122455954551697,-0.5826646089553833,0.2207990139722824,-0.605513334274292,-0.7645923495292664,-0.20714235305786133,0.31902962923049927,0.11307257413864136
0.6343429139500122,0.27794239467711174,0.9599880722182783,-1.5821186304092407,-0.5054905414581299,-0.7672704458236694,0.221000537276268,-0.5926483869552612,-0.7745493650436401,-0.2570722699165344,0.2421693205833435,0.07473552227020264
0.6156023021936065,0.27481863506162435,0.9554658811010097,-1.8079168796539307,-0.661563515663147,-0.9531252980232239,0.2215554267168045,-0.5774503350257874,-0.7857889533042908,-0.2743813097476959,0.17049849033355713,0.02225440740585327
0.5945071096069517,0.2702792502998263,0.9496561321414799,-1.976081132888794,-0.9089881777763367,-1.0902506113052368,0.22118984162807465,-0.5601004958152771,-0.7983498573303223,-0.25329428911209106,0.12017440795898438,-0.05415874719619751
0.5719377151938596,0.26341352596312323,0.943037624560536,-2.0608911514282227,-1.1834176778793335,-1.152614951133728,0.2189396768808365,-0.5412623882293701,-0.8118499517440796,-0.2072666734457016,0.09294402599334717,-0.15436702966690063
0.5490813460142294,0.25409792059765113,0.9360924682867139,-2.02888822555542,-1.400830626487732,-1.1398504972457886,0.21442173421382904,-0.5219038128852844,-0.8256146907806396,-0.16727204620838165,0.07489770650863647,-0.2851030230522156
0.5272619061065481,0.24308662559157454,0.9291522757320997,-1.8793405294418335,-1.479948878288269,-1.081916093826294,0.2080097496509552,-0.5031690001487732,-0.8387805819511414,-0.1472492218017578,0.07056713104248047,-0.42313647270202637
0.5077467680017316,0.23239602022553416,0.9221270789286431,-1.6023612022399902,-1.3037927150726318,-1.0249524116516113,0.20125442743301392,-0.486209511756897,-0.850351095199585,-0.14356091618537903,0.06393781304359436,-0.5515501499176025
0.4913593997334092,0.2251273039036075,0.9143645499350439,-1.2711167335510254,-0.8653754591941833,-1.0552083253860474,0.19682057201862335,-0.47182488441467285,-0.8594433665275574,-0.15864303708076477,0.03327208757400513,-0.6433947682380676
0.4778896169219893,0.22329387696396086,0.9049235444993359,-0.987311601638794,-0.38018521666526794,-1.1788405179977417,0.19663411378860474,-0.4599062502384186,-0.865922212600708,-0.18198564648628235,-0.021981507539749146,-0.6634204387664795
0.4663537525840223,0.22669934427596414,0.8932817121678913,-0.8096779584884644,-0.00021549873054027557,-1.357185959815979,0.20076099038124084,-0.4496324062347412,-0.8703595399856567,-0.19155988097190857,-0.0948774516582489,-0.6146715879440308
0.4554126349515802,0.2339955116812485,0.8794815127476397,-0.7659626007080078,0.2194214165210724,-1.5426316261291504,0.20823411643505096,-0.4398329257965088,-0.8736048936843872,-0.17294049263000488,-0.17511147260665894,-0.5256870985031128
0.4439095847394574,0.24311477365542533,0.8641023642916026,-0.8210357427597046,0.24686315655708313,-1.6777092218399048,0.2173955887556076,-0.4294734001159668,-0.8765225410461426,-0.14282584190368652,-0.24113506078720093,-0.4253726005554199
0.4312154629309384,0.25165807073760876,0.8479372968221035,-0.9167590737342834,0.0663478672504425,-1.7647165060043335,0.22621534764766693,-0.4179753065109253,-0.8798427581787109,-0.09170907735824585,-0.29059702157974243,-0.35025978088378906
0.41739352653986317,0.25721685114599047,0.8316894497950301,-0.99943608045578,-0.308881938457489,-1.7787566184997559,0.2325502336025238,-0.40537911653518677,-0.8840747475624084,-0.023642122745513916,-0.30775558948516846,-0.30723994970321655
0.40301767880720585,0.25806913182344193,0.8159541698248255,-1.0275866985321045,-0.7708272933959961,-1.7252916097640991,0.23476676642894745,-0.39219602942466736,-0.8894193768501282,0.05276988446712494,-0.29965266585350037,-0.3088533282279968
0.3889423472317737,0.2538914815359314,0.8011408815856012,-0.9868358373641968,-1.1879421472549438,-1.6166995763778687,0.2324126660823822,-0.379209965467453,-0.8956473469734192,0.11853951215744019,-0.2703871726989746,-0.3551613688468933
0.37603450371861524,0.24551468799171963,0.7873700002335225,-0.8698675632476807,-1.4870191812515259,-1.4905495643615723,0.22607287764549255,-0.3672349452972412,-0.9022358655929565,0.15229934453964233,-0.2245313823223114,-0.42166244983673096
0.36500020588755255,0.23452797296008432,0.774372380916312,-0.6855992078781128,-1.6154839992523193,-1.3853968381881714,0.21707530319690704,-0.35694947838783264,-0.9085512161254883,0.15391165018081665,-0.18008354306221008,-0.4930295944213867
0.35641439315574747,0.2230200091898773,0.761726453265032,-0.44269925355911255,-1.5486043691635132,-1.3054298162460327,0.20727580785751343,-0.348916232585907,-0.9139443039894104,0.13102683424949646,-0.13962438702583313,-0.5545005202293396
0.3506149767540022,0.212717701923469,0.7490777888457741,-0.17501455545425415,-1.3644832372665405,-1.2594964504241943,0.19827310740947723,-0.34347543120384216,-0.9179936647415161,0.10011255741119385,-0.09834274649620056,-0.5806025266647339
0.34745093869354293,0.20455356037552014,0.736121370629773,0.053694162517786026,-1.147928237915039,-1.251015543937683,0.19099175930023193,-0.34050217270851135,-0.920641303062439,0.07095590233802795,-0.06799080967903137,-0.558759331703186
0.3462857243998788,0.1985228757537487,0.7226458724715629,0.21294373273849487,-0.9696475863456726,-1.2731709480285645,0.18551434576511383,-0.3394063711166382,-0.9221646785736084,0.04547324776649475,-0.04978424310684204,-0.4896852970123291
0.346234719986198,0.19421430989753552,0.7085761416080898,0.2819719612598419,-0.8505581617355347,-1.3180676698684692,0.18154276907444,-0.339358389377594,-0.9229724407196045,0.026632919907569885,-0.03783884644508362,-0.385667085647583
0.3464504871609595,0.19096500027124114,0.6939155026658871,0.2754461467266083,-0.7967941761016846,-1.376880168914795,0.17852889001369476,-0.3395613431930542,-0.923485517501831,0.010451242327690125,-0.029716581106185913,-0.27641987800598145
0.34617801338723514,0.18826984071652356,0.6785196644642089,0.20840632915496826,-0.7878553867340088,-1.4717482328414917,0.1760566085577011,-0.33930504322052,-0.9240542054176331,-0.008225157856941223,-0.023304790258407593,-0.17494481801986694
0.3448827569335903,0.18592676077570175,0.6622181001231471,0.1018921434879303,-0.7819806933403015,-1.583270788192749,0.17397208511829376,-0.33808633685112,-0.9248953461647034,-0.02413076162338257,-0.01588699221611023,-0.0926218032836914
0.34227689206644557,0.1839369618252804,0.6449474336076852,-0.018513483926653862,-0.77397620677948,-1.6989606618881226,0.17229194939136505,-0.3356327712535858,-0.9261026382446289,-0.032170459628105164,-0.004394024610519409,-0.02834981679916382
0.33831866430358226,0.18227924841259677,0.6267529741235315,-0.13273751735687256,-0.7644255757331848,-1.8047053813934326,0.17099598050117493,-0.33190152049064636,-0.9276862144470215,-0.02464890480041504,0.012718230485916138,0.019330501556396484
0.33326338413920814,0.1809839042455963,0.6077998391205629,-0.2113787978887558,-0.7361187934875488,-1.8805066347122192,0.17009399831295013,-0.3271285891532898,-0.929545521736145,-0.005161717534065247,0.03527379035949707,0.05071556568145752
0.32753880191196766,0.1801081728011736,0.5883977642826514,-0.25045162439346313,-0.6966392993927002,-1.9205573797225952,0.1696125864982605,-0.3217136561870575,-0.9315212965011597,0.018314674496650696,0.06364181637763977,0.07113921642303467
0.3215890396507004,0.1796358949768608,0.5687480399619009,-0.24704289436340332,-0.6427657008171082,-1.9418950080871582,0.16951164603233337,-0.31607455015182495,-0.9334681034088135,0.035078227519989014,0.09630227088928223,0.08465218544006348
0.315824075897779,0.17980755438752036,0.5489864794891908,-0.21171367168426514,-0.5461153388023376,-1.9479308128356934,0.16999492049217224,-0.3105998933315277,-0.9352162480354309,0.04077474772930145,0.12912717461585999,0.09335833787918091
0.3104072074295428,0.18116448354223222,0.529054777017285,-0.17393773794174194,-0.40451502799987793,-1.9672579765319824,0.17156441509723663,-0.30544641613960266,-0.9366259574890137,0.038732245564460754,0.15020352602005005,0.10892820358276367
0.30523988316649575,0.18392633778598613,0.5087664666793215,-0.14337369799613953,-0.2731892168521881,-2.0119729042053223,0.17443692684173584,-0.30052196979522705,-0.9376877546310425,0.03326570987701416,0.1557771861553192,0.13565528392791748
0.300118094282347,0.18793935761271535,0.4880314238819996,-0.13509319722652435,-0.15426546335220337,-2.053251028060913,0.17848370969295502,-0.2956330180168152,-0.9384799599647522,0.03545978665351868,0.15119338035583496,0.1723056435585022
0.29476852567074874,0.19322264294629368,0.46688798402668175,-0.1578829288482666,-0.027814317494630814,-2.108046770095825,0.1837405115365982,-0.2905183732509613,-0.9390625953674316,0.03801548480987549,0.14514794945716858,0.21176761388778687
0.28878282317542914,0.19966913255443602,0.44527658260513014,-0.21476194262504578,0.06699744611978531,-2.1713345050811768,0.19013182818889618,-0.284785658121109,-0.9395461678504944,0.040001243352890015,0.13665339350700378,0.24708706140518188
0.28188194007729084,0.20684724471733887,0.42328864762859886,-0.28680577874183655,0.12216722220182419,-2.2241523265838623,0.1972699612379074,-0.2781638205051422,-0.9400582313537598,0.055186718702316284,0.1268119215965271,0.27533960342407227
0.27403227360185545,0.21417422930935023,0.40111925089822686,-0.355570524930954,0.11534794420003891,-2.254654884338379,0.2046101838350296,-0.27061545848846436,-0.9406922459602356,0.0755717009305954,0.11613553762435913,0.29661881923675537
0.2653335267475584,0.22071278182424245,0.37901931290374674,-0.425139456987381,-0.0075342971831560135,-2.2628402709960938,0.21126390993595123,-0.26223114132881165,-0.9415956735610962,0.08892226219177246,0.11831030249595642,0.3113161325454712
0.2556319657349583,0.2246458157833175,0.35737285506394,-0.5473806262016296,-0.3524184226989746,-2.226928949356079,0.2155221700668335,-0.25285688042640686,-0.943193256855011,0.09241543710231781,0.12897086143493652,0.31579768657684326
0.24458634863572223,0.22341444932434526,0.3367580944314116,-0.7184551358222961,-0.9362339377403259,-2.1358537673950195,0.2149663120508194,-0.24215500056743622,-0.9461238980293274,0.1024927943944931,0.12493705749511719,0.2968166470527649
0.23221249994747037,0.21501885016192562,0.3176735702188249,-0.8793952465057373,-1.6386500597000122,-2.006838083267212,0.20763902366161346,-0.23013119399547577,-0.9507500529289246,0.12350723147392273,0.09016239643096924,0.21936577558517456
0.2190890519656758,0.19910086063619759,0.30003554890089923,-0.9611958265304565,-2.3074727058410645,-1.887853980064392,0.19306008517742157,-0.21734054386615753,-0.9568129181861877,0.14109215140342712,0.04595388472080231,0.07227611541748047
0.20630160298680428,0.1767871002888211,0.2832199551123906,-0.9132124185562134,-2.8172736167907715,-1.8158540725708008,0.17213842272758484,-0.20484133064746857,-0.9635394811630249,0.13644005358219147,0.027045994997024536,-0.11965137720108032
0.19513350012282965,0.1505527184983209,0.26637634735652527,-0.7309925556182861,-3.0466623306274414,-1.8021174669265747,0.14713817834854126,-0.19389750063419342,-0.969924807548523,0.11073535680770874,0.034839943051338196,-0.33258068561553955
0.1867730175229186,0.12355229361820859,0.2488966292762678,-0.44274261593818665,-2.956009864807129,-1.817307710647583,0.12109490483999252,-0.18568900227546692,-0.9751182794570923,0.08230475336313248,0.05423460900783539,-0.5345557928085327
0.1820209496913682,0.09898918126537504,0.23070568826889257,-0.1014888733625412,-2.5833170413970947,-1.832421064376831,0.09719495475292206,-0.18101750314235687,-0.978665292263031,0.05994005501270294,0.07307690382003784,-0.6924161911010742
0.18100253147920498,0.07885969620041029,0.2120751265250761,0.2199777215719223,-2.0901405811309814,-1.8192205429077148,0.07749104499816895,-0.18001581728458405,-0.9806066751480103,0.053826093673706055,0.07801087200641632,-0.7771753072738647
0.18331434943726327,0.06393794138731633,0.1934961916377033,0.49062466621398926,-1.5564634799957275,-1.7776201963424683,0.0628238320350647,-0.18228939175605774,-0.9812358021736145,0.0700039193034172,0.06459842622280121,-0.7812763452529907
0.18827603418408648,0.05402817189497473,0.1752623120367841,0.6978015899658203,-1.104642629623413,-1.7347990274429321,0.05304758995771408,-0.18716567754745483,-0.9808949828147888,0.09207876026630402,0.03804159164428711,-0.7041330933570862
0.1950127518216994,0.04803174406098624,0.15731389321096662,0.8101140260696411,-0.7904018759727478,-1.7102247476577759,0.04710319638252258,-0.19377905130386353,-0.9799137711524963,0.08848640322685242,0.0019456297159194946,-0.5799311995506287
0.2025080611443597,0.044590452882937295,0.13941451610804032,0.8301073908805847,-0.6159162521362305,-1.7201061248779297,0.043664783239364624,-0.20112676918506622,-0.9785915613174438,0.049062877893447876,-0.0372917503118515,-0.45092809200286865
0.2098078742073873,0.04249401716002493,0.12123101493819903,0.7708275318145752,-0.5534353256225586,-1.7655953168869019,0.04154965654015541,-0.20827199518680573,-0.977187991142273,-0.00936887413263321,-0.0819348692893982,-0.35198986530303955
0.21634497142861825,0.040861317273459784,0.1023625932837733,0.6821298003196716,-0.573111891746521,-1.8569321632385254,0.039897676557302475,-0.21466124057769775,-0.9758732914924622,-0.06693625450134277,-0.13087397813796997,-0.29040783643722534
0.22194340081798458,0.039113696099423376,0.08239583735195471,0.5871776938438416,-0.6460801362991333,-1.98541259765625,0.03814456984400749,-0.22012576460838318,-0.9747254252433777,-0.10125492513179779,-0.16555532813072205,-0.2535613179206848
0.22666930238991173,0.03687902182744579,0.06106345210228154,0.5135155916213989,-0.7454448938369751,-2.122530937194824,0.03592752292752266,-0.22473327815532684,-0.9737577438354492,-0.10871195048093796,-0.17704585194587708,-0.23582172393798828
0.2307050399093582,0.03400557847645654,0.03843984457925262,0.44883644580841064,-0.8552693724632263,-2.2322843074798584,0.033098235726356506,-0.22866393625736237,-0.972942590713501,-0.0851917564868927,-0.17352716624736786,-0.23398184776306152
0.23422121522545641,0.030273391896986555,0.01510570774995264,0.40207114815711975,-0.9568273425102234,-2.255385398864746,0.02944229170680046,-0.23208554089069366,-0.9722496867179871,-0.02965591847896576,-0.16763363778591156,-0.24799567461013794
0.23750546720231647,0.025783182671782107,-0.007929824736710344,0.3790276348590851,-1.000429391860962,-2.176539182662964,0.025056619197130203,-0.23527885973453522,-0.9716048836708069,0.0342085063457489,-0.1609460711479187,-0.2848190665245056
0.24074203838657549,0.020911011028525765,-0.029815072662197267,0.36567914485931396,-1.00307035446167,-2.0402631759643555,0.020306484773755074,-0.23842333257198334,-0.9709489941596985,0.07333669811487198,-0.1533765345811844,-0.3318769335746765
0.2440673869462083,0.015575336822297694,-0.050154531712094476,0.3721216022968292,-1.0402557849884033,-1.8808321952819824,0.015113120898604393,-0.24165146052837372,-0.9702454209327698,0.08814309537410736,-0.1547107845544815,-0.3786620497703552
0.24774670049021452,0.009292509340630657,-0.06883952504973373,0.41002416610717773,-1.1208215951919556,-1.7187789678573608,0.009008655324578285,-0.24522008001804352,-0.9694255590438843,0.09469005465507507,-0.1756782978773117,-0.4274250268936157
0.2522087038280631,0.002109933914549461,-0.08581082927391005,0.5037498474121094,-1.1360900402069092,-1.5481926202774048,0.002043181797489524,-0.24954339861869812,-0.9683614373207092,0.11366420984268188,-0.2055346667766571,-0.48523658514022827
0.25793063053536175,-0.0052920887033549675,-0.10090314552961496,0.6344213485717773,-1.0937745571136475,-1.3639010190963745,-0.005117001943290234,-0.2550801932811737,-0.9669063687324524,0.14363625645637512,-0.22956940531730652,-0.5372592806816101
0.2651754189534225,-0.012643395767221505,-0.11395171167980003,0.7882431149482727,-1.0383586883544922,-1.1634904146194458,-0.012201140634715557,-0.26207855343818665,-0.9649693965911865,0.17603473365306854,-0.2434450387954712,-0.565319299697876
0.2740417640295456,-0.01966920598658015,-0.12481487055360378,0.9450669884681702,-0.9269086718559265,-0.9501362442970276,-0.01893402822315693,-0.270624577999115,-0.9624987244606018,0.20942473411560059,-0.25392675399780273,-0.5696057677268982
0.2844325599204337,-0.02587474761260093,-0.13335750453398407,1.0892322063446045,-0.7762552499771118,-0.7324526309967041,-0.024832356721162796,-0.28061285614967346,-0.9594997763633728,0.2372957170009613,-0.2557182312011719,-0.5545077919960022
0.2962462268836382,-0.031133513376634957,-0.13937915000468065,1.231461524963379,-0.6140025854110718,-0.4832081198692322,-0.029772497713565826,-0.29193201661109924,-0.9559755921363831,0.26040908694267273,-0.24281218647956848,-0.5197019577026367
0.30933616949152914,-0.03557804865647346,-0.14260962787761494,1.3551338911056519,-0.46838995814323425,-0.21569624543190002,-0.03388221934437752,-0.304426372051239,-0.9519330859184265,0.2781906723976135,-0.21858379244804382,-0.4624345898628235
0.3234628340482959,-0.03976135577550583,-0.14283325891710363,1.4547430276870728,-0.3846592307090759,0.06770211458206177,-0.037689417600631714,-0.317851722240448,-0.9473910331726074,0.2924348711967468,-0.18892312049865723,-0.3806576728820801
0.33838492624244104,-0.04443365560733353,-0.13985520791393252,1.5360710620880127,-0.36358243227005005,0.3674750030040741,-0.04190012440085411,-0.33196404576301575,-0.9423609972000122,0.312316358089447,-0.16348880529403687,-0.2870854139328003
0.35382434185048883,-0.05040015775906884,-0.13341718028317284,1.594901442527771,-0.39285922050476074,0.694027841091156,-0.047258082777261734,-0.34648776054382324,-0.936863362789154,0.33725136518478394,-0.14066427946090698,-0.19283640384674072
0.3695407312591443,-0.05818547986455708,-0.12323633855125742,1.6363234519958496,-0.43782562017440796,1.0338839292526245,-0.054226960986852646,-0.361187219619751,-0.9309152364730835,0.35441309213638306,-0.11290332674980164,-0.1046987771987915
0.38532225091634115,-0.06801762511289239,-0.1091103959709831,1.667899489402771,-0.48214030265808105,1.3775062561035156,-0.06298180669546127,-0.37585777044296265,-0.9245346188545227,0.3597347140312195,-0.08343172073364258,-0.02534031867980957
0.40097431108322384,-0.07993067251913755,-0.09112492595991958,1.6870452165603638,-0.5208171606063843,1.6906404495239258,-0.07351233065128326,-0.39031556248664856,-0.9177416563034058,0.34829258918762207,-0.048725515604019165,0.04803645610809326
0.41628603649615725,-0.09390774116367132,-0.06964999987920568,1.6910916566848755,-0.5667642951011658,1.9564437866210938,-0.08576156198978424,-0.40436646342277527,-0.9105672240257263,0.32263898849487305,-0.018866509199142456,0.11904805898666382
0.43099659431390264,-0.10989003498389446,-0.04515142553343078,1.675183892250061,-0.6069998741149902,2.1681671142578125,-0.09963975101709366,-0.4177764654159546,-0.9030696153640747,0.2864225506782532,-0.004190027713775635,0.1794062852859497
0.4448627929167148,-0.1274572587314374,-0.018227507921039554,1.6437727212905884,-0.610374391078949,2.323367118835449,-0.11474055051803589,-0.43033403158187866,-0.895347535610199,0.2542058825492859,0.0033779144287109375,0.23049157857894897
0.45764554195731133,-0.14599814968300617,0.01043611729667792,1.5813852548599243,-0.5927977561950684,2.419173002243042,-0.13050945103168488,-0.4418371617794037,-0.8875512480735779,0.21858316659927368,0.01016610860824585,0.2753075957298279
0.4690963183798973,-0.1651565428151762,0.04015534227598803,1.489617943763733,-0.5779378414154053,2.4571163654327393,-0.14664706587791443,-0.4520803987979889,-0.8798397183418274,0.18946322798728943,0.015877515077590942,0.3188350796699524
0.4788632061656529,-0.18451528756217442,0.07017419688029733,1.3478506803512573,-0.5458416938781738,2.4412708282470703,-0.16283322870731354,-0.46077054738998413,-0.8724539279937744,0.16463376581668854,0.010514259338378906,0.35626429319381714
0.4865840270265113,-0.20363304469194018,0.09982843543128268,1.1679580211639404,-0.5202234983444214,2.4004273414611816,-0.17875704169273376,-0.46760913729667664,-0.8656717538833618,0.15258820354938507,0.008991003036499023,0.3847910165786743
0.4920125524220462,-0.22234790130065915,0.12892110189310324,0.971856951713562,-0.48485642671585083,2.37607741355896,-0.194363072514534,-0.4724006652832031,-0.8596863150596619,0.1580471694469452,0.0258522629737854,0.40531009435653687
0.49511119057802655,-0.24061785596530474,0.15758621510218487,0.7869209051132202,-0.44785019755363464,2.3882603645324707,-0.20968635380268097,-0.47512948513031006,-0.8545662760734558,0.17500312626361847,0.04794451594352722,0.4076516628265381
0.49602251273604897,-0.25857746706592893,0.18618691496554918,0.6330466270446777,-0.4195096492767334,2.4348981380462646,-0.22488857805728912,-0.47593116760253906,-0.850243866443634,0.20584560930728912,0.07195481657981873,0.38662081956863403
0.4950957486750656,-0.2765223910261257,0.21522219907371376,0.5449661612510681,-0.4060390889644623,2.529442310333252,-0.24022944271564484,-0.47511589527130127,-0.8464955687522888,0.24202997982501984,0.10237425565719604,0.34779250621795654
0.4929600393237517,-0.2947595883660945,0.24521229706644765,0.5385151505470276,-0.39590469002723694,2.6426608562469482,-0.25592052936553955,-0.4732355773448944,-0.8429429531097412,0.26403823494911194,0.13102677464485168,0.3051011562347412
0.49025986530280496,-0.3134246914933777,0.27642493959759423,0.6012089848518372,-0.386450856924057,2.7502501010894775,-0.2720016539096832,-0.47085514664649963,-0.8392320871353149,0.26829373836517334,0.1522211730480194,0.26988089084625244
0.4875605454728757,-0.33238448624955075,0.3088051703483894,0.6992306113243103,-0.35588788986206055,2.8189446926116943,-0.28827714920043945,-0.46847209334373474,-0.8351228833198547,0.26180315017700195,0.16457810997962952,0.25032973289489746
0.48511915179397486,-0.3512756913026825,0.34193957381213635,0.7997636198997498,-0.3255259096622467,2.839522361755371,-0.3043938875198364,-0.46631377935409546,-0.8305996656417847,0.24155819416046143,0.16563937067985535,0.24501311779022217
0.48296630919365907,-0.3700097890833807,0.3753408832863147,0.8695434927940369,-0.31095176935195923,2.8213679790496826,-0.3202624022960663,-0.4644082486629486,-0.8256857395172119,0.21795222163200378,0.160331130027771,0.2531607151031494
0.48077620061430004,-0.38856752086174823,0.4085562965031119,0.8906644582748413,-0.32323041558265686,2.787729501724243,-0.335913747549057,-0.4624675214290619,-0.8205398917198181,0.2006751298904419,0.14954033493995667,0.2697281241416931
0.4781396375960918,-0.40703178065597284,0.4411638805508988,0.8548340201377869,-0.3549369275569916,2.733851194381714,-0.35148778557777405,-0.4601282477378845,-0.8153148293495178,0.19931188225746155,0.1331324577331543,0.2852702736854553
0.47464913596447755,-0.42521417015345625,0.47288206638848923,0.777408242225647,-0.36663612723350525,2.6920132637023926,-0.3669135570526123,-0.4570263922214508,-0.8102477192878723,0.2149207592010498,0.1247052550315857,0.29430222511291504
0.46995163242587834,-0.4427983151265325,0.5036910145975714,0.6716479659080505,-0.33337458968162537,2.668191909790039,-0.3820192515850067,-0.45284315943717957,-0.8056018352508545,0.2320559024810791,0.12488603591918945,0.278364896774292
0.46390494103134494,-0.45924883194952004,0.5335990080293047,0.5652468800544739,-0.25943565368652344,2.645548105239868,-0.39642611145973206,-0.44744375348091125,-0.8016486167907715,0.24631017446517944,0.13363152742385864,0.2525762915611267
0.45657777714758213,-0.47448327791731343,0.5624329869762664,0.44559454917907715,-0.24498561024665833,2.6094744205474854,-0.4100791811943054,-0.4408790171146393,-0.7984113693237305,0.2406150996685028,0.15007707476615906,0.22141551971435547
0.4482192224186629,-0.4876170836900345,0.5900791513965001,0.3839913606643677,0.10211914777755737,2.5564889907836914,-0.42224153876304626,-0.43336135149002075,-0.7961846590042114,0.22262606024742126,0.16984212398529053,0.18200314044952393
0.43946472761673727,-0.49615470174904236,0.6167950165876426,0.3511980175971985,0.447564959526062,2.508694887161255,-0.430813193321228,-0.42545512318611145,-0.7958567142486572,0.21099507808685303,0.12522321939468384,0.16695046424865723
0.43056177696227504,-0.5015328974159426,0.6427349553612643,0.33269253373146057,0.6433411836624146,2.4545931816101074,-0.43689098954200745,-0.4173813760280609,-0.7968180179595947,0.21429583430290222,0.11219042539596558,0.1466410756111145
0.4217789886676576,-0.504989355506762,0.6677730609191901,0.3252093195915222,0.7137098908424377,2.3669493198394775,-0.44139906764030457,-0.40938419103622437,-0.7984806895256042,0.20018818974494934,0.10881665349006653,0.15964096784591675
0.41339808213597123,-0.5077537016596226,0.6917809280033905,0.3369050621986389,0.6591854095458984,2.2702155113220215,-0.4452572762966156,-0.4017234742641449,-0.8002276420593262,0.1894437074661255,0.08196035027503967,0.1713518500328064
0.40569108440222257,-0.5110443928658375,0.7149030850856253,0.3872204124927521,0.5160026550292969,2.1721816062927246,-0.44938910007476807,-0.394653856754303,-0.8014348149299622,0.20103707909584045,0.053330034017562866,0.17339831590652466
0.3989859221031532,-0.515433530229005,0.7373726609502164,0.47500985860824585,0.3591068685054779,2.075965404510498,-0.4541965126991272,-0.3884841203689575,-0.8017390966415405,0.2219119668006897,0.046321094036102295,0.17301595211029053
0.3934239508810946,-0.5210302487981885,0.7593812225605835,0.5647270083427429,0.22488915920257568,1.9885609149932861,-0.45974496006965637,-0.38335302472114563,-0.8010462522506714,0.23577648401260376,0.05382424592971802,0.1723077893257141
0.388896625602222,-0.5273876844902604,0.7809154818714932,0.6350272297859192,0.14924293756484985,1.89798104763031,-0.46569693088531494,-0.37916767597198486,-0.7995988130569458,0.23353448510169983,0.06126609444618225,0.17656713724136353
0.3850876734496628,-0.5340662789910232,0.8017445538856456,0.6468668580055237,0.09068562835454941,1.7985808849334717,-0.4717584550380707,-0.3756403923034668,-0.7977080941200256,0.22130069136619568,0.07133442163467407,0.19049984216690063
0.38152236241882503,-0.5407150536330477,0.8213993898813748,0.5928102731704712,0.05258285626769066,1.6859455108642578,-0.4777381420135498,-0.3723337948322296,-0.7956970930099487,0.2053382396697998,0.07048448920249939,0.20254212617874146
0.3776861346047096,-0.546822699977303,0.8394487149808956,0.47056639194488525,0.06837114691734314,1.5684480667114258,-0.4833281636238098,-0.36877065896987915,-0.7939785718917847,0.1922210454940796,0.057964444160461426,0.20083892345428467
0.3730984278336547,-0.5516465765768217,0.855510696040607,0.3007989227771759,0.15359050035476685,1.4504510164260864,-0.48803412914276123,-0.3645024299621582,-0.7930704355239868,0.1805543303489685,0.04644829034805298,0.18282562494277954
0.3675885507871473,-0.5543899376101584,0.8693761761397979,0.11461547762155533,0.3043038547039032,1.3148542642593384,-0.49125778675079346,-0.35936611890792847,-0.793424129486084,0.17024338245391846,0.03565096855163574,0.1531652808189392
0.3612886782490583,-0.5546781532184129,0.880905642988523,-0.050319693982601166,0.453363299369812,1.1742286682128906,-0.492669016122818,-0.3534800112247467,-0.79519122838974,0.16468143463134766,0.02610275149345398,0.11750262975692749
0.35444771964487487,-0.5526531282086115,0.8904303344196047,-0.16609664261341095,0.6222135424613953,1.0613569021224976,-0.4923156499862671,-0.3470724821090698,-0.7982267737388611,0.17462769150733948,0.03446570038795471,0.07355636358261108
0.3474805314148341,-0.547999306535643,0.8986480003791089,-0.20429939031600952,0.8681995272636414,0.9856393933296204,-0.4898434281349182,-0.34053000807762146,-0.8025538921356201,0.1836148500442505,0.03848230838775635,0.012301146984100342
0.34079748705126384,-0.5411402327345936,0.9064272286123889,-0.1719110906124115,1.0029414892196655,0.9583163857460022,-0.4854886531829834,-0.33423882722854614,-0.8078274726867676,0.1841886043548584,0.03629577159881592,-0.0554233193397522
0.3348033325720138,-0.5334796076403745,0.9144856479221881,-0.0741877406835556,1.0534778833389282,0.9596353769302368,-0.48029619455337524,-0.32858341932296753,-0.8132333159446716,0.17733299732208252,0.039490461349487305,-0.11732393503189087
0.32983734504081624,-0.5255457484222643,0.923365726761548,0.067386694252491,1.1041085720062256,0.9881379008293152,-0.4746418595314026,-0.3238891363143921,-0.8184197545051575,0.16749772429466248,0.03780218958854675,-0.16565006971359253
0.3260756077413111,-0.5175831298297356,0.9334850829661573,0.234674334526062,1.1228235960006714,1.0488892793655396,-0.46870964765548706,-0.32032790780067444,-0.8232261538505554,0.14333128929138184,0.039917171001434326,-0.20329362154006958
0.32351820137625137,-0.5102975565242872,0.9452478439140228,0.41276657581329346,1.0751830339431763,1.1396335363388062,-0.4630981981754303,-0.31790420413017273,-0.8273312449455261,0.09472054243087769,0.05299639701843262,-0.23835790157318115
0.32213618766192725,-0.5041332894014213,0.9588743601659876,0.5952973961830139,1.0143626928329468,1.243948221206665,-0.4582013487815857,-0.31659358739852905,-0.8305540680885315,0.03669258952140808,0.06547975540161133,-0.2673158049583435
0.3219104511300965,-0.4992204277711403,0.9743571193226268,0.7667444944381714,0.9420678615570068,1.3426284790039062,-0.45414960384368896,-0.31637945771217346,-0.8328577876091003,-0.022428125143051147,0.07709115743637085,-0.28492480516433716
0.3226781587730478,-0.4954335917639979,0.9914201700387538,0.8991485834121704,0.8977882862091064,1.417504072189331,-0.4508768618106842,-0.317107617855072,-0.834357738494873,-0.08540847897529602,0.0908503532409668,-0.29392296075820923
0.32414605061724855,-0.49213286974508313,1.009507004526951,0.9706470370292664,0.9132031798362732,1.454201102256775,-0.4478999972343445,-0.3184994161128998,-0.8354302048683167,-0.15218237042427063,0.10931670665740967,-0.29402536153793335
0.3258786847985183,-0.4884757397227514,1.0280548879181681,0.9737062454223633,1.0062581300735474,1.473997950553894,-0.44458210468292236,-0.32014134526252747,-0.836574137210846,-0.21676427125930786,0.13576945662498474,-0.28970760107040405
0.3273019037537585,-0.4832817732724362,1.046600694477215,0.9007614254951477,1.229413390159607,1.4851092100143433,-0.44001883268356323,-0.3214893341064453,-0.8384677171707153,-0.281660795211792,0.1612873673439026,-0.28717321157455444
0.3278805751240561,-0.4752553424702612,1.0646027650117287,0.7626885771751404,1.5320487022399902,1.4785481691360474,-0.43318960070610046,-0.3220372498035431,-0.8418068289756775,-0.3538433909416199,0.18106135725975037,-0.2851462960243225
0.32729681896509505,-0.46401057121006445,1.0817849728680395,0.6010197401046753,1.8053966760635376,1.466245412826538,-0.42378056049346924,-0.3214845359325409,-0.8467925786972046,-0.401780903339386,0.20232871174812317,-0.26409298181533813
0.32551898867116996,-0.4501112620558063,1.0981331365271874,0.44875940680503845,2.0011279582977295,1.4654773473739624,-0.4122181832790375,-0.31980055570602417,-0.8531141877174377,-0.41137492656707764,0.20354390144348145,-0.22044849395751953
0.3226801910008932,-0.43467719653961195,1.1139830725099507,0.32318922877311707,2.066631317138672,1.4890425205230713,-0.3993832767009735,-0.3171095550060272,-0.8601944446563721,-0.3911440074443817,0.1833815574645996,-0.17267298698425293
0.31883948492732167,-0.4192246564125802,1.1297234281450854,0.21394573152065277,1.9856133460998535,1.5414937734603882,-0.3865368664264679,-0.3134647607803345,-0.8673690557479858,-0.3607775568962097,0.15634500980377197,-0.13075411319732666
0.3140162433824454,-0.40512177468549854,1.145716605307457,0.12185627967119217,1.8077112436294556,1.6204782724380493,-0.37485796213150024,-0.3088809549808502,-0.8741133213043213,-0.332112193107605,0.1353733241558075,-0.10054188966751099
0.30827832503628455,-0.3931105004355058,1.1622286743588017,0.044664762914180756,1.5896930694580078,1.7127279043197632,-0.36500489711761475,-0.3034185767173767,-0.8801753520965576,-0.30415400862693787,0.1218542754650116,-0.08886462450027466
0.3018620511100416,-0.3835277885395376,1.1795142579045281,0.02116183377802372,1.353344440460205,1.815690279006958,-0.3572749197483063,-0.2972985804080963,-0.8854197859764099,-0.27437785267829895,0.1145898699760437,-0.09355366230010986
0.2951545534945592,-0.3764924682597586,1.1978288132153525,0.035207971930503845,1.1298437118530273,1.9202063083648682,-0.35176217555999756,-0.290887713432312,-0.889745831489563,-0.24580246210098267,0.11246675252914429,-0.10862147808074951
0.2884751072504671,-0.37168294069749125,1.2172903851905652,0.08700885623693466,0.9543867111206055,2.0209054946899414,-0.3481767773628235,-0.2844906747341156,-0.8932177424430847,-0.22508060932159424,0.11050999164581299,-0.12855654954910278
0.2821534603354404,-0.3684399777017284,1.2379087022678283,0.16763915121555328,0.8630771040916443,2.108792781829834,-0.34591910243034363,-0.27842459082603455,-0.8960020542144775,-0.2219824492931366,0.10627496242523193,-0.15084242820739746
0.2764597562246198,-0.36580741413324575,1.259511117717208,0.2587685286998749,0.8566439747810364,2.162721633911133,-0.3441206216812134,-0.27295154333114624,-0.8983754515647888,-0.23400431871414185,0.10402154922485352,-0.16418558359146118
0.27155592378092497,-0.3631408033096405,1.2818526456791701,0.35432133078575134,0.8822392821311951,2.188674211502075,-0.3421951234340668,-0.268230676651001,-0.9005302786827087,-0.25221097469329834,0.10693001747131348,-0.15368419885635376
0.26751058822432516,-0.3602737546357041,1.3046052958382766,0.4377235472202301,0.8889621496200562,2.1841211318969727,-0.33999159932136536,-0.2643314003944397,-0.902515709400177,-0.26569071412086487,0.1037631630897522,-0.1179158091545105
0.26431327135522525,-0.3575252318011224,1.327502488565393,0.5103904008865356,0.8515519499778748,2.164829730987549,-0.33780378103256226,-0.2612464427947998,-0.9042338728904724,-0.26470473408699036,0.09324720501899719,-0.05980116128921509
0.26183139919790327,-0.3553073212778455,1.3503541242673853,0.5587651133537292,0.7695492506027222,2.130134105682373,-0.33602195978164673,-0.25884997844696045,-0.9055859446525574,-0.2565988600254059,0.08267199993133545,0.007407844066619873
0.25986474060390263,-0.35398215938957706,1.37293810003114,0.5819116830825806,0.6539968252182007,2.0820090770721436,-0.33499741554260254,-0.25694984197616577,-0.9065062403678894,-0.2531983256340027,0.07404276728630066,0.07098066806793213
0.25826230528579325,-0.3536408447599923,1.3949718609677295,0.5886143445968628,0.5377039909362793,2.007309675216675,-0.3348301649093628,-0.2554008662700653,-0.9070056080818176,-0.25231271982192993,0.06205680966377258,0.12480956315994263
0.2570319827673516,-0.3542117198289963,1.4161049033455078,0.5927481651306152,0.42316028475761414,1.8947075605392456,-0.33545663952827454,-0.2542111575603485,-0.9071083068847656,-0.2491380274295807,0.0518796443939209,0.16824722290039062
0.2562574886586999,-0.3554733167534327,1.435985866128849,0.5925852060317993,0.33560699224472046,1.7534217834472656,-0.3366691768169403,-0.2534620463848114,-0.9068686962127686,-0.24495002627372742,0.0506879985332489,0.20214152336120605
0.2559546252404729,-0.35707232419412444,1.454452293684516,0.5943902134895325,0.2832416296005249,1.606096625328064,-0.3381456732749939,-0.25316905975341797,-0.9064010977745056,-0.22859621047973633,0.05071544647216797,0.23116916418075562
0.25604755862249157,-0.35862010544447104,1.4715012936082723,0.5744082927703857,0.2741259038448334,1.4691991806030273,-0.33953991532325745,-0.25325894355773926,-0.9058545827865601,-0.20329147577285767,0.053551942110061646,0.25694406032562256
0.25635008511278556,-0.3597354162749429,1.4871145181827048,0.5384978652000427,0.29749277234077454,1.327683687210083,-0.34052303433418274,-0.2535516023635864,-0.9054036140441895,-0.18257874250411987,0.052288174629211426,0.2744068503379822
0.25677045799616727,-0.3601714100798151,1.5012126649787432,0.49507614970207214,0.3278046250343323,1.1863160133361816,-0.3408801555633545,-0.25395822525024414,-0.9051551818847656,-0.16966360807418823,0.04674386978149414,0.2861061096191406
0.2573335938625049,-0.3599546774271344,1.5137597777560308,0.4616541862487793,0.3521357774734497,1.034531593322754,-0.3406335413455963,-0.2545028626918793,-0.905095100402832,-0.1672094166278839,0.04428252577781677,0.27921003103256226
0.2583030908790406,-0.3589382371576131,1.524759310487481,0.4670683741569519,0.4104723334312439,0.879928469657898,-0.3396265506744385,-0.25544029474258423,-0.9052094221115112,-0.17029160261154175,0.04134422540664673,0.26160889863967896
0.260054772168797,-0.3569846374154222,1.534234889696345,0.5024141669273376,0.4579063355922699,0.7088999152183533,-0.33770060539245605,-0.25713348388671875,-0.9054505228996277,-0.16519850492477417,0.04317474365234375,0.2563111186027527
0.26285513665264326,-0.35439333450431976,1.542162485823394,0.5516906380653381,0.4615282118320465,0.5276270508766174,-0.33510199189186096,-0.25983867049217224,-0.9056437015533447,-0.15145498514175415,0.04664286971092224,0.2589609622955322
0.2667256969935798,-0.35158556215676523,1.5485101393740242,0.5938316583633423,0.42870453000068665,0.35571005940437317,-0.3322089910507202,-0.2635743319988251,-0.9056300520896912,-0.1321006417274475,0.05263686180114746,0.2707575559616089
0.27146962205941805,-0.34885226709794676,1.5534259402010797,0.6138061881065369,0.36938607692718506,0.2093973159790039,-0.32930126786231995,-0.2681475281715393,-0.9053494334220886,-0.10375836491584778,0.062352269887924194,0.28640711307525635
0.27670917167771975,-0.3466389983172196,1.5570371591411243,0.5990060567855835,0.25573766231536865,0.0876099020242691,-0.3268148601055145,-0.2731914818286896,-0.9047421813011169,-0.0658547580242157,0.07015806436538696,0.29603856801986694
0.28206020041027785,-0.345605763539891,1.5595027810626383,0.5631479024887085,0.08135280758142471,-0.0009939975570887327,-0.32537999749183655,-0.2783350348472595,-0.9036909937858582,-0.019193917512893677,0.07308909296989441,0.28619831800460815
0.2872944945546616,-0.3461100677100298,1.561093244482888,0.5215736031532288,-0.0884736105799675,-0.05950678512454033,-0.3253369927406311,-0.283358633518219,-0.9021439552307129,0.04336988925933838,0.06964406371116638,0.2408127784729004
0.2922820219268689,-0.34795372192933266,1.562140242286935,0.4824519753456116,-0.21417534351348877,-0.08915069699287415,-0.32651373744010925,-0.288138210773468,-0.9002028107643127,0.09349682927131653,0.06181985139846802,0.17142778635025024
0.2969936032407492,-0.35069170083506596,1.5627320500966033,0.4354245364665985,-0.29418590664863586,-0.13129138946533203,-0.3285071849822998,-0.29264676570892334,-0.8980205655097961,0.11705097556114197,0.05177152156829834,0.09353137016296387
0.3014820607734557,-0.35382615246837,1.5625652260388114,0.3967532813549042,-0.33144405484199524,-0.20892466604709625,-0.3308619260787964,-0.2969357371330261,-0.8957452178001404,0.11559098958969116,0.04165619611740112,-0.006552755832672119
0.30611169609183086,-0.3564993997529884,1.561437720052114,0.3984125256538391,-0.24457435309886932,-0.31933513283729553,-0.3327719569206238,-0.3013533651828766,-0.8935597538948059,0.08660197257995605,0.030403047800064087,-0.13094592094421387
0.31140097889973656,-0.35718233430342483,1.5590726420672676,0.43714529275894165,-0.025577029213309288,-0.4768286347389221,-0.3328201472759247,-0.3063925504684448,-0.8918264508247375,0.04281166195869446,0.019740939140319824,-0.24289345741271973
0.3178089978655656,-0.3548261093388054,1.555071091710932,0.49591007828712463,0.2495202124118805,-0.687537670135498,-0.3300289809703827,-0.31248602271080017,-0.8907487988471985,-0.007495373487472534,0.014832824468612671,-0.3214094638824463
0.3255583797574828,-0.3489478371561665,1.5489064716122531,0.5532223582267761,0.5327548980712891,-0.9401635527610779,-0.32394954562187195,-0.31983789801597595,-0.8903709650039673,-0.042520731687545776,0.018553107976913452,-0.357660710811615
0.3347209512113543,-0.33950814344666286,1.540274682453317,0.6094026565551758,0.7866798639297485,-1.2074962854385376,-0.314541220664978,-0.32850563526153564,-0.8905885219573975,-0.0498080849647522,0.023055195808410645,-0.3536437153816223
0.34499430862049124,-0.3268981709318151,1.5290730580506022,0.6281986832618713,0.9745701551437378,-1.450543761253357,-0.3021865487098694,-0.33819133043289185,-0.891240656375885,-0.04160916805267334,0.03387007117271423,-0.3177284598350525
0.3557723321117938,-0.31185465187477684,1.515376479999247,0.5977500081062317,1.075802206993103,-1.647767186164856,-0.28761032223701477,-0.34831443428993225,-0.892164409160614,-0.020769745111465454,0.05926722288131714,-0.250200092792511
0.3663663016304136,-0.2952997185074831,1.4996338568448078,0.5360453724861145,1.1105858087539673,-1.7728021144866943,-0.27171269059181213,-0.3582252562046051,-0.8932227492332458,0.02174326777458191,0.0934089720249176,-0.17733389139175415
0.37629670789042313,-0.2778936732266297,1.4826404467058016,0.4690646827220917,1.1319137811660767,-1.804980754852295,-0.2551363408565521,-0.3674788177013397,-0.894351601600647,0.08277308940887451,0.1314711570739746,-0.1165890097618103
0.3853490067566451,-0.2600109896736799,1.4652501529147324,0.4145423173904419,1.143674373626709,-1.7732013463974,-0.23823797702789307,-0.3758825659751892,-0.8955193758010864,0.14050549268722534,0.1644110381603241,-0.07558047771453857
0.3935345993771233,-0.2418797021658348,1.4480147349413293,0.3773697316646576,1.169023036956787,-1.7087693214416504,-0.22121837735176086,-0.38345521688461304,-0.8966741561889648,0.17841753363609314,0.19101136922836304,-0.049370765686035156
0.400976591087089,-0.22333779546066798,1.4312938968433158,0.35565298795700073,1.242644190788269,-1.6219245195388794,-0.20391756296157837,-0.3903176486492157,-0.8978139162063599,0.18266212940216064,0.20966887474060059,-0.03242295980453491
0.4078044850245372,-0.2039941941601208,1.4153267748419263,0.3542066216468811,1.370489478111267,-1.5270012617111206,-0.1859693080186844,-0.3965948224067688,-0.8989593982696533,0.15502452850341797,0.2213018834590912,-0.02315974235534668
0.41417765081739333,-0.18337764683345176,1.400110839915736,0.35443219542503357,1.528096318244934,-1.4532066583633423,-0.1669333577156067,-0.4024372398853302,-0.9000986218452454,0.10673747956752777,0.2238636612892151,-0.008455455303192139
0.42008840837442735,-0.1615051888538739,1.3851998915644839,0.33544257283210754,1.6160587072372437,-1.435463547706604,-0.14682254195213318,-0.40784117579460144,-0.9011707305908203,0.052584320306777954,0.21869325637817383,0.018571853637695312
0.425375037269082,-0.13904951243027133,1.3700038920820101,0.28937068581581116,1.6063836812973022,-1.4576263427734375,-0.126250222325325,-0.41266241669654846,-0.9020923376083374,0.011626258492469788,0.20125195384025574,0.0507282018661499
0.4297726369810573,-0.11675785953224986,1.3542438461085098,0.21285609900951385,1.5218409299850464,-1.4905109405517578,-0.10589896142482758,-0.41666412353515625,-0.9028711915016174,-0.011914089322090149,0.17435458302497864,0.07601267099380493
0.4330598209248651,-0.09538615399702614,1.3379236168078834,0.12756890058517456,1.3751060962677002,-1.513206124305725,-0.08644943684339523,-0.4196501076221466,-0.9035598039627075,-0.01578439772129059,0.1515989899635315,0.08597862720489502
0.43517286370711517,-0.07535421593026821,1.3212899331463086,0.03375022113323212,1.2222636938095093,-1.5186940431594849,-0.06826633960008621,-0.4215671718120575,-0.9042238593101501,-0.014634601771831512,0.1427890956401825,0.07620567083358765
0.4360429299068789,-0.05675473720568226,1.304527674485248,-0.06283650547266006,1.0769016742706299,-1.5175349712371826,-0.051416583359241486,-0.422355979681015,-0.9049705862998962,-0.022588491439819336,0.14286074042320251,0.05342334508895874
0.43566517550301603,-0.039466222193855115,1.2877479427892626,-0.16085931658744812,0.9672346115112305,-1.5117353200912476,-0.03577037528157234,-0.422013521194458,-0.9058835506439209,-0.03815839812159538,0.14541751146316528,0.019332706928253174
0.43405272200047557,-0.022974422203766557,1.270967456561215,-0.2562819719314575,0.9231582283973694,-1.5091358423233032,-0.020842144265770912,-0.4205511510372162,-0.907029390335083,-0.05331552028656006,0.13708865642547607,-0.023466825485229492
0.43122823403077376,-0.006627116433584201,1.2542293092922168,-0.3494955897331238,0.9439248442649841,-1.5162081718444824,-0.006020380184054375,-0.4179868996143341,-0.9084330797195435,-0.0708533450961113,0.121462881565094,-0.07244765758514404
0.4272640099502467,0.010175113333897808,1.237374031644891,-0.4318229556083679,1.012058973312378,-1.5439116954803467,0.009260240010917187,-0.41438233852386475,-0.9100558161735535,-0.08807183802127838,0.10072270035743713,-0.12272012233734131
0.42234312125759005,0.027944109728349053,1.2201930370013179,-0.48643508553504944,1.123773217201233,-1.597373366355896,0.02548537217080593,-0.4098988175392151,-0.9117748737335205,-0.1004975289106369,0.07524311542510986,-0.17652767896652222
0.4167045751608314,0.047068911989105726,1.202560916243107,-0.5123921632766724,1.256462812423706,-1.6535818576812744,0.04302522540092468,-0.40474921464920044,-0.9134149551391602,-0.1050368919968605,0.05411753058433533,-0.22338008880615234
0.410595274489372,0.06740637720032423,1.184576027039207,-0.5092228651046753,1.3474369049072266,-1.6889656782150269,0.06175699457526207,-0.3991551995277405,-0.9148011803627014,-0.09619602560997009,0.042877763509750366,-0.2551054358482361
0.4043735602014241,0.08822576352824345,1.1666288280082577,-0.47037720680236816,1.3798164129257202,-1.6750432252883911,0.08100508898496628,-0.39344292879104614,-0.915773332118988,-0.0709647536277771,0.03707394003868103,-0.27047544717788696
0.3982858145228756,0.10880232351075624,1.1492835564349233,-0.4265146255493164,1.3658599853515625,-1.6053599119186401,0.10008831322193146,-0.3878389000892639,-0.9162768721580505,-0.03607764095067978,0.03232443332672119,-0.27062803506851196
0.39242012192362924,0.1283606547499687,1.1330944224981412,-0.38052690029144287,1.2841377258300781,-1.485156536102295,0.11827805638313293,-0.3824256956577301,-0.9163846969604492,-0.0006479993462562561,0.02732318639755249,-0.2658662796020508
0.3869618622286919,0.14630682663633351,1.1184578584273088,-0.32718542218208313,1.1857298612594604,-1.3317360877990723,0.13500602543354034,-0.3773766756057739,-0.9161660671234131,0.024784058332443237,0.013073116540908813,-0.2664511203765869
0.38213188371817386,0.16248644185022168,1.1056149862728977,-0.2588859796524048,1.077440619468689,-1.16298246383667,0.15010403096675873,-0.37289944291114807,-0.915649950504303,0.04235510528087616,-0.005136996507644653,-0.2660974860191345
0.37811286769229824,0.1767725339249937,1.0945307159002824,-0.18346229195594788,0.949526846408844,-0.9982923269271851,0.1634315699338913,-0.369167298078537,-0.914880096912384,0.049428582191467285,-0.019382447004318237,-0.26320523023605347
0.3749827024249611,0.18899846828884823,1.0850104004275913,-0.10723542422056198,0.7849410772323608,-0.8550728559494019,0.17482058703899384,-0.366256445646286,-0.9139441847801208,0.04362426698207855,-0.0318148136138916,-0.2593955993652344
0.3727562012222187,0.19892945531297043,1.076688245540343,-0.030233711004257202,0.5856492519378662,-0.7512659430503845,0.1840488761663437,-0.3641837239265442,-0.9129601120948792,0.0180538147687912,-0.048215508460998535,-0.2578467130661011
0.37143670142451723,0.20656171740815815,1.0690925083603855,0.06021735817193985,0.3901716470718384,-0.6889296174049377,0.1911097913980484,-0.3629545271396637,-0.9119983911514282,-0.01038464903831482,-0.06400161981582642,-0.2670940160751343
0.37113194056627885,0.21244951887033622,1.061729328143046,0.16632768511772156,0.26316365599632263,-0.6642447710037231,0.19649942219257355,-0.36267054080963135,-0.9109654426574707,-0.038677722215652466,-0.07168611884117126,-0.2792201042175293
0.3719061157607364,0.21747550338453614,1.0542519036388038,0.28025558590888977,0.21075931191444397,-0.6614982485771179,0.20101478695869446,-0.3633919060230255,-0.9096919298171997,-0.05918428301811218,-0.0624350905418396,-0.2858494520187378
0.37372744671888847,0.22241060542004887,1.046537391434383,0.3867291510105133,0.22159968316555023,-0.6581916809082031,0.20535540580749512,-0.3650881052017212,-0.908041775226593,-0.06645458936691284,-0.04117709398269653,-0.278023898601532
0.37648563569333715,0.22773553130401014,1.0386466811792847,0.47093406319618225,0.2689474821090698,-0.6447943449020386,0.20995958149433136,-0.3676545321941376,-0.9059509634971619,-0.06596234440803528,-0.02139878273010254,-0.24852901697158813
0.37988708898000567,0.23368952850165567,1.0307959212531423,0.5161280035972595,0.3442888855934143,-0.6143417358398438,0.21505902707576752,-0.37081560492515564,-0.9034630060195923,-0.05893103778362274,-0.006000161170959473,-0.20424878597259521
0.3836428430135939,0.24044015393976376,1.0232253183515903,0.533883273601532,0.4392921030521393,-0.5645813345909119,0.22081981599330902,-0.3743009865283966,-0.9006316661834717,-0.05195075273513794,0.011172354221343994,-0.14960026741027832
0.3875070096308388,0.2478781530954542,1.016175172766619,0.5247394442558289,0.5114755034446716,-0.5128953456878662,0.22715598344802856,-0.3778814375400543,-0.8975554704666138,-0.05082535743713379,0.024960964918136597,-0.08326423168182373
0.3912258445196149,0.2556461305362032,1.009665133155391,0.4929545819759369,0.5375744700431824,-0.46604663133621216,0.23376427590847015,-0.3813219368457794,-0.894398033618927,-0.05667072534561157,0.03319269418716431,-0.012401282787322998
0.394704823347953,0.2631367916708055,1.0037219296890352,0.4586865305900574,0.494234174489975,-0.4151756465435028,0.24011076986789703,-0.3845357298851013,-0.8913355469703674,-0.06120142340660095,0.038268089294433594,0.05539804697036743
