attitudeX,attitudeY,attitudeZ,gyroX,gyroY,gyroZ,gravityX,gravityY,gravityZ,accX,accY,accZ
1.5307819168079602,-1.6619637390452622,1.264714249605153,0.12670870125293732,0.1357412040233612,0.06863706558942795,-0.039841145277023315,-0.9991995096206665,0.003642310854047537,-0.03419450297951698,-0.03583472967147827,-0.06798839569091797
1.5299170794502557,-1.6971710418141153,1.301725763382096,0.1783607006072998,0.21051184833049774,0.07199238240718842,-0.04054323211312294,-0.9991645812988281,0.005151090677827597,-0.03420957550406456,-0.05526357889175415,-0.07706558704376221
1.5288308339510457,-1.7365650244797637,1.3433094746904,0.18372440338134766,0.2105855494737625,0.10053666681051254,-0.04137955605983734,-0.9991195797920227,0.006922964472323656,-0.02086104452610016,-0.06527256965637207,-0.05234813690185547
1.5272010659106325,-1.769331798030786,1.3779552934003054,0.15985529124736786,0.14766278862953186,0.17787699401378632,-0.04272883012890816,-0.9990499019622803,0.008596433326601982,0.02408258244395256,-0.08476680517196655,0.002847909927368164
1.5248044994291945,-1.789984488028111,1.399618573970862,0.1315126121044159,0.049846433103084564,0.2555655539035797,-0.04487592726945877,-0.9989425539970398,0.00999688170850277,0.07418805360794067,-0.1077774167060852,0.040876150131225586
1.5218063648927602,-1.8047656356966895,1.414407325615811,0.14249202609062195,-0.05031531676650047,0.2953539788722992,-0.04763707146048546,-0.9988002181053162,0.011353543028235435,0.09297093749046326,-0.12624555826187134,0.045882344245910645
1.5184966830185236,-1.8227031399882807,1.43133744915416,0.1892431080341339,-0.14766962826251984,0.30335038900375366,-0.0506298653781414,-0.9986326694488525,0.01303081400692463,0.07296872138977051,-0.144250750541687,0.019058585166931152
1.5151001920523208,-1.851155525968528,1.4582086711747646,0.2741084694862366,-0.16782549023628235,0.2673255503177643,-0.053495924919843674,-0.9984493851661682,0.015403791330754757,0.03024151921272278,-0.15625959634780884,-0.0190809965133667
1.5119241956046896,-1.8928159716739636,1.4983192863815664,0.3561849892139435,-0.15093488991260529,0.19933469593524933,-0.05581695958971977,-0.9982675313949585,0.018622344359755516,-0.019958194345235825,-0.15760111808776855,-0.05454134941101074
1.5090597640371795,-1.9464666101876715,1.550731025105461,0.43302491307258606,-0.11387726664543152,0.11752265691757202,-0.057396236807107925,-0.998094916343689,0.022637128829956055,-0.05026978254318237,-0.15069365501403809,-0.07474565505981445
1.506477680544848,-2.0083185766542284,1.6117869321233336,0.46832579374313354,-0.06667158007621765,0.05371687933802605,-0.05822226405143738,-0.9979322552680969,0.027233880013227463,-0.05432657152414322,-0.14824706315994263,-0.07627534866333008
1.5040817064183183,-2.0697851100983415,1.673049155612604,0.45712828636169434,0.002712021581828594,0.012622173875570297,-0.05853832885622978,-0.9977753758430481,0.03190281614661217,-0.043283574283123016,-0.14373469352722168,-0.057598356157541275
1.5019475807579523,-2.1249732903458654,1.7287498952740512,0.4057866632938385,0.07498901337385178,-0.023342419415712357,-0.058501411229372025,-0.9976308345794678,0.03620459884405136,-0.03730854392051697,-0.13655519485473633,-0.02788829430937767
1.5002107232064896,-2.17243437504398,1.777355065659888,0.35121557116508484,0.12609215080738068,-0.056486260145902634,-0.05814455449581146,-0.9975098967552185,0.03991881012916565,-0.042731303721666336,-0.12303465604782104,-0.0036942996084690094
1.498839250105687,-2.215308669060938,1.8216924502170053,0.3241274654865265,0.13833904266357422,-0.08792832493782043,-0.05747413635253906,-0.9974122047424316,0.043196484446525574,-0.036809928715229034,-0.10570681095123291,0.004823207855224609
1.4975884452987651,-2.257621194988933,1.8653954188330906,0.3242454528808594,0.11357482522726059,-0.10499972105026245,-0.056560106575489044,-0.9973214864730835,0.04637996852397919,-0.026020467281341553,-0.08715128898620605,-0.004601240158081055
1.4962821399878141,-2.29972412091784,1.90862304631363,0.3292773962020874,0.08463979512453079,-0.10973367094993591,-0.055528707802295685,-0.9972251057624817,0.04958649352192879,-0.013593610376119614,-0.06747221946716309,-0.011744502931833267
1.4948128188896443,-2.3424597048909224,1.9521369203517822,0.3493182063102722,0.043618589639663696,-0.12082893401384354,-0.05441087856888771,-0.9971146583557129,0.05293639376759529,-0.007143080234527588,-0.047395408153533936,-0.009524822235107422
1.4931334286963687,-2.3872608567786577,1.997309359824928,0.374004989862442,0.008671358227729797,-0.13520333170890808,-0.05313102900981903,-0.9969857335090637,0.056539181619882584,-0.006179880350828171,-0.02671116590499878,-0.01065576821565628
1.4911509088040689,-2.4330040668035413,2.043142597885661,0.3982469439506531,-0.019135238602757454,-0.13394631445407867,-0.05177653953433037,-0.9968299865722656,0.06041056662797928,-0.002605792135000229,-0.0004998445510864258,-0.018235091120004654
1.4888638780152403,-2.477460294599778,2.0874673693537145,0.40501150488853455,-0.03204089030623436,-0.12934915721416473,-0.05044493079185486,-0.9966453909873962,0.06444596499204636,0.0007012784481048584,0.02385181188583374,-0.014503724873065948
1.4863844495809677,-2.5195857065928036,2.1293918546438304,0.40400776267051697,-0.03498794510960579,-0.12748149037361145,-0.04912622645497322,-0.9964394569396973,0.06852179020643234,-0.0023874491453170776,0.04215472936630249,-0.0031223371624946594
1.4837758613019265,-2.558614164937346,2.168069283127012,0.40005791187286377,-0.070235975086689,-0.11697825789451599,-0.04784712567925453,-0.9962161183357239,0.07255788892507553,7.184222340583801e-05,0.06773382425308228,0.006879694759845734
1.4809004942466517,-2.593092227315922,2.2016437729786604,0.4010997414588928,-0.13783127069473267,-0.07116416096687317,-0.046810250729322433,-0.9959620833396912,0.07660702615976334,0.020259950309991837,0.09943181276321411,0.0174483060836792
1.477652757492741,-2.620840124413655,2.227800627713077,0.40077072381973267,-0.19616200029850006,-0.007118254899978638,-0.04627591744065285,-0.9956652522087097,0.0806816965341568,0.03945523127913475,0.13438278436660767,0.024802446365356445
1.4740135825806175,-2.6410297762198103,2.2458460129433564,0.3965437412261963,-0.24234707653522491,0.06446937471628189,-0.04637625440955162,-0.995320200920105,0.08477770537137985,0.047490134835243225,0.17160487174987793,0.03396642208099365
1.4700575933618993,-2.6547134999759185,2.2570044527819975,0.4007468521595001,-0.27031567692756653,0.11498784273862839,-0.04705340415239334,-0.9949301481246948,0.08888296782970428,0.04806048423051834,0.20817166566848755,0.04281579703092575
1.4659382317322123,-2.665091771230598,2.264538147878347,0.40152931213378906,-0.30429789423942566,0.1226995512843132,-0.04800816997885704,-0.9945074319839478,0.09300819784402847,0.033985335379838943,0.2263493537902832,0.03930103778839111
1.4619204931677423,-2.6777188209535945,2.2741040537628283,0.4014517366886139,-0.3154914081096649,0.04888676106929779,-0.048617392778396606,-0.9940788745880127,0.09717981517314911,-0.013318043202161789,0.21519386768341064,0.025531530380249023
1.4584571110143287,-2.6972298290925183,2.290485193902877,0.37288081645965576,-0.3251318037509918,-0.07547380775213242,-0.048191580921411514,-0.9936965703964233,0.10121702402830124,-0.055476631969213486,0.19993430376052856,0.01590966433286667
1.4560447964825096,-2.724517888830209,2.314785511916765,0.28862738609313965,-0.29651111364364624,-0.22003068029880524,-0.04638255015015602,-0.9934232831001282,0.10468482226133347,-0.06828725337982178,0.20320111513137817,0.026708826422691345
1.4550868721018422,-2.756579917275501,2.3443476395344276,0.14832352101802826,-0.2367926687002182,-0.32046887278556824,-0.04336040839552879,-0.9933131337165833,0.10700016468763351,-0.06480914354324341,0.22016555070877075,0.053171612322330475
1.4556669638236297,-2.7882106860778215,2.374181880544564,-0.007629203610122204,-0.1632269322872162,-0.3510841429233551,-0.03975576534867287,-0.9933799505233765,0.1077783927321434,-0.04418283700942993,0.25387781858444214,0.06768262386322021
1.4574956860590256,-2.814856526814306,2.3997608688645284,-0.13624176383018494,-0.08483172953128815,-0.3107103705406189,-0.03628706932067871,-0.9935883283615112,0.10707873106002808,-0.001737833023071289,0.2982757091522217,0.05153656005859375
1.4599300307115575,-2.8318444880991356,2.4162602071847434,-0.19876989722251892,-0.0388689860701561,-0.18431344628334045,-0.03372550383210182,-0.9938606023788452,0.10537578165531158,0.056262727826833725,0.3404790759086609,0.008836522698402405
1.4621272084570052,-2.835154992317026,2.419267728611078,-0.18990875780582428,-0.03221028298139572,-0.005058464594185352,-0.03271782770752907,-0.994101345539093,0.10340519994497299,0.10684502124786377,0.3780428171157837,-0.047542572021484375
1.4633932935386538,-2.8222453183449447,2.4059678706918017,-0.13338309526443481,-0.021532341837882996,0.19623251259326935,-0.03365490585565567,-0.9942378401756287,0.10177938640117645,0.12935802340507507,0.39865654706954956,-0.09025882184505463
1.4633930594548552,-2.794417997570859,2.377996498312826,-0.06053472310304642,0.018607087433338165,0.36097753047943115,-0.03647386655211449,-0.9942378401756287,0.10080388933420181,0.1364647001028061,0.4123436212539673,-0.10219214856624603
1.4621224860404065,-2.757045925633128,2.34063647042999,0.008790692314505577,0.021695490926504135,0.47296658158302307,-0.04068844020366669,-0.99410080909729,0.1005411446094513,0.1299523413181305,0.435552716255188,-0.0876624584197998
1.4597779771377757,-2.71629343190853,2.29966337976382,0.06379561871290207,-0.023183833807706833,0.5266109108924866,-0.04571161046624184,-0.9938437938690186,0.10092117637395859,0.09215936809778214,0.46283793449401855,-0.07440115511417389
1.4568633156814508,-2.6774680144476086,2.2599502294447964,0.06636737287044525,-0.11090230196714401,0.5157773494720459,-0.05089161545038223,-0.9935166239738464,0.10166196525096893,0.05978748947381973,0.5009627938270569,-0.06127166748046875
1.4543810519853186,-2.6426916011068937,2.223561332627446,-0.02385386824607849,-0.1419219970703125,0.4470307528972626,-0.05557473376393318,-0.9932314157485962,0.10199511051177979,0.010088279843330383,0.5515351891517639,-0.023320570588111877
1.4532678414053648,-2.6092984605463307,2.1890021346429616,-0.18871086835861206,-0.02432188391685486,0.36307770013809204,-0.0595102421939373,-0.9931014776229858,0.10103555768728256,-0.021239276975393295,0.5971968770027161,0.008949987590312958
1.4543166128366325,-2.5715919535360277,2.151610093989787,-0.4572046399116516,0.11920038610696793,0.26605769991874695,-0.06271471083164215,-0.9932239055633545,0.09784351289272308,-0.016493670642375946,0.6153857111930847,0.023113124072551727
1.4583941188989211,-2.5256954339986084,2.1070003295811106,-0.7956027984619141,0.20687466859817505,0.11625073105096817,-0.06479726731777191,-0.9936895370483398,0.09155606478452682,-0.02039254456758499,0.6398077011108398,0.07114850729703903
1.4660933691159506,-2.4664633931347155,2.0505864894466526,-1.1677325963974,0.4572831988334656,-0.06374220550060272,-0.0653194859623909,-0.9945236444473267,0.0815843865275383,-0.026477381587028503,0.6673905253410339,0.10397790372371674
1.477224840963566,-2.380209152899612,1.9706470155087417,-1.5367578268051147,0.8778235912322998,-0.193430095911026,-0.06446366757154465,-0.995625376701355,0.06763662397861481,0.003153853118419647,0.7046249508857727,0.06932639330625534
1.4904610693926241,-2.240693640164538,1.8414387699487618,-1.8762390613555908,1.2740440368652344,-0.23786920309066772,-0.0629071369767189,-0.9967748522758484,0.049827925860881805,0.03722658008337021,0.7556095719337463,0.0345991849899292
1.5032718903605546,-2.0057327441581765,1.6206319880090778,-2.2304530143737793,1.6653646230697632,-0.21189501881599426,-0.06119462475180626,-0.9977210760116577,0.028431594371795654,0.060996245592832565,0.8274632692337036,0.03289366140961647
1.511016467025514,-1.6196807664229314,1.2523815948617958,-2.6423380374908447,2.021906852722168,-0.15029317140579224,-0.059675753116607666,-0.9982137084007263,0.002919541671872139,0.09496931731700897,0.8861225247383118,0.05085265636444092
1.5067413850982954,-1.1392978909109424,0.7929083181186964,-3.020585298538208,2.3005926609039307,-0.10766640305519104,-0.05814753472805023,-0.9979491829872131,-0.02677321247756481,0.12395866960287094,0.8891690373420715,0.10164827108383179
1.488414226563828,-0.7489284169667295,0.42549711857840594,-3.401416063308716,2.4442214965820312,-0.11644232273101807,-0.05602850392460823,-0.9966084957122803,-0.06027182936668396,0.13796818256378174,0.8773609399795532,0.12380963563919067
1.4600181579309999,-0.4963790479227518,0.19633235437791277,-3.716132402420044,2.38881778717041,-0.1838647872209549,-0.05265040695667267,-0.9938703775405884,-0.09721089899539948,0.13797754049301147,0.866733968257904,0.1501132845878601
1.4258544282741625,-0.336419689530707,0.05754100024675627,-3.903761625289917,2.0111260414123535,-0.2961830496788025,-0.047679558396339417,-0.9895142912864685,-0.13633884489536285,0.12438547611236572,0.8371552228927612,0.17111380398273468
1.389002596507236,-0.23177775986667226,-0.031209766161634022,-3.925353765487671,1.367809772491455,-0.4076072573661804,-0.04152998700737953,-0.9835209846496582,-0.17596007883548737,0.09760601818561554,0.7883304357528687,0.167277991771698
1.351945169872109,-0.16323730572464962,-0.0906846684850477,-3.7523276805877686,0.6936987042427063,-0.4446166753768921,-0.03528301790356636,-0.9761475324630737,-0.21422229707241058,0.08188334107398987,0.746990978717804,0.10326054692268372
1.3168500777910548,-0.12037485241072149,-0.12997845255675064,-3.4190754890441895,0.25915783643722534,-0.3769368827342987,-0.030168335884809494,-0.9679285883903503,-0.24940825998783112,0.0828263983130455,0.7111229300498962,-0.04520830512046814
1.2849220815978788,-0.09491645122093804,-0.15561799833825163,-3.0488803386688232,-0.11254142969846725,-0.3020991086959839,-0.026725955307483673,-0.9594154953956604,-0.2807273864746094,0.05394762009382248,0.6452521085739136,-0.1810491681098938
1.2566181682390456,-0.07968479675353762,-0.1743006843335087,-2.6672134399414062,-0.3805762529373169,-0.3114483058452606,-0.02459936961531639,-0.9510506987571716,-0.30805477499961853,-0.005109507590532303,0.5496833324432373,-0.28889942169189453
1.2320110978027308,-0.06795195804420703,-0.19104231105277378,-2.3148813247680664,-0.4250798225402832,-0.4009118676185608,-0.02256591059267521,-0.9431591033935547,-0.331574946641922,-0.061021752655506134,0.41065770387649536,-0.3993208408355713
1.2102818744926287,-0.05633740519244278,-0.20816852840463843,-2.1040399074554443,-0.4871762692928314,-0.4939807653427124,-0.01986284740269184,-0.9357154965400696,-0.3521963655948639,-0.1037028431892395,0.24328672885894775,-0.42815321683883667
1.1897850274991613,-0.04561716634118073,-0.22573738211764396,-2.0498502254486084,-0.6366299390792847,-0.5686584711074829,-0.016957297921180725,-0.9282890558242798,-0.3714727759361267,-0.10274791717529297,0.048284053802490234,-0.35824811458587646
1.1692839634788263,-0.03571126380508564,-0.24410628507388885,-2.1073503494262695,-0.7730586528778076,-0.6631214618682861,-0.013953386805951595,-0.9204710125923157,-0.3905617892742157,-0.07009202986955643,-0.17469817399978638,-0.3296376168727875
1.1473477661185085,-0.026300199366457673,-0.26350192208321443,-2.3327577114105225,-0.871281087398529,-0.7445369362831116,-0.010805687867105007,-0.9116773009300232,-0.41076481342315674,-0.029340192675590515,-0.4124041795730591,-0.30298009514808655
1.1220115174961238,-0.017522750496493336,-0.2825435928305394,-2.768660068511963,-0.8200896978378296,-0.734529972076416,-0.007602224592119455,-0.9009749889373779,-0.4338044226169586,0.04510832205414772,-0.6713822484016418,-0.24731722474098206
1.092065559394219,-0.010827265393788898,-0.2989690762399854,-3.204608917236328,-0.7611712217330933,-0.6375637650489807,-0.00498751737177372,-0.8875803351402283,-0.4606262445449829,0.11811617016792297,-0.9097983837127686,-0.22357773780822754
1.0586766923793853,-0.006780965836602845,-0.31135434402880885,-3.4224040508270264,-0.5968507528305054,-0.4686829149723053,-0.003322824602946639,-0.8717077970504761,-0.49001482129096985,0.19025824964046478,-1.0984461307525635,-0.3460751175880432
1.024861298918958,-0.0054566540305351595,-0.3189145471145002,-3.267764091491699,-0.4413793981075287,-0.24450385570526123,-0.002833176404237747,-0.8546421527862549,-0.5192098021507263,0.23617057502269745,-1.2977932691574097,-0.5903024077415466
0.9944923883322218,-0.006864282411813708,-0.32132956106744215,-2.7524824142456055,-0.2392548769712448,0.03401799872517586,-0.0037405146285891533,-0.8384824395179749,-0.5449157953262329,0.24298305809497833,-1.45772123336792,-0.9033414721488953
0.9703388770718051,-0.01055693118485797,-0.3185245076304829,-2.042858839035034,-0.033959247171878815,0.30967727303504944,-0.005964766256511211,-0.8250772356987,-0.5649884939193726,0.2400040626525879,-1.6205101013183594,-1.1586594581604004
0.9537151682371253,-0.0154610780550923,-0.3116803805360412,-1.2573411464691162,0.1695052683353424,0.5039861798286438,-0.008946307003498077,-0.8155709505081177,-0.5785880088806152,0.18610084056854248,-1.7610893249511719,-1.2890571355819702
0.9449826107948346,-0.02108732444156143,-0.3018950153887221,-0.4665718376636505,0.28628382086753845,0.665656328201294,-0.012351133860647678,-0.8104867339134216,-0.5856268405914307,0.1289282739162445,-1.8920891284942627,-1.3176321983337402
0.943941895309285,-0.028161862262736113,-0.28917407973563547,0.29219159483909607,0.350671648979187,0.8227552175521851,-0.016517572104930878,-0.8098766803741455,-0.5863676071166992,0.09282676875591278,-1.979246973991394,-1.2644469738006592
0.9501334636965243,-0.03690876996591168,-0.2738462563526311,0.991521954536438,0.3809581696987152,0.9127141237258911,-0.02146032825112343,-0.8134931325912476,-0.5811784863471985,0.027533315122127533,-2.0259997844696045,-1.1693096160888672
0.9628705222968575,-0.04712250235320199,-0.2566813917026565,1.6170282363891602,0.370340496301651,0.9440439939498901,-0.026904819533228874,-0.8208345174789429,-0.5705321431159973,-0.06420542299747467,-2.0042388439178467,-1.0552916526794434
0.9813352562446234,-0.058289775201721565,-0.23844981504435397,2.152618169784546,0.41842013597488403,0.8961672782897949,-0.03238571807742119,-0.8312404155731201,-0.5549691915512085,-0.1728602647781372,-1.9160590171813965,-0.9214863777160645
1.0043861151021114,-0.0689709424507243,-0.22020908391582955,2.5335679054260254,0.4880354106426239,0.7900835871696472,-0.03698091208934784,-0.8438327312469482,-0.5353305339813232,-0.28169891238212585,-1.7988827228546143,-0.7836847901344299
1.0302107249980517,-0.07893819263936822,-0.20262828247711787,2.7151777744293213,0.5023706555366516,0.6630153656005859,-0.040582433342933655,-0.8574074506759644,-0.5130356550216675,-0.32982468605041504,-1.6849205493927002,-0.5938672423362732
1.0571213835870186,-0.08776046467851165,-0.18656878362174342,2.7480764389038086,0.5072270035743713,0.49046409130096436,-0.0430685356259346,-0.870944619178772,-0.48949041962623596,-0.331839919090271,-1.58811616897583,-0.4083060622215271
1.083804177178358,-0.09415310275586483,-0.17333661342167297,2.643676996231079,0.5331922769546509,0.28646916151046753,-0.043995749205350876,-0.8837444186210632,-0.46589723229408264,-0.34296715259552,-1.477980375289917,-0.27737361192703247
1.1088828950628615,-0.09708469589335818,-0.1638362462079912,2.403163433074951,0.5694003701210022,0.10089175403118134,-0.04319903999567032,-0.8952013850212097,-0.4435635507106781,-0.3244309723377228,-1.3634657859802246,-0.16382765769958496
1.1316040838633572,-0.09639441606938565,-0.15796964135728458,2.1644015312194824,0.6157827973365784,-0.02256733924150467,-0.0409243144094944,-0.9050953984260559,-0.4232349097728729,-0.2535398006439209,-1.2331798076629639,-0.10209453105926514
1.152624754823996,-0.09318776608113818,-0.15474537588908932,2.0549418926239014,0.6054424047470093,-0.10776358097791672,-0.037787918001413345,-0.91383296251297,-0.40432849526405334,-0.18206073343753815,-1.0648963451385498,-0.16343563795089722
1.1735320536239107,-0.08775051359019628,-0.15411738303293812,2.1144216060638428,0.595074474811554,-0.21877025067806244,-0.03390687331557274,-0.9221228957176208,-0.38540858030319214,-0.16219909489154816,-0.8770257234573364,-0.29758986830711365
1.195707832440296,-0.07981783530697611,-0.15618398470839764,2.286571741104126,0.6062901616096497,-0.30498430132865906,-0.029210634529590607,-0.9304752349853516,-0.36518874764442444,-0.15876241028308868,-0.6967527270317078,-0.4200894236564636
1.2197880305564333,-0.06988092546228021,-0.16047863086420183,2.4685637950897217,0.5634822845458984,-0.351279616355896,-0.024008676409721375,-0.9390264749526978,-0.34300607442855835,-0.13370618224143982,-0.5312191247940063,-0.4957999289035797
1.2452210202052916,-0.05970045652018408,-0.166253760325499,2.558870792388916,0.3460809588432312,-0.3548908829689026,-0.019084108993411064,-0.9474668502807617,-0.31928449869155884,-0.07927405834197998,-0.36729156970977783,-0.46439146995544434
1.2718694601954923,-0.051830769610062354,-0.17299154357143112,2.752493143081665,-0.05628593638539314,-0.3488473892211914,-0.015257098712027073,-0.9556530714035034,-0.2941001057624817,0.023634156212210655,-0.21060693264007568,-0.39658889174461365
1.3016154444862444,-0.04759444291933894,-0.17943299601940302,3.1705052852630615,-0.31023696064949036,-0.29522284865379333,-0.012652617879211903,-0.9639890789985657,-0.26564157009124756,0.08491822332143784,-0.0465245246887207,-0.5317063331604004
1.3356375435207395,-0.048380187893759995,-0.18277767143186566,3.589155673980713,-0.4883502423763275,-0.18809053301811218,-0.011268064379692078,-0.972477376461029,-0.2327248454093933,0.10169163346290588,0.12564504146575928,-0.6939717531204224
1.3732686449066158,-0.05772047565448381,-0.17916975906586632,3.8876395225524902,-0.6697240471839905,-0.061953023076057434,-0.011321126483380795,-0.9805547595024109,-0.1959192305803299,0.12597565352916718,0.27843672037124634,-0.6964603066444397
1.4128085672307162,-0.07871359127273928,-0.16534796624446071,3.977020740509033,-0.7856775522232056,0.003537836717441678,-0.012371414341032505,-0.9875458478927612,-0.15684525668621063,0.14516864717006683,0.3944671154022217,-0.6212307214736938
1.4519047444283883,-0.11373160680164254,-0.13796838500852954,3.822805881500244,-0.7737131118774414,-0.008425751700997353,-0.013460990972816944,-0.9929407238960266,-0.1178467720746994,0.10075651109218597,0.47514885663986206,-0.5087857246398926
1.488513373266261,-0.17003424985967738,-0.08884327188467671,3.530122756958008,-0.7057433724403381,-0.05765774846076965,-0.013908476568758488,-0.9966166615486145,-0.08100825548171997,0.04769141972064972,0.5348396301269531,-0.3817600607872009
1.5221041183919835,-0.27670542682550353,0.01085186690204874,3.3055038452148438,-0.7382458448410034,-0.1637181043624878,-0.013297404162585735,-0.9988147616386414,-0.04682337865233421,0.035941436886787415,0.5934954285621643,-0.3018244504928589
1.55331064505632,-0.6996590789025999,0.42644021207125604,3.3868649005889893,-0.7475205659866333,-0.2775711715221405,-0.011267902329564095,-0.9998471140861511,-0.013386985287070274,0.02487872913479805,0.6691432595252991,-0.38067102432250977
1.5471494315941823,-2.785310307584345,2.5051126819324816,3.695544481277466,-0.6760659217834473,-0.3084178864955902,-0.00824966374784708,-0.9997204542160034,0.022166717797517776,-0.0036216843873262405,0.7830302119255066,-0.5687515735626221
1.5100119372193066,-3.0574306624763468,2.7709092923004266,3.929272174835205,-0.6271002292633057,-0.25743645429611206,-0.0051068807952106,-0.9981532096862793,0.060535844415426254,-0.0033159800805151463,0.9185631275177002,-0.6315194368362427
1.4705097474653481,-3.1162811912636847,2.823689480016322,3.9413013458251953,-0.6199088096618652,-0.15476782619953156,-0.0025339273270219564,-0.9949755072593689,0.10008849948644638,0.025452621281147003,1.0227768421173096,-0.5227110385894775
1.4320400134545093,-3.136545724148448,2.8377642446599776,3.7029597759246826,-0.6332837343215942,-0.07106014341115952,-0.0006980500766076148,-0.9903887510299683,0.13831065595149994,0.05456157028675079,1.0573289394378662,-0.34216785430908203
1.3968079752440732,3.1369674195464534,2.8412129175506964,3.310302972793579,-0.6104643940925598,-0.04281056672334671,0.0008006850257515907,-0.9849021434783936,0.17311109602451324,0.04479257017374039,1.0509878396987915,-0.18547046184539795
1.3658498075508334,3.1300286881820254,2.8421677067566664,2.8486993312835693,-0.5892805457115173,-0.04798855632543564,0.0023533981293439865,-0.979071855545044,0.20350228250026703,0.020183824002742767,1.0527411699295044,-0.10447251796722412
1.3395464597742497,3.1227650704476364,2.8438315734211277,2.4004366397857666,-0.5204588174819946,-0.11312466859817505,0.004314950667321682,-0.9733806848526001,0.22915531694889069,-0.0039029675535857677,1.0594552755355835,-0.0771012008190155
1.3172384374999262,3.1139158545202545,2.84841234473033,2.0546531677246094,-0.3561883866786957,-0.20959021151065826,0.006941865663975477,-0.9680260419845581,0.2507548928260803,-0.04583652690052986,1.059410810470581,-0.11453947424888611
1.2978518030756645,3.1039685296167314,2.855702508212628,1.8042899370193481,-0.22914747893810272,-0.2904145121574402,0.010139910504221916,-0.9629813432693481,0.2693783640861511,-0.07869765162467957,1.070433497428894,-0.18028196692466736
1.280623120980645,3.0941725914280096,2.8640820137881993,1.614288330078125,-0.12032085657119751,-0.3090822100639343,0.013562716543674469,-0.9581943154335022,0.28579777479171753,-0.08059457689523697,1.0997345447540283,-0.22969096899032593
1.2651896786210168,3.0868354037600323,2.871097973486512,1.437717318534851,-0.004027240909636021,-0.24813558161258698,0.016466695815324783,-0.9536646008491516,0.3004211187362671,-0.05644472688436508,1.1402947902679443,-0.2575894892215729
1.2516230749758772,3.083524564549214,2.8750703410587404,1.2485026121139526,0.09339945018291473,-0.148721382021904,0.018210506066679955,-0.9494951367378235,0.3132535219192505,-0.022925477474927902,1.1777665615081787,-0.2579249143600464
1.240030165813486,3.083503502246018,2.8764827494992806,1.0535626411437988,0.1656010001897812,-0.08245756477117538,0.018854884430766106,-0.9457938075065613,0.32422012090682983,-0.012598788365721703,1.199578046798706,-0.2347729504108429
1.2304151933934608,3.0848090370914756,2.877110521389164,0.8570332527160645,0.2150910496711731,-0.0755234956741333,0.018946832045912743,-0.942627489566803,0.33330851793289185,-0.02941436879336834,1.1934971809387207,-0.2078353464603424
1.2228035824389634,3.0858852862727626,2.8785178756518457,0.6504356861114502,0.2653985321521759,-0.11093819886445999,0.018987063318490982,-0.9400591254234314,0.3404830992221832,-0.05484522134065628,1.1760666370391846,-0.18072330951690674
1.2173069337782985,3.0858592298906484,2.8815305560591127,0.43683528900146484,0.2936818301677704,-0.15414932370185852,0.019283486530184746,-0.9381704926490784,0.34563666582107544,-0.054729655385017395,1.1726675033569336,-0.14623451232910156
1.213856738125136,3.085216055415464,2.8856516245997925,0.23311622440814972,0.351787805557251,-0.1636163592338562,0.01968802697956562,-0.9369705319404602,0.34885331988334656,-0.03728141635656357,1.18846595287323,-0.13130858540534973
1.2125510698843858,3.08490189330771,2.8901807420190524,0.0032755716238170862,0.43239691853523254,-0.16439107060432434,0.019866928458213806,-0.9365135431289673,0.3500683307647705,-0.013916008174419403,1.1980491876602173,-0.1156473457813263
1.2136945794834364,3.08507831170101,2.8949762403806107,-0.24770525097846985,0.4936096966266632,-0.15237967669963837,0.019744709134101868,-0.9369138479232788,0.3490031659603119,0.011337442323565483,1.2049648761749268,-0.06769177317619324
1.217310524543404,3.0862333473514445,2.899257107840458,-0.4868789613246918,0.5355585217475891,-0.0985766276717186,0.019154002889990807,-0.9381717443466187,0.34564074873924255,0.042369432747364044,1.2250521183013916,-0.02725052833557129
1.223372599370288,3.08907999688509,2.9021046736605367,-0.7294794321060181,0.5594372153282166,-0.02724563330411911,0.017871182411909103,-0.9402530193328857,0.34000852704048157,0.0787779837846756,1.2317718267440796,0.002948373556137085
1.232022465746699,3.0938572538244427,2.9029748077755415,-1.0009104013442993,0.5518040657043457,0.05948526784777641,0.015857970342040062,-0.9431628584861755,0.3319533169269562,0.10174151510000229,1.2337052822113037,0.0507374107837677
1.2436086552743126,3.1008369527531277,2.901238913210639,-1.3002451658248901,0.5069557428359985,0.15314911305904388,0.01309452299028635,-0.9469498991966248,0.3211151361465454,0.11253108084201813,1.2532546520233154,0.10198083519935608
1.2581844052577715,3.1099495262904293,2.8966885841838943,-1.5899899005889893,0.4540368914604187,0.23542268574237823,0.009730079211294651,-0.9515335559844971,0.30739161372184753,0.10716749727725983,1.273463487625122,0.11681827902793884
1.2758821282287314,3.1213363777802505,2.8894251973892624,-1.9291149377822876,0.42499831318855286,0.28067219257354736,0.005887255072593689,-0.9568271040916443,0.2905988097190857,0.08055377751588821,1.272042989730835,0.11270642280578613
1.296903099741927,3.132975295543439,2.8812454031328216,-2.2485604286193848,0.3255400061607361,0.23275291919708252,0.002330808900296688,-0.9627251625061035,0.2704716920852661,0.04863353446125984,1.267519474029541,0.1315670907497406
1.3209946202226759,-3.1396617564141156,2.8734092076876996,-2.555894374847412,0.2825811207294464,0.1897878795862198,-0.0004773420805577189,-0.9689614772796631,0.2472122758626938,0.007114904001355171,1.272626519203186,0.09853684902191162
1.3484604195429168,-3.1283999194826544,2.8648277830581876,-2.928699493408203,0.2999212443828583,0.16779230535030365,-0.0029090403113514185,-0.9753850102424622,0.22049042582511902,-0.02234426513314247,1.2733585834503174,0.06370484828948975
1.3796309658981079,-3.1161067161461053,2.8551383998994444,-3.272775888442993,0.25434526801109314,0.10680583119392395,-0.004841920454055071,-0.9817835092544556,0.189942866563797,-0.010798349976539612,1.281694769859314,0.05293145775794983
1.413857211019276,-3.1010797607984357,2.842062421607591,-3.5623555183410645,0.17726831138134003,0.13919998705387115,-0.006330276373773813,-0.9877102971076965,0.1561678797006607,0.00031830277293920517,1.2762539386749268,-0.0008027702569961548
1.4508699590635366,-3.0686940620506364,2.810902264025033,-3.8415064811706543,0.12654441595077515,0.3114370107650757,-0.008713915944099426,-0.9928174614906311,0.11932294815778732,0.05349845066666603,1.2749370336532593,-0.05546462535858154
1.4898238639586094,-2.9789153010899803,2.721730488061076,-4.04740047454834,0.07528576254844666,0.5483260154724121,-0.01310065109282732,-0.9967235326766968,0.07981985062360764,0.10456182062625885,1.2692146301269531,-0.10847555845975876
1.527792706619805,-2.668135380785134,2.4104103155326766,-4.295186519622803,-0.10032465308904648,0.7299774885177612,-0.01960400491952896,-0.9990754723548889,0.038264937698841095,0.07435252517461777,1.2338013648986816,-0.16875791549682617
1.54281065946545,-1.3444654531328204,1.084219555456763,-4.573986053466797,-0.2814536690711975,0.7978070974349976,-0.02727183885872364,-0.9996083974838257,-0.006280060391873121,-0.001521507278084755,1.1006367206573486,-0.1715151071548462
1.5071367091802388,-0.5933559672928803,0.3284446537919851,-4.715530872344971,-0.5402828454971313,0.8305972814559937,-0.03557164967060089,-0.9979743957519531,-0.05274350941181183,-0.033825334161520004,0.8764228224754333,-0.22260117530822754
1.4610481952841197,-0.41912336899467423,0.1468785708542118,-4.801783084869385,-0.7829501032829285,0.8578416705131531,-0.044573694467544556,-0.9939837455749512,-0.10004836320877075,-0.05630217120051384,0.6378588080406189,-0.36117881536483765
1.4125802684088338,-0.3503430978019271,0.06906178289596582,-4.938234806060791,-0.8571141362190247,0.8409600257873535,-0.054076965898275375,-0.9875099062919617,-0.14798685908317566,-0.06826801598072052,0.3671789765357971,-0.4847949147224426
1.3617678581168418,-0.312135532117781,0.021570320683896485,-5.212136745452881,-0.8427104353904724,0.8194901347160339,-0.06372465938329697,-0.9782329797744751,-0.19748330116271973,-0.06739412993192673,0.04827070236206055,-0.559230387210846
1.3081788041754394,-0.2872262012768452,-0.01286478763993353,-5.439221382141113,-0.8594493865966797,0.8040173649787903,-0.0735456645488739,-0.9657137393951416,-0.24897441267967224,-0.05943469703197479,-0.3291625380516052,-0.5982086658477783
1.2535382397425923,-0.27123607169469094,-0.03814254159529973,-5.388718128204346,-0.7745219469070435,0.8131929636001587,-0.08358192443847656,-0.9500943422317505,-0.30055782198905945,-0.09520532190799713,-0.7172031402587891,-0.7784215211868286
1.200406102927074,-0.2613915475507782,-0.05608099422129397,-5.123828411102295,-0.623938262462616,0.8123819231987,-0.09354459494352341,-0.9321861863136292,-0.34968358278274536,-0.12493076175451279,-1.0852242708206177,-1.0713367462158203
1.1507288516038465,-0.25465716016844325,-0.06907155970534255,-4.686531066894531,-0.41488006711006165,0.7371695041656494,-0.10273601114749908,-0.9130614399909973,-0.3946699798107147,-0.1604170799255371,-1.456872820854187,-1.3198226690292358
1.1060745095271867,-0.2474333020531197,-0.0802462276818341,-4.1655707359313965,-0.15319891273975372,0.544165849685669,-0.10976517200469971,-0.8939462900161743,-0.4345248341560364,-0.24071398377418518,-1.8594107627868652,-1.5089411735534668
1.066921858837543,-0.23807923889097465,-0.09096665886581014,-3.6514928340911865,0.12812969088554382,0.3825843930244446,-0.1138671413064003,-0.8757184743881226,-0.4692033529281616,-0.3123871684074402,-2.1930837631225586,-1.5704083442687988
1.0330689148841203,-0.22772564620284805,-0.0998424684755175,-3.1009087562561035,0.3925611674785614,0.32809144258499146,-0.1156323254108429,-0.8588748574256897,-0.4989623427391052,-0.2736804485321045,-2.4365813732147217,-1.5087738037109375
1.0054498896035975,-0.21775650386398684,-0.10561962890619934,-2.3795406818389893,0.6089621782302856,0.29602935910224915,-0.1157342866063118,-0.844403088092804,-0.5230575799942017,-0.2238806039094925,-2.6134371757507324,-1.4550917148590088
0.9858265273303937,-0.20855667790165588,-0.1084198952904515,-1.4969525337219238,0.7359510660171509,0.23128406703472137,-0.11432664841413498,-0.8337287902832031,-0.5402092337608337,-0.2516401708126068,-2.734020471572876,-1.4698309898376465
0.9751830879165082,-0.20104459754170828,-0.10858963682130736,-0.5828278064727783,0.7199203968048096,0.1920493096113205,-0.11203110963106155,-0.8278046250343323,-0.5497170090675354,-0.26570025086402893,-2.791504144668579,-1.4094656705856323
0.973411196161535,-0.19668346371973106,-0.10549098985259399,0.29771214723587036,0.6560720801353455,0.22504639625549316,-0.10991910099983215,-0.826809287071228,-0.5516378283500671,-0.25681066513061523,-2.770190954208374,-1.2597633600234985
0.9797906385960101,-0.19619560194091037,-0.09871269243559504,1.0798689126968384,0.5489264726638794,0.2634079158306122,-0.10861951857805252,-0.8303807377815247,-0.5465068817138672,-0.25844594836235046,-2.6790037155151367,-1.0612963438034058
0.9931045435303326,-0.1993584256308401,-0.08928654580569641,1.6996204853057861,0.3916599750518799,0.21832489967346191,-0.10814832895994186,-0.8377254009246826,-0.5352759957313538,-0.3144285976886749,-2.5395331382751465,-0.8414023518562317
1.0118219232378283,-0.20432638004868175,-0.07945590206078985,2.1435768604278564,0.26909199357032776,0.055565811693668365,-0.10760537534952164,-0.8477994203567505,-0.5192854404449463,-0.41003382205963135,-2.3721256256103516,-0.6354843378067017
1.0344700999279732,-0.20874070421542662,-0.07186929591333716,2.4212729930877686,0.14436259865760803,-0.2268475890159607,-0.10588973015546799,-0.8595917224884033,-0.49988946318626404,-0.5095278024673462,-2.1845216751098633,-0.4683873653411865
1.060094524278926,-0.2095661524807198,-0.06958830225545738,2.613126039505005,0.1064050942659378,-0.6147039532661438,-0.10168568789958954,-0.8724017143249512,-0.4780958294868469,-0.604857325553894,-2.0134475231170654,-0.376014769077301
1.0876453271056645,-0.20364781838240903,-0.07455163770171339,2.6410326957702637,0.22054870426654816,-0.964524507522583,-0.09395650774240494,-0.885535478591919,-0.45497190952301025,-0.636359691619873,-1.8311395645141602,-0.3740379810333252
1.1153061921623424,-0.1891316744259513,-0.08728208406531861,2.5369319915771484,0.40255072712898254,-1.231500506401062,-0.08270442485809326,-0.898045539855957,-0.4320584237575531,-0.5785046815872192,-1.6110336780548096,-0.33484816551208496
1.1423329066122347,-0.1655091994501826,-0.10815380953347241,2.4683339595794678,0.5361669063568115,-1.46444833278656,-0.06845121085643768,-0.9096052050590515,-0.4097961485385895,-0.474502295255661,-1.3849048614501953,-0.3222135901451111
1.1693175895863734,-0.13349271373229418,-0.13701823766626586,2.524346113204956,0.5643873810768127,-1.6246787309646606,-0.05201150104403496,-0.9204841256141663,-0.3873033821582794,-0.37599754333496094,-1.1456170082092285,-0.41553762555122375
1.1971609646644656,-0.09490295149477322,-0.17303469848720895,2.6974682807922363,0.46336179971694946,-1.6942428350448608,-0.03458785265684128,-0.9310066103935242,-0.3633601665496826,-0.260929137468338,-0.8806543350219727,-0.5214816331863403
1.2270340784903389,-0.051569931363495074,-0.21559076192433593,3.04530668258667,0.22624269127845764,-1.7010554075241089,-0.01737302355468273,-0.9414933323860168,-0.3365841209888458,-0.12296207249164581,-0.6226243376731873,-0.6139771938323975
1.2603748230245069,-0.0037064630299085497,-0.26492663753830387,3.5038304328918457,0.005208143033087254,-1.625537395477295,-0.0011321750935167074,-0.9522048830986023,-0.30545830726623535,-0.024029579013586044,-0.36418628692626953,-0.7794108986854553
1.2970368601150823,0.05035534280054225,-0.32224030189222314,3.8612852096557617,-0.15993447601795197,-1.482006311416626,0.013607990927994251,-0.9627613425254822,-0.2700107991695404,0.057436924427747726,-0.12123847007751465,-0.8742303252220154
1.335795295047055,0.11385375140114677,-0.3899792112214761,4.095807075500488,-0.24445241689682007,-1.2579693794250488,0.026452982798218727,-0.9725140929222107,-0.23133698105812073,0.13670924305915833,0.08806878328323364,-0.8361829519271851
1.3754249387062414,0.19144503803531124,-0.4720887128638293,4.218378067016602,-0.28229087591171265,-0.9980638027191162,0.036938950419425964,-0.9809756278991699,-0.19058503210544586,0.20492811501026154,0.26059281826019287,-0.768094003200531
1.4145897364622482,0.2943546551069142,-0.5798754083826577,4.243839263916016,-0.37184831500053406,-0.7795656323432922,0.045135244727134705,-0.987824559211731,-0.14888189733028412,0.2253267914056778,0.40341275930404663,-0.6808298230171204
1.4520306408247552,0.4507980993181388,-0.7423947503637559,4.319210529327393,-0.5429084897041321,-0.6628853678703308,0.051623620092868805,-0.9929556250572205,-0.10665160417556763,0.2098814994096756,0.5124866962432861,-0.599189281463623
1.4854904749987463,0.7412191216511896,-1.0401568069399423,4.533392429351807,-0.5977240800857544,-0.6217461228370667,0.057528238743543625,-0.996363639831543,-0.06284989416599274,0.14710737764835358,0.6133069396018982,-0.6584786176681519
1.5053780087041304,1.3124278472845161,-1.6185414901108117,4.760479927062988,-0.5215821862220764,-0.5486423373222351,0.06320441514253616,-0.9978609681129456,-0.016703367233276367,0.07262932509183884,0.734463632106781,-0.7524157166481018
1.49586758422851,2.0004854035626773,-2.313215132908708,4.847531318664551,-0.4937702417373657,-0.4053156077861786,0.06805644184350967,-0.9971941709518433,0.031186508014798164,0.06605306267738342,0.8654953241348267,-0.7210971117019653
1.4641735303044603,2.403065572646338,-2.72248217137232,4.7021098136901855,-0.5220010876655579,-0.2684003710746765,0.07164312154054642,-0.9943211674690247,0.07869479060173035,0.09336541593074799,0.9511387348175049,-0.5728657245635986
1.4259018803080996,2.598110462579062,-2.924388528117826,4.3779072761535645,-0.5375937819480896,-0.2502363324165344,0.07466645538806915,-0.9895211458206177,0.1235845759510994,0.06324248760938644,0.9747962951660156,-0.3801456689834595
1.387589487753686,2.6965904042200357,-3.0296258549113744,3.946159601211548,-0.5281730890274048,-0.36210909485816956,0.07842319458723068,-0.9832645058631897,0.16444166004657745,-0.024178199470043182,0.9519991278648376,-0.23714947700500488
1.3519457216024646,2.7464941702154166,-3.0855870732281594,3.440749168395996,-0.4462141990661621,-0.4975014626979828,0.08356505632400513,-0.9761476516723633,0.20038263499736786,-0.08791379630565643,0.9187285900115967,-0.17921850085258484
1.3202994154716772,2.7712492809696125,-3.114942094327204,2.924698829650879,-0.3090355694293976,-0.5921643376350403,0.08971866220235825,-0.9687893390655518,0.2310798615217209,-0.11784061044454575,0.9258358478546143,-0.1661534607410431
1.2927009139399892,2.7830258592887787,-3.129474524989549,2.5084681510925293,-0.13782933354377747,-0.657173752784729,0.096340112388134,-0.9615800380706787,0.25706636905670166,-0.1336783468723297,0.9516005516052246,-0.19696173071861267
1.267980443906655,2.78909437772192,-3.136342258207349,2.264282703399658,0.03418824076652527,-0.6851038932800293,0.10295510292053223,-0.9545005559921265,0.2798740565776825,-0.14033913612365723,0.9876883029937744,-0.2853822708129883
1.2451313196956457,2.7940531774068726,-3.1402301634924688,2.0989830493927,0.21969613432884216,-0.6387681365013123,0.10896682739257812,-0.9474381804466248,0.3008117377758026,-0.14227674901485443,1.038700819015503,-0.37940943241119385
1.2241359535964451,2.800627771370509,3.139237003992514,1.9206935167312622,0.3813779652118683,-0.5392346382141113,0.11361436545848846,-0.9405125975608826,0.32020023465156555,-0.11112716048955917,1.0794894695281982,-0.4003697335720062
1.205189970214522,2.809395094115299,3.134645553414287,1.7519385814666748,0.500515341758728,-0.40721434354782104,0.11659367382526398,-0.933907151222229,0.33797019720077515,-0.08627444505691528,1.116081714630127,-0.37778007984161377
1.188005556154575,2.820054933900842,3.1288920559140116,1.6321908235549927,0.5451640486717224,-0.29813286662101746,0.1180391013622284,-0.9276258945465088,0.3543686866760254,-0.0820283591747284,1.1398756504058838,-0.3527663052082062
1.1722246879410372,2.8314166780526295,3.122352532209866,1.5070784091949463,0.5022404193878174,-0.20764493942260742,0.11845908313989639,-0.92161625623703,0.36958229541778564,-0.09117636829614639,1.1539771556854248,-0.32850542664527893
1.1580164024978274,2.8421157437855498,3.115545124133732,1.3507553339004517,0.3709937036037445,-0.1356908529996872,0.11834979802370071,-0.9160091876983643,0.38330280780792236,-0.08464312553405762,1.1561213731765747,-0.25802791118621826
1.1455286940504563,2.850852509919814,3.109101293787068,1.1826773881912231,0.19856341183185577,-0.08994612842798233,0.11826642602682114,-0.9109283685684204,0.3952503502368927,-0.07828838378190994,1.1550841331481934,-0.1864488124847412
1.1348099054183143,2.85743012307926,3.103354710708446,0.9979331493377686,0.08461233973503113,-0.05932563543319702,0.11839476227760315,-0.9064539074897766,0.40536922216415405,-0.07678405195474625,1.1547906398773193,-0.14807528257369995
1.1261279982157189,2.862506773102236,3.098600940580733,0.7724347114562988,0.08910657465457916,-0.03546589985489845,0.1184990182518959,-0.9027534127235413,0.41351550817489624,-0.09139939397573471,1.1668674945831299,-0.1250630021095276
1.11991943343879,2.8671330523672367,3.095160813425029,0.4946848750114441,0.22313815355300903,-0.017608607187867165,0.11810144782066345,-0.9000653624534607,0.41944605112075806,-0.11015159636735916,1.1887767314910889,-0.1061064600944519
1.1165741262665003,2.8718317179740427,3.0933740465827495,0.18479080498218536,0.39871492981910706,-0.012732110917568207,0.11693117767572403,-0.8986025452613831,0.4228963553905487,-0.11879272013902664,1.2057312726974487,-0.07362228631973267
1.1164106095018207,2.876781301716212,3.0934478888810863,-0.15770688652992249,0.5967758297920227,-0.0010264532174915075,0.11487488448619843,-0.8985308408737183,0.4236111640930176,-0.11820130050182343,1.2217271327972412,-0.033993035554885864
1.1196074712561699,2.8817535275150212,3.0952711719199444,-0.4948735237121582,0.7117425799369812,0.014668703079223633,0.11202862858772278,-0.8999293446540833,0.42139899730682373,-0.09098675847053528,1.235912561416626,0.015384167432785034
1.1260051273021234,2.886065411149982,3.098606269032628,-0.8082466125488281,0.7396690249443054,0.028859620913863182,0.10875315219163895,-0.9027005434036255,0.4162992537021637,-0.06401438266038895,1.251485824584961,0.05493819713592529
1.1353119731665962,2.888935738165515,3.103470183739839,-1.0886435508728027,0.7072067260742188,0.03642638400197029,0.10545306652784348,-0.9066658020019531,0.40845736861228943,-0.038375407457351685,1.2579076290130615,0.10597771406173706
1.1472895573552926,2.890182226184702,3.1097129559630976,-1.352911353111267,0.6712604761123657,0.06379116326570511,0.1022348403930664,-0.9116533994674683,0.3980412483215332,-0.020661339163780212,1.2698837518692017,0.14868146181106567
1.1620614750287876,2.8903490816769666,3.116480713386336,-1.6405143737792969,0.5837916135787964,0.14541606605052948,0.09880945086479187,-0.9176244139671326,0.38497138023376465,0.01331215351819992,1.2967591285705566,0.19019374251365662
1.1799609104703161,2.8892570525779493,3.1231183668555897,-1.9419506788253784,0.4109441637992859,0.24257777631282806,0.09511329978704453,-0.9245911240577698,0.3688974380493164,0.041727542877197266,1.3231810331344604,0.24351432919502258
1.2008349932783813,2.88640835252631,3.1296972619045627,-2.2040669918060303,0.24425730109214783,0.33286428451538086,0.0912712812423706,-0.9323413372039795,0.349870502948761,0.0488959476351738,1.3438708782196045,0.2543778121471405
1.2245146100014193,2.8823808294293016,3.135856620687975,-2.4747893810272217,0.09770088642835617,0.44951367378234863,0.08699546754360199,-0.9406412243843079,0.3280647099018097,0.04162087291479111,1.369901180267334,0.21343949437141418
1.2511929170878886,2.876784068648481,-3.1412815186737975,-2.7621700763702393,-0.07144997268915176,0.5429307222366333,0.08223129063844681,-0.9493600726127625,0.3032383918762207,0.0391523614525795,1.3966715335845947,0.19065842032432556
1.2808401463010581,2.868778678649025,-3.134422953863392,-3.042231798171997,-0.2160114198923111,0.6348676085472107,0.07703645527362823,-0.9582564234733582,0.27533668279647827,0.02225247025489807,1.4215894937515259,0.14478370547294617
1.3134450656161045,2.8580387249897385,-3.126140320948728,-3.334575653076172,-0.3298218250274658,0.7167510390281677,0.0712069645524025,-0.967067539691925,0.24435648322105408,0.019064031541347504,1.4415700435638428,0.07218727469444275
1.3491995968304742,2.8419276813428467,-3.1133411936607573,-3.671567916870117,-0.4003486931324005,0.7403101325035095,0.06488151848316193,-0.975547730922699,0.20999348163604736,-0.010789118707180023,1.4555891752243042,0.009977445006370544
1.388460369558506,2.8122764948832772,-3.087397232916952,-4.1012797355651855,-0.44037726521492004,0.6793152689933777,0.05864086002111435,-0.9834228157997131,0.17158442735671997,-0.06709422916173935,1.4470305442810059,-0.037352681159973145
1.4314572303199962,2.7498792656085635,-3.028890817794111,-4.591864585876465,-0.47609105706214905,0.6023610830307007,0.0530242845416069,-0.9903079867362976,0.12836968898773193,-0.110626220703125,1.4339267015457153,-0.07368196547031403
1.4772135730206004,2.6084159297226903,-2.890921068842669,-4.95341682434082,-0.38800159096717834,0.6139000654220581,0.04749744385480881,-0.995624303817749,0.08047791570425034,-0.12170092761516571,1.4340853691101074,-0.17656230926513672
1.5206084392310029,2.1924146872148436,-2.4772382299695366,-5.224264144897461,-0.25112682580947876,0.7913342714309692,0.040786050260066986,-0.9987408518791199,0.029217291623353958,-0.08799674361944199,1.441443920135498,-0.384624719619751
1.5311062886362758,0.9030367707672418,-1.1887771705041315,-5.593138694763184,-0.1352420300245285,1.131341814994812,0.031160419806838036,-0.9992124438285828,-0.024573540315032005,-0.011858055368065834,1.448873519897461,-0.5576711297035217
1.4853220371254527,0.2175381332669591,-0.5025717454905082,-6.1143317222595215,0.06107581779360771,1.3736082315444946,0.01842552423477173,-0.9963492751121521,-0.08335988968610764,0.041175298392772675,1.3449208736419678,-0.5523515939712524
1.4241578820579899,0.03366770512681817,-0.3169915432259882,-6.445088863372803,0.007115407846868038,1.3312053680419922,0.0049184346571564674,-0.9892678260803223,-0.1460324078798294,-0.04727683961391449,1.1031897068023682,-0.5609986186027527
1.3587785456556156,-0.03781689422300206,-0.24541076403158874,-6.532787799835205,-0.2026151865720749,1.2466087341308594,-0.007956044748425484,-0.977608323097229,-0.2102830410003662,-0.19252920150756836,0.8597950339317322,-0.742246687412262
1.2932023610330592,-0.0748745434448897,-0.20984635271018362,-6.405163764953613,-0.2877180576324463,1.2070451974868774,-0.020499691367149353,-0.9617176055908203,-0.27327537536621094,-0.21205952763557434,0.579759418964386,-0.9704683423042297
1.2291156169575004,-0.09755466334202703,-0.1894833523735423,-6.212460517883301,-0.37249740958213806,1.1148465871810913,-0.032635945826768875,-0.9421928524971008,-0.3334781527519226,-0.22146868705749512,0.22104710340499878,-1.1830774545669556
1.1671181020277255,-0.11223190065721464,-0.17828984449643923,-5.985991477966309,-0.4737955629825592,0.9887436032295227,-0.04399263858795166,-0.9196224212646484,-0.3903326094150543,-0.24626006186008453,-0.2336675524711609,-1.286867618560791
1.1075516220193034,-0.12257671809871039,-0.1725828831775745,-5.744041442871094,-0.5412510633468628,0.8791185617446899,-0.05463677644729614,-0.8946073055267334,-0.44350069761276245,-0.24821968376636505,-0.7081455588340759,-1.3631246089935303
1.050583770337811,-0.13031435836834562,-0.1702270545490003,-5.49673318862915,-0.5863135457038879,0.764232337474823,-0.06459151208400726,-0.8677135705947876,-0.49285027384757996,-0.21694843471050262,-1.170677900314331,-1.4431846141815186
0.9962968757900846,-0.1350009615512831,-0.17140327757917184,-5.238831043243408,-0.5209380388259888,0.5318843126296997,-0.07313889265060425,-0.8394644260406494,-0.538470447063446,-0.23405106365680695,-1.6352214813232422,-1.5149351358413696
0.9452766868661912,-0.134807104997283,-0.17673835456194967,-4.906993865966797,-0.2916716933250427,0.24274814128875732,-0.0786932185292244,-0.8106589913368225,-0.5802063941955566,-0.3167077898979187,-2.0505166053771973,-1.5957425832748413
0.8984752353400381,-0.12899016269427802,-0.18535871305789342,-4.46071195602417,0.09941615909337997,-0.04263007640838623,-0.08011295646429062,-0.7823781967163086,-0.6176296472549438,-0.36243772506713867,-2.3694469928741455,-1.723999261856079
0.8573288026000379,-0.11763916262106905,-0.1959568655893466,-3.8084876537323,0.5336849093437195,-0.27269694209098816,-0.07681262493133545,-0.7560970783233643,-0.649936318397522,-0.35527053475379944,-2.639349937438965,-1.8521692752838135
0.8242516571958024,-0.10273629879667771,-0.20643396541897593,-2.859870672225952,0.8547025918960571,-0.3557303249835968,-0.06964622437953949,-0.7340397834777832,-0.6755258440971375,-0.2781015932559967,-2.8263392448425293,-1.9539754390716553
0.8017439672428961,-0.08811432225436733,-0.21407111262188766,-1.6867966651916504,0.9184483885765076,-0.23541419208049774,-0.061200253665447235,-0.7185700535774231,-0.6927566528320312,-0.13684359192848206,-2.9184999465942383,-2.0025405883789062
0.7911613169454399,-0.07772505989906542,-0.21676272323740495,-0.4459754228591919,0.7458627820014954,0.05048999935388565,-0.054587267339229584,-0.7111701965332031,-0.7008975148200989,0.02255905419588089,-2.9270899295806885,-1.9241787195205688
0.7927200480099852,-0.0738856360943371,-0.21355158410172081,0.7840293645858765,0.4658134877681732,0.37677550315856934,-0.05181393772363663,-0.712265133857727,-0.6999955177307129,0.11278803646564484,-2.8813018798828125,-1.754945158958435
0.8060247652890664,-0.07732270467039433,-0.20434324972221996,1.949427843093872,0.16429679095745087,0.6838606595993042,-0.05348275974392891,-0.7215405702590942,-0.6903034448623657,0.09050056338310242,-2.7873706817626953,-1.5784952640533447
0.8302212978674911,-0.0874610359284373,-0.19029314101034592,2.991551160812378,-0.13687653839588165,0.7996222972869873,-0.058935850858688354,-0.7380806803703308,-0.6721335649490356,-0.008523274213075638,-2.629702091217041,-1.3964850902557373
0.8633557273304605,-0.10187160383414326,-0.17411380288046138,3.7353413105010986,-0.30455100536346436,0.6778026819229126,-0.06609096378087997,-0.7600277066230774,-0.6465214490890503,-0.20225012302398682,-2.447598695755005,-1.1902551651000977
0.9017134659364328,-0.11693103716018995,-0.15891375181604095,4.024417400360107,-0.33409032225608826,0.3804861903190613,-0.07236329466104507,-0.7843908667564392,-0.6160313487052917,-0.3848663568496704,-2.2925899028778076,-0.9122277498245239
0.9416415121090714,-0.12850374666678166,-0.147734758367841,4.012312889099121,-0.1802874356508255,-0.026297807693481445,-0.0754115954041481,-0.8085251450538635,-0.5836097598075867,-0.5061466693878174,-2.1507797241210938,-0.654793381690979
0.9813573329971357,-0.13344970739299603,-0.14268436460009679,3.919748306274414,0.01812228001654148,-0.42974913120269775,-0.07396400719881058,-0.8312526941299438,-0.5509522557258606,-0.554545521736145,-1.9841313362121582,-0.5614743828773499
1.0212927823507705,-0.13109502783267007,-0.14410719257458265,3.974708080291748,0.1987660825252533,-0.7619366645812988,-0.06827026605606079,-0.8527839183807373,-0.5177825689315796,-0.5129217505455017,-1.7628015279769897,-0.6284269690513611
1.0630020959598323,-0.1228356036561467,-0.15106066562261297,4.200000762939453,0.22751790285110474,-0.9639462828636169,-0.059578850865364075,-0.8738191723823547,-0.4825872480869293,-0.4358893036842346,-1.478933572769165,-0.7924216985702515
1.1074751344267002,-0.11184142443597615,-0.16132231243626172,4.497374057769775,0.13935847580432892,-1.0059009790420532,-0.04988022893667221,-0.8945730924606323,-0.4441295564174652,-0.2894294857978821,-1.1776926517486572,-0.9177782535552979
1.1549612072908597,-0.10061630223526115,-0.1729991408163376,4.805488109588623,-0.016471151262521744,-0.9754637479782104,-0.04057585075497627,-0.9147793054580688,-0.40191134810447693,-0.13731113076210022,-0.8720555901527405,-0.9697468280792236
1.2051613813209463,-0.08988699219679663,-0.1858425418133967,5.055606365203857,-0.2174503207206726,-0.9477705955505371,-0.032095182687044144,-0.9338969588279724,-0.35609933733940125,-0.03502824157476425,-0.6026632785797119,-0.9935709238052368
1.2574585627468562,-0.07860535572109267,-0.20104174352036247,5.232338905334473,-0.3793667256832123,-0.9343073964118958,-0.024204060435295105,-0.9513100385665894,-0.30728426575660706,0.02833918109536171,-0.3759148120880127,-0.999844491481781
1.3107796567315808,-0.0638877486698648,-0.22083283882942986,5.272610664367676,-0.4657282531261444,-0.9352216124534607,-0.01641419157385826,-0.9663857221603394,-0.2565727233886719,0.053111568093299866,-0.16960078477859497,-1.0075873136520386
1.3638076832706278,-0.04101190343112118,-0.2494919079069226,5.207390785217285,-0.5296733379364014,-0.9431876540184021,-0.008426187559962273,-0.9786542057991028,-0.20534192025661469,0.06457851827144623,0.02873331308364868,-0.9748947620391846
1.4158281241215038,-1.7984721300674892e-05,-0.2965718623725623,5.124882221221924,-0.5201061964035034,-0.9568871855735779,-2.77593335340498e-06,-0.9880164265632629,-0.15434953570365906,0.05292024835944176,0.2104741930961609,-0.958656907081604
1.4663759145023734,0.08472176175389283,-0.3869354042612973,5.022478103637695,-0.4503040611743927,-0.9448915719985962,0.008820299059152603,-0.9945531487464905,-0.1038598120212555,0.0197136327624321,0.3865053653717041,-0.9912937879562378
1.5133527796434367,0.31749553769170996,-0.624592049964623,4.836215496063232,-0.3875245749950409,-0.952976644039154,0.017924312502145767,-0.9983505606651306,-0.054545484483242035,-0.008585939183831215,0.5498182773590088,-0.9725691676139832
1.5423059667434575,1.3220299837362524,-1.6332315671970787,4.677835464477539,-0.27819427847862244,-1.0035676956176758,0.027619628235697746,-0.9995941519737244,-0.0070161656476557255,-0.0550396703183651,0.6829893589019775,-0.9071528911590576
1.516111169961589,2.375837475031915,-2.6898125914371933,4.594754695892334,-0.14627137780189514,-1.039107322692871,0.037884507328271866,-0.9985051155090332,0.039402857422828674,-0.09208372980356216,0.8125156164169312,-0.9072921276092529
1.4730721164770235,2.6207931358771437,-2.936219771432963,4.4459357261657715,-0.009111366234719753,-1.0858746767044067,0.048548344522714615,-0.9952287673950195,0.0846344530582428,-0.11777747422456741,0.9610032439231873,-0.8970273733139038
1.4293012448817193,2.7069248193825497,-3.0223453607257973,4.227787017822266,0.11652378737926483,-1.0965254306793213,0.05938629433512688,-0.9900062680244446,0.12790973484516144,-0.14492706954479218,1.0659644603729248,-0.7845257520675659
1.3874603787745525,2.7479310110159347,-3.0627763066967253,3.9235339164733887,0.08493974059820175,-1.0626294612884521,0.06992951035499573,-0.9832409620285034,0.1683662086725235,-0.13661041855812073,1.1486767530441284,-0.6484990119934082
1.3485230626995663,2.7694379849949256,-3.0844657701911276,3.6032726764678955,-0.03957449272274971,-1.0319876670837402,0.08016017824411392,-0.97539883852005,0.20535776019096375,-0.11656764894723892,1.1996877193450928,-0.49942493438720703
1.3124769845227762,2.780547073862326,-3.0970283501417435,3.3259706497192383,-0.17058102786540985,-0.979919970035553,0.0902407318353653,-0.9668206572532654,0.23898686468601227,-0.1174929291009903,1.2257012128829956,-0.406039834022522
1.278977800409162,2.787232597698174,-3.1060654435502157,3.1119234561920166,-0.22415077686309814,-0.9014706611633301,0.09982723742723465,-0.9577223062515259,0.26981979608535767,-0.10890621691942215,1.2594037055969238,-0.3851608335971832
1.247368646897511,2.7918136793434507,-3.1134551051510284,2.95332407951355,-0.26844945549964905,-0.8586350083351135,0.1089136153459549,-0.9481515884399414,0.2985750436782837,-0.1171075627207756,1.2772071361541748,-0.3794310986995697
1.2175682160135501,2.7941428386703224,-3.118849706145852,2.7348694801330566,-0.26908010244369507,-0.8367919921875,0.11778908222913742,-0.9382609128952026,0.3252573609352112,-0.15357095003128052,1.2893351316452026,-0.3571174442768097
1.190354363452269,2.794496965235055,-3.1216610655322548,2.4331510066986084,-0.17634421586990356,-0.8192901015281677,0.12631525099277496,-0.9285005927085876,0.34918731451034546,-0.15906059741973877,1.2814972400665283,-0.29782602190971375
1.1659934282541875,2.7939909267566923,-3.1223396345934913,2.1532111167907715,-0.04255152866244316,-0.7765306830406189,0.13415871560573578,-0.9191800355911255,0.37028399109840393,-0.1492190957069397,1.2774407863616943,-0.2685838043689728
1.1444404128770418,2.79434270011527,-3.122280088292193,1.8834060430526733,0.12466159462928772,-0.6843506693840027,0.14073868095874786,-0.9104788303375244,0.38887205719947815,-0.13866345584392548,1.2967395782470703,-0.3002029061317444
1.1258488448029764,2.7965492372166834,-3.1224079623564567,1.6071488857269287,0.2906135618686676,-0.5637601017951965,0.1455812156200409,-0.9026332497596741,0.4050430953502655,-0.119870126247406,1.3131707906723022,-0.3043195605278015
1.1101917648099489,2.8004455907524997,-3.122893157583086,1.3468737602233887,0.38089197874069214,-0.4517669081687927,0.1487124115228653,-0.8957839608192444,0.41887515783309937,-0.0999910831451416,1.316239833831787,-0.267461895942688
1.097073028845239,2.8047615930365435,-3.12351477125931,1.1442623138427734,0.36043572425842285,-0.366787314414978,0.1507742553949356,-0.8898758888244629,0.43056783080101013,-0.08992218971252441,1.3095076084136963,-0.21171075105667114
1.0859653767408655,2.8088677445138406,-3.1242716564841473,0.9711180329322815,0.3228181302547455,-0.2944797873497009,0.1522240787744522,-0.8847537636756897,0.4404984712600708,-0.08316279947757721,1.2937960624694824,-0.1705245077610016
1.0767040946399027,2.8128601096995003,-3.1252179283010864,0.8042078614234924,0.31014442443847656,-0.21691416203975677,0.15310320258140564,-0.8803995847702026,0.44883906841278076,-0.08739884197711945,1.2945992946624756,-0.13717806339263916
1.0695116863471885,2.817253842930629,-3.1266632120077067,0.5916457176208496,0.31654617190361023,-0.10864801704883575,0.15314365923404694,-0.8769659399986267,0.45549774169921875,-0.07932162284851074,1.2987645864486694,-0.10082221031188965
1.0648847339639176,2.822478256173505,-3.128782130375195,0.34287959337234497,0.35947394371032715,0.013299996964633465,0.15203313529491425,-0.8747330904006958,0.4601392149925232,-0.05904610455036163,1.3013384342193604,-0.05359908938407898
1.0631123546581487,2.8290382478243035,-3.131607527572353,0.0748712420463562,0.4566121995449066,0.1368347704410553,0.14948785305023193,-0.8738728165626526,0.4626011252403259,-0.05154171586036682,1.3058949708938599,-0.015075892210006714
1.0642747272824307,2.8370499687075457,-3.134930005972702,-0.19783511757850647,0.5583550930023193,0.23666682839393616,0.1454721987247467,-0.8744372725486755,0.4628146290779114,-0.0522715300321579,1.3027057647705078,0.025665104389190674
1.0683596338108896,2.846151994138407,-3.138370597077394,-0.48500561714172363,0.6557289361953735,0.31655460596084595,0.14021244645118713,-0.8764117360115051,0.46069833636283875,-0.04986517131328583,1.2957539558410645,0.06721019744873047
1.0754251473037342,2.855978979958221,-3.1415689252458754,-0.7704445719718933,0.7428348064422607,0.3823256492614746,0.13393060863018036,-0.879792332649231,0.45610156655311584,-0.03894464671611786,1.289170265197754,0.11982643604278564
1.085332576761387,2.866533657547143,3.1384241182300254,-1.0451796054840088,0.7905694842338562,0.45259252190589905,0.12673558294773102,-0.8844586610794067,0.44907885789871216,-0.02770601212978363,1.2959421873092651,0.1782103180885315
1.09816467194589,2.8772949413299487,3.134954909130647,-1.3386931419372559,0.7223305106163025,0.5394970178604126,0.11892074346542358,-0.8903733491897583,0.4394240081310272,-0.002404645085334778,1.3027268648147583,0.24009591341018677
1.1141742009847568,2.8872987539825203,3.1308205285634054,-1.6530935764312744,0.5278249979019165,0.6354285478591919,0.11091848462820053,-0.8975470066070557,0.42673951387405396,0.031156092882156372,1.3095495700836182,0.30830711126327515
1.1335206225203158,2.8956524394455117,3.125994717954791,-1.9825636148452759,0.2609717547893524,0.7221781015396118,0.10310228914022446,-0.9059087038040161,0.4107302725315094,0.051469236612319946,1.3168431520462036,0.35317033529281616
1.1561693695568886,2.9019905600418383,3.120468507757053,-2.281942367553711,0.008139148354530334,0.802827000617981,0.09560246020555496,-0.9152666926383972,0.3913402259349823,0.05091241002082825,1.328871488571167,0.35348719358444214
1.181662599444551,2.907386842799136,3.1138132284705846,-2.53495454788208,-0.14198803901672363,0.895775556564331,0.08804483711719513,-0.9252380728721619,0.36903053522109985,0.03805381804704666,1.3483638763427734,0.2705419957637787
1.2099051464378174,2.9131997211691902,3.1056119877024777,-2.812396764755249,-0.213457390666008,0.9722097516059875,0.07994825392961502,-0.9355825185775757,0.3439391553401947,0.01165025681257248,1.3715260028839111,0.1687869131565094
1.2411685279407028,2.9202369879040777,3.0957777746953403,-3.119641065597534,-0.22110944986343384,1.0640909671783447,0.07106722146272659,-0.9461628794670105,0.31579354405403137,-0.012412436306476593,1.3969532251358032,0.09811663627624512
1.2754795745451348,2.9286413469790364,3.084537673618991,-3.4146952629089355,-0.23732876777648926,1.069644808769226,0.061510633677244186,-0.9567099809646606,0.2844688296318054,-0.02302798256278038,1.4149773120880127,0.03257852792739868
1.3129501019229688,2.9365337192092236,3.0739464265122476,-3.7765045166015625,-0.2067924439907074,1.0451037883758545,0.05192425474524498,-0.9669414162635803,0.24965709447860718,-0.07014325261116028,1.4186015129089355,-0.0327073335647583
1.3541779356649102,2.9442731782828235,3.0645903778311423,-4.192615032196045,-0.05357075110077858,1.0368729829788208,0.042134981602430344,-0.9766298532485962,0.2107582986354828,-0.08513425290584564,1.4250245094299316,-0.07606865465641022
1.3997870516407331,2.955556417188919,3.053337619838727,-4.650744438171387,0.09656628221273422,1.1335017681121826,0.03147701919078827,-0.9854134917259216,0.16724185645580292,-0.026884127408266068,1.4423377513885498,-0.11702489852905273
1.4499408159941216,2.9825105072014026,3.02751380063545,-5.048533916473389,0.16885864734649658,1.336436152458191,0.019098758697509766,-0.9927058815956116,0.11904148757457733,0.06720494478940964,1.4654839038848877,-0.15663884580135345
1.503296836569579,3.077450499592736,2.933435593530529,-5.24584436416626,0.05117889121174812,1.5932146310806274,0.004323472268879414,-0.9977227449417114,0.06731206923723221,0.15156030654907227,1.4771385192871094,-0.23155736923217773
1.551279328031842,-2.4054846718043903,2.1316953177532727,-5.310276508331299,-0.27064263820648193,1.8986084461212158,-0.013109028339385986,-0.9998095631599426,0.014469480141997337,0.1773241013288498,1.4601060152053833,-0.3915749788284302
1.5193404365715952,-0.709254318416011,0.4308768264634255,-5.380589962005615,-0.5285447239875793,2.139742136001587,-0.033499401062726974,-0.9986764192581177,-0.03903299570083618,0.13472619652748108,1.4038276672363281,-0.5181414484977722
1.4623483602456087,-0.5405952513814427,0.25545498365018027,-5.4167022705078125,-0.7235946655273438,2.2085556983947754,-0.055703628808259964,-0.9941253066062927,-0.09280240535736084,0.03856799006462097,1.237243413925171,-0.6025099158287048
1.4029554922889593,-0.4923052031253686,0.1986509989608383,-5.611794948577881,-0.8157578706741333,2.2785804271698,-0.07895991206169128,-0.9859477877616882,-0.14721636474132538,-0.03899054974317551,1.035325050354004,-0.7634584903717041
1.3426624975239614,-0.47274846656148317,0.17120566754065644,-5.494694709777832,-0.6593520641326904,2.3451297283172607,-0.10297857224941254,-0.9740901589393616,-0.20135481655597687,-0.08272090554237366,0.7217250466346741,-0.937789797782898
1.2839453418891726,-0.4682347192978479,0.16002057882197424,-5.1681318283081055,-0.601850688457489,2.4569027423858643,-0.1276910901069641,-0.9591395854949951,-0.2524801194667816,-0.16349239647388458,0.47992199659347534,-1.3033210039138794
1.2283550089269177,-0.47375404241423624,0.15979658440403857,-4.699200630187988,-0.5430658459663391,2.547698497772217,-0.15319661796092987,-0.9419376850128174,-0.29880499839782715,-0.18626569211483002,0.16720306873321533,-1.5724716186523438
1.176965638566329,-0.4846551950414869,0.1661094174813249,-4.173882484436035,-0.4514104425907135,2.5685784816741943,-0.17878060042858124,-0.9234458804130554,-0.3395370841026306,-0.25253963470458984,-0.19416898488998413,-1.7260907888412476
1.1302636581181635,-0.4979962081427809,0.1763225693491196,-3.6379284858703613,-0.35590481758117676,2.5364186763763428,-0.2036871612071991,-0.9045246243476868,-0.37462911009788513,-0.3485589623451233,-0.5317853093147278,-1.791020154953003
1.0880876004591733,-0.5115987040430718,0.18769807760041152,-3.2620208263397217,-0.3265479803085327,2.393819570541382,-0.2272496074438095,-0.8857408165931702,-0.40474799275398254,-0.4033046364784241,-0.8846145272254944,-1.7343509197235107
1.0489751945419812,-0.5215501398503237,0.19558042511347773,-3.189197301864624,-0.27521613240242004,2.096485137939453,-0.24834518134593964,-0.866912841796875,-0.43218880891799927,-0.509162187576294,-1.239593744277954,-1.514161229133606
1.010834187077688,-0.5238975149515421,0.1956839010401758,-3.4239912033081055,-0.15749724209308624,1.6972843408584595,-0.265714555978775,-0.8472751975059509,-0.4599137604236603,-0.6194630861282349,-1.601135015487671,-1.207169771194458
0.9723252192029997,-0.5163975089883951,0.18623527232305684,-3.7356178760528564,0.08913080394268036,1.2099637985229492,-0.27816927433013916,-0.8261979222297668,-0.4899173676967621,-0.7210372686386108,-1.8889052867889404,-0.970714807510376
0.9344378988647409,-0.49921661329901046,0.1683662893875371,-3.824398994445801,0.44681838154792786,0.6654847860336304,-0.2844999134540558,-0.8042651414871216,-0.5217446088790894,-0.8327944278717041,-2.084712028503418,-0.9040212631225586
0.8995246472812511,-0.4748855196742512,0.14574587279546738,-3.5689785480499268,0.8135672807693481,0.18904264271259308,-0.2843931019306183,-0.7830313444137573,-0.5531569123268127,-0.8955233097076416,-2.1983835697174072,-1.0108535289764404
0.8695522901421696,-0.4474616799029177,0.12260045513596919,-3.0620758533477783,1.0717849731445312,-0.12452592700719833,-0.27915069460868835,-0.7640401721000671,-0.5816508531570435,-0.870415985584259,-2.2373180389404297,-1.139296293258667
0.8454211681908598,-0.42065623809012714,0.10214762444042114,-2.4104652404785156,1.1561633348464966,-0.24903011322021484,-0.27091237902641296,-0.7482506036758423,-0.6055803894996643,-0.7651137113571167,-2.2463479042053223,-1.1554057598114014
0.8275441798426334,-0.3984491030743848,0.08661617431409256,-1.6780171394348145,0.9399508237838745,-0.2213129997253418,-0.26254698634147644,-0.7362717986106873,-0.6236770153045654,-0.6148181557655334,-2.2490341663360596,-1.0712233781814575
0.8163202356172352,-0.38353620595993515,0.07684124114428731,-0.8929634690284729,0.5994922518730164,-0.1513390839099884,-0.2562936842441559,-0.7286304831504822,-0.6351466774940491,-0.4939810335636139,-2.2615582942962646,-0.9640047550201416
0.812016468413293,-0.3760532307044297,0.07262864842314726,-0.12116792798042297,0.2881956100463867,-0.07178300619125366,-0.2526830732822418,-0.7256760597229004,-0.6399575471878052,-0.45137274265289307,-2.258286952972412,-0.8777577877044678
0.8144364324345964,-0.37490041286271714,0.07321173177754335,0.5913575291633606,0.03640624135732651,-0.03638195991516113,-0.2513013482093811,-0.727338969707489,-0.6386123895645142,-0.45705747604370117,-2.226655960083008,-0.7965223789215088
0.8231364554676716,-0.37840967006057297,0.07730403313797696,1.2117310762405396,-0.12738534808158875,-0.09832628816366196,-0.2511935234069824,-0.7332819700241089,-0.6318223476409912,-0.5190396904945374,-2.1521856784820557,-0.7003003358840942
0.8373828682842394,-0.3841938317274629,0.083018782531722,1.685180902481079,-0.1662546843290329,-0.250657320022583,-0.25090259313583374,-0.7428937554359436,-0.6206100583076477,-0.6254860162734985,-2.051967144012451,-0.6095075607299805
0.8556323619581548,-0.3897999400274411,0.08866633543008857,1.9339436292648315,-0.10393992066383362,-0.4343304932117462,-0.24918392300605774,-0.7549857497215271,-0.6065509915351868,-0.7089613080024719,-1.9231455326080322,-0.5131083726882935
0.8760810275749804,-0.393414060266444,0.09257979805879372,2.014850616455078,-0.024156179279088974,-0.6693492531776428,-0.24540407955646515,-0.768235981464386,-0.5912618041038513,-0.7270081043243408,-1.7897170782089233,-0.39137351512908936
0.8981404707261705,-0.39340065332084434,0.09280917224383659,2.052478790283203,0.05968199670314789,-1.0005359649658203,-0.23884065449237823,-0.7821696400642395,-0.5754700899124146,-0.7347463965415955,-1.6722676753997803,-0.3255307078361511
0.9217070882176509,-0.38850280768907663,0.08771072976272225,2.0443551540374756,0.10562364012002945,-1.357466220855713,-0.22897186875343323,-0.7966346740722656,-0.5594151020050049,-0.7366195917129517,-1.551250696182251,-0.34207403659820557
0.9460972954495493,-0.3789845193922662,0.07706048479871569,1.9900314807891846,0.07927299290895462,-1.6201367378234863,-0.2163824439048767,-0.8111391663551331,-0.5433526635169983,-0.6687799692153931,-1.4072753190994263,-0.3498661518096924
0.970826941704138,-0.3658886059216308,0.06169114119099133,1.9675706624984741,0.026393339037895203,-1.808186411857605,-0.20200838148593903,-0.8253529071807861,-0.5272432565689087,-0.5339382886886597,-1.2450666427612305,-0.37174344062805176
0.9961565865714375,-0.34971630481446914,0.042215699216326764,2.026649236679077,-0.03566630184650421,-1.9721015691757202,-0.18623130023479462,-0.8393881916999817,-0.5106326341629028,-0.42465436458587646,-1.0474224090576172,-0.4393795132637024
1.0233762465838097,-0.33095501515809583,0.019330255308364512,2.3059349060058594,-0.07517700642347336,-2.118539333343506,-0.1691301316022873,-0.853870153427124,-0.4922407567501068,-0.3501265048980713,-0.8551448583602905,-0.5651626586914062
1.0540387233161892,-0.31024215193322147,-0.005266474161117572,2.7173357009887695,-0.012525338679552078,-2.1511359214782715,-0.15083235502243042,-0.8694257140159607,-0.47047704458236694,-0.2762458920478821,-0.6342822909355164,-0.7987946271896362
1.088192603586877,-0.28917438196840645,-0.029229255273454168,3.0964159965515137,0.005822490900754929,-2.028247833251953,-0.13233956694602966,-0.8857895731925964,-0.4448181390762329,-0.15347282588481903,-0.3858475089073181,-0.9445860385894775
1.1246407707804293,-0.2703289766004552,-0.05066998837638455,3.333974599838257,-0.07434505224227905,-1.8163682222366333,-0.11523163318634033,-0.9021126627922058,-0.41583001613616943,-0.012896440923213959,-0.17621088027954102,-0.9362205862998962
1.161792623143636,-0.2540831674892706,-0.06994845825273813,3.382633686065674,-0.18639354407787323,-1.6515873670578003,-0.09996401518583298,-0.9175174832344055,-0.38492724299430847,0.07741151750087738,-0.020837128162384033,-0.8376524448394775
1.198221621080282,-0.23860088189841844,-0.08937532627994361,3.282346725463867,-0.30862730741500854,-1.5569583177566528,-0.08603253215551376,-0.9313932061195374,-0.3537023067474365,0.08516276627779007,0.09354817867279053,-0.7123375535011292
1.2329185164365601,-0.22170962772501404,-0.11135396501240451,3.0977821350097656,-0.42803865671157837,-1.5041801929473877,-0.07289304584264755,-0.9434602856636047,-0.3233723044395447,0.06811702996492386,0.1748596429824829,-0.6008371114730835
1.2651940192913056,-0.20194285097033227,-0.13705317034219255,2.8365039825439453,-0.47728022933006287,-1.4239493608474731,-0.060346029698848724,-0.9536659121513367,-0.2947540283203125,0.06356561928987503,0.2568884491920471,-0.5136564373970032
1.294112940577674,-0.17896504705088537,-0.1659269054209389,2.517908811569214,-0.4558192789554596,-1.2923871278762817,-0.04862680286169052,-0.9619666934013367,-0.268804132938385,0.07670295983552933,0.3688421845436096,-0.42066407203674316
1.3201776000529142,-0.15195452425808662,-0.19829277536552137,2.3547332286834717,-0.3797639310359955,-1.2338519096374512,-0.037540409713983536,-0.9687591791152954,-0.24514588713645935,0.05612560734152794,0.5019164085388184,-0.37217873334884644
1.3451063815757776,-0.1175380979349724,-0.2373460960479866,2.326751470565796,-0.34916922450065613,-1.2590150833129883,-0.026242144405841827,-0.9746399521827698,-0.22223591804504395,-0.03879082575440407,0.5830075740814209,-0.4467855393886566
1.3696169132341927,-0.0716138939092375,-0.28777530352308245,2.3491177558898926,-0.30540257692337036,-1.3188430070877075,-0.014298073016107082,-0.9798315763473511,-0.19931358098983765,-0.11187686026096344,0.660907506942749,-0.4673274755477905
1.3941484772140595,-0.009914509791483273,-0.35336051181445177,2.4344587326049805,-0.25429099798202515,-1.3259553909301758,-0.0017422541277483106,-0.9844383001327515,-0.17572195827960968,-0.15372954308986664,0.7683432698249817,-0.4353007674217224
1.4184933295397808,0.07027695307442475,-0.4373523641833789,2.493989944458008,-0.2752404808998108,-1.2599819898605347,0.010653270408511162,-0.9884243011474609,-0.15134017169475555,-0.11940266191959381,0.8695735931396484,-0.39928826689720154
1.4419901851337604,0.17439228601677398,-0.5452664959557241,2.501040458679199,-0.2705296277999878,-1.1543279886245728,0.0222877599298954,-0.9917159676551819,-0.12650419771671295,-0.0664161741733551,0.9114850163459778,-0.31343698501586914
1.4632914222250357,0.31051250263937136,-0.6847859262582068,2.382205009460449,-0.20623134076595306,-1.0018670558929443,0.032785043120384216,-0.9942269325256348,-0.1021682396531105,-0.05118713900446892,0.9677221775054932,-0.22304214537143707
1.4808456917289452,0.48401303253387057,-0.860745745688479,2.148911714553833,-0.11177200824022293,-0.840173602104187,0.041800979524850845,-0.9959571957588196,-0.07951153069734573,-0.026237018406391144,1.0183875560760498,-0.09082215279340744
1.4931234670051394,0.6941235771151243,-1.0723453393413007,1.8246736526489258,-0.04588593542575836,-0.7490261197090149,0.04964033141732216,-0.9969849586486816,-0.05964290723204613,-0.008914612233638763,1.00752854347229,0.058101944625377655
1.4994196126964248,0.9213837988488414,-1.3002822699117997,1.4821280241012573,0.044942308217287064,-0.6811521649360657,0.05679952725768089,-0.9974537491798401,-0.04312662035226822,-0.04363119229674339,0.9937916398048401,0.15503478050231934
1.5009120569247,1.133513435885801,-1.5121558471075836,1.2341827154159546,0.08927887678146362,-0.6073940396308899,0.06325788050889969,-0.9975590705871582,-0.029570873826742172,-0.04040021449327469,0.9864963889122009,0.1675868034362793
1.4993146089817193,1.3186788529944067,-1.697237739498059,1.1198601722717285,0.014744373969733715,-0.5750400424003601,0.06916496902704239,-0.9974462985992432,-0.017816804349422455,-0.03384086489677429,0.9880009889602661,0.12972497940063477
1.49560934084951,1.4760560550261324,-1.8552719890979745,1.020457148551941,-0.05930348485708237,-0.5496190786361694,0.07478220760822296,-0.9971747994422913,-0.007106160279363394,-0.05039864778518677,0.9959996342658997,0.09019047021865845
1.490365973104119,1.6018485395656057,-1.982304702653496,0.910443902015686,-0.10628017783164978,-0.5611191391944885,0.08030879497528076,-0.9967672228813171,0.0024945675395429134,-0.06402764469385147,0.9908465147018433,0.09839677810668945
1.4839307974657296,1.696839351173527,-2.0789081169033534,0.7932509779930115,-0.15119251608848572,-0.5881286859512329,0.08606918156147003,-0.9962295889854431,0.010906236246228218,-0.08684737980365753,0.9631331562995911,0.11021828651428223
1.4769288156185212,1.7648993721162678,-2.1489931382003613,0.674522340297699,-0.19713108241558075,-0.5825968980789185,0.09197120368480682,-0.9955976605415344,0.018079517409205437,-0.07428625971078873,0.9339672923088074,0.11651849746704102
1.4701196057267327,1.8134788963765687,-2.199949466986115,0.5892489552497864,-0.22968770563602448,-0.5127245783805847,0.09756386280059814,-0.9949364066123962,0.024153083562850952,-0.03950414061546326,0.8999807238578796,0.12518489360809326
1.4644212252984996,1.8535501466539381,-2.242746117430093,0.5698015689849854,-0.26540499925613403,-0.34718048572540283,0.10195862501859665,-0.9943475127220154,0.02962287701666355,0.02560485154390335,0.8685387969017029,0.09493482112884521
1.4603527039832576,1.895971571209014,-2.288136072227818,0.609510064125061,-0.26364731788635254,-0.13393771648406982,0.10444435477256775,-0.9939072728157043,0.035212673246860504,0.08194176107645035,0.8529007434844971,0.03157519921660423
1.4578607173452507,1.9452595384539095,-2.339962421050026,0.6421710252761841,-0.16366447508335114,0.050858061760663986,0.1048874706029892,-0.9936295747756958,0.041221484541893005,0.0878005251288414,0.8397597670555115,-0.023139595985412598
1.456378876448464,1.999091828030944,-2.3950464242909946,0.6122762560844421,-0.012701855972409248,0.1546047031879425,0.10385661572217941,-0.9934614896774292,0.04741673544049263,0.052683308720588684,0.7919538021087646,-0.04077887907624245
1.4554471107114275,2.0516041081565537,-2.4473389835805253,0.5389301776885986,0.11749863624572754,0.19993264973163605,0.10204654186964035,-0.9933546781539917,0.05323135480284691,0.00584837794303894,0.7265239953994751,-0.01645743101835251
1.4549339068848075,2.099246909154118,-2.4937030298763965,0.4382917284965515,0.19345465302467346,0.2272377759218216,0.09983590990304947,-0.993295431137085,0.058287955820560455,-0.02563238888978958,0.6576628684997559,0.023285754024982452
1.4550888094072418,2.1400796680918646,-2.5326699729510884,0.3035004436969757,0.22270596027374268,0.2738272249698639,0.09724262356758118,-0.9933133721351624,0.06223118677735329,-0.03671099990606308,0.5911068320274353,0.054910775274038315
1.4564357056597124,2.1743863936655585,-2.5651368116938964,0.16875673830509186,0.18147970736026764,0.36321863532066345,0.09395049512386322,-0.9934679269790649,0.064771369099617,-0.0048086270689964294,0.5324386954307556,0.09938300400972366
1.459194348567491,2.204011130560395,-2.593528683444428,0.032041098922491074,0.10189613699913025,0.45324021577835083,0.0897803083062172,-0.9937789440155029,0.06590324640274048,0.0365014374256134,0.4673048257827759,0.13336145877838135
1.4632650018866942,2.2292860209833494,-2.6183921123465903,-0.08264979720115662,0.010303902439773083,0.5181712508201599,0.0848863422870636,-0.9942240715026855,0.0656755194067955,0.061460718512535095,0.39527058601379395,0.15415799617767334
1.4682743365162172,2.2514453410559434,-2.6410445013353776,-0.16099289059638977,-0.0796840712428093,0.5569239854812622,0.07953880727291107,-0.9947492480278015,0.06440538167953491,0.07707742601633072,0.3302134871482849,0.15997529029846191
1.4739206888366005,2.2719754785532382,-2.662765414693044,-0.22418518364429474,-0.12360944598913193,0.5869333148002625,0.07390683144330978,-0.9953112006187439,0.06239998713135719,0.06922061741352081,0.26496440172195435,0.1501399278640747
1.4800895002135888,2.2933860897104443,-2.685333794547589,-0.24927102029323578,-0.08015838265419006,0.620940625667572,0.06794674694538116,-0.9958889484405518,0.059905946254730225,0.06424015015363693,0.2319575548171997,0.1377260684967041
1.486359248165841,2.3209292621416138,-2.713549768609768,-0.22244633734226227,-0.03768336400389671,0.6307935118675232,0.061702270060777664,-0.9964373111724854,0.05749693885445595,0.04694031551480293,0.2017136812210083,0.09054410457611084
1.4922130032292467,2.3548975100677056,-2.747659965446037,-0.19121547043323517,0.03900434449315071,0.5858256220817566,0.055583249777555466,-0.9969139099121094,0.05543925613164902,0.01770472526550293,0.14040744304656982,0.048336029052734375
1.4972691124335056,2.389699115636917,-2.781655062798915,-0.18055111169815063,0.14685438573360443,0.47275713086128235,0.05017566680908203,-0.9972981214523315,0.053655803203582764,-0.015004158020019531,0.06680190563201904,0.04728125408291817
1.5014104409102962,2.4133000455535383,-2.803376475839048,-0.22618164122104645,0.2249414026737213,0.3076624274253845,0.04614674299955368,-0.9975937604904175,0.05174286663532257,-0.05447803810238838,0.014637768268585205,0.0605163536965847
1.504888787513163,2.415866504771385,-2.803646401988424,-0.2877269983291626,0.2337990701198578,0.16144371032714844,0.04371074587106705,-0.9978289008140564,0.04926541447639465,-0.05689433962106705,-0.02528822422027588,0.09401487559080124
1.508031569763158,2.397036116368634,-2.782504893128345,-0.3660097122192383,0.20664915442466736,0.06666214764118195,0.042505305260419846,-0.998030960559845,0.04612721502780914,-0.04235271364450455,-0.059860944747924805,0.11050450801849365
1.5115467921498869,2.3578027300284954,-2.741538969251463,-0.4843307435512543,0.13058768212795258,0.07245505601167679,0.04180493205785751,-0.9982452392578125,0.04193961247801781,-1.1108815670013428e-05,-0.047943174839019775,0.13065266609191895
1.515931466534862,2.305062742733991,-2.6874388525580577,-0.5545558929443359,0.13160109519958496,0.13981199264526367,0.040710046887397766,-0.9984952807426453,0.03674612194299698,0.04898112267255783,-0.04464143514633179,0.12984955310821533
1.5208691963552323,2.246139748564164,-2.627091391057983,-0.5574411749839783,0.13839533925056458,0.19976907968521118,0.03895436227321625,-0.9987539052963257,0.03120199590921402,0.05543651059269905,-0.05613207817077637,0.06927740573883057
1.5258782835369609,2.1839702638047362,-2.5632035999532388,-0.5158671140670776,0.19522815942764282,0.232298344373703,0.036727067083120346,-0.9989913702011108,0.025843139737844467,0.015030745416879654,-0.054719746112823486,-0.011698126792907715
1.5303894374308795,2.1227301827691187,-2.499860948927913,-0.42409515380859375,0.19847188889980316,0.215863436460495,0.03440446779131889,-0.9991837739944458,0.021185211837291718,-0.019313521683216095,-0.058311641216278076,-0.05885887145996094
1.5340111023063794,2.0668852269624494,-2.442276715457256,-0.31990036368370056,0.1355571150779724,0.18792465329170227,0.032348304986953735,-0.9993234872817993,0.01750803366303444,-0.035247474908828735,-0.07053136825561523,-0.07907700538635254
1.5368858022988612,2.0215744761709145,-2.395902790401438,-0.23437105119228363,0.0731925368309021,0.1720152050256729,0.03052462823688984,-0.9994251132011414,0.014774383045732975,-0.02759493514895439,-0.07627397775650024,-0.08290469646453857
1.5392096542122098,1.9849541356139089,-2.358766529001417,-0.1859806776046753,0.03192952647805214,0.1519487202167511,0.028916018083691597,-0.9995011687278748,0.012711002491414547,-0.016312256455421448,-0.0748245120048523,-0.0697634220123291
1.5412942893351063,1.9524858654768886,-2.325892083289907,-0.16353929042816162,0.0552217960357666,0.15758822858333588,0.027380429208278656,-0.9995648264884949,0.01098976843059063,0.0036254338920116425,-0.07505077123641968,-0.04599320888519287
1.54336312774709,1.9241114183168695,-2.2965609335240122,-0.14114044606685638,0.1368838995695114,0.163605734705925,0.025741325691342354,-0.999623715877533,0.009493140503764153,0.042785897850990295,-0.07592266798019409,-0.03392231464385986
1.5452528346891443,1.9093422986682071,-2.2799878099713804,-0.058906298130750656,0.21871325373649597,0.16599220037460327,0.024092277511954308,-0.9996737837791443,0.008482933044433594,0.055512819439172745,-0.06699186563491821,-0.05137515068054199
1.5469971727754055,1.9379566374681485,-2.3062838698688446,0.05742105096578598,0.23648212850093842,0.21191485226154327,0.022212741896510124,-0.9997168183326721,0.008543017320334911,0.05870461463928223,-0.03749936819076538,-0.08402800559997559
1.5489937262009887,2.028328421903567,-2.3943767264048357,0.13634011149406433,0.22113780677318573,0.31394001841545105,0.019562512636184692,-0.9997623562812805,0.009632166475057602,0.11297532171010971,-0.026772797107696533,-0.09009158611297607
1.5516360565306773,2.1663977659093616,-2.530813889491924,0.07032576203346252,0.10993494838476181,0.42134878039360046,0.015865277498960495,-0.9998164772987366,0.010751880705356598,0.1411629170179367,-0.02546745538711548,-0.018686294555664062
1.5550884618156098,2.347836837206576,-2.711246276804863,-0.025949109345674515,0.09425745159387589,0.48890331387519836,0.011202183552086353,-0.9998766183853149,0.011016483418643475,0.12542501091957092,-0.03363168239593506,0.053131699562072754
1.5588414147762986,2.580769030921495,-2.943636877201597,-0.14554810523986816,0.010000345297157764,0.4695867896080017,0.006365345325320959,-0.9999285340309143,0.010134327225387096,0.0766729861497879,-0.051585257053375244,0.08256304264068604
1.5622679546833562,2.919324709673821,3.0006108993851694,-0.20417732000350952,-0.07623574137687683,0.4230251610279083,0.0018801635596901178,-0.999963641166687,0.008319234475493431,0.03524446859955788,-0.06657993793487549,0.09765326976776123
1.5641724599519864,-2.836540680213599,2.4723677876080496,-0.1822735071182251,-0.08882839232683182,0.3445297181606293,-0.001994224265217781,-0.9999780654907227,0.00633327616378665,-0.0004777011927217245,-0.0759803056716919,0.035903215408325195
1.5638420284101326,-2.3512343964174214,1.9866725190134138,-0.09376148879528046,0.01945173740386963,0.24924685060977936,-0.004959308076649904,-0.9999758005142212,0.004910353105515242,-0.04788188263773918,-0.07647085189819336,-0.05726313591003418
1.562431933621413,-2.1496730410305513,1.7859796942436494,0.035014357417821884,0.15769265592098236,0.1676725447177887,-0.007027205545455217,-0.9999650120735168,0.0045927297323942184,-0.08055824786424637,-0.07231611013412476,-0.12808191776275635
1.5606388573629804,-2.150604904957205,1.7890428645490093,0.15812110900878906,0.24733226001262665,0.1334695667028427,-0.008510060608386993,-0.9999484419822693,0.005573195405304432,-0.0868268609046936,-0.07416367530822754,-0.16363883018493652
1.5583704027189853,-2.2048363358989045,1.8455048693831646,0.19344614446163177,0.1755475401878357,0.17739687860012054,-0.010026057250797749,-0.9999228119850159,0.00737236812710762,-0.05274860933423042,-0.05279654264450073,-0.11781537532806396
1.5554195640713233,-2.21001379419177,1.8518095705157358,0.16243496537208557,0.055466946214437485,0.28880223631858826,-0.012348173186182976,-0.9998818039894104,0.009178745560348034,0.008396141231060028,-0.05126577615737915,-0.0316241979598999
1.551904968782281,-2.154535367261455,1.7965128467399507,0.0782838761806488,-0.010740688070654869,0.38602709770202637,-0.015767181292176247,-0.9998215436935425,0.010414626449346542,0.039464071393013,-0.06505894660949707,0.019797921180725098
1.5483325212531371,-2.064796465055959,1.7065156026710249,-0.029620489105582237,-0.030652610585093498,0.4024777114391327,-0.019781218841671944,-0.9997476935386658,0.010652925819158554,0.018407922238111496,-0.07236546277999878,0.05555522441864014
1.5451774015132143,-1.969175015458306,1.610706191823254,-0.10492468625307083,0.0017635943368077278,0.3536873459815979,-0.023614127188920975,-0.9996718764305115,0.009938794188201427,-0.026175307109951973,-0.08243578672409058,0.050440430641174316
1.542778234232773,-1.8875298370415547,1.529261314577417,-0.1294550746679306,0.04659365117549896,0.24173550307750702,-0.02662508562207222,-0.999607503414154,0.008726853877305984,-0.07032926380634308,-0.092326819896698,0.007691740989685059
1.5414080465046918,-1.8286221803092575,1.4710800868269944,-0.1085299476981163,0.10367244482040405,0.1151931956410408,-0.02842259407043457,-0.9995682239532471,0.007494892459362745,-0.10426785051822662,-0.09543323516845703,-0.03468585014343262
1.5410194883983899,-1.7907262121663416,1.4345867740347065,-0.07934650033712387,0.1774904727935791,0.015704158693552017,-0.02906329371035099,-0.9995567202568054,0.006496977526694536,-0.11382001638412476,-0.08596903085708618,-0.06188619136810303
1.5412961541240753,-1.7687364937935086,1.41463943054154,-0.04883342236280441,0.227042555809021,-0.04162092134356499,-0.028926359489560127,-0.9995648860931396,0.00580165721476078,-0.09766055643558502,-0.0636371374130249,-0.05995488166809082
1.5418765462757884,-1.7557734901776443,1.4039867557852417,-0.03540470078587532,0.22882553935050964,-0.054234184324741364,-0.02842782437801361,-0.9995818734169006,0.005319306626915932,-0.06321646273136139,-0.052465975284576416,-0.04172658920288086
1.5422722702331388,-1.7483553651960415,1.3987320812799817,-0.0023381845094263554,0.1992652267217636,-0.012232942506670952,-0.028080346062779427,-0.999593198299408,0.00503898598253727,-0.024058952927589417,-0.04325371980667114,-0.03302335739135742
1.542134227464993,-1.7534640023513937,1.4055913320951132,0.04839476943016052,0.1494358777999878,0.0304332934319973,-0.028190474957227707,-0.9995892643928528,0.005207538604736328,-8.407607674598694e-05,-0.02332967519760132,-0.03630471229553223
1.5414666589134478,-1.7748444864839672,1.4282462104477653,0.10524872690439224,0.10469124466180801,0.0727493092417717,-0.028721127659082413,-0.9995698928833008,0.005943206138908863,0.009372975677251816,-0.0032225847244262695,-0.04155707359313965
1.5403455612594414,-1.808015697783604,1.4623985237917119,0.13808949291706085,0.09224922209978104,0.09918864071369171,-0.02959909476339817,-0.999536395072937,0.007156219333410263,0.023144621402025223,0.002816915512084961,-0.04487574100494385
1.5390328760305514,-1.8432765157001345,1.4986304007175846,0.14025986194610596,0.09603578597307205,0.09834665805101395,-0.030596211552619934,-0.9994955658912659,0.008549503982067108,0.02058643475174904,-0.016480624675750732,-0.03235292434692383
1.5377219440936012,-1.8708536420381758,1.5271979160942295,0.1137201264500618,0.09692848473787308,0.08980163931846619,-0.0315951369702816,-0.999453067779541,0.009775504469871521,0.0005740076303482056,-0.021375298500061035,-0.009027600288391113
1.536468261516285,-1.887973625620596,1.545277392380825,0.07914051413536072,0.09052218496799469,0.10300522297620773,-0.032611194998025894,-0.99941086769104,0.010704939253628254,0.005328476428985596,-0.006631672382354736,0.015876173973083496
1.5350739749031674,-1.892019137332614,1.5501717921810576,0.04511037468910217,0.08025969564914703,0.1432809978723526,-0.03388989344239235,-0.999362051486969,0.011276762001216412,0.02648937702178955,0.010500907897949219,0.0310666561126709
1.5333656230505817,-1.8856431610491502,1.5445598829811145,0.029278576374053955,0.07685261219739914,0.19229847192764282,-0.035588957369327545,-0.9992995262145996,0.011590613052248955,0.05043574422597885,0.026032745838165283,0.03468954563140869
1.531246464862527,-1.8741191150528154,1.5337069004326993,0.028968583792448044,0.05584985762834549,0.23469358682632446,-0.03773974999785423,-0.9992179870605469,0.011811815202236176,0.06932543218135834,0.026958346366882324,0.02688467502593994
1.528836622767406,-1.8625868358758053,1.5224593537029425,0.03161551430821419,-0.000751027837395668,0.25436729192733765,-0.040180474519729614,-0.9991198182106018,0.012068758718669415,0.05788065865635872,0.012730419635772705,0.019776584580540657
1.5261682280138915,-1.8531272742236933,1.5126998964158802,0.04434995353221893,-0.05288560315966606,0.2848495841026306,-0.04284850135445595,-0.9990043044090271,0.012429480440914631,0.04576292261481285,0.008952975273132324,0.01154231932014227
1.5231274316093069,-1.8481452925003514,1.506975139409894,0.07616450637578964,-0.0946410596370697,0.31893792748451233,-0.04583265632390976,-0.9988640546798706,0.013047927059233189,0.042674072086811066,0.017662763595581055,-0.0032210350036621094
1.519606690625171,-1.8502344316361798,1.5078926615843147,0.1324312388896942,-0.1411217451095581,0.3614038825035095,-0.04918380454182625,-0.9986900687217712,0.014113100245594978,0.03886885941028595,0.029085516929626465,-0.01922452449798584
1.515478882490738,-1.8611764229062044,1.517117377758382,0.18420515954494476,-0.20304809510707855,0.4123963713645935,-0.05297467112541199,-0.9984703660011292,0.015830250456929207,0.05604168772697449,0.032177090644836426,-0.028006557375192642
1.5108855651053679,-1.8753934049339032,1.5291389654315048,0.20435543358325958,-0.2287241667509079,0.4422948658466339,-0.057119421660900116,-0.9982059001922607,0.017957227304577827,0.06551174819469452,0.018088042736053467,-0.028577091172337532
1.5060457468173467,-1.8863130841913678,1.537913168277939,0.18511435389518738,-0.2030123472213745,0.43936142325401306,-0.061512239277362823,-0.9979044198989868,0.02007889561355114,0.045124296098947525,0.000269472599029541,-0.024885179474949837
1.501536965465432,-1.890639700744804,1.5404513084333729,0.1284140646457672,-0.15270790457725525,0.3987639248371124,-0.06569593399763107,-0.9976025223731995,0.0217595174908638,0.011206798255443573,-0.0041828155517578125,-0.01722741313278675
1.4977292741383954,-1.8889595986702006,1.5374706518326289,0.07444576919078827,-0.11088049411773682,0.3323889374732971,-0.06934000551700592,-0.9973317980766296,0.022837284952402115,-0.020808935165405273,-0.012403428554534912,-0.00031507015228271484
1.49480312856463,-1.8845964391561474,1.5319848206096023,0.030394423753023148,-0.1123654693365097,0.24905970692634583,-0.07221470028162003,-0.9971138834953308,0.023435307666659355,-0.04076138138771057,-0.02720874547958374,0.004976749420166016
1.4926986295199547,-1.8793445482192794,1.5255437438613428,0.002694049384444952,-0.11765500158071518,0.18364658951759338,-0.07433553040027618,-0.9969519376754761,0.023692777380347252,-0.03897624462842941,-0.04774117469787598,0.002705095335841179
1.4911899650033678,-1.872788317670091,1.5179213722117533,-0.029052697122097015,-0.08609574288129807,0.1424781084060669,-0.07592591643333435,-0.996833086013794,0.02365245670080185,-0.03468506038188934,-0.057640910148620605,-0.008011937141418457
1.4901249219246386,-1.8637234901594943,1.5083013308030038,-0.051599737256765366,-0.014737268909811974,0.10652061551809311,-0.07715184986591339,-0.9967478513717651,0.023269260302186012,-0.045162610709667206,-0.05256861448287964,-0.017684342339634895
1.4893787879502693,-1.8542741679641812,1.498951128874696,-0.04477724805474281,0.0380399264395237,0.07733157277107239,-0.07808253169059753,-0.9966874122619629,0.022747278213500977,-0.05480626970529556,-0.044709742069244385,-0.020748259499669075
1.48881199469509,-1.8485698235629928,1.493634440327,-0.0009748805314302444,0.038821522146463394,0.05949043482542038,-0.07875511795282364,-0.9966411590576172,0.02245664969086647,-0.05311134457588196,-0.04004108905792236,-0.03147447109222412
1.488236304055011,-1.8505000015165383,1.4957553535819998,0.06778820604085922,-0.009868785738945007,0.0406043566763401,-0.07926411181688309,-0.9965938329696655,0.022767309099435806,-0.041081979870796204,-0.043002963066101074,-0.03657639026641846
1.4876489050788382,-1.8619476264221777,1.5067741842337814,0.13525600731372833,-0.08435238897800446,0.01684974879026413,-0.07955674082040787,-0.9965452551841736,0.023840533569455147,-0.03465530276298523,-0.04447042942047119,-0.03400266543030739
1.4871940630925378,-1.8815444147924683,1.5253168768216177,0.18072256445884705,-0.13372980058193207,-0.02255571261048317,-0.07950741052627563,-0.9965073466300964,0.0255340076982975,-0.04253239929676056,-0.040632665157318115,-0.03090488910675049
1.487097407739787,-1.9062241603789163,1.5487058695644382,0.19074060022830963,-0.13786925375461578,-0.08219744265079498,-0.07894386351108551,-0.9964993000030518,0.02751990035176277,-0.05492150038480759,-0.03998464345932007,-0.021568775177001953
1.4875338259956765,-1.93274904720949,1.5739804527552914,0.17516882717609406,-0.1268237978219986,-0.13934248685836792,-0.07778026908636093,-0.9965356588363647,0.029450243338942528,-0.06478261202573776,-0.037735700607299805,-0.007919788360595703
1.4884733666010381,-1.9590877120486092,1.5991753963471662,0.14017172157764435,-0.11234244704246521,-0.18524058163166046,-0.07610871642827988,-0.9966133832931519,0.031132955104112625,-0.05618498474359512,-0.036238789558410645,0.00870799645781517
1.4898162201705059,-1.9831224766222895,1.6224465150747547,0.10662999004125595,-0.05530579015612602,-0.2196483463048935,-0.07411394268274307,-0.9967228770256042,0.032417405396699905,-0.04147139936685562,-0.0340694785118103,0.0120316743850708
1.4916362188193795,-2.005605918033446,1.644708013802796,0.0728972926735878,-0.005401190370321274,-0.2645595669746399,-0.07172052562236786,-0.9968684911727905,0.033310968428850174,-0.041957467794418335,-0.024554967880249023,0.005995988845825195
1.493906318026433,-2.026956095168109,1.66634706796662,0.04131433367729187,0.04813900217413902,-0.2907072901725769,-0.06896064430475235,-0.9970453977584839,0.03383725881576538,-0.03901055455207825,-0.011865735054016113,0.005637522786855698
1.4963999842354982,-2.045086003798999,1.685279473899582,-0.0031932354904711246,0.09906807541847229,-0.2867816984653473,-0.06612382084131241,-0.9972338676452637,0.033946264535188675,-0.02433028817176819,-0.004475116729736328,0.009404178708791733
1.498929773126067,-2.0585022060602607,1.6999154347636731,-0.03209225833415985,0.1348942518234253,-0.27013906836509705,-0.06343574076890945,-0.9974187016487122,0.03364916518330574,-0.00818902999162674,0.0030490756034851074,0.01815474033355713
1.5013616262631087,-2.069330361409452,1.7121482778664965,-0.03703485056757927,0.13317301869392395,-0.2535376250743866,-0.06093742698431015,-0.9975903630256653,0.033174365758895874,0.0005431249737739563,0.009461581707000732,0.01586759090423584
1.5035276218024154,-2.0804871592630714,1.724616352354488,-0.015528762713074684,0.12223248183727264,-0.22838778793811798,-0.05867588147521019,-0.9977383017539978,0.03279705345630646,0.008260831236839294,0.018535912036895752,0.007654309272766113
1.5052682689332852,-2.0951075119116647,1.7403591307319808,0.02560485154390335,0.08709470182657242,-0.20237493515014648,-0.05668741464614868,-0.9978538155555725,0.032782360911369324,0.020218897610902786,0.024785399436950684,-0.004385590553283691
1.506596772447396,-2.115533939839788,1.7613626880227626,0.06853820383548737,0.017318278551101685,-0.1803034543991089,-0.05487198382616043,-0.997939944267273,0.033246275037527084,0.030793607234954834,0.0250241756439209,-0.009747505187988281
1.507570372432213,-2.141355778243645,1.787123718341626,0.10313856601715088,-0.0360957607626915,-0.17249751091003418,-0.05317944288253784,-0.9980019330978394,0.0341283418238163,0.03691355884075165,0.023529648780822754,-0.0013216696679592133
1.5083591021841234,-2.1721966359039278,1.8175559111960728,0.12349683791399002,-0.05351043492555618,-0.1878168135881424,-0.051450684666633606,-0.9980514049530029,0.03530517593026161,0.025632798671722412,0.020451247692108154,0.005741238594055176
1.5092092850872711,-2.2081853492586316,1.8531204162261954,0.13023924827575684,-0.04023908078670502,-0.21241642534732819,-0.049466297030448914,-0.9981040954589844,0.036629464477300644,0.00567355751991272,0.01963406801223755,0.0025401152670383453
1.5100717613590642,-2.2462869566284116,1.891037070030125,0.12378934025764465,-0.005358860827982426,-0.20711514353752136,-0.04736346751451492,-0.9981568455696106,0.03794904053211212,0.00868242233991623,0.021685659885406494,0.004012946039438248
1.5107449753368547,-2.281094966894744,1.9261720114752812,0.10560539364814758,0.0688684731721878,-0.16735848784446716,-0.0455036498606205,-0.9981974363327026,0.03913532570004463,0.0264454148709774,0.024717092514038086,0.004398226737976074
1.5115238082184814,-2.30063084099957,1.94668135397765,-0.036760807037353516,0.07748113572597504,-0.10846561938524246,-0.04415040463209152,-0.9982439279556274,0.03949781507253647,0.045447394251823425,0.03336954116821289,0.04024481400847435
1.5126363573306716,-2.2914904682158577,1.9380746737211672,-0.16978491842746735,0.056361593306064606,0.013578766956925392,-0.04367399215698242,-0.9983091950416565,0.03835872560739517,0.07425259798765182,0.034426748752593994,0.11750996112823486
1.513462767049832,-2.2577070239221166,1.9049673019736233,-0.22122520208358765,0.0779758095741272,0.10169371217489243,-0.04430961608886719,-0.9983568787574768,0.036340780556201935,0.08895682543516159,0.031315743923187256,0.07570469379425049
1.5139028229909524,-2.2155787598956147,1.8634402324495143,-0.18683351576328278,0.060929957777261734,0.12258394807577133,-0.04544895142316818,-0.9983819723129272,0.03417779505252838,0.06392733752727509,0.03089839220046997,0.028764963150024414
1.5137240320723688,-2.1871015458752834,1.8355124826097313,-0.04074740409851074,0.05091540887951851,0.08997327834367752,-0.046548862010240555,-0.9983718395233154,0.03297268971800804,0.014047637581825256,0.02820265293121338,-0.04131913557648659
1.512944880324281,-2.190025907059631,1.8387332388835358,0.16656798124313354,0.009158252738416195,0.011193664744496346,-0.047085728496313095,-0.9983270764350891,0.033560190349817276,-0.0296659916639328,0.01526421308517456,-0.10092759132385254
1.5115209391603002,-2.230371300961477,1.8791994931574578,0.3683519959449768,0.01171169150620699,-0.0631234422326088,-0.04681629315018654,-0.9982437491416931,0.036302484571933746,-0.05035168305039406,0.0058730244636535645,-0.13891756534576416
1.509518893760734,-2.29279974362851,1.9420303991373877,0.4473504424095154,0.04078857600688934,-0.10301849246025085,-0.04596121981739998,-0.9981231093406677,0.040474310517311096,-0.046125587075948715,0.002242863178253174,-0.1153031587600708
1.5072850111968197,-2.3561197732651045,2.0058640009293387,0.4252323508262634,0.034483008086681366,-0.10366910696029663,-0.044882241636514664,-0.9979838132858276,0.04487553611397743,-0.034722864627838135,0.0008677840232849121,-0.03796315938234329
1.504971568600647,-2.4080599185608715,2.0581232752856145,0.3566479980945587,0.003440854139626026,-0.05702029913663864,-0.04403774067759514,-0.997834324836731,0.04886025935411453,-0.0006400011479854584,0.0024730563163757324,0.016783230006694794
1.502842979377761,-2.4415686460432835,2.091393403614844,0.24616435170173645,-0.06691879779100418,0.014441365376114845,-0.043745238333940506,-0.9976920485496521,0.0519336499273777,0.03808422386646271,-0.0014382600784301758,0.0665053129196167
1.501048046297366,-2.4538643522786288,2.1027239403020954,0.1283022165298462,-0.12497613579034805,0.09818732738494873,-0.04424116015434265,-0.9975685477256775,0.053852539509534836,0.06548137962818146,-0.01550835371017456,0.10081076622009277
1.4996135320276363,-2.448275357086114,2.095711276284476,0.038644496351480484,-0.1475200653076172,0.1534239500761032,-0.045455921441316605,-0.997467577457428,0.05470498278737068,0.06150816008448601,-0.025619208812713623,0.09760845452547073
1.4985478396136465,-2.433360592330455,2.079448059746916,-0.014344839379191399,-0.10678044706583023,0.1497420221567154,-0.04695899412035942,-0.9973912239074707,0.05482922121882439,0.02616124600172043,-0.0166165828704834,0.06171763688325882
1.4979366209062048,-2.4187879304726634,2.064233911632765,-0.02802416682243347,-0.0119966771453619,0.08634867519140244,-0.04815347120165825,-0.9973468780517578,0.05459314584732056,-0.02060263231396675,-0.018857896327972412,0.017764199525117874
1.4977891900960127,-2.411651527069303,2.0574286689358035,-0.004911842755973339,0.07427816838026047,0.0068572829477488995,-0.0486411489546299,-0.9973361492156982,0.05435910075902939,-0.063175268471241,-0.03446328639984131,-0.020011425018310547
1.497798461418528,-2.4144721372109768,2.0612580032256322,0.044194452464580536,0.12094634026288986,-0.043866612017154694,-0.04848156496882439,-0.9973368644714355,0.054489266127347946,-0.06867542117834091,-0.030678391456604004,-0.03919971361756325
1.4975758837479118,-2.425095985099697,2.073208455757391,0.10051171481609344,0.12707002460956573,-0.05577435344457626,-0.04804528132081032,-0.9973205924034119,0.055168114602565765,-0.03795325383543968,-0.01403200626373291,-0.035667188465595245
1.4969988619569379,-2.439830283705926,2.089069540400777,0.13421295583248138,0.08461736142635345,-0.03963533416390419,-0.04759939759969711,-0.9972782135009766,0.05631028488278389,-0.006203107535839081,-0.004644513130187988,-0.017140746116638184
1.496084626097673,-2.454596450052676,2.1044342147131774,0.14359994232654572,0.022386424243450165,-0.014182890765368938,-0.047339871525764465,-0.9972103834152222,0.05771053209900856,0.013801045715808868,-0.008313357830047607,0.007032748311758041
1.495005933804996,-2.4664694738204638,2.1161722732629875,0.12427444756031036,-0.058136649429798126,0.016873829066753387,-0.047324229031801224,-0.9971292614936829,0.05910895764827728,0.022482916712760925,-0.014894723892211914,0.030826564878225327
1.4939350570967096,-2.4731473781864906,2.1219421131306424,0.09217330068349838,-0.12000927329063416,0.04841720685362816,-0.04759012162685394,-0.9970476031303406,0.06026150658726692,0.023252349346876144,-0.0152357816696167,0.04754209145903587
1.4930034042067184,-2.473686139579256,2.1211552313063677,0.04387341067194939,-0.1270298957824707,0.07293639332056046,-0.04813288524746895,-0.9969756603240967,0.06101634353399277,0.02579401805996895,-0.012103378772735596,0.05241774767637253
1.49235796934011,-2.4685293427652906,2.1150077397531177,0.005151599179953337,-0.06873322278261185,0.06231798604130745,-0.04884796589612961,-0.9969252943992615,0.06127038970589638,0.011433403939008713,-0.0092698335647583,0.04464113339781761
1.4921620544840097,-2.4642090384011643,2.1100720200441927,-0.007755943574011326,-0.05724727734923363,0.0038738506846129894,-0.04923462122678757,-0.9969099164009094,0.061210960149765015,-0.02014710009098053,-0.0057146549224853516,0.0289229117333889
1.4922815699638683,-2.466677693604662,2.111869398156918,0.01566585898399353,-0.07808393985033035,-0.045280877500772476,-0.049009278416633606,-0.9969192743301392,0.06123974919319153,-0.03131299093365669,-0.007612645626068115,0.011132951825857162
1.4924081836202963,-2.4746048904800837,2.1188492249355377,0.03554476052522659,-0.11379720270633698,-0.05162639170885086,-0.048443831503391266,-0.9969292283058167,0.06152668967843056,-0.009951554238796234,-0.010669708251953125,-0.0018035247921943665
1.4923841149780406,-2.4835711783001235,2.126583278063323,0.037537865340709686,-0.13075867295265198,-0.03120688535273075,-0.04790378734469414,-0.9969273209571838,0.0619761161506176,0.01775241643190384,0.0010014772415161133,0.001958359032869339
1.4922216277809934,-2.490446397851627,2.132050729994535,0.03135853260755539,-0.14857842028141022,-0.007206212263554335,-0.04757646471261978,-0.9969146251678467,0.062435101717710495,0.036590125411748886,0.015575945377349854,0.014377832412719727
1.4920424941784605,-2.4944553787943935,2.1346038271794696,0.005974436178803444,-0.1343350112438202,0.0024109994992613792,-0.04743371531367302,-0.9969004988670349,0.06276816129684448,0.041665881872177124,0.01960545778274536,0.013419151306152344
1.4921547290598975,-2.4960806482675872,2.13514655302161,-0.03491866961121559,-0.08148804306983948,-0.01783461682498455,-0.04726414009928703,-0.9969093203544617,0.06275555491447449,0.022972140461206436,0.01013857126235962,0.0058329105377197266
1.4927150120605532,-2.496073448626161,2.1345761173275473,-0.07501465827226639,-0.03196766972541809,-0.03323790431022644,-0.04692831635475159,-0.9969531893730164,0.062308721244335175,0.00664510577917099,0.009739935398101807,0.0017478466033935547
1.4934636434525848,-2.4917856139686303,2.130117589317208,-0.09955595433712006,-0.0031205760315060616,-0.013672459870576859,-0.04674241691827774,-0.9970113039016724,0.06151127442717552,0.017720196396112442,0.019304394721984863,-0.0014524534344673157
1.4940752289700803,-2.481159690077366,2.1194528283649667,-0.10093322396278381,-0.005727294832468033,0.039910249412059784,-0.047020722180604935,-0.9970583915710449,0.06053139269351959,0.041954781860113144,0.02739262580871582,-0.006438843905925751
1.494317374345246,-2.466047287889717,2.1040196767604327,-0.08186312764883041,-0.05747278034687042,0.10440002381801605,-0.04777762293815613,-0.9970769286155701,0.05962364003062248,0.06831595301628113,0.03107351064682007,-0.010184895247220993
1.4940376740314525,-2.4489052363880752,2.0858377430166235,-0.05387069657444954,-0.13400262594223022,0.15088516473770142,-0.04897170513868332,-0.9970555305480957,0.059011708945035934,0.07860426604747772,0.024170279502868652,-0.008581165224313736
1.4933471491818073,-2.431211482482717,2.066582038044458,-0.04046940430998802,-0.15671992301940918,0.17660170793533325,-0.0504583865404129,-0.9970023036003113,0.05865946784615517,0.07412475347518921,0.011497914791107178,-0.003849618136882782
1.4924759398641883,-2.4137967776583023,2.0476120214902083,-0.029451075941324234,-0.1396666020154953,0.17386017739772797,-0.05204848200082779,-0.9969345331192017,0.05841869115829468,0.050858285278081894,0.006425380706787109,-0.0068132877349853516
1.4915672148060042,-2.39907997480987,2.031530616880892,-0.009312784299254417,-0.11937571316957474,0.14177387952804565,-0.05351599305868149,-0.9968630075454712,0.05831485614180565,0.02119787037372589,0.006903171539306641,-0.02181565761566162
1.490764814905811,-2.3891933079822554,2.0205026352190365,0.0048728398978710175,-0.09501653909683228,0.09728515148162842,-0.05463653802871704,-0.9967991709709167,0.058366868644952774,0.005548994988203049,-0.009411394596099854,-0.036958567798137665
1.4901825562192212,-2.3846826289666585,2.01530022762459,0.01831780932843685,-0.03371749818325043,0.052087847143411636,-0.05529819428920746,-0.9967524409294128,0.058542173355817795,-0.008178386837244034,-0.023099422454833984,-0.046869032084941864
1.4899384279150314,-2.384276999401545,2.0150464970661024,0.013878874480724335,0.06736771762371063,0.009463312104344368,-0.05548812448978424,-0.996732771396637,0.058695532381534576,-0.017082683742046356,-0.019060194492340088,-0.050119876861572266
1.489987988774725,-2.3855923075019723,2.0174392246218913,0.007451334968209267,0.14090292155742645,-0.004348373971879482,-0.05537688732147217,-0.9967367649078369,0.058732420206069946,-0.011090409010648727,-0.01855260133743286,-0.04441940784454346
1.4900501123128373,-2.3848637824201653,2.0181852307448263,-0.0032777152955532074,0.1451844424009323,0.02751838229596615,-0.05537702515721321,-0.996741771697998,0.05864690616726875,0.012087836861610413,-0.01740318536758423,-0.032264236360788345
1.4897585588335776,-2.3790158187529085,2.013590567501589,0.00019824225455522537,0.1047065258026123,0.09937659651041031,-0.055919237434864044,-0.9967182278633118,0.058531612157821655,0.047343794256448746,-0.016450166702270508,-0.013075355440378189
1.4888094548001072,-2.3685437122801454,2.003728950997233,0.03138764947652817,0.022883102297782898,0.1685001105070114,-0.05719092860817909,-0.9966409802436829,0.05862119048833847,0.0607614740729332,-0.016069769859313965,-0.008038043975830078
1.4871823267261561,-2.3567398563608095,1.9917487863285193,0.06784739345312119,-0.04148230701684952,0.20307432115077972,-0.059024207293987274,-0.99650639295578,0.05908862128853798,0.05379043146967888,-0.013045787811279297,-0.013525828719139099
1.4851527059579686,-2.3472062266178613,1.9817097749851686,0.10994740575551987,-0.04592669755220413,0.2030501514673233,-0.06102769076824188,-0.9963348507881165,0.05994036793708801,0.034828346222639084,-0.025225937366485596,-0.025623086839914322
1.4828780240920436,-2.3421212456344724,1.9762290276983119,0.15046952664852142,-0.028718946501612663,0.1835385113954544,-0.06295684725046158,-0.9961376786231995,0.061209313571453094,0.009856253862380981,-0.03244215250015259,-0.04126596450805664
1.4805495822919248,-2.3426798329060134,1.976665057445614,0.1911352276802063,0.005427679046988487,0.13942238688468933,-0.06458500027656555,-0.995930552482605,0.06286248564720154,-0.011220686137676239,-0.03289353847503662,-0.05334078520536423
1.4783171728725015,-2.349300800789757,1.9836139458437438,0.22335681319236755,0.05111899971961975,0.08732801675796509,-0.06574981659650803,-0.9957268238067627,0.06484948843717575,-0.025558799505233765,-0.04031461477279663,-0.06114136427640915
1.4762757225741945,-2.361837474864698,1.996993307962845,0.24555829167366028,0.10501335561275482,0.031597550958395004,-0.06636067479848862,-0.9955362677574158,0.06711387634277344,-0.03619366139173508,-0.04332798719406128,-0.058233022689819336
