attitudeX,attitudeY,attitudeZ,gyroX,gyroY,gyroZ,gravityX,gravityY,gravityZ,accX,accY,accZ
1.4552777933767551,-0.45332802076770984,0.8072786230202864,0.3922140300273895,-0.038911763578653336,0.17832189798355103,-0.05048030614852905,-0.9933351278305054,-0.10362027585506439,0.040150050073862076,0.1804841160774231,0.02308458834886551
1.457906505120218,-0.4810762790615685,0.8355274225648911,0.36775556206703186,0.0988125428557396,0.15748772025108337,-0.052127283066511154,-0.9936347007751465,-0.09986460208892822,0.0051606930792331696,0.1795629858970642,0.037151165306568146
1.460426228293442,-0.5077309677368794,0.8638983474752047,0.37885451316833496,0.2044224888086319,0.16449062526226044,-0.05355362221598625,-0.9939153790473938,-0.09625307470560074,-0.007695235311985016,0.1960788369178772,0.05561910569667816
1.4629820599122618,-0.5371993836469791,0.8962452810308669,0.4121949076652527,0.33783644437789917,0.18824389576911926,-0.055065494030714035,-0.9941936731338501,-0.09244930744171143,0.0007594004273414612,0.21134144067764282,0.07027847319841385
1.465683720963862,-0.5686677296677721,0.9320870750486436,0.44301995635032654,0.4914511740207672,0.16710786521434784,-0.05650100111961365,-0.9944807291030884,-0.0884084478020668,0.007596515119075775,0.21937984228134155,0.06613074988126755
1.4686612155165322,-0.5988626363668677,0.967992815085904,0.45962637662887573,0.6057490110397339,0.12154330313205719,-0.05747431516647339,-0.9947887659072876,-0.08421535044908524,-0.00014292821288108826,0.22968244552612305,0.07319874316453934
1.4718768409503324,-0.6269994077372574,1.002868078346497,0.4628361761569977,0.6997947692871094,0.08378499001264572,-0.05794331431388855,-0.9951114654541016,-0.07997376471757889,0.0022791698575019836,0.25028419494628906,0.09335590153932571
1.4751314706255152,-0.6536087152184296,1.0370832270753736,0.4472617506980896,0.7809439301490784,0.0604996457695961,-0.05808194354176521,-0.9954276084899902,-0.07583347707986832,0.013633042573928833,0.2809499502182007,0.10236871242523193
1.4781037333437796,-0.6777063722356489,1.0693828528176588,0.3874187171459198,0.8199610710144043,0.05067797005176544,-0.05803662911057472,-0.995707094669342,-0.07210639864206314,0.015403509140014648,0.3028663992881775,0.11368680000305176
1.4803817981387801,-0.6970775129626907,1.09707201633112,0.27544131875038147,0.811683177947998,0.05108143761754036,-0.0579654797911644,-0.995915412902832,-0.0692286491394043,0.003155834972858429,0.31705182790756226,0.13380402326583862
1.4815577879849584,-0.7072413907039679,1.1153066387234005,0.10657750070095062,0.774683952331543,0.04483441263437271,-0.05790600925683975,-0.9960208535194397,-0.06774666160345078,-0.01733514666557312,0.33836692571640015,0.1563851237297058
1.4814450975416888,-0.7038985640413342,1.1194236608929315,-0.07693959772586823,0.7023844718933105,0.021863050758838654,-0.057751912623643875,-0.9960108399391174,-0.06802547723054886,-0.040987759828567505,0.3641289472579956,0.1691151261329651
1.4802080273590699,-0.6861075373730074,1.1080482502432127,-0.2362285554409027,0.5833930969238281,-0.023071208968758583,-0.057312995195388794,-0.9958996772766113,-0.0699952095746994,-0.06120207905769348,0.3878520727157593,0.15776389837265015
1.4782029546310873,-0.656175229285188,1.0831867372836155,-0.3505982756614685,0.4463026523590088,-0.08434522151947021,-0.05641050264239311,-0.9957162737846375,-0.07326091825962067,-0.06524789333343506,0.4116249680519104,0.12747561931610107
1.4757454489450053,-0.6180504710983165,1.0486229144912351,-0.4245128333568573,0.30316707491874695,-0.1459062099456787,-0.05499489977955818,-0.9954860806465149,-0.07735193520784378,-0.0614144504070282,0.44078320264816284,0.10236126184463501
1.4730506862974166,-0.5738283505383626,1.0069659199054595,-0.46251559257507324,0.23371529579162598,-0.20997893810272217,-0.052977629005908966,-0.9952266812324524,-0.08196011185646057,-0.038636207580566406,0.47452038526535034,0.09993511438369751
1.4699641746116001,-0.5261080320546544,0.9607094511212351,-0.5529599785804749,0.11357444524765015,-0.2432754933834076,-0.050550173968076706,-0.9949207305908203,-0.08705028891563416,-0.07834088802337646,0.49818599224090576,0.11070162057876587
1.4655677652806485,-0.47307443561448503,0.9083598061380951,-0.7437152862548828,0.08799318224191666,-0.2804819941520691,-0.04785683751106262,-0.9944685697555542,-0.09349966049194336,-0.11257413029670715,0.5155866742134094,0.16097420454025269
1.458938672909826,-0.4131066204666393,0.8489998072600208,-1.0034430027008057,0.10470856726169586,-0.3061691224575043,-0.044812608510255814,-0.9937504529953003,-0.10223494470119476,-0.09768930077552795,0.536032497882843,0.23629885911941528
1.4494512264849455,-0.35198524665647773,0.7886728823469985,-1.2721705436706543,0.13630244135856628,-0.28245100378990173,-0.041732992976903915,-0.9926466941833496,-0.11362721771001816,-0.08224475383758545,0.5489820241928101,0.2599286437034607
1.4371586141026886,-0.2959265272020537,0.7336315486031273,-1.4855356216430664,0.14819957315921783,-0.2738206088542938,-0.038856495171785355,-0.9910837411880493,-0.12744908034801483,-0.06571203470230103,0.543711245059967,0.24369068443775177
1.422719186244555,-0.24345208693375509,0.6819757877768803,-1.668233871459961,0.1131553128361702,-0.3583988845348358,-0.035564739257097244,-0.9890565872192383,-0.14318759739398956,-0.07577869296073914,0.5546844601631165,0.2044212818145752
1.4066579872244864,-0.1923287673775531,0.6310868681431452,-1.7831287384033203,0.05305463448166847,-0.49084970355033875,-0.031233610585331917,-0.9865595102310181,-0.16038964688777924,-0.11337399482727051,0.5491204857826233,0.17891396582126617
1.3899906024842108,-0.14378864748138037,0.5821361856974885,-1.7595837116241455,0.015478232875466347,-0.598907470703125,-0.02576751820743084,-0.9836991429328918,-0.1779673844575882,-0.13672339916229248,0.53974449634552,0.13254213333129883
1.373760447861224,-0.09960359193739717,0.5374389915852982,-1.6492143869400024,0.0525074228644371,-0.6648136377334595,-0.0194665789604187,-0.9806511402130127,-0.19479377567768097,-0.10466375946998596,0.5193320512771606,0.0738222748041153
1.3583037612373587,-0.05919253692456677,0.4973999854702532,-1.5603833198547363,0.19869711995124817,-0.705349862575531,-0.012476297095417976,-0.9775083065032959,-0.21052859723567963,-0.06839534640312195,0.4913631081581116,0.05844438076019287
1.3430543067056573,-0.021525984522292457,0.4618628827772403,-1.5516953468322754,0.3973856270313263,-0.7088381052017212,-0.004859734792262316,-0.974178671836853,-0.22572645545005798,-0.05057549476623535,0.45223647356033325,0.09553863108158112
1.3270784327229477,0.012326403758462836,0.43181621746973475,-1.6548653841018677,0.5062226057052612,-0.67656409740448,0.0029744466301053762,-0.9704474806785583,-0.24129469692707062,-0.014510124921798706,0.3933447003364563,0.14376068115234375
1.309195801665264,0.04173483925381308,0.40666798033653234,-1.8974461555480957,0.49377766251564026,-0.6786129474639893,0.010790646076202393,-0.9659772515296936,-0.25840234756469727,0.0018435725942254066,0.2974284887313843,0.18181857466697693
1.287980083208057,0.06801455843804574,0.3843578818767239,-2.269577741622925,0.4596191644668579,-0.7590066194534302,0.01896562986075878,-0.9602733254432678,-0.2784165143966675,-0.029845207929611206,0.20490211248397827,0.22549915313720703
1.2627735391475412,0.09348980172407391,0.36226706221265753,-2.6295971870422363,0.40448999404907227,-0.9342748522758484,0.028302520513534546,-0.9529348611831665,-0.3018512725830078,-0.08289852738380432,0.12599998712539673,0.22665610909461975
1.2338463885209205,0.11966966810296803,0.3388364415902288,-2.935993194580078,0.3930272161960602,-1.1489070653915405,0.03946969285607338,-0.9437674283981323,-0.3282460868358612,-0.11472609639167786,0.018489599227905273,0.13926607370376587
1.2017734384681815,0.14591358366929252,0.3151690764683942,-3.1734745502471924,0.41261184215545654,-1.298158049583435,0.05244510993361473,-0.9326802492141724,-0.3568713963031769,-0.0659034252166748,-0.09325981140136719,0.01550188660621643
1.1675759793452998,0.1691306639946992,0.29471435339292046,-3.301053047180176,0.43775874376296997,-1.2555937767028809,0.0660480335354805,-0.9198021292686462,-0.3867841362953186,0.03523975610733032,-0.1965615153312683,-0.11948710680007935
1.1330812313022476,0.1859398228118148,0.2812724714520784,-3.2497904300689697,0.46617281436920166,-1.013961672782898,0.07836120575666428,-0.9057225584983826,-0.41656509041786194,0.16333797574043274,-0.31528592109680176,-0.2666013240814209
1.1006175201441577,0.1959972224725379,0.2754834758319009,-2.977376937866211,0.5036466717720032,-0.7132678627967834,0.08822831511497498,-0.8914873003959656,-0.4443718492984772,0.26965129375457764,-0.4412612318992615,-0.4473516643047333
1.0724715581463655,0.202202056126443,0.2742897150217578,-2.4750919342041016,0.5135099291801453,-0.5259118676185608,0.09598623216152191,-0.8783844709396362,-0.46821728348731995,0.3000555634498596,-0.5441619753837585,-0.6932052969932556
1.0502249845962344,0.2079606006626805,0.27315163102159906,-1.8393759727478027,0.42124733328819275,-0.49876388907432556,0.10269065946340561,-0.8675351738929749,-0.4866594970226288,0.2889719009399414,-0.6309695839881897,-0.9351390600204468
1.034086682507567,0.21474955235647283,0.2693344857989402,-1.2311575412750244,0.2848564088344574,-0.5548121929168701,0.1089618057012558,-0.8593957424163818,-0.4995662271976471,0.23037834465503693,-0.7634223699569702,-1.0605685710906982
1.0233951575221711,0.22345314908921846,0.2622462595353742,-0.705394446849823,0.24940253794193268,-0.6183546781539917,0.11533521860837936,-0.853879988193512,-0.5075300335884094,0.17554304003715515,-0.8972339630126953,-1.0679550170898438
1.0172559841764195,0.23442690004533917,0.2523462579666685,-0.26067185401916504,0.2649753987789154,-0.6629193425178528,0.12211309373378754,-0.8506686687469482,-0.5113232135772705,0.1672545224428177,-1.0307248830795288,-1.0129077434539795
1.0151447912886216,0.24771731930244723,0.24036798465929696,0.15326540172100067,0.3567862808704376,-0.651606023311615,0.1293378472328186,-0.8495569229125977,-0.5113950371742249,0.16173876821994781,-1.1821967363357544,-0.9285005331039429
1.0172473149833499,0.2626020727805709,0.2273772958810219,0.6019287109375,0.39290574193000793,-0.5526649951934814,0.136471226811409,-0.8506641387939453,-0.5076871514320374,0.19469022750854492,-1.3043195009231567,-0.8862183690071106
1.0242366342674918,0.2774771018533579,0.21436167351300636,1.1068624258041382,0.3623712658882141,-0.37080255150794983,0.14237554371356964,-0.8543176651000977,-0.499870628118515,0.2591289281845093,-1.3878241777420044,-0.8635326027870178
1.036777536028051,0.2912685490654111,0.20242390891801265,1.6347848176956177,0.3466533422470093,-0.09521070122718811,0.14616739749908447,-0.8607684969902039,-0.48755812644958496,0.337398886680603,-1.4262189865112305,-0.8196164965629578
1.055006600743075,0.30319901498461665,0.19253234751739232,2.11922550201416,0.3308807611465454,0.21724653244018555,0.14726370573043823,-0.8699035048484802,-0.4707243740558624,0.4007861614227295,-1.4561922550201416,-0.7409607172012329
1.078311136252825,0.3131512380895391,0.18508495350110113,2.5190162658691406,0.356357604265213,0.5047485828399658,0.14565525949001312,-0.88116055727005,-0.44982314109802246,0.4176686704158783,-1.4423717260360718,-0.637395977973938
1.1059125205390763,0.32156061646739204,0.17995478086763003,2.8433406352996826,0.4273398816585541,0.761454164981842,0.14169014990329742,-0.8938736915588379,-0.4253397285938263,0.410983145236969,-1.3879562616348267,-0.5423267483711243
1.1369976031426698,0.3290224898478816,0.1773385023779146,3.089198589324951,0.5999840497970581,1.0006715059280396,0.13581325113773346,-0.9073756337165833,-0.39777418971061707,0.40413421392440796,-1.317523717880249,-0.4498514235019684
1.170728181013685,0.33582804605020117,0.17752012690861885,3.251415967941284,0.7830790281295776,1.2100034952163696,0.1283540278673172,-0.9210344552993774,-0.36772415041923523,0.3987150192260742,-1.2411818504333496,-0.37666046619415283
1.2063753368462138,0.3405742786961041,0.18141590203920402,3.3437840938568115,0.8763387203216553,1.4211204051971436,0.11905059218406677,-0.9343302845954895,-0.3359375,0.39504846930503845,-1.1539266109466553,-0.3337705433368683
1.2431810339506926,0.34086498706930773,0.1907031832177758,3.3522427082061768,0.926048755645752,1.6231616735458374,0.10757400840520859,-0.9468123912811279,-0.3032727837562561,0.39979591965675354,-1.0287736654281616,-0.28304606676101685
1.2804163770065278,0.3340879988514357,0.2078551106044889,3.298497200012207,0.9826610088348389,1.815595269203186,0.09388535469770432,-0.958135187625885,-0.27048587799072266,0.3892230987548828,-0.8986763954162598,-0.2303837239742279
1.3174603134759453,0.3164107707173041,0.23673434714996153,3.19937801361084,1.0375313758850098,2.00649094581604,0.07798715680837631,-0.9680817127227783,-0.23819364607334137,0.3803410530090332,-0.774472177028656,-0.19123435020446777
1.3537342854963443,0.28156174658076355,0.2833500723462628,3.0623369216918945,1.0381193161010742,2.1917107105255127,0.059839747846126556,-0.976534366607666,-0.20688186585903168,0.38506072759628296,-0.6466346979141235,-0.1635097861289978
1.3881817475762352,0.21818558211113162,0.3581764929619229,2.8491275310516357,0.9586631059646606,2.37711238861084,0.03930933400988579,-0.9833722710609436,-0.17729665338993073,0.37218964099884033,-0.5199238061904907,-0.12507134675979614
1.4197114589022575,0.11069948819733422,0.47700663076089417,2.718729019165039,0.9953755140304565,2.5194766521453857,0.016627591103315353,-0.9886083602905273,-0.14959071576595306,0.36287370324134827,-0.3787776231765747,-0.09000265598297119
1.447654028166571,-0.06116582262793848,0.6610623693859536,2.7098729610443115,1.0961183309555054,2.6184420585632324,-0.00750849349424243,-0.9924275875091553,-0.12260323017835617,0.31695666909217834,-0.25484126806259155,-0.1829996109008789
1.4694652355188285,-0.3293507691688031,0.9425084503673765,2.728482484817505,1.198763370513916,2.6889076232910156,-0.03271780535578728,-0.9948704242706299,-0.09572218358516693,0.2913694679737091,-0.15515416860580444,-0.25077420473098755
1.4800590942183052,-0.707099414783545,1.334517203323563,2.7609896659851074,1.2908942699432373,2.751138210296631,-0.058864776045084,-0.9958862066268921,-0.06888816505670547,0.29560479521751404,-0.03232729434967041,-0.2574361562728882
1.4749380051751109,-1.1143455679418293,1.7568257930936215,2.772883892059326,1.3519482612609863,2.8063838481903076,-0.08591295033693314,-0.9954091310501099,-0.04218635335564613,0.2881528437137604,0.09584248065948486,-0.2666819095611572
1.4558010895787397,-1.430224347965055,2.088413985987731,2.7329659461975098,1.4306374788284302,2.8224897384643555,-0.11361170560121536,-0.9933953285217285,-0.01607665605843067,0.2538246214389801,0.20378339290618896,-0.24895310401916504
1.4282818030947213,-1.633067751466412,2.3082804632573426,2.661618709564209,1.6249582767486572,2.8360185623168945,-0.14175818860530853,-0.9898619651794434,0.008838911540806293,0.20630277693271637,0.2998594641685486,-0.21767044067382812
1.3967977024279485,-1.757645129196015,2.451990686569874,2.588308811187744,1.8371613025665283,2.8098642826080322,-0.170109361410141,-0.9849004149436951,0.03215986490249634,0.17673160135746002,0.3869999051094055,-0.206292986869812
1.3639790216742904,-1.8343682804818437,2.5499095010976003,2.4685239791870117,2.033196210861206,2.7241978645324707,-0.19825464487075806,-0.978689432144165,0.0534990020096302,0.16228961944580078,0.43894028663635254,-0.18373262882232666
1.33159561310357,-1.881663898034663,2.6202871384689526,2.335993766784668,2.218841791152954,2.580141544342041,-0.2255706638097763,-0.971527636051178,0.07247232645750046,0.13890063762664795,0.4985660910606384,-0.1638113260269165
1.3005186944569849,-1.9106087302345927,2.6739321399668117,2.2001640796661377,2.3541462421417236,2.429081439971924,-0.25173208117485046,-0.9636967778205872,0.08899379521608353,0.1268692910671234,0.5626804232597351,-0.16072523593902588
1.2709164493782954,-1.927491912162399,2.716534824765085,2.056291103363037,2.425436019897461,2.307443141937256,-0.27681225538253784,-0.9553719758987427,0.1031499132514,0.1276879608631134,0.6300085783004761,-0.14654575288295746
1.2425378857989502,-1.9355253146989342,2.750666825426278,1.9092155694961548,2.436809539794922,2.251798629760742,-0.30118852853775024,-0.9466052651405334,0.1149972453713417,0.13120552897453308,0.6886858344078064,-0.1242896318435669
1.214805768201673,-1.9374290264140006,2.7783047681317488,1.7927734851837158,2.3663644790649414,2.252143621444702,-0.3253566324710846,-0.9373016953468323,0.1249350979924202,0.15650278329849243,0.7318268418312073,-0.11198020726442337
1.1875113870228382,-1.9352914994898247,2.80091660791242,1.6797070503234863,2.2637386322021484,2.246493101119995,-0.3494013845920563,-0.9274411797523499,0.13331186771392822,0.17639708518981934,0.7698634266853333,-0.10583065450191498
1.1607164031569424,-1.9305862795345519,2.8200016702057438,1.589101791381836,2.187527894973755,2.2272262573242188,-0.3731556534767151,-0.9170889854431152,0.14036737382411957,0.18849369883537292,0.7966817617416382,-0.10562288761138916
1.134477056877401,-1.924240385499349,2.8366082666497445,1.5063154697418213,2.0892019271850586,2.1945531368255615,-0.39648371934890747,-0.9063133001327515,0.1462772637605667,0.2093498408794403,0.8160728216171265,-0.12177146971225739
1.109215313859884,-1.9171694249884847,2.8512527717507865,1.4076707363128662,1.9547474384307861,2.0914957523345947,-0.4189145267009735,-0.8953495025634766,0.1511961966753006,0.21157798171043396,0.841852068901062,-0.12813997268676758
1.0856592428812164,-1.9098087108887485,2.864453914276773,1.299496054649353,1.8624883890151978,1.9238804578781128,-0.4397883415222168,-0.8846110105514526,0.15508083999156952,0.17936646938323975,0.8756844997406006,-0.12462413311004639
1.0642221283130027,-1.9020006282772033,2.8765311696264466,1.18636155128479,1.8111495971679688,1.7276978492736816,-0.4588155448436737,-0.8744117617607117,0.15777337551116943,0.16775408387184143,0.913123369216919,-0.13404585421085358
1.0451808032287828,-1.8939820372235368,2.8876544662254604,1.0663788318634033,1.7034087181091309,1.5114810466766357,-0.47576993703842163,-0.8650152683258057,0.1593490093946457,0.16462785005569458,0.9345494508743286,-0.14917123317718506
1.0287661316412722,-1.8866122767643951,2.89768995834984,0.9241126179695129,1.478371024131775,1.274845838546753,-0.49036291241645813,-0.8566631078720093,0.1602271944284439,0.16152063012123108,0.938495934009552,-0.15520691871643066
1.015263333103417,-1.88041345937805,2.9062154959010114,0.7457483410835266,1.2069200277328491,1.010244607925415,-0.502318799495697,-0.849619448184967,0.16069449484348297,0.15968263149261475,0.9457193613052368,-0.15301920473575592
1.0050371776009523,-1.8751938436619675,2.9127595422441352,0.5279038548469543,0.9356928467750549,0.7212401032447815,-0.5114132761955261,-0.8441818952560425,0.16066618263721466,0.1596064567565918,0.95372474193573,-0.15363168716430664
0.9983957751522734,-1.870541808161199,2.9168229154002536,0.28023937344551086,0.6778789162635803,0.4083930552005768,-0.5175004005432129,-0.8406031131744385,0.15993732213974,0.15627896785736084,0.9575923085212708,-0.14390017092227936
0.9956342418538197,-1.8659027701431707,2.918070970618255,0.006113262381404638,0.45888370275497437,0.08155552297830582,-0.5204558372497559,-0.8391041159629822,0.15820945799350739,0.13515609502792358,0.9548572897911072,-0.12702037394046783
0.9966924582647001,-1.8606073474216902,2.9160206127431216,-0.27885302901268005,0.2566101551055908,-0.21534603834152222,-0.5204352140426636,-0.8396793007850647,0.15519742667675018,0.10451102256774902,0.9470095634460449,-0.10707104206085205
1.0012085850497912,-1.8543235299721406,2.9105198705514095,-0.5436886548995972,0.07540309429168701,-0.47324442863464355,-0.5177541971206665,-0.8421233892440796,0.1508617103099823,0.08971452713012695,0.94295334815979,-0.09892058372497559
1.0086952641586593,-1.8468187423866875,2.9016246762858096,-0.7746047377586365,-0.07241421937942505,-0.6941036581993103,-0.5127914547920227,-0.8461371660232544,0.14524957537651062,0.0755658745765686,0.9417028427124023,-0.10157881677150726
1.0187131471791913,-1.8382596260527158,2.8898842391084956,-0.946715772151947,-0.20725113153457642,-0.8952663540840149,-0.5058147311210632,-0.8514338135719299,0.138607919216156,0.07176309823989868,0.9401941299438477,-0.10520625114440918
1.0309502054407549,-1.8292000257805014,2.8760199250465357,-1.0644813776016235,-0.34638673067092896,-1.0854644775390625,-0.49693864583969116,-0.8577877879142761,0.13134734332561493,0.0627802312374115,0.9404752850532532,-0.11059525609016418
1.0450710652603397,-1.8201785703275533,2.860842800742201,-1.1226378679275513,-0.45210355520248413,-1.2551299333572388,-0.48631638288497925,-0.8649601936340332,0.12385699152946472,0.0372043251991272,0.9415287375450134,-0.11798227578401566
1.0608581649614308,-1.811753132324347,2.845462730135861,-1.1066665649414062,-0.5298721194267273,-1.4353995323181152,-0.47402140498161316,-0.8727747201919556,0.11648178100585938,0.004081219434738159,0.9341303706169128,-0.1349143087863922
1.0783486641139532,-1.8050109263882044,2.831361160478151,-1.0201773643493652,-0.5887695550918579,-1.6415737867355347,-0.45987585186958313,-0.8811782598495483,0.10972335934638977,-0.03661471605300903,0.9279769659042358,-0.16282379627227783
1.097742918264051,-1.8010601502751942,2.8199652440989627,-0.8905941247940063,-0.6325755715370178,-1.8812952041625977,-0.44358161091804504,-0.890181303024292,0.10398513823747635,-0.05840215086936951,0.9263903498649597,-0.17210018634796143
1.119199467566529,-1.8005960322392391,2.812384676103573,-0.7485291361808777,-0.6168032884597778,-2.1258575916290283,-0.4249306619167328,-0.8997513651847839,0.09940491616725922,-0.07629010081291199,0.926225483417511,-0.15215446054935455
1.1425748168119463,-1.8022432013942038,2.807771435689038,-0.7129213213920593,-0.5318573117256165,-2.311445474624634,-0.40418121218681335,-0.9097056984901428,0.09525342285633087,-0.09499487280845642,0.9162974953651428,-0.11205316334962845
1.1673758195244226,-1.8024611086986422,2.803128946149757,-0.7946473956108093,-0.3453649878501892,-2.406769037246704,-0.38207948207855225,-0.919723629951477,0.09013258665800095,-0.06962653994560242,0.8874054551124573,-0.02349735051393509
1.193098187348948,-1.7976470539671485,2.795731350067894,-0.9153563380241394,-0.045364346355199814,-2.4583003520965576,-0.35933399200439453,-0.9295159578323364,0.08294285833835602,-0.03516682982444763,0.8584557175636292,0.05141091346740723
1.21962680276564,-1.7862354251810229,2.7849351531435125,-0.980844259262085,0.30959296226501465,-2.5414514541625977,-0.33604419231414795,-0.9389710426330566,0.07353833317756653,-0.027527064085006714,0.8330902457237244,0.06110536307096481
1.2471989498424776,-1.7704888276844726,2.7731061779065747,-0.8939663171768188,0.5882962942123413,-2.6814916133880615,-0.3116604685783386,-0.9480976462364197,0.0630769431591034,-0.025223135948181152,0.8206562399864197,-0.004376180469989777
1.276034302296376,-1.7567547691169754,2.765684058557044,-0.6305147409439087,0.716831624507904,-2.8789138793945312,-0.2855040431022644,-0.9568713307380676,0.05371245741844177,0.0030332207679748535,0.8176043033599854,-0.1286025047302246
1.3062481635646468,-1.7533350217818362,2.769308158619857,-0.269389271736145,0.6285179853439331,-3.0720624923706055,-0.2571297287940979,-0.9652107357978821,0.04746447503566742,0.08667370676994324,0.7929694056510925,-0.22878456115722656
1.337174813076484,-1.768184679119353,2.7898198699871313,0.08629772812128067,0.3637393116950989,-3.1321122646331787,-0.22700728476047516,-0.9728344082832336,0.045399755239486694,0.2342245876789093,0.7089793682098389,-0.27734851837158203
1.3668028923925735,-1.804983797874532,2.829990193054185,0.31878459453582764,0.14036373794078827,-2.99934458732605,-0.19705218076705933,-0.9792653918266296,0.04700970649719238,0.44369515776634216,0.5917683839797974,-0.22202789783477783
1.3942461246077205,-1.8589102731249074,2.886226179698684,0.2838212847709656,0.15051491558551788,-2.834014654159546,-0.1683954894542694,-0.9844554662704468,0.049905676394701004,0.5752252340316772,0.4289286732673645,-0.13309645652770996
1.4204097914295581,-1.918947483195806,2.949377082368507,0.023966826498508453,0.298114538192749,-2.82135272026062,-0.14083251357078552,-0.988713264465332,0.051113005727529526,0.5653624534606934,0.25812238454818726,-0.04766440764069557
1.4481941339063558,-1.9828336416336523,3.017290584820877,-0.394319087266922,0.3639015257358551,-3.0051119327545166,-0.11206214129924774,-0.992493748664856,0.04897737875580788,0.4592300057411194,0.11958396434783936,0.02070964127779007
1.4793949110790758,-2.049967524216915,3.0881494642677025,-0.9170527458190918,0.2655077874660492,-3.26369309425354,-0.08099537342786789,-0.9958258271217346,0.04208178445696831,0.3976456820964813,0.005133628845214844,0.07400727272033691
1.5144706663610432,-2.145976788528349,-3.0975385858645965,-1.3473106622695923,-0.040076613426208496,-3.476602077484131,-0.047238994389772415,-0.998414158821106,0.030625123530626297,0.36317214369773865,-0.1303548812866211,0.07432496547698975
1.5512930802252725,-2.4854398860952154,-2.7603474304160858,-1.6818821430206299,-0.4508303105831146,-3.537658214569092,-0.011900470592081547,-0.9998098015785217,0.015455986373126507,0.3737930953502655,-0.26317548751831055,0.002198575995862484
1.5475640673475697,1.452291792023059,-0.4211823108392013,-1.927630066871643,-0.8257037997245789,-3.397359848022461,0.0230699609965086,-0.9997301697731018,-0.002746765036135912,0.4412854313850403,-0.35496044158935547,-0.03958100080490112
1.5104875511616203,1.1730132715656199,-0.15122187891008726,-2.0997540950775146,-1.0436882972717285,-3.104767084121704,0.05556703358888626,-0.9981819987297058,-0.023348290473222733,0.5299736261367798,-0.45030438899993896,-0.034207701683044434
1.4745076521211797,1.0761763051388378,-0.06461234504895415,-2.1979188919067383,-1.009804368019104,-2.7830169200897217,0.08461936563253403,-0.9953678250312805,-0.04563837870955467,0.547002911567688,-0.5764402151107788,-0.004806995391845703
1.4403880921836318,1.0167044513146581,-0.013822506442272346,-2.1798224449157715,-0.7719671130180359,-2.546922206878662,0.11058270931243896,-0.9915089011192322,-0.06842298805713654,0.48312145471572876,-0.6834942102432251,0.004763491451740265
1.4078392320008517,0.9811962770007789,0.015645575988540564,-2.0368025302886963,-0.49558746814727783,-2.452836513519287,0.13484518229961395,-0.9867518544197083,-0.0902082622051239,0.3522305190563202,-0.7876011729240417,-0.046510323882102966
1.3770248936847014,0.965717076961596,0.027741378647127314,-1.7511272430419922,-0.2233564406633377,-2.3739728927612305,0.1583738476037979,-0.9812849760055542,-0.10953443497419357,0.23328867554664612,-0.8684160709381104,-0.12244480848312378
1.349331933486003,0.9662784285779544,0.026068092185758583,-1.313900113105774,0.007077566348016262,-2.191518545150757,0.1807302087545395,-0.9755768179893494,-0.12484659999608994,0.22117097675800323,-0.9244019389152527,-0.1919410228729248
1.3263764956761672,0.9793665767161414,0.013708519422991568,-0.7888493537902832,0.20077407360076904,-1.8958075046539307,0.2008896917104721,-0.9702779054641724,-0.13492321968078613,0.2786940038204193,-1.0140056610107422,-0.24482214450836182
1.3090142830506837,1.0013027763605862,-0.006240062352972496,-0.28749197721481323,0.3153720200061798,-1.544610857963562,0.21795687079429626,-0.9659303426742554,-0.13954782485961914,0.3354335427284241,-1.1085479259490967,-0.2560971975326538
1.296719524377399,1.028998709337335,-0.03116935274153983,0.09058628231287003,0.41940781474113464,-1.245788335800171,0.23189544677734375,-0.9626754522323608,-0.13957226276397705,0.3419875204563141,-1.1951462030410767,-0.2015683501958847
1.2878684014308484,1.0594233500277972,-0.05798764315135792,0.26730459928512573,0.4924039840698242,-1.0194097757339478,0.24345603585243225,-0.9602421522140503,-0.13661843538284302,0.29134929180145264,-1.2794584035873413,-0.10677440464496613
1.2812164141614182,1.0876267790315521,-0.08248006961628901,0.29591086506843567,0.4254564344882965,-0.8065820336341858,0.2528623044490814,-0.9583638906478882,-0.13266322016716003,0.2500063180923462,-1.3508708477020264,-0.0035976171493530273
1.2759786478502801,1.1093853973133818,-0.10169962772752929,0.19887541234493256,0.2354004681110382,-0.629264235496521,0.2601798176765442,-0.9568551182746887,-0.1293632984161377,0.22390520572662354,-1.4018638134002686,0.08305300772190094
1.2716001318311758,1.1224526970241389,-0.1139889620559979,0.06411712616682053,0.029338348656892776,-0.4679405093193054,0.2656210660934448,-0.9555737376213074,-0.127767413854599,0.1870003044605255,-1.4462971687316895,0.14688684046268463
1.268359783649626,1.1276958651588225,-0.12030385089742844,0.005160600878298283,-0.18851728737354279,-0.27175527811050415,0.2690832018852234,-0.9546136260032654,-0.1276998072862625,0.16284725069999695,-1.4797890186309814,0.14401163160800934
1.266857565536991,1.1272729529130143,-0.12272678422845856,0.0009071975946426392,-0.343438059091568,-0.058974072337150574,0.2703242003917694,-0.9541651010513306,-0.1284288614988327,0.1694645881652832,-1.5083746910095215,0.12702518701553345
1.2673984472593762,1.1231311403681392,-0.12217615106197716,0.020271042361855507,-0.3595432639122009,0.16929398477077484,0.26932454109191895,-0.9543268084526062,-0.12932389974594116,0.1605917513370514,-1.5240973234176636,0.1282559186220169
1.2703932334285737,1.1173795699846263,-0.11971752723516003,0.12547466158866882,-0.3188791871070862,0.44048216938972473,0.26600614190101624,-0.9552173018455505,-0.12961842119693756,0.14993315935134888,-1.5035688877105713,0.11576355993747711
1.2769547153724803,1.1125247671297303,-0.11774426655141665,0.35984429717063904,-0.27249622344970703,0.7953262329101562,0.2597469389438629,-0.9571382999420166,-0.12813261151313782,0.18010282516479492,-1.458083987236023,0.06371010839939117
1.2880730525843695,1.1104357244448635,-0.11803509461846867,0.6299578547477722,-0.18790052831172943,1.1830183267593384,0.24992921948432922,-0.9602993130683899,-0.1239393949508667,0.2389775812625885,-1.4135106801986694,0.00827789306640625
1.3035103844789626,1.1110747286492437,-0.1198390614943784,0.8085675239562988,-0.019291536882519722,1.5185202360153198,0.23669402301311493,-0.9644912481307983,-0.11718770116567612,0.25418123602867126,-1.3681353330612183,0.0025180429220199585
1.3221333135691113,1.1133121969523072,-0.1213838412095715,0.8956342935562134,0.16215743124485016,1.7623101472854614,0.22080053389072418,-0.9692423343658447,-0.1087043508887291,0.24286827445030212,-1.3117941617965698,0.027512431144714355
1.3428739728149286,1.1155896498072437,-0.1213839084283878,0.917186439037323,0.2853270173072815,1.9421087503433228,0.20294570922851562,-0.9741379618644714,-0.09934049099683762,0.2465324103832245,-1.2409043312072754,0.035711467266082764
1.3649249870130045,1.1159158699757503,-0.1184152306595477,0.8977369070053101,0.3534107208251953,2.054753303527832,0.18363432586193085,-0.9788832664489746,-0.08981345593929291,0.26114407181739807,-1.1755664348602295,0.025452017784118652
1.3878208042804736,1.1124112657468115,-0.11111484564218588,0.8623554706573486,0.37045255303382874,2.1676313877105713,0.16317366063594818,-0.9833066463470459,-0.08051624894142151,0.27791208028793335,-1.1138463020324707,-0.011158473789691925
1.4116597194970602,1.1027550795166265,-0.09759958966461221,0.8568493127822876,0.3613061010837555,2.2902414798736572,0.14142483472824097,-0.9873644709587097,-0.07149083912372589,0.31336337327957153,-1.021043300628662,-0.055584199726581573
1.4366785969849918,1.0862898211831498,-0.07743077153725814,0.9155791997909546,0.3350324034690857,2.4081013202667236,0.11832766234874725,-0.9910196661949158,-0.06228203698992729,0.34860652685165405,-0.902764081954956,-0.10776174813508987
1.4630530238393988,1.0623961645829525,-0.0500592324989049,1.011124849319458,0.3195883333683014,2.530245780944824,0.09393517673015594,-0.9942013025283813,-0.05234633758664131,0.3791177272796631,-0.7733463644981384,-0.16377902030944824
1.4908580917867311,1.0236425392635382,-0.0079586148323046,1.1012587547302246,0.3130963444709778,2.654175043106079,0.06819715350866318,-0.9968066215515137,-0.041545428335666656,0.41515547037124634,-0.6340986490249634,-0.19095265865325928
1.5199542514820554,0.9418449164003688,0.07709399394720375,1.1883574724197388,0.2979981303215027,2.780726671218872,0.041097935289144516,-0.9987078309059143,-0.02989915758371353,0.4451690912246704,-0.48783403635025024,-0.20636779069900513
1.5491150273045646,0.6267216665910698,0.39525657907891343,1.2563687562942505,0.27476391196250916,2.8904941082000732,0.012716354802250862,-0.9997649788856506,-0.01756146550178528,0.4571627378463745,-0.35065317153930664,-0.21629458665847778
1.55346037719985,-1.2917110128304956,2.316524870187924,1.2883986234664917,0.25908610224723816,2.9657351970672607,-0.01666945405304432,-0.9998497366905212,-0.004776869900524616,0.4540778398513794,-0.23408281803131104,-0.2194814682006836
1.523568191511293,-1.7424853144111188,2.770082303588503,1.2835766077041626,0.2613860070705414,2.9820399284362793,-0.0465189591050148,-0.9988849759101868,0.008066205307841301,0.43183383345603943,-0.13037234544754028,-0.225244402885437
1.4916867995285212,-1.833875330239156,2.864243269294029,1.2378740310668945,0.24613462388515472,2.953205108642578,-0.07630785554647446,-0.9968724846839905,0.020551318302750587,0.4053940773010254,-0.03179877996444702,-0.23449468612670898
1.4602792121623214,-1.8676885611635208,2.9002991263977718,1.143922209739685,0.1636759638786316,2.8675546646118164,-0.10546949505805969,-0.9938992261886597,0.03226674348115921,0.39680546522140503,0.06285345554351807,-0.23084449768066406
1.4301513107060195,-1.882345107880289,2.9162636412660508,1.0309349298477173,0.07641664892435074,2.7375545501708984,-0.1334337592124939,-0.9901257753372192,0.042970478534698486,0.38199931383132935,0.14468204975128174,-0.21769869327545166
1.4017576170915238,-1.8878405732395263,2.922374127286916,0.8941217660903931,0.03401486948132515,2.5858867168426514,-0.1598503589630127,-0.9857469201087952,0.05244886130094528,0.35833656787872314,0.21369802951812744,-0.20286989212036133
1.3753483269846347,-1.887414595274835,2.9220154542736116,0.7284330129623413,-0.022982023656368256,2.4198219776153564,-0.18455305695533752,-0.9809607863426208,0.06046705320477486,0.33004552125930786,0.2692908048629761,-0.18848812580108643
1.3510208497079563,-1.8825845487210173,2.9165489818998007,0.554969072341919,-0.07609744369983673,2.266601324081421,-0.20750030875205994,-0.9759464263916016,0.06687741726636887,0.2917897403240204,0.321924090385437,-0.15783488750457764
1.3287129695673525,-1.8739395204132572,2.906789147550176,0.36545488238334656,-0.09274225682020187,2.1031453609466553,-0.22879549860954285,-0.9708406329154968,0.0715634748339653,0.2601674795150757,0.39704906940460205,-0.13691675662994385
1.308628922078962,-1.8620957259712576,2.893326214880662,0.16978392004966736,-0.15414808690547943,1.9181900024414062,-0.24825702607631683,-0.9658305048942566,0.07443451881408691,0.2312433421611786,0.45447778701782227,-0.1355915069580078
1.290825125885886,-1.8487444478757533,2.8771269270933875,0.003321934025734663,-0.3061279058456421,1.7345541715621948,-0.2657226324081421,-0.9610633850097656,0.0758197233080864,0.21951892971992493,0.5090828537940979,-0.13241447508335114
1.2750029903325777,-1.8355972092320842,2.8593248614878846,-0.12118431180715561,-0.46777644753456116,1.5757107734680176,-0.28133878111839294,-0.9565711617469788,0.0762903019785881,0.20806601643562317,0.5725226998329163,-0.12682723999023438
1.260747334373504,-1.8232366192554863,2.8410293445997534,-0.20205913484096527,-0.5419381856918335,1.4583536386489868,-0.29543522000312805,-0.9523186087608337,0.07620543241500854,0.19042417407035828,0.6289849877357483,-0.11825849115848541
1.2475109721013995,-1.8110814512638804,2.822338257088348,-0.27827534079551697,-0.5740311145782471,1.389137625694275,-0.30855685472488403,-0.9481968283653259,0.07560226321220398,0.1729518473148346,0.6664890050888062,-0.10708093643188477
1.2349694550430967,-1.7989190719127028,2.8032789443031105,-0.3354899287223816,-0.5904445648193359,1.3277430534362793,-0.32101261615753174,-0.9441381096839905,0.07452759146690369,0.1409740447998047,0.6993870735168457,-0.09207510948181152
1.2230724295811175,-1.7868657546225768,2.78451752352809,-0.3538668155670166,-0.514591634273529,1.258735179901123,-0.3328360617160797,-0.9401507377624512,0.07305614650249481,0.10107016563415527,0.7361711263656616,-0.07352900505065918
1.2118872568332848,-1.775411663214387,2.767710697988194,-0.3048192858695984,-0.33981138467788696,1.161954641342163,-0.3439261019229889,-0.9362805485725403,0.07137139141559601,0.08417561650276184,0.7810375690460205,-0.06598484516143799
1.2015630255199374,-1.7659393053674601,2.754823369340646,-0.17409934103488922,-0.16829261183738708,1.036137342453003,-0.3540514409542084,-0.9326043128967285,0.06998122483491898,0.06808632612228394,0.8270742893218994,-0.08362244814634323
1.1920686900027821,-1.7595522490085127,2.74736927310507,0.009765947237610817,0.06013806536793709,0.9295316338539124,-0.3631722033023834,-0.9291358590126038,0.06937680393457413,0.05407479405403137,0.8650182485580444,-0.10401415824890137
1.1830813317221192,-1.7568269761667883,2.7462233035797894,0.24279120564460754,0.26136013865470886,0.8492152094841003,-0.3715512156486511,-0.9257753491401672,0.06992846727371216,0.07211264967918396,0.889169454574585,-0.12414276599884033
1.1743256218415885,-1.7588009743719335,2.7518477496081197,0.5003949403762817,0.3709638714790344,0.7868783473968506,-0.3793613612651825,-0.922429621219635,0.0721740573644638,0.09339618682861328,0.8987020254135132,-0.14466845989227295
1.1655912982396157,-1.7656399178352953,2.763790802120713,0.7398222088813782,0.46204665303230286,0.7460512518882751,-0.3867484927177429,-0.9190216064453125,0.07632376998662949,0.10105806589126587,0.906387209892273,-0.13400185108184814
1.1568660221723992,-1.7759912727894287,2.78076933288287,0.9186311364173889,0.5809165835380554,0.6876402497291565,-0.3937731981277466,-0.9155470728874207,0.0819537341594696,0.1153917908668518,0.9173781275749207,-0.12357950955629349
1.148489946580056,-1.787833248205548,2.8007915954089366,1.003348469734192,0.7038142681121826,0.6077587604522705,-0.40025025606155396,-0.9121460914611816,0.0882592722773552,0.11156907677650452,0.9226287603378296,-0.09968793392181396
1.1406732640828168,-1.7993025493259787,2.821569836171871,0.9990496039390564,0.7696454524993896,0.5338624715805054,-0.40614384412765503,-0.9089144468307495,0.09445615857839584,0.11491450667381287,0.9333284497261047,-0.060566194355487823
1.1335294876106659,-1.8093463861356027,2.8411198539822244,0.9152210354804993,0.7557439804077148,0.4742540121078491,-0.4114733636379242,-0.905912458896637,0.1000622883439064,0.12706473469734192,0.9408703446388245,-0.02674366533756256
1.1271083630835135,-1.8173398617085168,2.8578907638265334,0.772805392742157,0.6633211374282837,0.4256964921951294,-0.4162929058074951,-0.903174638748169,0.10476566106081009,0.14566296339035034,0.9457772374153137,-0.0026537328958511353
1.1216203930312032,-1.82345040970768,2.8712913939929794,0.6182904243469238,0.5278500914573669,0.34311985969543457,-0.4204384386539459,-0.9008052349090576,0.10854499787092209,0.1556066870689392,0.9559502601623535,0.0031037479639053345
1.1174548251738363,-1.828212542225786,2.881808701655886,0.47714468836784363,0.40746310353279114,0.22268716990947723,-0.42354142665863037,-0.898988664150238,0.11150015890598297,0.1378968060016632,0.9684466123580933,-0.0048105791211128235
1.1148355518704562,-1.8320790663212816,2.889928511886541,0.34464335441589355,0.27277374267578125,0.09838757663965225,-0.4253807067871094,-0.8978384137153625,0.11374489963054657,0.12823092937469482,0.974010169506073,-0.009786605834960938
1.1137271851635797,-1.8357277223598703,2.8961107651285363,0.24436524510383606,0.10063499957323074,-0.029587773606181145,-0.42592307925224304,-0.8973497748374939,0.11555672436952591,0.12668278813362122,0.9713242053985596,-0.021180853247642517
1.1141566845562798,-1.8403528495672106,2.9014585484374726,0.19705204665660858,-0.06278935074806213,-0.18552491068840027,-0.4250124394893646,-0.8975392580032349,0.11742275208234787,0.11010140180587769,0.9636859893798828,-0.06053781509399414
1.1162667218826838,-1.8469856719397753,2.907424785200287,0.19174420833587646,-0.18300849199295044,-0.3595425486564636,-0.42240116000175476,-0.8984676599502563,0.11972245573997498,0.07326465845108032,0.9549708366394043,-0.09912288188934326
1.1200182202375635,-1.8554009715259685,2.914262292528866,0.1681147813796997,-0.2652010917663574,-0.5245717167854309,-0.4181404411792755,-0.9001083970069885,0.12232547253370285,0.05688855051994324,0.948219358921051,-0.10779894143342972
1.1253939133678998,-1.8647463766944279,2.9214644844124074,0.12386547029018402,-0.29833903908729553,-0.682214081287384,-0.41234245896339417,-0.9024373888969421,0.12482418119907379,0.04175204038619995,0.9490985870361328,-0.08751629292964935
1.1325071541053928,-1.8747463496004217,2.929259080292256,0.09917689859867096,-0.2861015498638153,-0.8748823404312134,-0.4049379825592041,-0.9054790735244751,0.12701672315597534,0.0038758516311645508,0.9515910744667053,-0.08055354654788971
1.1416369260460675,-1.8857966183778894,2.938518378516784,0.08815374970436096,-0.2377827763557434,-1.1011786460876465,-0.395632803440094,-0.909315824508667,0.12891685962677002,-0.03384116291999817,0.9574267864227295,-0.08483411371707916
1.1530287265346548,-1.8979412337930524,2.949724077032631,0.062114957720041275,-0.1441124826669693,-1.3458871841430664,-0.3842030465602875,-0.9139969348907471,0.13037465512752533,-0.0468578040599823,0.9735978841781616,-0.07785382866859436
1.1667844299674455,-1.910220254877633,2.9619647517489422,-0.05351172015070915,-0.07201928645372391,-1.5547845363616943,-0.37068241834640503,-0.9194912910461426,0.1308838278055191,-0.03076118230819702,0.9841427206993103,-0.05225516855716705
1.182621753246221,-1.9210733452203057,2.973186294079033,-0.21392802894115448,-0.031196225434541702,-1.7032760381698608,-0.3555162847042084,-0.9256015419960022,0.12988518178462982,0.04608318209648132,0.9807467460632324,-0.004610419273376465
1.2001522141731837,-1.9305337638880922,2.9831588285493473,-0.2911239564418793,-0.0063751135021448135,-1.827103614807129,-0.3390301465988159,-0.9320942163467407,0.12751029431819916,0.09022027254104614,0.9566457271575928,-0.0020524561405181885
1.2189706098194995,-1.940448509210788,2.9940327578874673,-0.34284093976020813,0.06108515337109566,-1.9507176876068115,-0.32133540511131287,-0.9387451410293579,0.12450560927391052,0.09933516383171082,0.9099669456481934,-0.06456887722015381
1.2391700923810214,-1.9497894520857162,3.00481296659531,-0.46429574489593506,0.08789889514446259,-2.0546164512634277,-0.3024774193763733,-0.9455141425132751,0.12046032398939133,0.12834396958351135,0.8676332235336304,-0.0937114953994751
1.2605959400103977,-1.9583927796081095,3.0141260482547434,-0.5890270471572876,-0.06070256233215332,-2.1221301555633545,-0.282606303691864,-0.9522724151611328,0.11537345498800278,0.16430482268333435,0.8302783966064453,-0.0949876457452774
1.2830537434694156,-1.9671919708427197,3.0214237059938105,-0.7300781607627869,-0.3066456615924835,-2.1741676330566406,-0.26178357005119324,-0.9588869214057922,0.10956978797912598,0.21103274822235107,0.7773988246917725,-0.11239242553710938
1.3064577868505978,-1.9748540369327394,3.0248555508628385,-0.9228097796440125,-0.5623986124992371,-2.186671733856201,-0.24023181200027466,-0.9652655124664307,0.10271940380334854,0.2712986171245575,0.7445623874664307,-0.12492085993289948
1.3305313415384301,-1.9779667424855076,3.0209741128608654,-1.1468514204025269,-0.8048642873764038,-2.1354458332061768,-0.21850571036338806,-0.9712749719619751,0.09423522651195526,0.3653714954853058,0.7102886438369751,-0.11266769468784332
1.3548036985528422,-1.9728367560846745,3.006438666449373,-1.350267767906189,-0.9843426942825317,-2.055901288986206,-0.19722943007946014,-0.9767641425132751,0.08386204391717911,0.4339083433151245,0.6317474842071533,-0.10053979605436325
1.3786161134195913,-1.9579579434045669,2.9807402650260553,-1.4040865898132324,-1.0580284595489502,-1.936907172203064,-0.1768634170293808,-0.9815901517868042,0.07211443036794662,0.44096240401268005,0.5380628108978271,-0.11741757392883301
1.4016714576235494,-1.938840051887488,2.950462223261498,-1.282028317451477,-1.0583951473236084,-1.9549332857131958,-0.1570492535829544,-0.9857324361801147,0.0605604350566864,0.41867631673812866,0.44633400440216064,-0.1836528778076172
1.4246900425561282,-1.9243878330980757,2.92530432357448,-1.0676301717758179,-1.0115221738815308,-2.057607650756836,-0.1365816742181778,-0.9893454313278198,0.05041282996535301,0.3365632891654968,0.3253285884857178,-0.24807500839233398
1.4484271145673981,-1.9259456912487718,2.916769395079383,-0.8074854612350464,-0.9753548502922058,-2.285550832748413,-0.11444704979658127,-0.9925222396850586,0.042445551604032516,0.2498687505722046,0.2570790648460388,-0.26716160774230957
1.473179471568917,-1.9452930475247363,2.9268422734642807,-0.7850557565689087,-0.8829130530357361,-2.394162178039551,-0.09070668369531631,-0.9952392578125,0.03565184772014618,0.17026592791080475,0.16903692483901978,-0.23354291915893555
1.4991983118750443,-1.9643079767349267,2.9376811438677386,-1.0130975246429443,-0.7421950697898865,-2.482574224472046,-0.0660720095038414,-0.9974379539489746,0.027430841699242592,0.12544390559196472,0.11142098903656006,-0.08584129810333252
1.5274562973462626,-1.9431496021893149,2.910415788636452,-1.3976815938949585,-0.4319264590740204,-2.648059129714966,-0.04036135971546173,-0.9990609884262085,0.015764053910970688,0.05945002660155296,-0.008263468742370605,0.07392728328704834
1.5587092913181297,-1.5232356576913504,2.488892820659085,-1.8742843866348267,0.15550082921981812,-3.0063891410827637,-0.012090777046978474,-0.9999269247055054,-0.0005754794692620635,0.03850364685058594,-0.18156123161315918,0.15519297122955322
1.541205325234627,0.751089681564673,0.21922202339089708,-2.3184683322906494,0.7721835970878601,-3.4110710620880127,0.020197074860334396,-0.9995622038841248,-0.021632755175232887,0.061040639877319336,-0.41170811653137207,0.16001486778259277
1.4978360044690282,0.8838571732397792,0.09581432211399804,-2.6521332263946533,1.0657079219818115,-3.7267515659332275,0.0563637837767601,-0.9973395466804504,-0.046229757368564606,0.16711637377738953,-0.6631525158882141,0.06168705224990845
1.4504944283982077,0.9124338451110292,0.07726013263043595,-2.9493064880371094,0.8839573264122009,-3.8449275493621826,0.09493037313222885,-0.9927724599838257,-0.07342716306447983,0.3324834704399109,-0.8962506055831909,-0.07488811761140823
1.4014029287504879,0.909135194270664,0.08659385624211954,-3.2633070945739746,0.25843751430511475,-3.6897377967834473,0.13300874829292297,-0.9856871962547302,-0.10358322411775589,0.5010396242141724,-1.0945892333984375,-0.16040895879268646
1.3525153842730373,0.883293475719658,0.11155889587266694,-3.558648109436035,-0.5202304720878601,-3.308664083480835,0.16735857725143433,-0.9762711524963379,-0.13742592930793762,0.6332852840423584,-1.2861648797988892,-0.19364386796951294
1.305461976099481,0.8435820292000499,0.14410768703701796,-3.675865411758423,-1.046804428100586,-2.7972352504730225,0.1958954632282257,-0.9650048613548279,-0.1743299812078476,0.7043883204460144,-1.4630348682403564,-0.22601473331451416
1.262657488492758,0.8016368912107047,0.17612022204715488,-3.3933112621307373,-1.1397701501846313,-2.224546194076538,0.21790973842144012,-0.952899694442749,-0.21094506978988647,0.6763315200805664,-1.578564167022705,-0.3099440932273865
1.2270731001781834,0.7683181680553204,0.20079518643824934,-2.6957950592041016,-0.7972971200942993,-1.690194010734558,0.2341870218515396,-0.9415065050125122,-0.24232666194438934,0.6102800965309143,-1.6860265731811523,-0.4644451141357422
1.2006781715756465,0.7507697748510974,0.21392210016555968,-1.7257410287857056,-0.24648410081863403,-1.2858504056930542,0.24676986038684845,-0.9322845935821533,-0.26448073983192444,0.5155134201049805,-1.8028228282928467,-0.6237790584564209
1.1842969450285756,0.7504528543056603,0.2138864803115271,-0.6607367396354675,0.133041113615036,-0.9432888031005859,0.2570676803588867,-0.9262343049049377,-0.27569273114204407,0.4042634963989258,-1.905903935432434,-0.7446624040603638
1.1778591488238273,0.7628751238849042,0.2022637675057712,0.3054268956184387,0.1624748259782791,-0.5648953318595886,0.26458731293678284,-0.9237883687019348,-0.27678266167640686,0.3532715141773224,-1.9784791469573975,-0.773876428604126
1.1805559688337601,0.7811829019612588,0.18315236993665365,1.0674558877944946,-0.05777978152036667,-0.09591030329465866,0.26785504817962646,-0.924817681312561,-0.270122766494751,0.34548720717430115,-2.025515079498291,-0.690311074256897
1.1912914948942184,0.8009318331345522,0.15950091197922595,1.6751395463943481,-0.3761651813983917,0.36928480863571167,0.2659928500652313,-0.9288482069969177,-0.2578549087047577,0.3477155864238739,-2.032409906387329,-0.5471986532211304
1.208781504797077,0.8205731543604458,0.1329907479135435,2.096247673034668,-0.6207427382469177,0.8389508128166199,0.2590806484222412,-0.9351851344108582,-0.24146664142608643,0.3173200488090515,-1.9785876274108887,-0.3903539180755615
1.232155170062209,0.8396066745434724,0.10554657793799245,2.4251439571380615,-0.6945218443870544,1.3361868858337402,0.2472877949476242,-0.9432069659233093,-0.2218325287103653,0.3120993375778198,-1.8893890380859375,-0.20614588260650635
1.2609569546593542,0.8592827930875048,0.0781265985027602,2.661931037902832,-0.5357269048690796,1.8136152029037476,0.23092815279960632,-0.9523825645446777,-0.1990979015827179,0.3361341953277588,-1.7805888652801514,-0.04781976342201233
1.294044330364132,0.8818190690887494,0.05041786902584168,2.799830675125122,-0.24871933460235596,2.183368444442749,0.21090778708457947,-0.9619479775428772,-0.17370747029781342,0.28817665576934814,-1.6545681953430176,0.08543550968170166
1.3298833663218894,0.9091305738395032,0.021147936152615933,2.8176779747009277,0.045245710760354996,2.4407620429992676,0.18824003636837006,-0.9711205363273621,-0.14659710228443146,0.21540063619613647,-1.5272927284240723,0.1798919439315796
1.3667889427640867,0.9417901966442662,-0.010588608375069955,2.7059528827667236,0.2889590859413147,2.5841104984283447,0.16382180154323578,-0.9792625904083252,-0.11919569224119186,0.16508135199546814,-1.397141456604004,0.246667742729187
1.4031784467711428,0.9795592644006285,-0.04506323861480426,2.484837055206299,0.4840417504310608,2.625389575958252,0.1385149508714676,-0.9859849810600281,-0.09299184381961823,0.12315797805786133,-1.2668685913085938,0.2917681932449341
1.438145932117597,1.023324694726765,-0.08371391194753273,2.242626667022705,0.6140433549880981,2.6143505573272705,0.11293159425258636,-0.9912148118019104,-0.068846695125103,0.09567119926214218,-1.1421623229980469,0.28916847705841064
1.471312957856705,1.078993946169859,-0.13311682785030482,2.0347440242767334,0.7026715278625488,2.5523335933685303,0.08754901587963104,-0.995055615901947,-0.046900492161512375,0.09103979915380478,-1.0113683938980103,0.23453795909881592
1.5024317359718389,1.168537943188857,-0.21541836001190362,1.8915183544158936,0.7942522764205933,2.4332168102264404,0.06285888701677322,-0.9976640343666077,-0.026743805035948753,0.08969838917255402,-0.8746046423912048,0.14556413888931274
1.5305758910241716,1.3739924449657268,-0.4129141247663744,1.798022985458374,0.8438848257064819,2.266818046569824,0.03943431004881859,-0.9991912841796875,-0.007862599566578865,0.07787519693374634,-0.7444306015968323,0.04576551914215088
1.5504742459704592,2.0855904119264492,-1.1160041763142248,1.7152835130691528,0.9129436016082764,2.0648698806762695,0.017693083733320236,-0.999793529510498,0.010008443146944046,0.097861647605896,-0.6152731776237488,-0.02688455581665039
1.5438043983618475,-3.0567124036822086,-2.2474179391836455,1.6341582536697388,1.0335158109664917,1.8894082307815552,-0.0022886348888278008,-0.9996357560157776,0.026898318901658058,0.1486203372478485,-0.48313724994659424,-0.08176875114440918
1.5232711342641312,-2.6829424351659936,-2.6102849189288606,1.5146760940551758,1.1827640533447266,1.7794780731201172,-0.02103327587246895,-0.9988709092140198,0.04259742051362991,0.21604052186012268,-0.3563689589500427,-0.11559534817934036
1.501987840113816,-2.534523675668862,-2.74649711550796,1.3229995965957642,1.28351891040802,1.7335374355316162,-0.03922240436077118,-0.9976336359977722,0.05647045746445656,0.2976756989955902,-0.24081552028656006,-0.11991632729768753
1.4817640133707328,-2.4414757302417582,-2.8269350261247235,1.1036198139190674,1.2636204957962036,1.7208061218261719,-0.05728943273425102,-0.9960392117500305,0.06800027191638947,0.36060357093811035,-0.12467312812805176,-0.12131428718566895
1.4627467181012035,-2.3677520599126343,-2.8888799928485844,0.8881056308746338,1.1316449642181396,1.7266547679901123,-0.07536891847848892,-0.9941683411598206,0.07713153213262558,0.39156144857406616,-0.0068999528884887695,-0.14465153217315674
1.4448115051951804,-2.3043379383427482,-2.94245815797764,0.6923556923866272,0.8906494379043579,1.7108566761016846,-0.09333525598049164,-0.9920744299888611,0.08412454277276993,0.41172507405281067,0.11220687627792358,-0.18966948986053467
1.4279624689918657,-2.2498187916859713,-2.990000578530246,0.5234265923500061,0.582284688949585,1.6647363901138306,-0.11077435314655304,-0.9898165464401245,0.08939998596906662,0.41657567024230957,0.2224215269088745,-0.2342972755432129
1.4123220992878902,-2.203495448800673,-3.0327817631384444,0.3644469380378723,0.2199217677116394,1.5828059911727905,-0.1272662878036499,-0.9874691963195801,0.0933188870549202,0.40506768226623535,0.322521448135376,-0.2715108394622803
1.3979444702077135,-2.1629517537314156,-3.0732572263911884,0.197404682636261,-0.07991127669811249,1.5342419147491455,-0.14271043241024017,-0.9850983023643494,0.09599871933460236,0.3693033456802368,0.4231168031692505,-0.27727293968200684
1.3841989238001706,-2.125028112395615,-3.1134700982978463,0.09768423438072205,-0.22281689941883087,1.5551519393920898,-0.15774649381637573,-0.9826411604881287,0.09763606637716293,0.33815106749534607,0.5099999904632568,-0.26703906059265137
1.369923380518483,-2.089297516255247,3.131036738557271,0.088627889752388,-0.20617587864398956,1.6534547805786133,-0.17330031096935272,-0.9798927903175354,0.09888054430484772,0.35423892736434937,0.5585060119628906,-0.284976601600647
1.3542588081248292,-2.055957011571556,3.0955198702022733,0.13522301614284515,-0.06224901229143143,1.7926148176193237,-0.19005602598190308,-0.9766471982002258,0.1001952514052391,0.364753782749176,0.600243330001831,-0.28693222999572754
1.3367210547027484,-2.0263950794975436,3.065824519584386,0.28034505248069763,0.19469302892684937,1.917526364326477,-0.2082856148481369,-0.9727292656898499,0.10205558687448502,0.35579225420951843,0.6529507040977478,-0.2845200300216675
1.3172264400406595,-2.002999410254059,3.045202394721627,0.4997362196445465,0.47793808579444885,2.0170540809631348,-0.2277940809726715,-0.9680230617523193,0.10507917404174805,0.33945778012275696,0.6959282159805298,-0.291312575340271
1.2959602017647092,-1.9865131082682757,3.034211348815139,0.7228212356567383,0.6778246164321899,2.0700433254241943,-0.24827443063259125,-0.9624696969985962,0.10959948599338531,0.32995468378067017,0.7266908884048462,-0.29705357551574707
1.273865625657888,-1.9768805997484264,3.031920221765069,0.9171143174171448,0.7985429167747498,2.003864288330078,-0.268792062997818,-0.9562390446662903,0.11557620018720627,0.30690842866897583,0.7566998600959778,-0.29451584815979004
1.2522799872815145,-1.9735972915182314,3.037165782224692,1.0570595264434814,0.837608814239502,1.813460111618042,-0.2880946695804596,-0.9497010707855225,0.12275679409503937,0.2328578233718872,0.775842547416687,-0.2925260365009308
1.2325983133961365,-1.975554127117816,3.0477597341858162,1.1007732152938843,0.7547797560691833,1.517822504043579,-0.3049790859222412,-0.943354070186615,0.13065695762634277,0.16359105706214905,0.7946264743804932,-0.2809253931045532
1.2159085172958384,-1.981379333315133,3.061254920305516,1.0452138185501099,0.6088600754737854,1.1717026233673096,-0.3186052739620209,-0.937685489654541,0.13869668543338776,0.10037398338317871,0.8094353675842285,-0.2468050867319107
1.2027932703254174,-1.9889128100032603,3.0749561801086815,0.8761979937553406,0.4439736604690552,0.8367578387260437,-0.3287622630596161,-0.9330475926399231,0.1460741013288498,0.07690057158470154,0.8212922811508179,-0.19262851774692535
1.1933647246699428,-1.995488944778435,3.0858768379270254,0.601275622844696,0.27160242199897766,0.5689027309417725,-0.33579587936401367,-0.929614245891571,0.15185120701789856,0.10705125331878662,0.8303404450416565,-0.11030137538909912
1.187107585975214,-1.9984429320631272,3.0910163423997683,0.25234660506248474,0.08606097847223282,0.427287220954895,-0.34063202142715454,-0.9272900819778442,0.15525180101394653,0.15275046229362488,0.8202801942825317,-0.0298091322183609
1.1831707604517185,-1.9961204724794541,3.088357615063505,-0.10613591223955154,-0.10940652340650558,0.3774096667766571,-0.3443145155906677,-0.9258092045783997,0.15596544742584229,0.1984861195087433,0.7994663119316101,0.027842044830322266
1.1808252485611868,-1.9884967685471093,3.0781351205787204,-0.39355912804603577,-0.24665193259716034,0.36792388558387756,-0.3474774658679962,-0.9249200820922852,0.1542164832353592,0.22871816158294678,0.8022850751876831,0.04846620559692383
1.1793935283386912,-1.977188052545964,3.0628074366952602,-0.5328831672668457,-0.31719616055488586,0.3568595051765442,-0.3504156768321991,-0.9243748188018799,0.1508006900548935,0.222699373960495,0.8166626691818237,0.023149758577346802
1.1782964545338097,-1.9656139253608753,3.0468101577026423,-0.47560667991638184,-0.31301149725914,0.3154047429561615,-0.3530731797218323,-0.9239557385444641,0.14712479710578918,0.18293750286102295,0.8306480646133423,-0.05618225038051605
1.1771703683065184,-1.9575175423185711,3.0350078100001006,-0.2551254332065582,-0.23488233983516693,0.2295803725719452,-0.3552158772945404,-0.9235244393348694,0.1446535885334015,0.13341400027275085,0.8520826697349548,-0.15612804889678955
1.1760027404344064,-1.9549615096206232,3.0305749685066155,0.028278931975364685,-0.061051394790410995,0.10791414976119995,-0.3565838634967804,-0.9230759739875793,0.14414918422698975,0.08874627947807312,0.8851730823516846,-0.2235710769891739
1.17503174086468,-1.9574392958751474,3.0338422504937723,0.2673775255680084,0.16757778823375702,-0.02689746394753456,-0.3570553958415985,-0.9227020740509033,0.14537012577056885,0.05258142948150635,0.909136950969696,-0.222808375954628
1.1745820762046542,-1.963445176837391,3.0431165333626846,0.4089653491973877,0.32887908816337585,-0.15595895051956177,-0.35655900835990906,-0.9225286245346069,0.14767059683799744,0.03436961770057678,0.9276861548423767,-0.1820332109928131
1.1748170525147352,-1.9710882279959934,3.055202591723059,0.41574737429618835,0.3486842215061188,-0.24446164071559906,-0.3552207350730896,-0.9226192831993103,0.15030714869499207,0.02891138195991516,0.9305843114852905,-0.13282036781311035
1.175924558543191,-1.9790881063115098,3.0671972818874993,0.33740925788879395,0.2530010938644409,-0.3178403675556183,-0.3530687093734741,-0.9230458736419678,0.15273815393447876,0.03394630551338196,0.9203908443450928,-0.08924616873264313
1.1780743247159484,-1.986820226008994,3.0774955728038833,0.20700012147426605,0.0889841839671135,-0.38953477144241333,-0.35006144642829895,-0.9238707423210144,0.15466131269931793,0.03179347515106201,0.9054685831069946,-0.07337760925292969
1.1813984222129104,-1.9942385138161949,3.085307249186327,0.06479101628065109,-0.12873883545398712,-0.4604592025279999,-0.34610289335250854,-0.9251378178596497,0.15599118173122406,0.020571768283843994,0.8955203294754028,-0.06745956838130951
1.1860408431487075,-2.0017984032420184,3.091093089773989,-0.0447826087474823,-0.3032515347003937,-0.5683478713035583,-0.34100809693336487,-0.9268902540206909,0.15680727362632751,-0.026957780122756958,0.8921304941177368,-0.07108329236507416
1.1923297482151338,-2.0105306415664574,3.0967263556931464,-0.09584653377532959,-0.3839317262172699,-0.7562180161476135,-0.3343445062637329,-0.9292322993278503,0.1572943776845932,-0.08255627751350403,0.907961368560791,-0.0817020982503891
1.2007537482180786,-2.0214919488508003,3.1043875854135172,-0.12374633550643921,-0.3607952296733856,-1.0035135746002197,-0.32554230093955994,-0.9323119521141052,0.15753425657749176,-0.13986614346504211,0.9369199275970459,-0.09053276479244232
1.2115771838283564,-2.0343594993167824,3.114915305413364,-0.15268056094646454,-0.23996968567371368,-1.2635698318481445,-0.3144433796405792,-0.9361715912818909,0.1571885049343109,-0.18638068437576294,0.9596853852272034,-0.07422639429569244
1.2247538077272233,-2.04935551674112,3.128965918262315,-0.18111193180084229,-0.1212632805109024,-1.511430025100708,-0.30107495188713074,-0.9407223463058472,0.15619193017482758,-0.2015192210674286,0.9665705561637878,-0.054705604910850525
1.2400351175400406,-2.066085914308549,-3.1373581400396806,-0.26818522810935974,-0.04851296916604042,-1.6950445175170898,-0.28573721647262573,-0.9457954168319702,0.15435579419136047,-0.18012896180152893,0.9696753025054932,-0.046750664710998535
1.2571370085672156,-2.083430913059033,-3.119573504841992,-0.4053441286087036,-0.05121447890996933,-1.8244332075119019,-0.2688807249069214,-0.9512109160423279,0.15133218467235565,-0.11939454078674316,0.9549643993377686,-0.02149498462677002
1.2758243349128993,-2.100078248030848,-3.102851494255023,-0.5867136716842651,-0.08945640921592712,-1.8975436687469482,-0.25093504786491394,-0.9568102955818176,0.14678515493869781,-0.06240430474281311,0.9222491383552551,0.003803953528404236
1.2959053106149843,-2.1149813728786557,-3.088619048320841,-0.75461345911026,-0.15708231925964355,-1.944502353668213,-0.2322329431772232,-0.9624547958374023,0.1405317634344101,-0.013448953628540039,0.8894870281219482,0.025774016976356506
1.3168415642514892,-2.1304436807652283,-3.0743655130784964,-0.7951200604438782,-0.16642233729362488,-2.0077996253967285,-0.21290630102157593,-0.9679264426231384,0.13337694108486176,0.0009158551692962646,0.8642277121543884,0.010101541876792908
1.33876589016981,-2.148217526272015,-3.057465027654853,-0.8811535239219666,-0.10821175575256348,-2.1110713481903076,-0.1926725208759308,-0.9732015132904053,0.12552401423454285,-0.003219887614250183,0.856609046459198,-0.028462663292884827
1.3620684677574553,-2.167951446903103,-3.0382725035595426,-1.00126051902771,-0.0946519747376442,-2.2240822315216064,-0.17135484516620636,-0.9782953262329102,0.11651589721441269,-0.0013747066259384155,0.8435906767845154,-0.0033871009945869446
1.387105675187936,-2.1902547115084454,-3.0162924574640684,-1.154473066329956,-0.049757733941078186,-2.3623738288879395,-0.14872106909751892,-0.9831762313842773,0.10605175048112869,0.008141756057739258,0.8050144910812378,0.00997626781463623
1.414104607360888,-2.21707734426262,-2.9892395438007133,-1.2843544483184814,0.02069169282913208,-2.5152792930603027,-0.12458083033561707,-0.987748920917511,0.09397789090871811,0.02294192463159561,0.7680070996284485,0.005723230540752411
1.4426281937207275,-2.2541684598341916,-2.951264984214373,-1.3741270303726196,0.07080306112766266,-2.6029245853424072,-0.0991162583231926,-0.991797685623169,0.08070579916238785,0.07993588596582413,0.7152168154716492,-0.01822090893983841
1.471485886329554,-2.307691851325444,-2.8967009546943134,-1.4358891248703003,0.06144946441054344,-2.5471925735473633,-0.07342586666345596,-0.9950727820396423,0.06662757694721222,0.2034001648426056,0.6326305866241455,-0.04827117919921875
1.499273837642565,-2.3910137196267125,-2.8125439394412886,-1.4171130657196045,0.0512855090200901,-2.417048215866089,-0.04874379187822342,-0.9974433779716492,0.052262160927057266,0.31598612666130066,0.5271672010421753,-0.05888437479734421
1.5250953383621635,-2.572871104594825,-2.6293980450388976,-1.3270912170410156,0.15815840661525726,-2.416003942489624,-0.02460581809282303,-0.9989559054374695,0.03849673643708229,0.33161258697509766,0.44139957427978516,-0.09663259983062744
1.5453367763498176,-3.1269929256001574,-2.0725475129407434,-1.2856756448745728,0.32724863290786743,-2.4360342025756836,-0.0003717114741448313,-0.9996759295463562,0.025458354502916336,0.31577080488204956,0.36489492654800415,-0.11615645885467529
1.5425247799828834,2.0492920496905125,-0.9612760886568383,-1.2064460515975952,0.484405517578125,-2.6665704250335693,0.025095771998167038,-0.9996004104614258,0.013017185963690281,0.2995348870754242,0.28910529613494873,-0.08232247829437256
1.5182359294319923,1.5837776455497947,-0.48994591626883455,-1.3202117681503296,0.5779959559440613,-2.809199571609497,0.05253513529896736,-0.998619019985199,0.0006820136331953108,0.24688801169395447,0.17812329530715942,-0.11919689178466797
1.4884938618791765,1.4094863937749187,-0.3100348533734819,-1.5281472206115723,0.4476986825466156,-2.8876166343688965,0.08114384859800339,-0.9966150522232056,-0.01320403441786766,0.32309189438819885,0.07831048965454102,-0.07584613561630249
1.4567260687983983,1.3088641762880096,-0.20534682196728074,-1.804045557975769,0.25958389043807983,-2.8602020740509033,0.10994171351194382,-0.9935010671615601,-0.02947443723678589,0.4371468424797058,-0.09155154228210449,-0.06612169742584229
1.4238822851705606,1.2333119292597552,-0.1276414460594304,-2.041301965713501,0.04443929344415665,-2.7904815673828125,0.13812896609306335,-0.9892275333404541,-0.04847070202231407,0.5250179171562195,-0.22550946474075317,-0.08234274387359619
1.3906993005287922,1.172022322235138,-0.06558286487053716,-2.203900098800659,-0.030740145593881607,-2.651221513748169,0.16507141292095184,-0.9838263392448425,-0.06955264508724213,0.6102123260498047,-0.3763422966003418,-0.12290632724761963
1.3578662665066936,1.1236051164259409,-0.01595725008336185,-2.2276554107666016,0.1091826856136322,-2.5285227298736572,0.19054479897022247,-0.977415919303894,-0.09138444066047668,0.6809914112091064,-0.5366223454475403,-0.17736852169036865
1.3256824062529935,1.0899066242940831,0.021162196440970477,-2.13073468208313,0.38683775067329407,-2.4558265209198,0.2151448130607605,-0.9701097011566162,-0.11225013434886932,0.6957285404205322,-0.6940292119979858,-0.2551509141921997
1.2949158829106335,1.0697081527208425,0.047364189183518465,-1.9330987930297852,0.6126108765602112,-2.3039772510528564,0.23890624940395355,-0.9621857404708862,-0.1308528333902359,0.7037206292152405,-0.861621081829071,-0.33649325370788574
1.2671501414342168,1.0587668976797553,0.06558225164780138,-1.6507892608642578,0.6742729544639587,-2.026984214782715,0.2606554329395294,-0.9542526006698608,-0.14649517834186554,0.7191570997238159,-1.0356309413909912,-0.4192853569984436
1.2434887317874705,1.05347432744913,0.07817293484260163,-1.3541183471679688,0.6482638120651245,-1.6910921335220337,0.27942636609077454,-0.9469113945960999,-0.15899677574634552,0.7436448335647583,-1.20973539352417,-0.4805142283439636
1.2243397122169861,1.0508285763540668,0.08734264489466628,-1.066210150718689,0.5397498607635498,-1.3207322359085083,0.29468876123428345,-0.9405818581581116,-0.16871491074562073,0.7227367758750916,-1.3550573587417603,-0.4766860008239746
1.2096949830465882,1.049194428494636,0.09421598930667992,-0.8049907684326172,0.4217562675476074,-0.9851893782615662,0.3063235580921173,-0.9355083107948303,-0.17604133486747742,0.6437954902648926,-1.4774558544158936,-0.44148170948028564
1.198711389816308,1.04764259925217,0.09958175075585957,-0.6250953078269958,0.25433292984962463,-0.7298814654350281,0.31493210792541504,-0.931571364402771,-0.18163929879665375,0.55253005027771,-1.5673606395721436,-0.386216402053833
1.190523940051846,1.0451470108024221,0.10385577101980459,-0.46177783608436584,0.04097752273082733,-0.5366135239601135,0.3210648000240326,-0.9285635948181152,-0.18624569475650787,0.4299728274345398,-1.6346232891082764,-0.31398308277130127
1.184677426318736,1.0423033141409115,0.10628538935996037,-0.27404066920280457,-0.15131442248821259,-0.3813440203666687,0.3252165615558624,-0.9263776540756226,-0.18989214301109314,0.2882630527019501,-1.688597559928894,-0.2840000092983246
1.1814445399210112,1.0403627726002798,0.10578355325432402,-0.006021137349307537,-0.32384541630744934,-0.18631593883037567,0.3274291455745697,-0.9251552820205688,-0.19203706085681915,0.1760498285293579,-1.7164160013198853,-0.2620186507701874
1.1816218364127085,1.0414792811409572,0.10045383941105732,0.384530633687973,-0.424814909696579,0.006775751709938049,0.3275017738342285,-0.9252225756645203,-0.19158852100372314,0.09881356358528137,-1.7312564849853516,-0.2492378056049347
1.1854699807112652,1.0497212177713844,0.08705986827614877,0.885546088218689,-0.38598471879959106,0.14738664031028748,0.325979083776474,-0.9266757965087891,-0.1871088296175003,-0.0029353201389312744,-1.7114009857177734,-0.24370770156383514
1.1930656135224675,1.0688872972839993,0.06313270509658986,1.3949655294418335,-0.2103990614414215,0.3143061101436615,0.32332536578178406,-0.9295039772987366,-0.1774357408285141,-0.10018086433410645,-1.6596685647964478,-0.21843814849853516
1.2043688217499287,1.0988233804924727,0.029907721312956565,1.7646777629852295,0.00366310216486454,0.5637969374656677,0.3191128969192505,-0.9336132407188416,-0.16289131343364716,-0.11311924457550049,-1.6106069087982178,-0.12340927124023438
1.2191308142056996,1.1356918443590653,-0.0085791095417326,1.9200085401535034,0.1506810337305069,0.9088166356086731,0.3123674690723419,-0.9388003349304199,-0.1451926827430725,-0.03725153207778931,-1.5558288097381592,0.02963799238204956
1.2370881000808058,1.174163733693911,-0.04752135488402473,1.8872973918914795,0.19415827095508575,1.3191817998886108,0.3021204471588135,-0.9448342323303223,-0.12653695046901703,0.06514331698417664,-1.5097556114196777,0.16924645006656647
1.2579640337022528,1.2089374968548958,-0.08223795455852913,1.6846505403518677,0.17284366488456726,1.7206650972366333,0.28782492876052856,-0.9514657258987427,-0.10894937068223953,0.15515291690826416,-1.4635276794433594,0.272386372089386
1.2809776825098957,1.2374460131265552,-0.11052369359163461,1.4514247179031372,0.12593208253383636,2.0006728172302246,0.2700471878051758,-0.9582957029342651,-0.09350992739200592,0.17378515005111694,-1.4104483127593994,0.3311046361923218
1.3050039017515744,1.2602863791700492,-0.1332925290555653,1.2500755786895752,0.057790324091911316,2.1335935592651367,0.25011229515075684,-0.9648846387863159,-0.08025849610567093,0.1447851061820984,-1.336598515510559,0.2923405170440674
1.329121962903469,1.2788669383237337,-0.15239692649977676,1.0945991277694702,-0.04373101890087128,2.162461042404175,0.22920379042625427,-0.9709386229515076,-0.06887922435998917,0.11730805039405823,-1.2499020099639893,0.2144176959991455
1.3527822377641074,1.2946834692115368,-0.16961086068803283,0.9861154556274414,-0.1404048204421997,2.142495632171631,0.20809921622276306,-0.9763289093971252,-0.05896500498056412,0.12461864948272705,-1.180592656135559,0.13522857427597046
1.3759428064695298,1.3109540309641095,-0.18789607386719878,0.9693813323974609,-0.15948547422885895,2.1136832237243652,0.18712341785430908,-0.9810760617256165,-0.04974726215004921,0.16262321174144745,-1.0896942615509033,0.06090158596634865
1.3991140897388563,1.3356756008208903,-0.21392034926196218,1.0962891578674316,0.007676360197365284,2.1375343799591064,0.16614051163196564,-0.985298752784729,-0.03979918360710144,0.2186860740184784,-0.994819164276123,-0.02935349941253662
1.4229156298888008,1.3827463392902672,-0.2601947262299142,1.3435604572296143,0.27186501026153564,2.1906042098999023,0.14474618434906006,-0.9890855550765991,-0.02754497528076172,0.31158310174942017,-0.894123911857605,-0.13273322582244873
1.4471530131951589,1.4703789036969765,-0.3445559638355978,1.5943384170532227,0.5256752371788025,2.265793561935425,0.12270822376012802,-0.9923658967018127,-0.01236362848430872,0.4033690094947815,-0.7786608338356018,-0.21805918216705322
1.4710397896641914,1.6200325418845,-0.48919112931446274,1.7153714895248413,0.6304956674575806,2.4101498126983643,0.09947244077920914,-0.9950284361839294,0.004901607986539602,0.5053095817565918,-0.6625492572784424,-0.2555117607116699
1.4928932808392124,1.863752929007897,-0.7275007189438464,1.6740899085998535,0.6191556453704834,2.5696606636047363,0.07451030611991882,-0.996967077255249,0.022474955767393112,0.6217634081840515,-0.559902548789978,-0.2280716896057129
1.5089309016271435,2.250664237792071,-1.1094646897924847,1.5130923986434937,0.5423048138618469,2.6626951694488525,0.04808177053928375,-0.9980869293212891,0.038871366530656815,0.6838059425354004,-0.438482403755188,-0.182578444480896
1.5137272731955589,2.7588366655714287,-1.6137537208554678,1.2489877939224243,0.39327141642570496,2.623004913330078,0.0213036946952343,-0.9983720183372498,0.05291372537612915,0.6882299184799194,-0.30323338508605957,-0.15397250652313232
1.5066475241459294,-3.0742432669298188,-2.0618659990052244,0.9470428824424744,0.15194854140281677,2.44507098197937,-0.004314390942454338,-0.9979431629180908,0.06396295130252838,0.6412924528121948,-0.15307319164276123,-0.13378703594207764
1.493759529221867,-2.77489719101432,-2.361855551577268,0.6271988153457642,-0.13573996722698212,2.1991608142852783,-0.02759424038231373,-0.9970341324806213,0.0718475878238678,0.5605989098548889,-0.012914836406707764,-0.14029836654663086
1.4800767989700867,-2.5814439280718307,-2.5588073117128824,0.3347591161727905,-0.4214167892932892,1.951952576637268,-0.0481361448764801,-0.995887815952301,0.07675297558307648,0.5080817341804504,0.10465216636657715,-0.15470993518829346
1.4673961368052124,-2.4450222982684453,-2.7012536964103115,0.10091174393892288,-0.6344406604766846,1.7642310857772827,-0.06622384488582611,-0.9946589469909668,0.07917322218418121,0.5020147562026978,0.22116029262542725,-0.16884899139404297
1.455535881065412,-2.337385696131215,-2.8165773426341163,-0.07954686880111694,-0.7533632516860962,1.6903189420700073,-0.08283702284097672,-0.9933648705482483,0.07977806776762009,0.5054444074630737,0.32243579626083374,-0.18668103218078613
1.4436833854107645,-2.2439355057380275,-2.9185985371845575,-0.2098204642534256,-0.7993499040603638,1.7191122770309448,-0.09911853075027466,-0.9919320344924927,0.07903478294610977,0.5129215121269226,0.3943520784378052,-0.19469618797302246
1.4308382724247952,-2.1585648032346128,-3.012933566822377,-0.29005128145217896,-0.8175013065338135,1.82865571975708,-0.1160915419459343,-0.9902218580245972,0.07735510170459747,0.5386225581169128,0.4633052349090576,-0.1925588846206665
1.416099963628436,-2.0837517672752592,-3.0968681722253106,-0.25156140327453613,-0.8157196640968323,1.9596129655838013,-0.13425005972385406,-0.9880583882331848,0.07561571896076202,0.5469697117805481,0.551382303237915,-0.204903244972229
1.3990278016381303,-2.0246626382487314,3.118449387397031,-0.0987163558602333,-0.738949179649353,2.0676534175872803,-0.1536216139793396,-0.9852840304374695,0.07494161278009415,0.49706631898880005,0.6225366592407227,-0.2434443235397339
1.3798971356035985,-1.9841591615595815,3.0706856187538816,0.15387354791164398,-0.5367428064346313,2.1042041778564453,-0.17376133799552917,-0.9818339943885803,0.07621783763170242,0.4105471074581146,0.679114818572998,-0.27630615234375
1.359339865281292,-1.9613748264255424,3.043436750126741,0.4539475440979004,-0.2356223464012146,2.0865962505340576,-0.1940777748823166,-0.9777262806892395,0.07990790158510208,0.3246777057647705,0.7338144779205322,-0.28506219387054443
1.337930335374237,-1.9525886296948138,3.033641869555533,0.7537869811058044,0.07709240913391113,2.0251235961914062,-0.21415196359157562,-0.9730089902877808,0.08598039299249649,0.25312286615371704,0.7835405468940735,-0.28493964672088623
1.3162228319276505,-1.9536932427729163,3.0369863805675625,1.0015692710876465,0.33789339661598206,1.9292829036712646,-0.23359666764736176,-0.9677708148956299,0.09408705681562424,0.2117765247821808,0.8232395648956299,-0.2680981159210205
1.29466067176061,-1.9606748704444759,3.0487423252372903,1.17551589012146,0.5215974450111389,1.82158362865448,-0.2521798014640808,-0.9621161818504333,0.10362394154071808,0.19018322229385376,0.8508338332176208,-0.2377333641052246
1.2735025521063046,-1.9699953163128985,3.0646793671584693,1.2657259702682495,0.6683934926986694,1.7276437282562256,-0.26990199089050293,-0.956132709980011,0.11385797709226608,0.18446791172027588,0.8693252801895142,-0.19393585622310638
1.2528421036047614,-1.9783090010045439,3.081244171593563,1.256218433380127,0.8210536241531372,1.6758356094360352,-0.2870233654975891,-0.9498769640922546,0.12390144169330597,0.20079585909843445,0.8780995607376099,-0.15031421184539795
1.232518087885852,-1.982283672559022,3.0947710097063372,1.1434431076049805,0.9254810214042664,1.702581763267517,-0.3041623830795288,-0.9433274269104004,0.1327366679906845,0.22165802121162415,0.8698257207870483,-0.08274877071380615
1.2123049224052556,-1.9807350201508498,3.1032519820263156,0.9962759613990784,0.9705930948257446,1.7618058919906616,-0.32179194688796997,-0.9364271759986877,0.1398373693227768,0.23382490873336792,0.8551587462425232,-0.016515731811523438
1.1922149535917874,-1.9749564837223226,3.107678732888829,0.8921285271644592,1.001974105834961,1.7807780504226685,-0.339825302362442,-0.929189920425415,0.14534521102905273,0.21091893315315247,0.847509503364563,-0.0015615224838256836
1.1726013585274848,-1.96770298444726,3.1107330202466517,0.851945698261261,1.0010079145431519,1.7177120447158813,-0.35761183500289917,-0.9217624068260193,0.1498935967683792,0.16408449411392212,0.8473146557807922,-0.03365206718444824
1.153935698480301,-1.9616872789478033,3.1147880380866777,0.8782499432563782,0.9300909042358398,1.5860614776611328,-0.374350905418396,-0.9143645763397217,0.15426881611347198,0.11811000108718872,0.8600433468818665,-0.0777917206287384
1.1367134504305656,-1.9589608029095673,3.1214199478179023,0.9289778470993042,0.8185686469078064,1.3777141571044922,-0.3892901837825775,-0.9072561264038086,0.159184992313385,0.07094588875770569,0.8781269192695618,-0.11983250081539154
1.121553465287075,-1.959657666771475,3.1306896423544646,0.9377976059913635,0.7065408825874329,1.1181846857070923,-0.4018607437610626,-0.9007761478424072,0.16465218365192413,0.01749172806739807,0.887104332447052,-0.1323491483926773
1.1089875762431067,-1.9627221716008076,3.1412340344485408,0.8601970672607422,0.5644012689590454,0.8496687412261963,-0.4117831587791443,-0.8952480554580688,0.17019325494766235,-0.01970493793487549,0.8849636316299438,-0.10306967794895172
1.0992484665403035,-1.9667515505503093,-3.1319465187883107,0.7036499977111816,0.4157234728336334,0.6017180681228638,-0.4191189706325531,-0.890866219997406,0.1752057820558548,-0.03141218423843384,0.8835877180099487,-0.05775868892669678
1.0924157710525766,-1.970493826279822,-3.123843394515092,0.49952614307403564,0.2755171060562134,0.3748745918273926,-0.4240575432777405,-0.8877415657043457,0.1791374683380127,-0.03039500117301941,0.877838671207428,-0.021269813179969788
1.08836359657729,-1.9733323257656115,-3.118425512158154,0.26923611760139465,0.10884781181812286,0.1750841736793518,-0.4268536865711212,-0.8858689069747925,0.18174822628498077,-0.022655069828033447,0.861775279045105,-0.006394043564796448
1.0870123064142183,-1.9750053058585004,-3.116415172515295,0.006338192615658045,-0.08616508543491364,0.002063129562884569,-0.42764928936958313,-0.8852412104606628,0.18293273448944092,-0.015206634998321533,0.8546167612075806,0.006749376654624939
1.0881188772525827,-1.9751877813644068,-3.118208626657667,-0.23411861062049866,-0.26781874895095825,-0.1335735321044922,-0.4267151355743408,-0.8857553601264954,0.18262524902820587,-0.01897895336151123,0.8559396266937256,0.014274343848228455
1.0910375822361136,-1.9745710605536275,-3.123021899709169,-0.3929191827774048,-0.4587849974632263,-0.2222498655319214,-0.4244483411312103,-0.8871062994003296,0.18134547770023346,-0.020192831754684448,0.8481658697128296,-0.008310690522193909
1.0951408061226358,-1.9743615019916525,-3.1295362471471493,-0.4660201370716095,-0.6472986340522766,-0.2945343255996704,-0.4211350977420807,-0.8889927268028259,0.1798255443572998,-0.0258406400680542,0.8357091546058655,-0.04827931523323059
1.1001368683756605,-1.9757686719276886,-3.136010101532688,-0.45486149191856384,-0.7676641941070557,-0.3957938253879547,-0.4167943298816681,-0.8912694454193115,0.178665891289711,-0.06730610132217407,0.8351171016693115,-0.08741821348667145
1.1061304621426613,-1.97961344669516,-3.140479362106739,-0.3794773817062378,-0.7839072942733765,-0.5478524565696716,-0.4111950695514679,-0.89397132396698,0.17814022302627563,-0.13024786114692688,0.8453263640403748,-0.1191648542881012
1.1133315141438607,-1.9863059171845845,-3.141362180581318,-0.2638669013977051,-0.6961066126823425,-0.7387428283691406,-0.40409359335899353,-0.897175133228302,0.17828503251075745,-0.18089795112609863,0.84979647397995,-0.1317150741815567
1.1218618415603139,-1.9957690291904553,-3.137886400661768,-0.15269114077091217,-0.5673356056213379,-0.9389642477035522,-0.39540159702301025,-0.9009100794792175,0.1789391040802002,-0.2049403190612793,0.8606114387512207,-0.12759315967559814
1.1317564574473997,-2.0077400623979536,-3.1302651234914354,-0.08434058725833893,-0.4472624659538269,-1.1177958250045776,-0.3851352334022522,-0.9051601886749268,0.17987827956676483,-0.20402199029922485,0.866952121257782,-0.1109999418258667
1.14280919541962,-2.0213137590264396,-3.1198132258649878,-0.08508490025997162,-0.37369856238365173,-1.235041856765747,-0.3736288845539093,-0.909803032875061,0.18072181940078735,-0.17005717754364014,0.867368221282959,-0.08111226558685303
1.1547421923307002,-2.034931504721913,-3.1088097918706437,-0.16699282824993134,-0.34058454632759094,-1.2874549627304077,-0.36139848828315735,-0.9146907925605774,0.1809195578098297,-0.11754444241523743,0.8626278638839722,-0.04471948742866516
1.1673696705997607,-2.047351416851098,-3.098865730863286,-0.27064165472984314,-0.31783822178840637,-1.317285180091858,-0.3488321900367737,-0.9197211861610413,0.18008114397525787,-0.06567290425300598,0.8537116646766663,-0.019436493515968323
1.1806611941190968,-2.0579855526950825,-3.0905848215601335,-0.401928573846817,-0.2821076810359955,-1.3198291063308716,-0.3360652029514313,-0.9248576760292053,0.17804166674613953,-0.03866022825241089,0.8535532355308533,-0.015779495239257812
1.1945539987062384,-2.0657331891481197,-3.085387580170566,-0.5640456676483154,-0.3071671426296234,-1.3115333318710327,-0.32333648204803467,-0.930051863193512,0.17451968789100647,0.018069058656692505,0.8454113602638245,-0.005223289132118225
1.2093308007729409,-2.071044093118521,-3.0831557029262866,-0.6894049048423767,-0.3277187645435333,-1.362634539604187,-0.3103111684322357,-0.9353795647621155,0.16962361335754395,0.018898725509643555,0.815002977848053,-0.004035130143165588
1.2252821593159882,-2.0762385169001947,-3.080987304173675,-0.6935045719146729,-0.29633477330207825,-1.5129094123840332,-0.2963325083255768,-0.9409014582633972,0.16398745775222778,-0.03460019826889038,0.8098893761634827,-0.04495348036289215
1.242779770088589,-2.085661600287109,-3.0738638105900993,-0.5938184261322021,-0.2399582862854004,-1.7718477249145508,-0.280400812625885,-0.9466832280158997,0.15864062309265137,-0.07917270064353943,0.8183260560035706,-0.11043785512447357
1.2621895567904828,-2.1030512509175514,-3.0578297770406806,-0.49588048458099365,-0.195715993642807,-2.0902955532073975,-0.2617153823375702,-0.9527576565742493,0.1541372835636139,-0.13045087456703186,0.8206926584243774,-0.15891312062740326
1.283713816504177,-2.1298779028381416,-3.0318300804070835,-0.43066921830177307,-0.20372837781906128,-2.3545117378234863,-0.24004338681697845,-0.959074079990387,0.150188148021698,-0.12511476874351501,0.8258188962936401,-0.14959287643432617
1.3068545136405094,-2.1655708329042764,-2.997028378359628,-0.5472227931022644,-0.23488065600395203,-2.5299038887023926,-0.2160876989364624,-0.9653691053390503,0.14618177711963654,-0.01688361167907715,0.8102480173110962,-0.12932060658931732
1.3321276455906117,-2.2026509221570465,-2.9617249563955252,-0.9429331421852112,-0.3697444796562195,-2.5825953483581543,-0.1907668113708496,-0.9716535806655884,0.13963350653648376,0.09022659063339233,0.7422224283218384,-0.06285108625888824
1.3597814633973162,-2.234623700304696,-2.9343376194051123,-1.4122827053070068,-0.6980931162834167,-2.536724328994751,-0.1649734526872635,-0.9778188467025757,0.12905147671699524,0.19097433984279633,0.6338246464729309,0.020316943526268005
1.3895835968329073,-2.259014286051864,-2.9184784005271576,-1.8087009191513062,-1.0666141510009766,-2.490785598754883,-0.13920101523399353,-0.9836258292198181,0.1144711971282959,0.26014208793640137,0.5147231817245483,0.017563223838806152
1.4214623376501063,-2.2794291494600145,-2.9104233026335664,-2.0557992458343506,-1.4157212972640991,-2.56245756149292,-0.11296254396438599,-0.98887038230896,0.09682632237672806,0.2846848964691162,0.43442678451538086,-0.052102670073509216
1.4554624616850513,-2.307385451891415,-2.8979942996386705,-2.165513515472412,-1.683680534362793,-2.7446110248565674,-0.08524637669324875,-0.9933564066886902,0.07730604708194733,0.2527572810649872,0.3722015619277954,-0.12952148914337158
1.4912251723334862,-2.3678770279310517,-2.8546169722706063,-2.164415121078491,-1.7322248220443726,-2.990096092224121,-0.05554714426398277,-0.9968358874320984,0.056860409677028656,0.1938984990119934,0.32686811685562134,-0.17957139015197754
1.5278790878101995,-2.5660724268009663,-2.6725996144304336,-2.1378514766693115,-1.519844889640808,-3.2684338092803955,-0.023354148492217064,-0.999079167842865,0.035996776074171066,0.16452836990356445,0.28000861406326294,-0.193955659866333
1.5527805367192966,2.5322029749627766,-1.500805585814306,-2.111311197280884,-1.1561764478683472,-3.346966028213501,0.01031394675374031,-0.9998376965522766,0.01477620005607605,0.18727201223373413,0.18201231956481934,-0.16905760765075684
1.5269174248124895,1.4250624112713768,-0.40296399830427393,-2.0217010974884033,-0.7673342823982239,-3.254166841506958,0.0434027761220932,-0.999037504196167,-0.0063704196363687515,0.26987534761428833,0.07978689670562744,-0.14232635498046875
1.4916205909995028,1.2350519599640932,-0.21797743435222663,-1.8609492778778076,-0.2899356186389923,-2.9680235385894775,0.07467958331108093,-0.9968672394752502,-0.02605988085269928,0.3856322169303894,-0.04161560535430908,-0.17210590839385986
1.4591022085200398,1.163921646632769,-0.14758878124023583,-1.73285973072052,0.04577341675758362,-2.5880911350250244,0.10236316174268723,-0.9937686920166016,-0.044110387563705444,0.5120013952255249,-0.1695156693458557,-0.21455645561218262
1.4299849122666672,1.1235629367527402,-0.10569729543650078,-1.6454256772994995,0.18582767248153687,-2.270209789276123,0.12654370069503784,-0.9901024699211121,-0.06069636344909668,0.5729648470878601,-0.3310951590538025,-0.21287834644317627
1.4028287232052186,1.0929354552238852,-0.07240822320082416,-1.701888084411621,0.2538178861141205,-2.1536130905151367,0.14845260977745056,-0.9859265685081482,-0.07688285410404205,0.593277096748352,-0.46065253019332886,-0.2278808355331421
1.3751216310398027,1.0662475926209627,-0.042776747716036935,-1.8529644012451172,0.22147402167320251,-2.2271008491516113,0.17020194232463837,-0.9809167385101318,-0.09398951381444931,0.5423681735992432,-0.572199285030365,-0.20653223991394043
1.3455690784015768,1.0413037680142012,-0.015567786014451855,-2.0510032176971436,0.09905249625444412,-2.332736015319824,0.19274671375751495,-0.9747433662414551,-0.11280222982168198,0.48515546321868896,-0.699710488319397,-0.1968594789505005
1.3141694982153218,1.0153463843332133,0.011214275951773952,-2.268458604812622,-0.09381222724914551,-2.35326886177063,0.21566142141819,-0.9672516584396362,-0.1338457316160202,0.4803224205970764,-0.8342621922492981,-0.20872920751571655
1.2821572336624425,0.9866891790479967,0.03904958699124399,-2.4160373210906982,-0.2675216794013977,-2.1923742294311523,0.23745490610599518,-0.9586321711540222,-0.15697062015533447,0.524584174156189,-0.9513258337974548,-0.21151374280452728
1.25148970192534,0.9568338499707606,0.06723413816708976,-2.393838405609131,-0.30093318223953247,-1.8974106311798096,0.2565798759460449,-0.9494532942771912,-0.18084606528282166,0.5776485204696655,-1.0568333864212036,-0.2342691868543625
1.2239570389266101,0.9297611931979638,0.09325743057482523,-2.1725642681121826,-0.18340285122394562,-1.5451719760894775,0.2724439203739166,-0.9404518008232117,-0.2032851278781891,0.5941941738128662,-1.1503381729125977,-0.2963942885398865
1.2012430581534623,0.9085688836090052,0.11465463554961655,-1.7394238710403442,-0.04560781642794609,-1.146957278251648,0.28485047817230225,-0.9324887990951538,-0.22209227085113525,0.5843359231948853,-1.2183749675750732,-0.3808434009552002
1.1846912407083727,0.8949851448469751,0.12958684344786459,-1.1598894596099854,0.11012984812259674,-0.767082691192627,0.2938101887702942,-0.926382839679718,-0.23556429147720337,0.552960991859436,-1.2867062091827393,-0.46255576610565186
1.174500774560978,0.89009937868895,0.13694591607528767,-0.552303671836853,0.267404705286026,-0.4721788465976715,0.2999769151210785,-0.9224972724914551,-0.2429257333278656,0.4676469564437866,-1.3421361446380615,-0.5098206996917725
1.1700143050905527,0.893716525825567,0.13644043128980132,0.011584203690290451,0.34414902329444885,-0.259457528591156,0.30407634377479553,-0.9207561612129211,-0.24442961812019348,0.3722083866596222,-1.3793995380401611,-0.5062569379806519
1.1700961208073382,0.9042718769046741,0.12852106527111434,0.465851753950119,0.2935604453086853,-0.11982343345880508,0.30658021569252014,-0.9207881093025208,-0.24115988612174988,0.2906182110309601,-1.407535433769226,-0.4669545888900757
1.1733519915105133,0.9195749227585104,0.11437612743066344,0.783207356929779,0.15253779292106628,-0.04278697445988655,0.30784866213798523,-0.9220532178878784,-0.23462176322937012,0.208966463804245,-1.4295551776885986,-0.39718353748321533
1.1785047310641403,0.9381293378986685,0.09502645648801908,1.0135818719863892,-0.014243371784687042,-0.029684262350201607,0.30831313133239746,-0.924035370349884,-0.2260574996471405,0.11920759081840515,-1.4349430799484253,-0.31590402126312256
1.1847689472432594,0.9592869334216587,0.07124701482298865,1.16527259349823,-0.14951199293136597,0.004859865643084049,0.30828094482421875,-0.9264121055603027,-0.2161567211151123,0.05660244822502136,-1.4135234355926514,-0.24807655811309814
1.1922902180168882,0.9807416440924593,0.04571045825489324,1.23979651927948,-0.29085609316825867,0.17712633311748505,0.30704864859580994,-0.9292176961898804,-0.2056104689836502,0.09442529082298279,-1.3815581798553467,-0.17045752704143524
1.2019243290888653,0.999753734615046,0.021692224281675446,1.270362377166748,-0.3626093566417694,0.4847632348537445,0.3033560812473297,-0.9327346682548523,-0.19488821923732758,0.1739540994167328,-1.3528032302856445,-0.07713007926940918
1.2144394747562304,1.0157923404241005,0.0007698580199714224,1.3161871433258057,-0.33043843507766724,0.8321596384048462,0.2964978814125061,-0.9371740221977234,-0.1838320791721344,0.221064954996109,-1.2972164154052734,-0.012762069702148438
1.2299892429034769,1.0309749665877905,-0.01842470367731021,1.419195532798767,-0.226697638630867,1.1256202459335327,0.2867185175418854,-0.9424852132797241,-0.1717979609966278,0.23462849855422974,-1.211018443107605,0.013594910502433777
1.2482453926214379,1.0483321986701448,-0.038416466236484745,1.5404540300369263,-0.07810864597558975,1.346483826637268,0.27469849586486816,-0.9484298825263977,-0.15818193554878235,0.19862908124923706,-1.1111862659454346,0.006036654114723206
1.2684477053179988,1.0698092611218861,-0.06108208182148571,1.6394234895706177,0.04996489733457565,1.4709274768829346,0.2611708641052246,-0.9546397924423218,-0.14301320910453796,0.15183871984481812,-1.0032002925872803,-0.007880792021751404
1.2897495788601525,1.0966475012951389,-0.0881626770614061,1.7130475044250488,0.12189947068691254,1.5487030744552612,0.24676363170146942,-0.9607656598091125,-0.12663817405700684,0.12094257771968842,-0.8905070424079895,-0.02485094964504242
1.311469430235018,1.1290140447837507,-0.1203722230734331,1.7278014421463013,0.13488291203975677,1.5688477754592896,0.23181074857711792,-0.966562807559967,-0.10963713377714157,0.11242750287055969,-0.7737022042274475,-0.04726886749267578
1.3327540177617476,1.1668390866521163,-0.15818386189499697,1.6953163146972656,0.09036637842655182,1.5312708616256714,0.21682219207286835,-0.9718014597892761,-0.09268404543399811,0.10172024369239807,-0.6668553352355957,-0.06512224674224854
1.352825574890751,1.2095329489399076,-0.20173502220084027,1.6174066066741943,-0.047206129878759384,1.4427345991134644,0.20229099690914154,-0.976338267326355,-0.07643482834100723,0.09768146276473999,-0.5635025501251221,-0.08367550373077393
1.3712374357882213,1.2571747428241635,-0.25185545277142624,1.5537891387939453,-0.23304525017738342,1.330903172492981,0.1885688304901123,-0.9801540970802307,-0.061157651245594025,0.09640428423881531,-0.46233582496643066,-0.10456789284944534
1.3878917039594416,1.3111704844847238,-0.31004215068888363,1.4966814517974854,-0.3905334174633026,1.2332091331481934,0.17579138278961182,-0.9833195209503174,-0.04669387266039848,0.11165361106395721,-0.36648833751678467,-0.13862395286560059
1.4030544934418154,1.3720807354851927,-0.37647724290583756,1.4403330087661743,-0.5044385194778442,1.196761131286621,0.16367171704769135,-0.985964298248291,-0.032959096133708954,0.14968273043632507,-0.28635942935943604,-0.1600034236907959
1.4173783462506557,1.4407655119017553,-0.45180113473623496,1.3923801183700562,-0.6259306073188782,1.2315396070480347,0.1515282839536667,-0.9882545471191406,-0.019815150648355484,0.21723084151744843,-0.21323806047439575,-0.156561017036438
1.4311711832577212,1.5181579311609732,-0.5369964283033936,1.3214547634124756,-0.7508758306503296,1.2770761251449585,0.1389799565076828,-0.9902682304382324,-0.0073224459774792194,0.26099860668182373,-0.14152204990386963,-0.1557481288909912
1.4441410791184186,1.602078220557376,-0.6304062560364689,1.1530137062072754,-1.0140360593795776,1.2762422561645508,0.1262548416852951,-0.9919899702072144,0.00395077932626009,0.26047906279563904,-0.06376564502716064,-0.1494889259338379
1.4562625045009352,1.682676360264997,-0.7231863430938292,0.8889424204826355,-1.2714704275131226,1.2936691045761108,0.11357060819864273,-0.9934481978416443,0.012759566307067871,0.2373509705066681,0.005548238754272461,-0.07455754280090332
1.4678524193287632,1.7560658766097947,-0.8108916582867214,0.6508324146270752,-1.4703198671340942,1.260036587715149,0.10100491344928741,-0.9947059750556946,0.0189302247017622,0.22138270735740662,0.11113041639328003,-0.03571474552154541
1.4784782012585416,1.8200620289541671,-0.8908714493850386,0.4087311029434204,-1.640312910079956,1.1270276308059692,0.0893387421965599,-0.9957417249679565,0.02274206094443798,0.17611834406852722,0.16859322786331177,-0.05061972141265869
1.4877109101376358,1.866885864628918,-0.9552022779260181,0.17798873782157898,-1.7961217164993286,0.946649432182312,0.07937872409820557,-0.9965503811836243,0.024215014651417732,0.12521106004714966,0.21667367219924927,-0.04716408625245094
1.4955700496530555,1.8891627483040405,-0.9964079077949567,-0.024620795622467995,-1.951319694519043,0.7389041185379028,0.07137971371412277,-0.9971718192100525,0.023525141179561615,0.07563864439725876,0.2989753484725952,-0.04346824064850807
1.5018760293632476,1.8845582849362201,-1.0121694746787295,-0.14275994896888733,-2.095184087753296,0.536851704120636,0.06550641357898712,-0.9976259469985962,0.021255552768707275,0.040603138506412506,0.3464263677597046,-0.07427966594696045
1.5071081224668712,1.8600153995224415,-1.0093590936450851,-0.19462454319000244,-2.2391011714935303,0.46566134691238403,0.06100328266620636,-0.9979726076126099,0.01815229095518589,0.04623541235923767,0.3684558868408203,-0.128412127494812
1.5122610463710546,1.8279118316668357,-1.0004950775481236,-0.18004000186920166,-2.3941855430603027,0.49907976388931274,0.0565827414393425,-0.9982873201370239,0.014877598732709885,0.11684859544038773,0.3925131559371948,-0.16835033893585205
1.5178227214364368,1.799003969388485,-0.9959623098596094,-0.13547010719776154,-2.4493508338928223,0.5663013458251953,0.05157863721251488,-0.9985972046852112,0.011979321017861366,0.14284878969192505,0.42242521047592163,-0.1703500747680664
1.5240306154584702,1.7802294451251852,-1.001504924122677,-0.07382112741470337,-2.3773155212402344,0.6510620713233948,0.045728590339422226,-0.998906672000885,0.0097196064889431,0.1264362633228302,0.44418859481811523,-0.13557398319244385
1.5307958383743736,1.7882426112607919,-1.0323438111396073,0.05909581482410431,-2.1453967094421387,0.718887448310852,0.039050061255693436,-0.9992001056671143,0.008627702482044697,0.0893220603466034,0.4662715196609497,-0.10268270969390869
1.5376310177880772,1.8624175864167818,-1.1262344979390255,0.2747221291065216,-1.7682230472564697,0.766120195388794,0.03176466003060341,-0.9994500875473022,0.009535091929137707,0.03618264198303223,0.5041344165802002,-0.09173405170440674
1.5431247854946428,2.074887902362793,-1.354967421056429,0.5867626070976257,-1.4708034992218018,0.762502133846283,0.024231374263763428,-0.9996171593666077,0.013366682454943657,-0.003983020782470703,0.5345444083213806,-0.10673511028289795
1.5440361191997505,2.44245678548655,-1.7363187270084905,0.878147542476654,-1.2552645206451416,0.674924910068512,0.017223849892616272,-0.9996419548988342,0.02048477530479431,-0.02964457869529724,0.5068897604942322,-0.10897040367126465
1.538782291517551,2.781595735500755,-2.0873046728872344,1.0223599672317505,-1.0814976692199707,0.5718549489974976,0.011277089826762676,-0.999487578868866,0.02996044047176838,-0.02699372172355652,0.4644685387611389,-0.0813060998916626
1.5301832587479944,2.9881435993510124,-2.304033748879118,1.0105054378509521,-0.9254778027534485,0.5181506872177124,0.006206727121025324,-0.9991754293441772,0.04013015702366829,-0.023235619068145752,0.4590293765068054,-0.026290297508239746
1.520983058611227,3.1141208805629677,-2.4390412491749536,0.9175787568092346,-0.8586863279342651,0.5326085090637207,0.0013678694376721978,-0.9987595677375793,0.04977928847074509,0.024343103170394897,0.46522057056427,0.016337156295776367
1.512188049048721,-3.0783720919850346,-2.538457955321162,0.8126459717750549,-0.8512283563613892,0.573686420917511,-0.003700928296893835,-0.9982830286026001,0.058461934328079224,0.0689016580581665,0.435172438621521,0.029367811977863312
1.5039657122657781,-3.005029988752785,-2.620388562879175,0.714951753616333,-0.8312497138977051,0.6073753833770752,-0.009091856889426708,-0.9977676868438721,0.06616205722093582,0.08453124761581421,0.41164690256118774,0.0325472354888916
1.49632830852601,-2.942512765975064,-2.6913923806858575,0.6190590858459473,-0.8283008337020874,0.6257626414299011,-0.014714071527123451,-0.9972285628318787,0.07293137162923813,0.08900904655456543,0.3965814709663391,0.01741611957550049
1.4892379698413183,-2.889324962571072,-2.7531775272238126,0.5475725531578064,-0.8569216728210449,0.6282250881195068,-0.020334571599960327,-0.996675968170166,0.07888989895582199,0.07580021023750305,0.378786563873291,-0.0029925182461738586
1.4823658853647557,-2.8429138088350374,-2.8087775232109147,0.5255023837089539,-0.9377411603927612,0.6549084186553955,-0.025987600907683372,-0.9960925579071045,0.08440567553043365,0.08117857575416565,0.3653247356414795,-0.029244907200336456
1.4752369585359175,-2.8011102543613586,-2.860435910614993,0.5253084301948547,-0.980372965335846,0.688265323638916,-0.031863417476415634,-0.9954376816749573,0.08993858098983765,0.13563838601112366,0.3621062636375427,-0.05046391487121582
1.467983261897862,-2.7627239011071283,-2.9091065310360165,0.4825271666049957,-1.0252385139465332,0.7193734645843506,-0.0379614382982254,-0.994719386100769,0.09535615891218185,0.14773309230804443,0.33730947971343994,-0.07068251073360443
1.4611688980398398,-2.7253162784417593,-2.956872674857614,0.3746502101421356,-0.9594072699546814,0.7341521382331848,-0.04424065351486206,-0.9939969182014465,0.10006622970104218,0.11140978336334229,0.308694064617157,-0.029600977897644043
1.4550393291042005,-2.6880848886026034,-3.0042970862852143,0.2964952290058136,-1.0582478046417236,0.7472535371780396,-0.05060321465134621,-0.9933076500892639,0.1038251668214798,0.08308911323547363,0.2950042486190796,-0.030109763145446777
1.4492421536403426,-2.653626958144495,-3.0505134455748686,0.23500743508338928,-1.196600079536438,0.7400768995285034,-0.0568489171564579,-0.9926213622093201,0.10710490494966507,0.11794504523277283,0.3011844754219055,-0.03714323043823242
1.4439777072103772,-2.623315486152038,-3.093109644121067,0.18239562213420868,-1.1793497800827026,0.6867896914482117,-0.0626564547419548,-0.9919692873954773,0.1098703145980835,0.10820386558771133,0.31362444162368774,-0.012000329792499542
1.4391674800254064,-2.597776730251165,-3.1304426071150955,0.1622064709663391,-1.105137825012207,0.6290990114212036,-0.06790968775749207,-0.9913493990898132,0.11231637001037598,0.0699237808585167,0.2879800796508789,-0.02209089696407318
1.434504904292417,-2.5763614159579316,3.120368215609536,0.17794856429100037,-1.0215917825698853,0.5991465449333191,-0.07277381420135498,-0.9907267093658447,0.11473795771598816,0.060063160955905914,0.28236788511276245,-0.01908041536808014
1.4295800499027926,-2.5579418151762434,3.091760396541926,0.22035178542137146,-0.9593989849090576,0.6012670993804932,-0.07756274193525314,-0.9900455474853516,0.11744831502437592,0.06671369075775146,0.2816561460494995,-0.029008150100708008
1.4239851006827777,-2.541619434016856,3.0655917360845155,0.28697317838668823,-0.9600597023963928,0.6462713479995728,-0.0825958251953125,-0.9892425537109375,0.12073691934347153,0.07528680562973022,0.25993335247039795,-0.05393373966217041
1.41754895117803,-2.526475203315664,3.0402060354012574,0.32936394214630127,-1.0322871208190918,0.7082886695861816,-0.08808714896440506,-0.9882805943489075,0.12466982007026672,0.09937858581542969,0.2540122866630554,-0.07166063785552979
1.4105974353116228,-2.5121784515183734,3.014676131993582,0.32724007964134216,-1.1436423063278198,0.7344512939453125,-0.09390230476856232,-0.9871955513954163,0.12894809246063232,0.10612452030181885,0.2572149634361267,-0.06052744388580322
1.4038523659923448,-2.5001147196686775,2.990511830264777,0.28688734769821167,-1.1932575702667236,0.6864858269691467,-0.09943338483572006,-0.9860972166061401,0.13313816487789154,0.0524057000875473,0.24902117252349854,-0.02290843427181244
1.39796434344466,-2.4911317074879804,2.9693519433494977,0.21434897184371948,-1.1637566089630127,0.5826441049575806,-0.1041390597820282,-0.9851016998291016,0.13685725629329681,-0.00656350702047348,0.2425326704978943,0.0201711505651474
1.3935194915847715,-2.4847595864649312,2.9515003713025703,0.11175373196601868,-1.0724152326583862,0.44442543387413025,-0.10768181085586548,-0.9843275547027588,0.13965736329555511,-0.0510096549987793,0.23330509662628174,0.05258822441101074
1.3906158884385886,-2.480594777804431,2.9365293902485865,0.024550914764404297,-1.0428906679153442,0.33513543009757996,-0.11001669615507126,-0.9838113784790039,0.1414632648229599,-0.07165449857711792,0.23465049266815186,0.08393979072570801
1.3887592982414605,-2.4776300014099606,2.9229132519279,-0.025803539901971817,-1.0321543216705322,0.2864076495170593,-0.1115611270070076,-0.9834769368171692,0.14257486164569855,-0.06496787071228027,0.22119355201721191,0.09805643558502197
1.3872110917452352,-2.4747901460183934,2.9097981220563534,-0.014040623791515827,-0.9670789837837219,0.27794894576072693,-0.11290767788887024,-0.9831954836845398,0.14345446228981018,-0.05960826575756073,0.1948956847190857,0.07888163626194
1.3853514815230594,-2.4732524059678074,2.898716799113588,0.062433406710624695,-0.9010328650474548,0.2709153890609741,-0.11426056176424026,-0.9828543066978455,0.14471492171287537,-0.05196875333786011,0.1716969609260559,0.03840601444244385
1.3827452117358892,-2.4750045639090263,2.891424551311498,0.1806785613298416,-0.8800191879272461,0.26432859897613525,-0.11559027433395386,-0.9823704361915588,0.1469276249408722,-0.04938781261444092,0.1563968062400818,0.008254528045654297
1.3791431953218307,-2.4806968757305095,2.888327898872858,0.31354138255119324,-0.8584126830101013,0.26836830377578735,-0.11692361533641815,-0.9816907048225403,0.150376096367836,-0.029988080263137817,0.14672952890396118,-0.0031285136938095093
1.3745107273573436,-2.49007528199816,2.889434645726915,0.4429478645324707,-0.7815253734588623,0.2558237314224243,-0.11826427280902863,-0.9807977676391602,0.15508005023002625,-0.03111933171749115,0.1437767744064331,0.0006666183471679688
1.369199331068286,-2.5018818446473845,2.8942249997360996,0.5044674277305603,-0.6301690340042114,0.23035870492458344,-0.11953341960906982,-0.9797480702400208,0.1606428027153015,-0.05495092272758484,0.12086111307144165,0.018617644906044006
1.3638394556749702,-2.513519711419517,2.9004488127502275,0.4987291097640991,-0.48194414377212524,0.20023036003112793,-0.12073979526758194,-0.9786607623100281,0.1662699282169342,-0.06839299201965332,0.08733361959457397,0.06349720060825348
1.3588529506804148,-2.523866121688499,2.9067923337350363,0.4629867672920227,-0.3451428711414337,0.160818949341774,-0.12183738499879837,-0.9776239395141602,0.17148543894290924,-0.0769847109913826,0.07648563385009766,0.11264871060848236
1.3544628889524244,-2.5337221184859184,2.9139326802773264,0.4239562749862671,-0.2372821867465973,0.09288837015628815,-0.12259156256914139,-0.9766910672187805,0.17619960010051727,-0.09032966196537018,0.06830465793609619,0.11982107162475586
1.3507911707641926,-2.543667910347757,2.9219516407884316,0.3724859654903412,-0.19377774000167847,0.0420953705906868,-0.12285074591636658,-0.9758962988853455,0.18037253618240356,-0.0892922654747963,0.04883331060409546,0.10562323033809662
1.347784805250323,-2.5530299727106622,2.9293408826948086,0.3055466115474701,-0.24073486030101776,0.02863095887005329,-0.12278496474027634,-0.9752358198165894,0.1839541345834732,-0.06549329310655594,0.03070145845413208,0.09026168286800385
1.3453152071771621,-2.561307246073384,2.934819390160326,0.24224424362182617,-0.3496275544166565,0.045637354254722595,-0.12257859855890274,-0.9746866822242737,0.18697834014892578,-0.03367145359516144,0.020722270011901855,0.07725834846496582
1.3430978356987853,-2.5683526790944446,2.9377490922144665,0.1994331330060959,-0.48314914107322693,0.08938243985176086,-0.12243027240037918,-0.974188506603241,0.18965290486812592,-0.0033785253763198853,0.007330358028411865,0.06413152813911438
1.340979350715952,-2.5739307993782483,2.938075511772554,0.16314645111560822,-0.5583020448684692,0.12322502583265305,-0.12247932702302933,-0.9737080931663513,0.192071795463562,0.022015415132045746,-0.005478978157043457,0.054724082350730896
1.3390879934433653,-2.578598395781316,2.936992584275229,0.12765024602413177,-0.5760466456413269,0.11590506136417389,-0.1225646361708641,-0.9732755422592163,0.19419915974140167,0.010626077651977539,-0.015662074089050293,0.055083900690078735
1.3377044659527002,-2.5830900256314617,2.935796089477359,0.07390660047531128,-0.5451391935348511,0.07535063475370407,-0.12240444868803024,-0.9729568958282471,0.19588926434516907,-0.01791544258594513,-0.027699410915374756,0.07106339931488037
1.3370458077309435,-2.5870573125092275,2.934516328653094,0.006919577717781067,-0.4971626400947571,0.047401025891304016,-0.1219637393951416,-0.9728044867515564,0.1969180852174759,-0.03468306362628937,-0.038456618785858154,0.08677351474761963
1.3370851829016253,-2.5897745715088756,2.9323825191729114,-0.06443697959184647,-0.46717575192451477,0.033146679401397705,-0.1214078739285469,-0.972813606262207,0.1972157210111618,-0.020559974014759064,-0.048777639865875244,0.09463928639888763
1.3377526387345453,-2.591335802639148,2.9291674397136265,-0.12249734997749329,-0.4746669828891754,0.020859122276306152,-0.12076053023338318,-0.9729679822921753,0.1968519389629364,-0.0011572688817977905,-0.04616677761077881,0.0913105309009552
1.338797853027439,-2.5924632250234643,2.9252198383539008,-0.14743663370609283,-0.5164310336112976,0.02598206140100956,-0.12000729143619537,-0.9732088446617126,0.19611981511116028,0.003231719136238098,-0.049984514713287354,0.07301494479179382
1.3398488268401307,-2.5929123950127257,2.9200988265824064,-0.15351475775241852,-0.5629868507385254,0.07028773427009583,-0.11938555538654327,-0.9734499454498291,0.19530074298381805,0.030075810849666595,-0.06187409162521362,0.04713115096092224
1.3406838563824635,-2.5915911183716065,2.9128013914045785,-0.1589841991662979,-0.5880815982818604,0.12587007880210876,-0.11921856552362442,-0.9736407399177551,0.1944497525691986,0.056031882762908936,-0.0636059045791626,0.03644642233848572
1.3413082502253126,-2.588698504719272,2.9037088629226715,-0.16438615322113037,-0.5970644354820251,0.15412195026874542,-0.11946169286966324,-0.9737829566001892,0.19358740746974945,0.049072831869125366,-0.06312817335128784,0.03286850452423096
1.3418735850064607,-2.585430295397647,2.8941818856820642,-0.15928100049495697,-0.600073516368866,0.1472814828157425,-0.11980253458023071,-0.9739114046096802,0.1927274763584137,0.02153588831424713,-0.05518704652786255,0.031836241483688354
1.3424898884619452,-2.5825765902308992,2.885180402569307,-0.16071750223636627,-0.5757905840873718,0.12883083522319794,-0.12003426253795624,-0.9740511178970337,0.1918768584728241,0.005654320120811462,-0.043542444705963135,0.029665708541870117
1.343394775240882,-2.5802897994110694,2.877105243457277,-0.18859001994132996,-0.5355985760688782,0.08219604939222336,-0.12000368535518646,-0.9742555022239685,0.19085589051246643,-0.004752248525619507,-0.034198105335235596,0.037858396768569946
1.3448797669709684,-2.578370028996375,2.8698783560145014,-0.23835304379463196,-0.4863108992576599,0.03429536893963814,-0.11959687620401382,-0.9745892286300659,0.18940100073814392,-0.01852574199438095,-0.03574103116989136,0.0564030259847641
1.3470349882494839,-2.5760850284614576,2.862636321424277,-0.2988811731338501,-0.4707786440849304,0.009454641491174698,-0.1189035102725029,-0.9750697016716003,0.18735328316688538,-0.019966773688793182,-0.038815855979919434,0.06530199944972992
1.3497454334405268,-2.572781588178725,2.854396166690515,-0.35380885004997253,-0.47579923272132874,0.009309233166277409,-0.11809804290533066,-0.9756675958633423,0.18473242223262787,-0.005238831043243408,-0.031565189361572266,0.06885361671447754
1.352874573337612,-2.5676123985804264,2.843970398201884,-0.4176689088344574,-0.5356688499450684,0.03588279336690903,-0.11739257723093033,-0.976348876953125,0.18155406415462494,0.018179886043071747,-0.029098451137542725,0.05730721354484558
1.3562996339818807,-2.560077811102591,2.8300956632790446,-0.47963452339172363,-0.6646779179573059,0.08872923254966736,-0.11691974848508835,-0.9770836234092712,0.17786915600299835,0.03383558988571167,-0.02822643518447876,0.044115886092185974
1.3599132909531877,-2.549931397655367,2.8122144173511887,-0.5386318564414978,-0.7960311770439148,0.13530375063419342,-0.11674847453832626,-0.9778464436531067,0.17374207079410553,0.04103431850671768,-0.016843557357788086,0.03675316274166107
1.3637502469549234,-2.5377788369613024,2.791120104054989,-0.590186357498169,-0.8840063214302063,0.1532505303621292,-0.11671993136405945,-0.9786424040794373,0.16922055184841156,0.028569847345352173,-0.009593069553375244,0.030379876494407654
1.3679305533062474,-2.5237685303298063,2.76767688814098,-0.6433782577514648,-0.8931676745414734,0.1405269354581833,-0.1167088970541954,-0.9794932007789612,0.16423317790031433,0.006219938397407532,-0.005126059055328369,0.03693890571594238
1.3725983840310498,-2.5086795670421793,2.743167508727814,-0.684923529624939,-0.8856804966926575,0.1022048369050026,-0.11646754294633865,-0.9804229736328125,0.15876469016075134,-0.020403847098350525,-0.0002288818359375,0.04107986390590668
1.3777916544427893,-2.492783907615068,2.7178279055070993,-0.7346806526184082,-0.9024525880813599,0.06534355878829956,-0.11589914560317993,-0.981432318687439,0.1528354287147522,-0.02945616841316223,0.010194897651672363,0.046261563897132874
1.383511808468285,-2.475846110463241,2.6912690641071277,-0.7877523899078369,-0.9208135008811951,0.03274060785770416,-0.1150013878941536,-0.982513427734375,0.1464325189590454,-0.023777365684509277,0.025146305561065674,0.053534165024757385
1.3897021523356212,-2.456801852479103,2.662467806332554,-0.8374896049499512,-0.9221333861351013,0.019695162773132324,-0.11391954123973846,-0.9836472272872925,0.13950198888778687,-0.02954365313053131,0.02080225944519043,0.05507838726043701
1.3961304627711413,-2.4343162731649692,2.6302255405931256,-0.8803923726081848,-0.9251326322555542,0.03325704485177994,-0.11291636526584625,-0.9847846627235413,0.13209621608257294,-0.012297317385673523,0.01821655035018921,0.051253676414489746
1.4026011279830217,-2.4071254316762865,2.593141719962986,-0.9208399057388306,-0.9389946460723877,0.06530501693487167,-0.1121935173869133,-0.9858884811401367,0.1242460310459137,0.0010026395320892334,0.016802608966827393,0.04491318762302399
1.4088831916972977,-2.3739655262194437,2.549916628068198,-0.9648355841636658,-0.9528459906578064,0.11546006798744202,-0.11194764822721481,-0.9869206547737122,0.11599892377853394,0.013604685664176941,0.015210330486297607,0.04595816135406494
1.4148461960491479,-2.3334649606843523,2.4991276093760333,-1.0139355659484863,-0.9718024134635925,0.17051133513450623,-0.11229538172483444,-0.9878643751144409,0.10730314999818802,0.02434367686510086,0.011011898517608643,0.04444574564695358
1.4205241293653386,-2.284746384144817,2.4398527808305794,-1.0861141681671143,-0.9926658272743225,0.2044099122285843,-0.11314710229635239,-0.9887303709983826,0.09803295880556107,0.024279847741127014,0.011877775192260742,0.04733765125274658
1.4259699624303916,-2.227167213901483,2.3715369363846968,-1.149328351020813,-0.9968408942222595,0.21608003973960876,-0.1143336221575737,-0.9895309805870056,0.08807189017534256,0.01701301336288452,0.020124733448028564,0.05685627460479736
1.4311055829983932,-2.1619914998845235,2.2957527663026434,-1.183760166168213,-0.9629713296890259,0.19819983839988708,-0.11560570448637009,-0.9902591109275818,0.07760472595691681,-0.0010477900505065918,0.019082844257354736,0.05798506736755371
1.4358823593790995,-2.0919067622329024,2.2154088539566184,-1.1790062189102173,-0.9357011318206787,0.14680500328540802,-0.11665286868810654,-0.990912914276123,0.0669630914926529,-0.02046266943216324,0.014487624168395996,0.0380481481552124
1.440307188516537,-2.0197314944259133,2.133252010490076,-1.1465950012207031,-0.9062390923500061,0.0823913961648941,-0.11722661554813385,-0.9914983510971069,0.056473035365343094,-0.037100836634635925,0.019086122512817383,0.0239105224609375
1.44429689906815,-1.9485642570062107,2.0526046391052692,-1.055864930152893,-0.8473315238952637,0.02143522910773754,-0.11726707220077515,-0.9920096397399902,0.04653472453355789,-0.03970014303922653,0.02550262212753296,0.004338260740041733
1.4475608199040495,-1.8818452185131318,1.9771931625207364,-0.9226714372634888,-0.7636467218399048,0.005764923524111509,-0.11702588200569153,-0.9924160838127136,0.03762199729681015,-0.03519585728645325,0.021133065223693848,-0.02582681179046631
1.4497802566868532,-1.822151998940604,1.9098582691343828,-0.7718347311019897,-0.6527031660079956,0.027565117925405502,-0.11692994087934494,-0.9926865100860596,0.0300260279327631,-0.019758358597755432,0.011500358581542969,-0.04026436433196068
1.450906186707533,-1.7714971965454644,1.8527510716785274,-0.6159745454788208,-0.5559052228927612,0.06023597717285156,-0.11720352619886398,-0.9928217530250549,0.023843862116336823,0.0036170557141304016,0.00914853811264038,-0.05492579936981201
1.4511727743033922,-1.730522623105902,1.806282624418003,-0.48942357301712036,-0.47245654463768005,0.08655309677124023,-0.11782075464725494,-0.9928536415100098,0.018980763852596283,0.009849511086940765,0.01189643144607544,-0.06423819065093994
1.4508328750223687,-1.6968066201494036,1.7680017262982817,-0.4104211628437042,-0.38200682401657104,0.11054498702287674,-0.11872836947441101,-0.992812991142273,0.015040689148008823,-0.0009463727474212646,0.0059659481048583984,-0.04755699634552002
1.4500868644190026,-1.6674566832740332,1.7349987427021676,-0.36366596817970276,-0.3027590811252594,0.12126946449279785,-0.11985540390014648,-0.9927234649658203,0.01162148267030716,-0.015978388488292694,-0.0011426210403442383,-0.02327895164489746
1.4492582302973553,-1.6404216120013937,1.7049015118584578,-0.3529595136642456,-0.2686184346675873,0.09838199615478516,-0.12094593793153763,-0.9926233291625977,0.008434529416263103,-0.023249655961990356,0.002327859401702881,-0.01372909639030695
1.4487305565589577,-1.6132158903016944,1.6747613308636211,-0.3776113986968994,-0.2735327184200287,0.04490804672241211,-0.12165386229753494,-0.9925591945648193,0.005163601599633694,-0.04126427322626114,0.007970571517944336,-0.0009367470629513264
1.4486882239177448,-1.584074991514686,1.6426071327448815,-0.4032922685146332,-0.27871841192245483,-0.018305808305740356,-0.12179616838693619,-0.9925540685653687,0.0016173855401575565,-0.06153824180364609,0.01156628131866455,0.012710809707641602
1.449144591453803,-1.553216581369814,1.6085742225520376,-0.42126455903053284,-0.3045596778392792,-0.0708848237991333,-0.12133461236953735,-0.9926095604896545,-0.0021332514006644487,-0.062457554042339325,0.01648944616317749,0.004620611667633057
1.4498274098461186,-1.521617750874282,1.5736498375437582,-0.4144447147846222,-0.30801355838775635,-0.0872371643781662,-0.12052858620882034,-0.9926921725273132,-0.005932207219302654,-0.04975954443216324,0.015198886394500732,-0.010043560527265072
1.450438950801686,-1.4910374559316424,1.539852168753031,-0.38673651218414307,-0.26958829164505005,-0.08331179618835449,-0.11968699842691422,-0.9927657842636108,-0.009566393680870533,-0.037890560925006866,0.011106729507446289,-0.02273625135421753
1.4509269135149234,-1.4620380687894832,1.508923946338666,-0.32983753085136414,-0.06817183643579483,-0.08920803666114807,-0.11887706071138382,-0.9928242564201355,-0.012980080209672451,-0.044529348611831665,0.006862223148345947,-0.012929140590131283
1.4516180241797019,-1.4386008151880263,1.4850865696420614,-0.21722397208213806,0.01419968530535698,-0.11504694074392319,-0.11785982549190521,-0.9929066896438599,-0.01567193865776062,-0.06303316354751587,0.0005359649658203125,-0.048582613468170166
1.452617565590003,-1.4230285170221209,1.4701083678105362,-0.10504018515348434,0.1254708170890808,-0.13111059367656708,-0.11662071198225021,-0.993025004863739,-0.01735932007431984,-0.04760967940092087,0.012922346591949463,-0.06262707710266113
1.4539258106320947,-1.41590871951928,1.4645288713957239,0.010931751690804958,0.1791505664587021,-0.14377303421497345,-0.11520913243293762,-0.9931784272193909,-0.017988547682762146,-0.038446903228759766,0.011687278747558594,-0.07496780157089233
1.4554024441164553,-1.417941387695024,1.4683088913604843,0.11739960312843323,0.15229152143001556,-0.13243381679058075,-0.11379645019769669,-0.9933494925498962,-0.017531098797917366,-0.024890728294849396,0.004518866539001465,-0.09050089120864868
1.456808887236681,-1.4295761934664086,1.4810360918859817,0.21181952953338623,0.02881474420428276,-0.10055220127105713,-0.11260916292667389,-0.9935104846954346,-0.016009246930480003,0.0028679072856903076,-0.0021103620529174805,-0.11167609691619873
1.4578183360064332,-1.4524475167170925,1.503129463116865,0.30474653840065,-0.21710553765296936,-0.0321584977209568,-0.11195041984319687,-0.993624746799469,-0.013311405666172504,0.04415557533502579,-0.013195991516113281,-0.14499831199645996
1.4581528900412541,-1.4843116421268279,1.5319837174679016,0.33919233083724976,-0.4039769768714905,0.02767651341855526,-0.1119871661067009,-0.993662416934967,-0.009709394536912441,0.06874371320009232,-0.02879863977432251,-0.15099596977233887
