attitudeX,attitudeY,attitudeZ,gyroX,gyroY,gyroZ,gravityX,gravityY,gravityZ,accX,accY,accZ
1.4899333172303522,-2.993104160509521,2.2861461971196326,0.07745350897312164,0.26006603240966797,-0.02974332869052887,-0.011950500309467316,-0.9967323541641235,0.07988861203193665,-0.019696205854415894,0.010068416595458984,-0.006859779357910156
1.4890980868947097,-2.9919576008833073,2.2869962505727712,0.053755104541778564,0.13646313548088074,0.04674345627427101,-0.01216625701636076,-0.9966645836830139,0.08069845288991928,0.015568984672427177,0.013128578662872314,0.024022825062274933
1.488655208728797,-2.982675908572965,2.2784532214198188,-0.003290131688117981,0.02467987686395645,0.11126190423965454,-0.012984368950128555,-0.9966283440589905,0.08101650327444077,0.033446431159973145,0.0031132102012634277,0.06429314613342285
1.4887313580024317,-2.9660373700289693,2.261580609002684,-0.059168312698602676,-0.0561518557369709,0.1577199399471283,-0.014317271299660206,-0.9966345429420471,0.080714650452137,0.040913358330726624,-0.0032739639282226562,0.08496557921171188
1.4892854659459331,-2.944290945728815,2.239056068153093,-0.11062993854284286,-0.07352706789970398,0.17100179195404053,-0.015961023047566414,-0.9966798424720764,0.07984407991170883,0.03575170040130615,-0.01040041446685791,0.07785570621490479
1.490177660026104,-2.9209514763770166,2.2151204679078598,-0.12443950027227402,-0.03251253068447113,0.15773339569568634,-0.0176253542304039,-0.9967520833015442,0.07858191430568695,0.01687769405543804,-0.026410996913909912,0.057129986584186554
1.4910894046124692,-2.9003143213835965,2.1941349582435996,-0.10691174864768982,-0.028180401772260666,0.10885938256978989,-0.0190258901566267,-0.996825098991394,0.07731837779283524,-0.02470576763153076,-0.029801666736602783,0.022245407104492188
1.4917242573512937,-2.8880446664166026,2.1816209487420353,-0.051581915467977524,-0.008101764135062695,0.04129285365343094,-0.01981431618332863,-0.9968754053115845,0.07646634429693222,-0.05902782082557678,-0.019970417022705078,-0.005665302276611328
1.4917755502639998,-2.8862255526657727,2.1796668731512265,0.03558911755681038,-0.024005884304642677,-0.014115267433226109,-0.01994049921631813,-0.9968794584274292,0.07638081908226013,-0.06392177939414978,-0.013435602188110352,-0.018214106559753418
1.4910597297555503,-2.893215901046389,2.1861991240469556,0.12429875135421753,-0.07256090641021729,-0.041260067373514175,-0.01958134025335312,-0.996822714805603,0.07720936089754105,-0.04980035126209259,-0.001498878002166748,-0.023833878338336945
1.4894796758156197,-2.904679562357687,2.196735602210477,0.2044658213853836,-0.11643148958683014,-0.03341887891292572,-0.019064929336309433,-0.9966956377029419,0.07896100729703903,-0.02832883596420288,0.008215844631195068,-0.021374225616455078
1.4871752295575495,-2.9166813514057877,2.2073869815806955,0.26154613494873047,-0.15790621936321259,-0.020652486011385918,-0.018627876415848732,-0.9965057969093323,0.08142194151878357,-0.009127840399742126,0.01872241497039795,-0.0065010786056518555
1.484339070365648,-2.9274593907877318,2.2163649852513374,0.3028366267681122,-0.20796877145767212,0.0035665403120219707,-0.018349548801779747,-0.9962648749351501,0.08437842130661011,0.0009392965584993362,0.02820146083831787,0.011950485408306122
1.481192820231193,-2.935859156917244,2.222501360363788,0.3196297287940979,-0.2449081391096115,0.023203358054161072,-0.018280336633324623,-0.9959883093833923,0.08759727329015732,0.002548547461628914,0.04113900661468506,0.022876612842082977
1.4780608871233285,-2.9423560363241994,2.2264696682747376,0.3026878833770752,-0.26211726665496826,0.017955925315618515,-0.01832839846611023,-0.9957031607627869,0.09077265858650208,-0.002072572708129883,0.054830849170684814,0.03836262226104736
1.4752858927907737,-2.9486847901921673,2.2301777942572403,0.26396286487579346,-0.2634424567222595,-0.0048497882671654224,-0.018283076584339142,-0.9954423308372498,0.09359762817621231,-0.012875348329544067,0.06502234935760498,0.05828857421875
1.4730485494874206,-2.9553031546414843,2.2342946648203164,0.19964775443077087,-0.23739224672317505,-0.017696727067232132,-0.01807556487619877,-0.9952265024185181,0.0959044024348259,-0.017965657636523247,0.08134704828262329,0.07279693335294724
1.4715452395556732,-2.962561559416784,2.2394660750351663,0.1284121870994568,-0.1870124340057373,-0.04757552966475487,-0.017645401880145073,-0.9950786232948303,0.09750525653362274,-0.021325526759028435,0.10317188501358032,0.08373891562223434
1.4708665506788419,-2.9721016033374723,2.2473414049821745,0.04211427643895149,-0.15131057798862457,-0.09280174225568771,-0.016828417778015137,-0.9950111508369446,0.09833536297082901,-0.026277629658579826,0.1224219799041748,0.0961991474032402
1.471095865666017,-2.9845774957426805,2.2584462905503813,-0.0476134791970253,-0.13631565868854523,-0.13235606253147125,-0.015564697794616222,-0.9950340390205383,0.09831265360116959,-0.024337023496627808,0.15734165906906128,0.1161041259765625
1.4721124544325088,-2.9991784857798938,2.271709112089483,-0.11146758496761322,-0.14429636299610138,-0.15602271258831024,-0.013984073884785175,-0.995134711265564,0.09752825647592545,-0.010414719581604004,0.19613862037658691,0.12656259536743164
1.4736038643382314,-3.015871902135851,2.286813385519729,-0.13820652663707733,-0.19931887090206146,-0.17226985096931458,-0.012168043293058872,-0.9952805042266846,0.09627581387758255,0.004248751327395439,0.22918230295181274,0.12322212755680084
1.4749952858772284,-3.0353032908515707,2.3037305559362475,-0.09337086975574493,-0.32981589436531067,-0.1813184767961502,-0.010148048400878906,-0.9954146146774292,0.09511585533618927,0.019303351640701294,0.27289557456970215,0.10520171374082565
1.475544592775409,-3.0581038967089453,2.322420911438923,0.02199220471084118,-0.515348494052887,-0.18316085636615753,-0.007931312546133995,-0.9954670071601868,0.09477774053812027,0.034847840666770935,0.3227221369743347,0.07776879519224167
1.474591443050043,-3.0837835706688193,2.3420469812407645,0.19600223004817963,-0.7113316059112549,-0.1807951033115387,-0.005549849011003971,-0.9953758716583252,0.09589609503746033,0.049739331007003784,0.3858788013458252,0.04202829301357269
1.4716381458245469,-3.1114049948484324,2.361733566074231,0.41519609093666077,-0.8870488405227661,-0.17773672938346863,-0.0029880856163799763,-0.9950878620147705,0.09895361214876175,0.05982708930969238,0.4517526626586914,-0.003875836730003357
1.4662699247395043,-3.1391255708223844,2.3798279157058473,0.6575459241867065,-1.04952073097229,-0.17472487688064575,-0.0002574127574916929,-0.9945420622825623,0.10433871299028397,0.06397813558578491,0.5142867565155029,-0.0471484512090683
1.4584901336177587,3.1166301113654176,2.396040596394328,0.8810397386550903,-1.2042629718780518,-0.1933203935623169,0.0027973318938165903,-0.9937002658843994,0.11203789710998535,0.06246453523635864,0.5808734893798828,-0.07437895238399506
1.448715351529588,3.089867697334711,2.4101428039586676,1.0397533178329468,-1.3288935422897339,-0.21141213178634644,0.006296191830188036,-0.9925573468208313,0.12161587178707123,0.06706807017326355,0.6442449688911438,-0.07393194735050201
1.4378000832195403,3.0647003843877485,2.4218516425598104,1.0941935777664185,-1.3511775732040405,-0.22339288890361786,0.010186407715082169,-0.9911690354347229,0.13221517205238342,0.07755166292190552,0.695117712020874,-0.05729423463344574
1.426944660105119,3.0425312267670344,2.4309265669958777,1.021090030670166,-1.2681430578231812,-0.21096105873584747,0.01417798362672329,-0.9896711707115173,0.1426546722650528,0.09303030371665955,0.7341015934944153,-0.0352783203125
1.417468217428305,3.0238419385480064,2.4377144399584445,0.821237325668335,-1.1091841459274292,-0.1909458041191101,0.017942488193511963,-0.988268256187439,0.15167199075222015,0.10971257090568542,0.7717306613922119,0.004273056983947754
1.410479290080713,3.0082731430100957,2.443239752101718,0.5325445532798767,-0.9066259860992432,-0.15012088418006897,0.021219266578555107,-0.9871767163276672,0.15821689367294312,0.12425804138183594,0.8112731575965881,0.048005953431129456
1.4065801331633403,2.9962712333858095,2.447028730221563,0.22177118062973022,-0.748917281627655,-0.07370015233755112,0.023673666641116142,-0.9865468144416809,0.16175717115402222,0.1401142179965973,0.8496600985527039,0.06167757511138916
1.4057529684395138,2.9881434340576725,2.4480129682431158,-0.05990606173872948,-0.6916833519935608,0.019471947103738785,0.025112349539995193,-0.9864112138748169,0.16236600279808044,0.1520880162715912,0.8813390135765076,0.04188837110996246
1.4075704930685318,2.9818492358962003,2.4470823751255577,-0.2886226177215576,-0.751742422580719,0.0654333159327507,0.02584860846400261,-0.9867082238197327,0.1604345589876175,0.14775067567825317,0.8851913213729858,0.008923053741455078
1.4112782877494938,2.9729316957007885,2.4479284053591037,-0.43743711709976196,-0.8660422563552856,0.02431759238243103,0.026663703843951225,-0.9873039722442627,0.15658865869045258,0.11396133899688721,0.8857414722442627,-0.022494211792945862
1.4162914335469319,2.9599114250898975,2.4517295065510853,-0.5639523863792419,-0.9730941653251648,0.042447857558727264,0.027805626392364502,-0.9880878329277039,0.15135858952999115,0.06869098544120789,0.8955585360527039,-0.07929112017154694
1.4224770230225716,2.946348287886496,2.4552782006128586,-0.6543132662773132,-1.02964448928833,0.08369758725166321,0.028669778257608414,-0.989020824432373,0.1449698507785797,0.05355989933013916,0.913718581199646,-0.13553977012634277
1.4293887739440179,2.934707644975761,2.456528879915711,-0.701698362827301,-1.0353420972824097,0.16544437408447266,0.02895047888159752,-0.9900186061859131,0.1379329264163971,0.024684220552444458,0.920972466468811,-0.2083519697189331
1.437043993045054,2.9304517857111203,2.4507885566381256,-0.7731007933616638,-0.9249938726425171,0.3154866397380829,0.02794790081679821,-0.9910684823989868,0.13039328157901764,0.009726075455546379,0.901468813419342,-0.26444149017333984
1.4461738830224213,2.9399549699543,2.432658817093684,-0.9180555939674377,-0.7716668844223022,0.5167568922042847,0.024894241243600845,-0.9922446608543396,0.12178250402212143,0.0004964452236890793,0.8523367643356323,-0.2707538604736328
1.4572490001096492,2.9659886012529872,2.3986354018590608,-1.091745138168335,-0.805340588092804,0.6762053370475769,0.019794760271906853,-0.9935604333877563,0.11156275123357773,-0.042988091707229614,0.7712702751159668,-0.2294825315475464
1.4697646375933726,3.004639034635858,2.350860319624944,-1.1977919340133667,-0.9551575183868408,0.7108879685401917,0.013770402409136295,-0.994900643825531,0.09991849958896637,-0.12752461433410645,0.6287505030632019,-0.19733034074306488
1.4830621433601776,3.059056336252484,2.2857679481794633,-1.3063385486602783,-1.1228092908859253,0.8047292828559875,0.0072239479050040245,-0.9961538314819336,0.08732564002275467,-0.17259865999221802,0.49204909801483154,-0.20400941371917725
1.496932120180704,-3.1328578505010864,2.1820149641552984,-1.3794697523117065,-1.3031558990478516,0.9702697992324829,-0.0006446186453104019,-0.9972732663154602,0.07379700243473053,-0.12078478932380676,0.39220112562179565,-0.20107042789459229
1.509724208765002,-2.9700097800110514,2.0049322637595597,-1.356100082397461,-1.4386740922927856,1.1647820472717285,-0.010421348735690117,-0.9981356859207153,0.06013932079076767,-0.06907692551612854,0.28677088022232056,-0.21110951900482178
1.5185864318148752,-2.6970100972292017,1.7170552558753152,-1.2903814315795898,-1.4057238101959229,1.4085017442703247,-0.022445259615778923,-0.9986373782157898,0.04711521416902542,-0.04658547043800354,0.16926103830337524,-0.2586629390716553
1.519498743188266,-2.3157137212412655,1.3221485493093403,-1.2589807510375977,-1.1968289613723755,1.7380884885787964,-0.03769874572753906,-0.9986845850944519,0.03476380556821823,-0.014074299484491348,0.0431789755821228,-0.3008615970611572
1.510524918112617,-1.9524536980948548,0.947642204151856,-1.3168208599090576,-0.9329989552497864,1.9402450323104858,-0.055905625224113464,-0.9981842041015625,0.022436926141381264,-0.03071851283311844,-0.1331636905670166,-0.2947908639907837
1.4947062874974635,-1.6881106293847978,0.6742157274928846,-1.5140390396118164,-0.7738314270973206,1.9832267761230469,-0.07549766451120377,-0.9971065521240234,0.00889781303703785,-0.12153906375169754,-0.32393860816955566,-0.21107661724090576
1.47530108991833,-1.4971977525632503,0.4750672360144793,-1.8040918111801147,-0.7348009347915649,1.9354113340377808,-0.0950932577252388,-0.9954438209533691,-0.007011392153799534,-0.20730537176132202,-0.5232788324356079,-0.07453137636184692
1.453234748103855,-1.3478053644767725,0.31746957595310826,-2.1481621265411377,-0.7224255204200745,1.9169102907180786,-0.11438809335231781,-0.9930976033210754,-0.02593887969851494,-0.2237771451473236,-0.7487238049507141,0.03387361764907837
1.4281828859035308,-1.2261125868800657,0.18757969578138764,-2.463897943496704,-0.694590151309967,1.92717444896698,-0.13377214968204498,-0.9898478984832764,-0.04802627116441727,-0.19444435834884644,-0.9610036611557007,0.07675880193710327
1.4004155520621635,-1.1275914074241182,0.0811600900101019,-2.6978445053100586,-0.611520528793335,1.902987003326416,-0.15317556262016296,-0.9855203032493591,-0.07271269708871841,-0.17055489122867584,-1.1790611743927002,0.06596846133470535
1.370836058910442,-1.0485042447305208,-0.004685941035516909,-2.8093338012695312,-0.42834800481796265,1.849867343902588,-0.17214864492416382,-0.9800744652748108,-0.09909036755561829,-0.1847696453332901,-1.381101131439209,0.031036384403705597
1.3407148813311998,-0.9857994120075911,-0.07183272862842087,-2.7512733936309814,-0.14823859930038452,1.7469987869262695,-0.19013462960720062,-0.9736478328704834,-0.12593258917331696,-0.22214257717132568,-1.5659947395324707,-0.04330247640609741
1.3119151633028092,-0.936896149413012,-0.12236838978751965,-2.5114760398864746,0.11936674267053604,1.550609827041626,-0.206264927983284,-0.9666770100593567,-0.15162645280361176,-0.2695193290710449,-1.758512258529663,-0.16592399775981903
1.2864893959356962,-0.8987854730989404,-0.15959585799648043,-2.137444496154785,0.31957942247390747,1.254077672958374,-0.21950556337833405,-0.9598562717437744,-0.1746237874031067,-0.34691593050956726,-1.9400005340576172,-0.2780890464782715
1.266004295931007,-0.8686193044294348,-0.18699786598739693,-1.6657298803329468,0.4557279348373413,0.8910756707191467,-0.2291042059659958,-0.9539093971252441,-0.19382598996162415,-0.4413517117500305,-2.0794312953948975,-0.34842538833618164
1.2517536853263307,-0.8452687142734306,-0.20648017729218734,-1.0814435482025146,0.4961877763271332,0.4688193202018738,-0.23466311395168304,-0.949536144733429,-0.2081216275691986,-0.5111864805221558,-2.163806438446045,-0.39485979080200195
1.244814054606086,-0.8284852112714711,-0.21879382907299968,-0.41693127155303955,0.5237928032875061,0.04228746145963669,-0.23598729074001312,-0.9473366141319275,-0.21647974848747253,-0.5506795644760132,-2.203542470932007,-0.445644736289978
1.2455000653072417,-0.8188099327663936,-0.22340398329400393,0.295438677072525,0.5314410924911499,-0.3334316313266754,-0.2334071695804596,-0.9475560784339905,-0.2183089256286621,-0.5508182644844055,-2.1807703971862793,-0.47544699907302856
1.2535060179480477,-0.8179127882744233,-0.21887614692211146,0.9985867142677307,0.49724000692367554,-0.6240792274475098,-0.2276681661605835,-0.9500843286514282,-0.2133243978023529,-0.507973313331604,-2.0820813179016113,-0.47870731353759766
1.2678395886699145,-0.827588424278828,-0.20376825121201608,1.6024593114852905,0.4411868453025818,-0.8358830213546753,-0.21967129409313202,-0.9544585347175598,-0.20187556743621826,-0.4421786963939667,-1.939035415649414,-0.4434032142162323
1.2870061836224713,-0.8482309877481103,-0.17800185863577525,2.0368199348449707,0.35422661900520325,-1.00589120388031,-0.2100289762020111,-0.9600011110305786,-0.18516509234905243,-0.3908926546573639,-1.765096664428711,-0.35058605670928955
1.309491234310406,-0.8799694267407706,-0.14208877412108717,2.3198904991149902,0.20282304286956787,-1.1509732007980347,-0.19910921156406403,-0.9660536646842957,-0.16460900008678436,-0.3567837178707123,-1.5642962455749512,-0.22670245170593262
1.3339369296683128,-0.9232794178183571,-0.09632861894589481,2.448153257369995,0.010470361448824406,-1.2713797092437744,-0.1871545910835266,-0.9720796942710876,-0.14154383540153503,-0.3206579089164734,-1.3658111095428467,-0.11617697775363922
1.3589249207251852,-0.9777262926060487,-0.041212636440198756,2.4168806076049805,-0.13749255239963531,-1.3529633283615112,-0.17437921464443207,-0.9776390790939331,-0.11753353476524353,-0.28277409076690674,-1.182425856590271,-0.033467307686805725
1.3830863889837026,-1.0412425881489304,0.021829585696377732,2.2434659004211426,-0.19595637917518616,-1.3900082111358643,-0.16105107963085175,-0.9824341535568237,-0.09426604956388474,-0.24489372968673706,-1.0094482898712158,0.025586426258087158
1.4055628665091027,-1.1111908457685056,0.0906995086228528,1.9931632280349731,-0.2286977469921112,-1.4093670845031738,-0.14741423726081848,-0.9863799810409546,-0.07296378165483475,-0.21972744166851044,-0.8487793803215027,0.058681733906269073
1.4262268065094452,-1.1850497450339088,0.16307931244172016,1.7256468534469604,-0.23745183646678925,-1.4306817054748535,-0.1334802806377411,-0.9895679950714111,-0.05420520156621933,-0.21217702329158783,-0.7185618877410889,0.05522776395082474
1.4452832234598711,-1.2633320442444942,0.23973409477847224,1.5001987218856812,-0.222483828663826,-1.433898687362671,-0.11931467056274414,-0.9921335577964783,-0.037886448204517365,-0.21608874201774597,-0.5917746424674988,0.019118309020996094
1.4627042079085475,-1.3502028095034158,0.32495243930977885,1.3208491802215576,-0.22908474504947662,-1.391463279724121,-0.10526969283819199,-0.9941637516021729,-0.023605959489941597,-0.20384283363819122,-0.45641326904296875,-0.02754134312272072
1.4782071512654902,-1.452749441026671,0.4251813300962859,1.1737116575241089,-0.3543718159198761,-1.313979983329773,-0.0918150395154953,-0.9957166910171509,-0.01088910736143589,-0.17226877808570862,-0.32352781295776367,-0.054921865463256836
1.4917436411556286,-1.5771483720337078,0.5452784977754271,1.0230624675750732,-0.5940613746643066,-1.2629029750823975,-0.0789724588394165,-0.9968769550323486,0.0005016434006392956,-0.1584390103816986,-0.21203136444091797,-0.07043242454528809
1.503592186391297,-1.728655278152566,0.6900919618445268,0.8813936114311218,-0.8168702125549316,-1.2740507125854492,-0.06632266193628311,-0.9977426528930664,0.010557467117905617,-0.1635509431362152,-0.1163017749786377,-0.08321964740753174
1.5143740806798196,-1.9194485015974785,0.8719482164944812,0.758853018283844,-1.0159974098205566,-1.3529324531555176,-0.053001075983047485,-0.9984086751937866,0.01926598884165287,-0.19222289323806763,0.007014572620391846,-0.09531557559967041
1.5231505078115273,-2.1743451249285553,1.1165622160549034,0.6995188593864441,-1.0927772521972656,-1.3364148139953613,-0.03921598568558693,-0.9988651275634766,0.027033904567360878,-0.2003164291381836,0.129663348197937,-0.13354003429412842
1.5278979220870201,-2.493923210237019,1.425223328978032,0.6583136320114136,-1.142343282699585,-1.2591331005096436,-0.025874271988868713,-0.9990800023078918,0.03420109301805496,-0.1639145016670227,0.20855265855789185,-0.18923020362854004
1.5279813384063605,-2.828958772852885,1.7491088018135066,0.5990950465202332,-1.129918098449707,-1.1915346384048462,-0.013165609911084175,-0.9990835785865784,0.040730878710746765,-0.1823909878730774,0.2654561400413513,-0.22592663764953613
1.5242104616791459,-3.113592138348022,2.022991429959949,0.55106520652771,-1.0880329608917236,-1.0606224536895752,-0.0013038309989497066,-0.9989150762557983,0.04655236750841141,-0.24099043011665344,0.34235984086990356,-0.265744686126709
1.518176340663256,2.9781034552373096,2.2040715678000757,0.5314013957977295,-0.9738521575927734,-0.8319560885429382,0.0085608484223485,-0.9986158609390259,0.05189602077007294,-0.27061522006988525,0.4964185357093811,-0.2713935375213623
1.5107314369951328,2.8504981151359683,2.3235734122016654,0.6385912299156189,-0.6682254076004028,-0.8401954174041748,0.01722876913845539,-0.9981966614723206,0.057504910975694656,-0.22162017226219177,0.647976815700531,-0.27477455139160156
1.5003566133486173,2.74968558509938,2.4194164654686343,0.898807942867279,-0.38328972458839417,-1.0413877964019775,0.026882987469434738,-0.9975201487541199,0.06504693627357483,-0.21452024579048157,0.6281657814979553,-0.32499539852142334
1.4860040033608328,2.6647211496946475,2.501202518879688,1.1553834676742554,-0.32968375086784363,-1.307279109954834,0.03887380659580231,-0.9964072704315186,0.07524338364601135,-0.18171128630638123,0.6509024500846863,-0.3269979953765869
1.468081377232107,2.5948798582701116,2.5675864606586845,1.3474446535110474,-0.4170325696468353,-1.5070548057556152,0.05330592766404152,-0.9947294592857361,0.08758901804685593,-0.16637349128723145,0.7086271643638611,-0.3078494071960449
1.44765499990699,2.542548584307096,2.6156668236136382,1.4786666631698608,-0.48226165771484375,-1.596428632736206,0.06925824284553528,-0.9924277067184448,0.10144244879484177,-0.1588883250951767,0.7716788649559021,-0.26309382915496826
1.4258690347094605,2.5050142029200617,2.648482173799671,1.5511517524719238,-0.5139961242675781,-1.625565528869629,0.08585112541913986,-0.9895164370536804,0.11613445729017258,-0.13129174709320068,0.8402395248413086,-0.2008051872253418
1.4035068353265807,2.4783020565336744,2.6703252844697163,1.5858261585235596,-0.500939130783081,-1.6086655855178833,0.10252285748720169,-0.9860396981239319,0.13120557367801666,-0.0998983234167099,0.8960891366004944,-0.16422535479068756
1.3810510019388673,2.460438363992252,2.683736053024402,1.6240243911743164,-0.41711485385894775,-1.5427566766738892,0.11876554787158966,-0.9820523262023926,0.14652061462402344,-0.07492697238922119,0.9361385107040405,-0.16232848167419434
1.3589359834295485,2.451363691402173,2.689431096309384,1.6414841413497925,-0.2715248763561249,-1.4160346984863281,0.13388754427433014,-0.9776414036750793,0.1621462106704712,-0.05266496539115906,0.9710344076156616,-0.17549744248390198
1.3378182013228634,2.4507465770833554,2.6885618297789233,1.616998553276062,0.02238500863313675,-1.2237557172775269,0.1471124142408371,-0.9729831218719482,0.1779385805130005,-0.025286167860031128,0.9989076852798462,-0.1760920286178589
1.318567669926456,2.4597164171665375,2.682078251610951,1.542812466621399,0.46036848425865173,-0.9721429347991943,0.15728726983070374,-0.9683586359024048,0.19375859200954437,0.012497320771217346,1.0550132989883423,-0.19705429673194885
1.3013933447641242,2.474088206910171,2.6722653508585856,1.4405937194824219,0.4970701038837433,-0.7775952816009521,0.16475853323936462,-0.9639299511909485,0.20903131365776062,0.015280008316040039,1.0964066982269287,-0.1972970962524414
1.2863144160031355,2.48946416173655,2.661506210627693,1.2850580215454102,0.5035064220428467,-0.6044080853462219,0.1703273355960846,-0.9598072171211243,0.22306755185127258,0.0026769042015075684,1.0882556438446045,-0.10354530811309814
1.2736330726149876,2.5034908684203807,2.651705104816948,1.0632660388946533,0.40431851148605347,-0.473221093416214,0.17441849410533905,-0.9561709761619568,0.2351929247379303,0.018391668796539307,1.09061598777771,-0.09508645534515381
1.2635230982930776,2.513511305184787,2.644431374568127,0.8079919815063477,0.20173026621341705,-0.3753347396850586,0.17772431671619415,-0.9531618356704712,0.2447385936975479,0.035120606422424316,1.0823426246643066,-0.05768096446990967
1.256128319041794,2.5180731593160024,2.640625447162933,0.5195688009262085,-0.008959328755736351,-0.3045658469200134,0.18071672320365906,-0.9508991837501526,0.25126218795776367,0.03023611009120941,1.0666216611862183,-0.019175738096237183
1.2515088901501175,2.517001399209632,2.6409072399833153,0.21751411259174347,-0.1376347541809082,-0.2463749796152115,0.18355244398117065,-0.9494593143463135,0.2546287178993225,0.020808592438697815,1.061687707901001,-0.0064900219440460205
1.2496525546026174,2.51134826330244,2.6451449833392693,-0.06822850555181503,-0.17344753444194794,-0.18178077042102814,0.18602731823921204,-0.9488750100135803,0.2550104260444641,0.023689553141593933,1.064826488494873,-0.019887596368789673
1.2503604905646541,2.503059469032651,2.6522920727351367,-0.30779528617858887,-0.1125306487083435,-0.09475584328174591,0.18773411214351654,-0.9490982294082642,0.25292015075683594,0.025904253125190735,1.0658584833145142,-0.049581319093704224
1.2533010727190343,2.494431225281517,2.661092521368849,-0.48325735330581665,0.07582408934831619,0.010013901628553867,0.18822620809078217,-0.9500203728675842,0.24906376004219055,0.032721132040023804,1.0645068883895874,-0.09191334247589111
1.258089463101715,2.4884012905787456,2.669698833637526,-0.5918262004852295,0.35576093196868896,0.15055637061595917,0.1869579255580902,-0.9515043497085571,0.24430885910987854,0.05219314992427826,1.077419638633728,-0.1412660777568817
1.264375182718251,2.4870475476622618,2.67603363234735,-0.6321906447410583,0.5599457025527954,0.3116953372955322,0.18364369869232178,-0.9534192085266113,0.2393060177564621,0.07992143929004669,1.0979349613189697,-0.17865201830863953
1.271950788459986,2.4909554255301845,2.678340511383577,-0.6474159359931946,0.6471037864685059,0.49680498242378235,0.1783267855644226,-0.9556770324707031,0.2342674285173416,0.10788236558437347,1.1097602844238281,-0.1845235973596573
1.2807678450624862,2.5002317082669014,2.675610180693792,-0.6609596014022827,0.678770899772644,0.6883611679077148,0.17109814286231995,-0.9582357406616211,0.2291509360074997,0.13091912865638733,1.1088398694992065,-0.16752052307128906
1.2909451954765758,2.51495938213994,2.6672135311006384,-0.6972917914390564,0.6336548328399658,0.8907427787780762,0.16197702288627625,-0.9610965847969055,0.22373418509960175,0.14895136654376984,1.1090762615203857,-0.14209941029548645
1.302555671540077,2.533563468654727,2.653548175669906,-0.7670653462409973,0.43456143140792847,1.0390886068344116,0.1514018476009369,-0.964238703250885,0.21753472089767456,0.138530433177948,1.1089682579040527,-0.10599283874034882
1.3154051018608013,2.5526340093641107,2.637105293487058,-0.8737009763717651,0.20885694026947021,1.09347665309906,0.14033198356628418,-0.9675645232200623,0.21006257832050323,0.07536636292934418,1.0858657360076904,-0.06560739874839783
1.3293060170544047,2.5697913282969385,2.62076482708804,-1.0083547830581665,0.06282621622085571,1.0937011241912842,0.12941569089889526,-0.9709826707839966,0.2011081576347351,0.02974879741668701,1.052678108215332,-0.04232501983642578
1.3443656312086614,2.5840538418243875,2.6060718252893427,-1.1662530899047852,-0.08143722265958786,1.080572247505188,0.11878357082605362,-0.9744738936424255,0.19050292670726776,0.006369076669216156,1.0267504453659058,-0.03365768492221832
1.3604343443620155,2.5941073045265095,2.594143695111429,-1.2802947759628296,-0.21637754142284393,1.0435173511505127,0.1086968258023262,-0.9779554009437561,0.1782936304807663,-0.05422288179397583,0.9986767172813416,-0.035928964614868164
1.3771463759184857,2.6034785065633117,2.582714563780542,-1.3229843378067017,-0.1140064150094986,1.0776969194412231,0.09863012284040451,-0.9813083410263062,0.16524583101272583,-0.11390412598848343,0.9452822804450989,-0.0822988897562027
1.3942631419243996,2.620976976278924,2.565149126513386,-1.297965407371521,0.1636763960123062,1.2196048498153687,0.08735529333353043,-0.9844584465026855,0.15235158801078796,-0.08340322971343994,0.890311598777771,-0.16124725341796875
1.4123114196864266,2.655774993270915,2.5327628937811317,-1.3469561338424683,0.39544758200645447,1.4567502737045288,0.07369281351566315,-0.9874675273895264,0.13956235349178314,-0.04975169897079468,0.8543955087661743,-0.20526647567749023
1.4320695397732734,2.709729895277346,2.4829177696318747,-1.5447077751159668,0.5281407237052917,1.5903184413909912,0.05788047984242439,-0.9903928637504578,0.1255875527858734,-0.06706619262695312,0.7568417191505432,-0.1404799222946167
1.4542141243520228,2.7819296559677382,2.4156990801998037,-1.8831840753555298,0.556817889213562,1.6839547157287598,0.04094014689326286,-0.9932119846343994,0.10887812077999115,-0.08917310833930969,0.6390552520751953,-0.02255891263484955
1.47918148984487,2.883598000641163,2.3184098693257167,-2.2281908988952637,0.38805651664733887,1.7354878187179565,0.02334294654428959,-0.9958062767982483,0.0884619951248169,-0.10490113496780396,0.5111868977546692,0.0660792663693428
1.5052645291041562,3.0537442207062937,2.149970542118617,-2.3941400051116943,0.03506730496883392,1.7466228008270264,0.005745558999478817,-0.9978535771369934,0.06523475795984268,-0.17713221907615662,0.37347906827926636,0.09872114658355713
1.5276791739346316,-2.858472357111221,1.7766847670262478,-2.340946912765503,-0.393498957157135,1.835350513458252,-0.012042722664773464,-0.9990705847740173,0.04139307513833046,-0.22924447059631348,0.23503237962722778,0.06360292434692383
1.534028313640525,-2.1139490051747205,1.0257857278866165,-2.1383376121520996,-0.7624908685684204,2.0998001098632812,-0.03147605434060097,-0.9993241429328918,0.019002826884388924,-0.16752901673316956,0.07735729217529297,-0.061299920082092285
1.5163549638407667,-1.5557806196114181,0.4581944260491592,-1.8942089080810547,-0.9862483143806458,2.5007197856903076,-0.05441047623753548,-0.9985184073448181,-0.0008170731598511338,-0.07667773962020874,-0.11305391788482666,-0.16937923431396484
1.4871939736738706,-1.3524322446343249,0.24400763307233345,-1.7124998569488525,-1.0709786415100098,2.8791558742523193,-0.0815245732665062,-0.9965073466300964,-0.018090492114424706,-0.06816411763429642,-0.31526046991348267,-0.20775467157363892
1.4539820259252618,-1.2777165337250735,0.15788268075632325,-1.6390362977981567,-1.1183363199234009,3.055429458618164,-0.11158137023448944,-0.9931849837303162,-0.03367190435528755,-0.11722414195537567,-0.5133918523788452,-0.17644143104553223
1.4198338774038848,-1.2410869383157024,0.10948096057011032,-1.687803864479065,-1.1351981163024902,2.9996557235717773,-0.14229026436805725,-0.9886267781257629,-0.0486917570233345,-0.22704866528511047,-0.7240808606147766,-0.11253243684768677
1.386610453656832,-1.2131176379696593,0.06977680933288405,-1.788483738899231,-1.0862481594085693,2.7682864665985107,-0.17155611515045166,-0.9830856919288635,-0.06411994993686676,-0.36488187313079834,-0.9587785005569458,-0.05187720060348511
1.3556839260642937,-1.185941138210731,0.031316835842583775,-1.8492547273635864,-1.007586121559143,2.4134442806243896,-0.19784368574619293,-0.9769524335861206,-0.08013726770877838,-0.5018633008003235,-1.181586503982544,-0.02351546287536621
1.3279345596485155,-1.1592762664918181,-0.0060310288460698365,-1.8479270935058594,-0.9231753945350647,2.0361621379852295,-0.22040516138076782,-0.970653772354126,-0.09619353711605072,-0.6053394079208374,-1.3787269592285156,-0.048535943031311035
1.303170661450467,-1.1333152892866347,-0.041868987502800804,-1.8322221040725708,-0.8081436157226562,1.7289648056030273,-0.23953823745250702,-0.9644014835357666,-0.11203368753194809,-0.6270999908447266,-1.564437747001648,-0.10029220581054688
1.2806884851894145,-1.1072969466300817,-0.07661869667958975,-1.8331931829452515,-0.6584867238998413,1.4826774597167969,-0.2558751404285431,-0.9582130312919617,-0.12789016962051392,-0.5752252340316772,-1.7392206192016602,-0.14281581342220306
1.260094622573932,-1.0809321080282663,-0.11010568996293922,-1.7954645156860352,-0.4557035565376282,1.2600529193878174,-0.2697724997997284,-0.9521192908287048,-0.14384640753269196,-0.5149412155151367,-1.874266266822815,-0.16715805232524872
1.2416220828547166,-1.054675312667098,-0.14128207217565794,-1.6794627904891968,-0.20439569652080536,1.020830512046814,-0.2811537981033325,-0.9463096261024475,-0.15953300893306732,-0.4876450002193451,-1.9756264686584473,-0.21604667603969574
1.2260378084055292,-1.0291990825648965,-0.16910809632449644,-1.4579812288284302,0.03869445249438286,0.7273637652397156,-0.28960153460502625,-0.9411571025848389,-0.1742251068353653,-0.48331713676452637,-2.053319215774536,-0.2869258522987366
1.21436795510209,-1.0057120162705837,-0.19279364767934448,-1.1330115795135498,0.1964942365884781,0.3955729007720947,-0.2946859300136566,-0.9371490478515625,-0.18684710562229156,-0.500571608543396,-2.10137939453125,-0.3425869345664978
1.207403383451234,-0.9855763536942003,-0.21152784888970694,-0.7157283425331116,0.3245563209056854,0.05658312141895294,-0.2962978482246399,-0.9346961975097656,-0.19634318351745605,-0.5213137865066528,-2.108165740966797,-0.375861257314682
1.2056961781556244,-0.9697250268522712,-0.22432109406162645,-0.22041724622249603,0.4589831531047821,-0.2805936336517334,-0.2944640517234802,-0.9340879917144775,-0.2019171565771103,-0.5137786865234375,-2.0772035121917725,-0.4202598035335541
1.2096446165785775,-0.9587826540319713,-0.23052219104324528,0.30154210329055786,0.558786153793335,-0.6121297478675842,-0.28921636939048767,-0.9354904890060425,-0.20300687849521637,-0.5052019953727722,-2.0001940727233887,-0.4484212100505829
1.2190616831033416,-0.9529863741813518,-0.23053220568629063,0.7714791893959045,0.5846772193908691,-0.9159159064292908,-0.2808409035205841,-0.9387764930725098,-0.1995677649974823,-0.4976624846458435,-1.8939567804336548,-0.42646968364715576
1.2333363886578945,-0.9524526165611131,-0.22513782729814702,1.163485050201416,0.5299031734466553,-1.1880675554275513,-0.26978668570518494,-0.9435986876487732,-0.19192935526371002,-0.4642831087112427,-1.7649281024932861,-0.35891276597976685
1.251683853143356,-0.9569599173684158,-0.21511395499669023,1.4642399549484253,0.46340641379356384,-1.417107105255127,-0.25645214319229126,-0.9495142102241516,-0.180707648396492,-0.44014209508895874,-1.6090643405914307,-0.29121601581573486
1.2730497175178572,-0.9659380422603822,-0.2012172239690084,1.6508755683898926,0.37580040097236633,-1.588671326637268,-0.24131862819194794,-0.9559999704360962,-0.16682183742523193,-0.41494661569595337,-1.4419951438903809,-0.23126459121704102
1.2963401461869812,-0.9785784092931158,-0.1847344224640255,1.7180291414260864,0.2601161003112793,-1.7186514139175415,-0.22486995160579681,-0.9625727534294128,-0.15128634870052338,-0.3785083293914795,-1.2773871421813965,-0.1722608208656311
1.3206151762140115,-0.9932496722694445,-0.16724468898742836,1.6961920261383057,0.18787574768066406,-1.8140383958816528,-0.2074240744113922,-0.9688675999641418,-0.1351715624332428,-0.3410225808620453,-1.1252031326293945,-0.12607397139072418
1.3450626386017224,-1.0078791499585762,-0.15023099102063894,1.603407621383667,0.20139232277870178,-1.8489857912063599,-0.18928682804107666,-0.9746301770210266,-0.11944393068552017,-0.32060083746910095,-0.9786475896835327,-0.11754018068313599
1.368998007397855,-1.0208430611567099,-0.1346652237416114,1.4739584922790527,0.24557283520698547,-1.8521502017974854,-0.17087779939174652,-0.9797077178955078,-0.10475508123636246,-0.3022971749305725,-0.8336926102638245,-0.12905514240264893
1.392229766140432,-1.0315790229493738,-0.1210948782596467,1.3698512315750122,0.2615169882774353,-1.8394887447357178,-0.1524174064397812,-0.9840993285179138,-0.09120142459869385,-0.28668469190597534,-0.7008678317070007,-0.15100115537643433
1.414860778991934,-1.042556251085688,-0.1074736489085783,1.3203686475753784,0.22517868876457214,-1.8065241575241089,-0.13413643836975098,-0.9878666400909424,-0.07827603071928024,-0.26993152499198914,-0.5728939771652222,-0.18863052129745483
1.436950258822113,-1.0573597474442875,-0.09028950391544228,1.2979662418365479,0.22480449080467224,-1.7680559158325195,-0.1162414625287056,-0.991055965423584,-0.06554614752531052,-0.2654876112937927,-0.45698797702789307,-0.24260491132736206
1.4586234584835873,-1.0773009346609135,-0.06756261961352265,1.2743008136749268,0.30400821566581726,-1.753516674041748,-0.09858270734548569,-0.993715226650238,-0.05302629619836807,-0.28093385696411133,-0.345960795879364,-0.2869393229484558
1.480156748751913,-1.1055953043324886,-0.035597588449353755,1.2839736938476562,0.3899766504764557,-1.7606128454208374,-0.08089886605739594,-0.9958950281143188,-0.04060664027929306,-0.310992568731308,-0.21768248081207275,-0.32009565830230713
1.5018902390834978,-1.1565205560552037,0.019381858645971146,1.3553123474121094,0.3690444827079773,-1.7920570373535156,-0.06303062289953232,-0.9976269006729126,-0.02771608717739582,-0.3306766152381897,-0.0922476053237915,-0.3584531545639038
1.5239025700015465,-1.2719340142175275,0.1382272472245671,1.462186574935913,0.2728121876716614,-1.8342680931091309,-0.044803813099861145,-0.9989007115364075,-0.013803613372147083,-0.3254048824310303,0.016295552253723145,-0.3883568048477173
1.5445385150250923,-1.62409614467378,0.49286799561988853,1.5877448320388794,0.18340802192687988,-1.8684701919555664,-0.026223447173833847,-0.9996553063392639,0.001399029977619648,-0.3171907961368561,0.12053525447845459,-0.40561938285827637
1.5514157781088196,-2.7530233874418557,1.6237173989879725,1.7172064781188965,0.15626585483551025,-1.8990602493286133,-0.007343834266066551,-0.9998121857643127,0.01793876849114895,-0.3163255453109741,0.23591136932373047,-0.41689491271972656
1.5330542690725573,2.825332396286525,2.330169883930194,1.8584107160568237,0.11062618345022202,-1.91215980052948,0.011737403459846973,-0.9992878437042236,0.03586742654442787,-0.3053011894226074,0.36183643341064453,-0.40670156478881836
1.5075769572044195,2.633214649064072,2.5229668078437952,1.9940409660339355,-0.032353803515434265,-1.8805065155029297,0.030753497034311295,-0.9980023503303528,0.0551898367702961,-0.2636483311653137,0.46946823596954346,-0.3834824562072754
1.4804776303900105,2.56250401572222,2.5924694738898704,2.0725221633911133,-0.2506991922855377,-1.821596384048462,0.049361586570739746,-0.9959240555763245,0.07549182325601578,-0.20884639024734497,0.5380229353904724,-0.3488374948501587
1.4527968382492824,2.528848194163133,2.6227933501574605,2.140946626663208,-0.43167808651924133,-1.8014707565307617,0.06770649552345276,-0.9930461049079895,0.09630918502807617,-0.18519911170005798,0.5885355472564697,-0.30759739875793457
1.4244556811684803,2.5086694131675626,2.6383647370555803,2.206601858139038,-0.5008347630500793,-1.8316845893859863,0.08625293523073196,-0.9893112778663635,0.11757463961839676,-0.2135416865348816,0.6579666137695312,-0.30112242698669434
1.3954496240563221,2.493383717062385,2.6487094072812205,2.220290422439575,-0.501897394657135,-1.8863390684127808,0.10532554239034653,-0.984666109085083,0.13906526565551758,-0.25361040234565735,0.7343762516975403,-0.29468944668769836
1.3663833865066561,2.4787139129498286,2.6588504213330673,2.132005214691162,-0.4280812442302704,-1.9464993476867676,0.12491960823535919,-0.9791803359985352,0.16000401973724365,-0.2567249536514282,0.7851799726486206,-0.25651562213897705
1.3380679914633753,2.4630056440967643,2.6711939966212324,1.9478065967559814,-0.30128517746925354,-1.9792441129684448,0.14476720988750458,-0.973040759563446,0.17953906953334808,-0.2378305047750473,0.8247100710868835,-0.20198453962802887
1.3112743995007918,2.4461209951094345,2.6863228762071096,1.7119381427764893,-0.13302932679653168,-1.9701379537582397,0.16442784667015076,-0.9665127992630005,0.19701944291591644,-0.21612457931041718,0.8690396547317505,-0.15194478631019592
1.286545013700185,2.4299293494104437,2.7028374424514223,1.4687138795852661,0.07785071432590485,-1.877536416053772,0.18315337598323822,-0.9598718881607056,0.21237021684646606,-0.17708030343055725,0.921419620513916,-0.11918461322784424
1.2645310493043147,2.4159007121662497,2.7193591962637584,1.2045596837997437,0.2702992558479309,-1.7342414855957031,0.20009173452854156,-0.9534662365913391,0.22553451359272003,-0.1129639744758606,0.9621942043304443,-0.10535597801208496
1.2454376239219442,2.4038371774038865,2.735525416996571,0.955145537853241,0.3707350790500641,-1.5437672138214111,0.21500521898269653,-0.9475361108779907,0.23653405904769897,-0.059838518500328064,0.9939075112342834,-0.08039058744907379
1.2296174812733445,2.3932260835435843,2.750786802506741,0.6943581700325012,0.3814803957939148,-1.3117280006408691,0.2276751846075058,-0.9423608779907227,0.24519431591033936,-0.01573053002357483,1.0266199111938477,-0.045685410499572754
1.2174858487338944,2.384001720257342,2.7645665740681054,0.43147963285446167,0.3646419048309326,-1.0115598440170288,0.23776596784591675,-0.938232421875,0.25137102603912354,0.02549394965171814,1.0416107177734375,-0.01968136429786682
1.2090594525580132,2.3760676416664155,2.7767241683797335,0.21371346712112427,0.31494227051734924,-0.7780986428260803,0.2452227920293808,-0.9352835416793823,0.25516843795776367,0.06346258521080017,1.0481221675872803,-0.01577305793762207
1.203137028377719,2.3682035337667067,2.7881126990850014,0.07936707884073257,0.23963111639022827,-0.6280154585838318,0.25108692049980164,-0.9331712126731873,0.25719115138053894,0.03315386176109314,1.0539748668670654,-0.03308510780334473
1.1990289374559435,2.360426697639071,2.7987132083989823,-0.030342910438776016,0.18394628167152405,-0.49568861722946167,0.2557762861251831,-0.9316867589950562,0.25795048475265503,-0.01587754487991333,1.0654453039169312,-0.06025746464729309
1.1962700716709538,2.352503122132619,2.809046656576819,-0.10749190300703049,0.1591854989528656,-0.43107911944389343,0.25963523983955383,-0.930681049823761,0.25772544741630554,-0.04239580035209656,1.0642565488815308,-0.06972172856330872
1.1944130134937896,2.3444069243968344,2.819511925636069,-0.17953068017959595,0.170926034450531,-0.3691353499889374,0.26294904947280884,-0.9300000667572021,0.2568219304084778,-0.07377058267593384,1.0736923217773438,-0.07859918475151062
1.1934591281977718,2.3364081235199734,2.8301753169750046,-0.24745330214500427,0.21342666447162628,-0.314060777425766,0.2656348645687103,-0.9296490550041199,0.255325585603714,-0.07781434059143066,1.0890270471572876,-0.08300793170928955
1.1932198077223612,2.328640623184718,2.8410248913955547,-0.2949683368206024,0.2457294911146164,-0.2703963816165924,0.26777157187461853,-0.9295608401298523,0.25340741872787476,-0.06685903668403625,1.100566029548645,-0.08183744549751282
1.1935621844237427,2.3213442274725384,2.8515636588305373,-0.3146815598011017,0.2519089877605438,-0.20197764039039612,0.26938071846961975,-0.9296870231628418,0.2512299418449402,-0.048372358083724976,1.1154322624206543,-0.0801786482334137
1.1946646570100161,2.3154803926666983,2.86065079183915,-0.3274615406990051,0.26436352729797363,-0.08528057485818863,0.27009522914886475,-0.9300925135612488,0.24895106256008148,-0.010039657354354858,1.125145673751831,-0.08452217280864716
1.1967804163835953,2.3120972287259773,2.867342031785109,-0.31482431292533875,0.3068697452545166,0.07135683298110962,0.26948368549346924,-0.930867612361908,0.24670633673667908,0.04782289266586304,1.1299033164978027,-0.09189051389694214
1.2000348962743874,2.312569927214187,2.8703621677729374,-0.2811681032180786,0.34975171089172363,0.26330310106277466,0.26713237166404724,-0.9320517182350159,0.24478599429130554,0.09860557317733765,1.135024070739746,-0.10237540304660797
1.2045816603576063,2.3178315242042955,2.868538653260372,-0.23884974420070648,0.3535379469394684,0.4951123595237732,0.2627285122871399,-0.9336894750595093,0.2433059960603714,0.14376568794250488,1.1431317329406738,-0.09866765141487122
1.2107460929627,2.327631940957864,2.8614106607738514,-0.23627713322639465,0.25614455342292786,0.748556911945343,0.25614243745803833,-0.935879111289978,0.241912841796875,0.17641383409500122,1.1549341678619385,-0.0699765682220459
1.2189534677591631,2.3404879552553037,2.84950431149476,-0.30279937386512756,0.07009737193584442,1.0003412961959839,0.24748682975769043,-0.9387391805648804,0.23983211815357208,0.19410258531570435,1.1583740711212158,-0.01595485210418701
1.2294698005916713,2.3548379762863245,2.8338810496200706,-0.4169134497642517,-0.13658550381660461,1.2337872982025146,0.23701636493206024,-0.9423114657402039,0.23637419939041138,0.18932953476905823,1.151951789855957,0.03762805461883545
1.242360927262149,2.3699719057679016,2.815427066038342,-0.566994309425354,-0.318755179643631,1.4254276752471924,0.22492247819900513,-0.9465481638908386,0.23120716214179993,0.16881540417671204,1.1448971033096313,0.05900001525878906
1.2576023578376454,2.384953059885212,2.7954329793289276,-0.7633321285247803,-0.4691827893257141,1.57537841796875,0.21150478720664978,-0.9513543844223022,0.22403371334075928,0.12614181637763977,1.1387473344802856,0.05266943573951721
1.275077012358072,2.3987696588534346,2.7756268212013295,-0.9737921953201294,-0.52715665102005,1.6620218753814697,0.19711342453956604,-0.9565927386283875,0.21465514600276947,0.07073943316936493,1.1153604984283447,0.032278046011924744
1.2943905115225076,2.4112872192145103,2.757203025152881,-1.1757258176803589,-0.4843130111694336,1.6985546350479126,0.1820507049560547,-0.962042510509491,0.20330236852169037,0.016801878809928894,1.0628116130828857,-0.010492101311683655
1.3152465078334954,2.423529698827557,2.7401789622525543,-1.3394078016281128,-0.3469753563404083,1.7249200344085693,0.16630926728248596,-0.9675244688987732,0.19036217033863068,-0.02609620988368988,1.0429792404174805,-0.059609442949295044
1.337768286997874,2.4384212912768244,2.722220596400518,-1.5007367134094238,-0.1471962183713913,1.8848844766616821,0.1493252068758011,-0.9729716181755066,0.17614832520484924,-0.041109830141067505,1.0206401348114014,-0.10928420722484589
1.3629839853087893,2.4619120901012246,2.6979550443600253,-1.7005853652954102,0.1070183664560318,2.13083815574646,0.12968166172504425,-0.9784846305847168,0.160470649600029,-0.009442344307899475,1.0038751363754272,-0.13987113535404205
1.3911080853335351,2.4963522782116905,2.6648041501295343,-1.9386391639709473,0.2585357129573822,2.3144233226776123,0.10748300701379776,-0.9838994741439819,0.14279259741306305,-0.0002289116382598877,0.9679081439971924,-0.13975584506988525
1.4220459956970237,2.5439619644955043,2.619661786884399,-2.228149890899658,0.3418610394001007,2.4643943309783936,0.0833922028541565,-0.9889570474624634,0.12251592427492142,-0.06083965301513672,0.9047741889953613,-0.09862041473388672
1.45557990509119,2.6096371955172484,2.5570331395814208,-2.5207126140594482,0.3636733889579773,2.468168258666992,0.05831223726272583,-0.9933699369430542,0.09907833486795425,-0.14629434049129486,0.798865795135498,-0.06036660820245743
1.4901632572696213,2.703640502431509,2.4657736008739963,-2.7366456985473633,0.2477894127368927,2.3040528297424316,0.034159377217292786,-0.9967508912086487,0.07294628769159317,-0.2522837221622467,0.6613473296165466,-0.05599355697631836
1.5243400250936934,2.8793788792862682,2.29144431016116,-2.8696935176849365,0.11430273205041885,2.097126007080078,0.012038345448672771,-0.9989210963249207,0.04485336318612099,-0.35993868112564087,0.5308271646499634,-0.07309722900390625
1.5529721874389881,-2.6548645992999407,1.5430400180516057,-2.9299278259277344,0.04760892689228058,1.9794808626174927,-0.008338263258337975,-0.9998411536216736,0.015756575390696526,-0.4082113802433014,0.4182371497154236,-0.12403273582458496
1.5392528308098175,-1.1193607926877478,0.007238385960451736,-2.9499616622924805,-0.05565834045410156,2.041283130645752,-0.028382204473018646,-0.9995025396347046,-0.013760453090071678,-0.3712301552295685,0.33066391944885254,-0.16780364513397217
1.504648322888191,-0.8583096756937966,-0.2554950759673037,-2.9333856105804443,-0.23719722032546997,2.2931087017059326,-0.050021398812532425,-0.9978130459785461,-0.043211571872234344,-0.2843291163444519,0.2189890742301941,-0.18338119983673096
1.4666923532884213,-0.8078505106384019,-0.30985960698920406,-2.8187415599823,-0.5182880163192749,2.694094181060791,-0.07511153817176819,-0.9945860505104065,-0.07181219756603241,-0.17809277772903442,0.06148052215576172,-0.22552037239074707
1.4270734499215951,-0.817677133793882,-0.3070840625107178,-2.537003993988037,-0.9091966152191162,3.0667450428009033,-0.1044938713312149,-0.9896896481513977,-0.09795670211315155,-0.09246651828289032,-0.13888096809387207,-0.28842616081237793
1.3879661000913739,-0.8537538744285132,-0.2820106814886374,-2.06441068649292,-1.3387458324432373,3.2187020778656006,-0.13704229891300201,-0.9833330512046814,-0.11948017030954361,-0.1186949610710144,-0.3638196587562561,-0.37563684582710266
1.3523181797961847,-0.9019087865509924,-0.2482173026659536,-1.4303648471832275,-1.6463419198989868,3.0668869018554688,-0.17003877460956573,-0.9762284159660339,-0.13440631330013275,-0.2962239980697632,-0.5941299796104431,-0.45961815118789673
1.322837842732514,-0.955232288613474,-0.21135318472910586,-0.7241246104240417,-1.811824083328247,2.6246190071105957,-0.20037715137004852,-0.9694154858589172,-0.14171339571475983,-0.546921968460083,-0.81789231300354,-0.5169016122817993
1.301153326398916,-1.0106640041041157,-0.17288138948441417,-0.05754745379090309,-1.8115304708480835,2.058746814727783,-0.22567984461784363,-0.9638660550117493,-0.14153148233890533,-0.7628607749938965,-1.06424081325531,-0.5378963947296143
1.2862410917907474,-1.0660147573247547,-0.13379406361838256,0.342020183801651,-1.7192045450210571,1.6113572120666504,-0.24571840465068817,-0.959786593914032,-0.1357661485671997,-0.8034301400184631,-1.3035955429077148,-0.49069851636886597
1.2745512082620973,-1.1164123948697335,-0.09838573130172963,0.3226162791252136,-1.5476034879684448,1.4204649925231934,-0.26230964064598083,-0.9564393758773804,-0.12813130021095276,-0.6775707006454468,-1.5105559825897217,-0.3292507529258728
1.262327281045487,-1.1539429980932252,-0.07384309677120869,-0.06523105502128601,-1.252987265586853,1.418701410293579,-0.2776024341583252,-0.9527994990348816,-0.1229233667254448,-0.49314945936203003,-1.6933493614196777,-0.11204653233289719
1.2476012334446591,-1.1720147906134895,-0.06625964025664295,-0.6878582239151001,-0.9072051644325256,1.4620050191879272,-0.29267755150794983,-0.9482254981994629,-0.12332194298505783,-0.3758709728717804,-1.837174892425537,0.07695067673921585
1.2299041228148886,-1.1680290091122492,-0.07809987562902318,-1.393602728843689,-0.5264114737510681,1.4742343425750732,-0.3075753152370453,-0.9424567222595215,-0.13104525208473206,-0.3668783903121948,-1.930635929107666,0.2037840634584427
1.2100198253687897,-1.1445921078315222,-0.10670149247768021,-1.9642724990844727,-0.15298247337341309,1.3410279750823975,-0.3214223384857178,-0.9356229901313782,-0.14593693614006042,-0.4117319583892822,-2.027313470840454,0.22076618671417236
1.190232384093016,-1.1078853775171096,-0.145678296241697,-2.228306531906128,0.23189117014408112,0.9839944839477539,-0.3323521912097931,-0.9284552931785583,-0.16587015986442566,-0.5261225700378418,-2.1236534118652344,0.09900631010532379
1.1733937574835405,-1.0640540165527645,-0.18848994815463244,-2.156906843185425,0.6049243211746216,0.4685874581336975,-0.33838769793510437,-0.9220693707466125,-0.1878354698419571,-0.6767947673797607,-2.1711010932922363,-0.10307317972183228
1.1615778586782095,-1.0186757354831975,-0.22979743322007265,-1.7857043743133545,0.8443214893341064,-0.06019410118460655,-0.33877161145210266,-0.9174320697784424,-0.20869237184524536,-0.7577401995658875,-2.1540708541870117,-0.2934741973876953
1.15588624128146,-0.9779466617779183,-0.26479617792493093,-1.1474133729934692,0.8524449467658997,-0.4841228127479553,-0.33431822061538696,-0.9151525497436523,-0.22522708773612976,-0.7091997861862183,-2.0897912979125977,-0.4347306489944458
1.1568910649295814,-0.9478624860186138,-0.28910716377185364,-0.32490405440330505,0.6945661306381226,-0.7814682126045227,-0.3266453742980957,-0.9155571460723877,-0.23464487493038177,-0.5924372673034668,-1.9829872846603394,-0.53233802318573
1.1648174058317653,-0.9317046087499165,-0.3003207227962365,0.5315598249435425,0.4747841954231262,-1.0190931558609009,-0.3169766068458557,-0.9187162518501282,-0.23555578291416168,-0.4913577139377594,-1.856964349746704,-0.590829610824585
1.1794396788622363,-0.929276181795394,-0.2990571837940284,1.2620742321014404,0.24343620240688324,-1.259049654006958,-0.3056074380874634,-0.9243924021720886,-0.2282610535621643,-0.4529680013656616,-1.7103123664855957,-0.5679118633270264
1.1995738084314043,-0.9377336543369903,-0.28834743789649275,1.7265201807022095,0.06371334195137024,-1.4907902479171753,-0.29246044158935547,-0.9318845868110657,-0.2146121859550476,-0.45824143290519714,-1.5482791662216187,-0.46957647800445557
1.2232694181629484,-0.9519977094097037,-0.27269605196744606,1.8959113359451294,0.02754148282110691,-1.6925662755966187,-0.27742329239845276,-0.9402178525924683,-0.19755224883556366,-0.45357951521873474,-1.3916914463043213,-0.3386261463165283
1.2486599795873885,-0.9661561138969791,-0.2571100031828712,1.8251339197158813,0.09493353962898254,-1.858115315437317,-0.2604643404483795,-0.9485612511634827,-0.17997319996356964,-0.449206680059433,-1.2301194667816162,-0.21799112856388092
1.274276622924779,-0.9753596168344754,-0.2457567716733345,1.6171399354934692,0.23084184527397156,-1.9604473114013672,-0.24190841615200043,-0.9563592076301575,-0.16388291120529175,-0.4398084580898285,-1.0638588666915894,-0.13926327228546143
1.2991723398019734,-0.9773931068825377,-0.24060114983450573,1.4052023887634277,0.3420937955379486,-1.9837254285812378,-0.22242960333824158,-0.9633364677429199,-0.15002784132957458,-0.39544451236724854,-0.9019896388053894,-0.11335396766662598
1.323074681885191,-0.9737227013003246,-0.24064098882747278,1.274610996246338,0.3680492043495178,-1.9614973068237305,-0.20277340710163116,-0.9694736003875732,-0.13785536587238312,-0.34166014194488525,-0.7598356008529663,-0.13652800023555756
1.346267084912891,-0.9674749820992029,-0.24346432084705316,1.2419521808624268,0.3270424008369446,-1.93203604221344,-0.18334037065505981,-0.9748990535736084,-0.12632587552070618,-0.3097473978996277,-0.6218722462654114,-0.1884170025587082
1.369418847112628,-0.9613648315418317,-0.24645919301761945,1.2942193746566772,0.3095203936100006,-1.9369165897369385,-0.16401070356369019,-0.9797919988632202,-0.11449144035577774,-0.30931687355041504,-0.48781365156173706,-0.24862182140350342
1.393243128350088,-0.9575497124561249,-0.24723765968999428,1.415135383605957,0.29870688915252686,-1.972778558731079,-0.14443811774253845,-0.9842787981033325,-0.10165011882781982,-0.3326278626918793,-0.3593032956123352,-0.3082160949707031
1.4183814090773665,-0.9590276678111228,-0.24273217621262375,1.592968463897705,0.2974720001220703,-2.0418150424957275,-0.12429019808769226,-0.9884073138237,-0.08719637989997864,-0.36319756507873535,-0.2403067946434021,-0.36710333824157715
1.4451775180026463,-0.9711791518735967,-0.22751902730230011,1.7935709953308105,0.27495449781417847,-2.1088948249816895,-0.10343296080827713,-0.9921203255653381,-0.07070418447256088,-0.3906160593032837,-0.12692886590957642,-0.4100085496902466
1.4735983890499746,-1.0042347893033852,-0.191777056297409,1.9834027290344238,0.21976391971111298,-2.1845991611480713,-0.08188305795192719,-0.9952800273895264,-0.05208811163902283,-0.40734419226646423,-0.003575742244720459,-0.41556310653686523
1.5033153696463442,-1.0836132170399906,-0.1101232367028101,2.14457631111145,0.18213443458080292,-2.2575459480285645,-0.05958655849099159,-0.9977239966392517,-0.03156748414039612,-0.41453447937965393,0.10616815090179443,-0.41543853282928467
1.5329237726456113,-1.315861747300427,0.12409209656017574,2.2591800689697266,0.1535901427268982,-2.3118622303009033,-0.036643415689468384,-0.9992828965187073,-0.009549453854560852,-0.41091206669807434,0.20968621969223022,-0.410189151763916
1.5518517196308796,-2.3701636565440607,1.1802926215685783,2.3624656200408936,0.16920194029808044,-2.365915298461914,-0.013211055658757687,-0.9998205304145813,0.013585404492914677,-0.39609065651893616,0.316241979598999,-0.3919574022293091
1.5315674832307578,2.8648341501920624,2.2307142713607435,2.452406167984009,0.21371588110923767,-2.408216714859009,0.010716929100453854,-0.9992306232452393,0.037729281932115555,-0.36783355474472046,0.4202205538749695,-0.3898104429244995
1.499141946926738,2.6363336798562167,2.46189164750368,2.5124504566192627,0.25068244338035583,-2.3891470432281494,0.03465444594621658,-0.9974339008331299,0.0626491904258728,-0.3167589008808136,0.5106021761894226,-0.365703821182251
1.464975868999081,2.5589368517557642,2.5420461030792456,2.578526258468628,0.23615595698356628,-2.339878797531128,0.05811910703778267,-0.9944062232971191,0.0881967768073082,-0.2501204013824463,0.6007598638534546,-0.3271491527557373
1.4302619794329954,2.5259826083275887,2.577358374962756,2.6376070976257324,0.17395995557308197,-2.271608829498291,0.08088568598031998,-0.9901412725448608,0.11435801535844803,-0.1945330798625946,0.6896499395370483,-0.2947930097579956
1.395795593972496,2.51072821619929,2.594126553319383,2.6243813037872314,0.08915453404188156,-2.1570065021514893,0.10269707441329956,-0.9847264289855957,0.14059627056121826,-0.1423393338918686,0.7573399543762207,-0.25714269280433655
1.3625671463971067,2.5032319098689126,2.6024537188919123,2.510326623916626,0.05555174872279167,-2.02256178855896,0.12318587303161621,-0.9783985018730164,0.16601893305778503,-0.10341039299964905,0.8028610944747925,-0.19688721001148224
1.3315451484139398,2.49821622677951,2.608291812164269,2.274984359741211,0.0875975713133812,-1.8760147094726562,0.14216189086437225,-0.9715157151222229,0.1895984262228012,-0.09261652827262878,0.8560675978660583,-0.1386796236038208
1.3037796867783968,2.4928194975928455,2.615162343135566,1.9292477369308472,0.15785470604896545,-1.7363018989562988,0.15942388772964478,-0.9645623564720154,0.21024677157402039,-0.0803375393152237,0.9057701826095581,-0.07023192942142487
1.279628541961089,2.4846027127130683,2.6254907122522844,1.5457676649093628,0.18119864165782928,-1.6441466808319092,0.1753247082233429,-0.9579092860221863,0.22731272876262665,-0.07486079633235931,0.9339377880096436,-0.017076998949050903
1.258964631699547,2.4725357773449637,2.64022456932386,1.1725428104400635,0.21563653647899628,-1.585091233253479,0.19029369950294495,-0.9517732262611389,0.240658700466156,-0.0927136242389679,0.9434874653816223,0.007632523775100708
1.2412490972368462,2.456754170384487,2.659117548136485,0.8413457274436951,0.21046707034111023,-1.5509239435195923,0.20470213890075684,-0.9461889863014221,0.2506468594074249,-0.10829702019691467,0.9592198729515076,-0.0002499818801879883
1.2262029079426602,2.4379658760145704,2.6812743296236476,0.531862735748291,0.21834447979927063,-1.4845569133758545,0.21856196224689484,-0.9412128925323486,0.2575840950012207,-0.11062115430831909,0.9762163162231445,-0.018158167600631714
1.213942322974514,2.4177008896965404,2.7054049784029757,0.23893873393535614,0.2599286437034607,-1.3568594455718994,0.23136232793331146,-0.9370004534721375,0.2617289125919342,-0.0792168378829956,0.9988441467285156,-0.03196188807487488
1.2045056124045723,2.3977438677357803,2.729809370319434,0.010451458394527435,0.3153742551803589,-1.1775699853897095,0.24251584708690643,-0.9336622357368469,0.2635549008846283,-0.040870845317840576,1.0374982357025146,-0.06085693836212158
1.1976178091763183,2.380197891468232,2.7525227746847842,-0.11787402629852295,0.4087018072605133,-0.9574029445648193,0.2515338659286499,-0.9311732649803162,0.26390859484672546,-0.0058825016021728516,1.0756280422210693,-0.11370083689689636
1.193116984642379,2.366907663588565,2.771695921796229,-0.20435887575149536,0.49897706508636475,-0.6681023836135864,0.25794777274131775,-0.9295229315757751,0.2635347247123718,0.025270700454711914,1.1016571521759033,-0.1741180419921875
1.1907645387048014,2.358665912566945,2.7863464692810225,-0.2113185077905655,0.5640966892242432,-0.4405166208744049,0.2616524398326874,-0.928652822971344,0.2629489600658417,0.0566001832485199,1.1204252243041992,-0.2081238329410553
1.1895794461716602,2.3553347742275865,2.796342236081568,-0.13803863525390625,0.6171818971633911,-0.2453603446483612,0.26330581307411194,-0.928212583065033,0.2628534734249115,0.034866273403167725,1.1407825946807861,-0.24538195133209229
1.189132481597671,2.357424418534963,2.800776217294334,-0.03232072293758392,0.6066006422042847,-0.05206252634525299,0.26304885745048523,-0.9280461668968201,0.26369670033454895,0.020078063011169434,1.1543797254562378,-0.27559828758239746
1.18924881859562,2.363726933563378,2.800025353470762,0.047649070620536804,0.5030999779701233,0.10227123647928238,0.2613060474395752,-0.9280894994735718,0.2652725279331207,0.033554911613464355,1.1467173099517822,-0.26185429096221924
1.190011376084395,2.3722906184916472,2.79554420555707,0.06621929258108139,0.37139892578125,0.2418256551027298,0.25853216648101807,-0.9283732175827026,0.2669917941093445,0.04018920660018921,1.1367318630218506,-0.21175479888916016
1.1917477631569244,2.382052716980304,2.7883968767371137,0.04153941571712494,0.2539094090461731,0.3759832978248596,0.2548029124736786,-0.9290171265602112,0.2683332860469818,0.04913690686225891,1.136811375617981,-0.16773194074630737
1.1946319245994117,2.392557137020989,2.7794341234875746,-0.013918250799179077,0.19437682628631592,0.49203425645828247,0.25014498829841614,-0.9300804734230042,0.26903197169303894,0.061531126499176025,1.1294670104980469,-0.14044594764709473
1.1986790688165676,2.4042315720864056,2.769172572395884,-0.07222795486450195,0.24218297004699707,0.6097072958946228,0.2444545030593872,-0.9315596222877502,0.26914533972740173,0.06938832998275757,1.118098258972168,-0.13224327564239502
1.2039936536321059,2.4186658615236163,2.7568626590547884,-0.12159870564937592,0.3482939600944519,0.7607071995735168,0.23726533353328705,-0.9334787726402283,0.2689291834831238,0.08634316921234131,1.128562331199646,-0.1364368200302124
1.2107226264055952,2.436883381006734,2.74150556430085,-0.18040584027767181,0.4182698130607605,0.9475857615470886,0.22825263440608978,-0.935870885848999,0.2684154212474823,0.11641296744346619,1.147739052772522,-0.13931059837341309
1.219210651826791,2.459364804519836,2.722171145028021,-0.26572713255882263,0.445279598236084,1.1671929359436035,0.21714463829994202,-0.9388278126716614,0.26730337738990784,0.14781513810157776,1.155578851699829,-0.11985743045806885
1.2297290036750814,2.4862323117127394,2.698295469106813,-0.38221296668052673,0.4257647693157196,1.3987834453582764,0.20385532081127167,-0.942398190498352,0.2651958465576172,0.1744406372308731,1.1531068086624146,-0.08585909008979797
1.2424535043090452,2.5173866523450465,2.6694195222928117,-0.5286791324615479,0.3392921984195709,1.6306297779083252,0.18847180902957916,-0.9465780258178711,0.2616654336452484,0.1862078309059143,1.151732325553894,-0.0515974760055542
1.2574666902751936,2.552447551017559,2.63529841734973,-0.7057653665542603,0.18502932786941528,1.8326771259307861,0.17126710712909698,-0.9513125419616699,0.2562658190727234,0.1820959895849228,1.1490817070007324,-0.0220278799533844
1.2745928462889646,2.590418708178099,2.596322249798013,-0.9106519818305969,-0.03269581496715546,1.957763671875,0.15286004543304443,-0.9564515352249146,0.2486654818058014,0.14958445727825165,1.1223907470703125,0.003333672881126404
1.293287784421913,2.6295189823942966,2.5542538325980857,-1.0938023328781128,-0.20832134783267975,1.9525154829025269,0.13423676788806915,-0.9617409706115723,0.23881961405277252,0.07956939935684204,1.0881752967834473,0.01703985035419464
1.3129933062190942,2.669547442739858,2.5102565012353466,-1.2750197649002075,-0.24588043987751007,1.956559181213379,0.11593107879161835,-0.9669524431228638,0.2270747423171997,-0.009882442653179169,1.0370056629180908,-0.008767053484916687
1.334071332897905,2.7146379572701846,2.461810969430034,-1.488236904144287,-0.10761480033397675,2.0050618648529053,0.09711522608995438,-0.9721112251281738,0.2134680598974228,-0.0317159965634346,1.0014691352844238,-0.04803206026554108
1.3571155791782175,2.7706313128399893,2.404626649896136,-1.7623257637023926,0.1680721640586853,2.143721103668213,0.0768737643957138,-0.9772570133209229,0.19763439893722534,-0.036651529371738434,0.9890825152397156,-0.06706477701663971
1.3829671961953438,2.8484281427040266,2.32839543244447,-2.1290395259857178,0.43816885352134705,2.4034457206726074,0.05396096780896187,-0.9824119210243225,0.17876017093658447,-0.016302231699228287,0.9747366905212402,-0.07028521597385406
1.4116238964800367,2.963173191296421,2.2172866971497123,-2.5119502544403076,0.610733687877655,2.643948793411255,0.02813018672168255,-0.987358808517456,0.15598666667938232,0.017371568828821182,0.8976521492004395,-0.02952156960964203
1.4410518024713328,-3.138167902875031,2.040078926999422,-2.8560702800750732,0.653748095035553,2.9260075092315674,-0.00044309982331469655,-0.9915949702262878,0.12938112020492554,0.01075810194015503,0.8083978891372681,-0.021150365471839905
1.466001798087676,-2.8379401427665836,1.7439642909185618,-3.025639057159424,0.5395613312721252,3.100231647491455,-0.03127742186188698,-0.9945140480995178,0.09981854259967804,-0.043948352336883545,0.697303295135498,-0.05242455005645752
1.4767886875625387,-2.4092027016572275,1.317275522374652,-2.919743776321411,0.25171226263046265,3.122190475463867,-0.06276629120111465,-0.9955845475196838,0.0697999820113182,-0.17087623476982117,0.5463351607322693,-0.1374267339706421
1.467638467007245,-1.9926706747119824,0.8993489605778754,-2.5887503623962402,-0.14333359897136688,3.1176791191101074,-0.09394707530736923,-0.9946839213371277,0.042165569961071014,-0.2883771061897278,0.3492828607559204,-0.2593132257461548
1.4441780077832114,-1.7213360108143287,0.6229120476260782,-2.1370701789855957,-0.5060985088348389,3.0984909534454346,-0.12485287338495255,-0.9919946193695068,0.018938591703772545,-0.37679505348205566,0.11984795331954956,-0.37889325618743896
1.4148186338987667,-1.5766887645775836,0.47048660795342573,-1.6776442527770996,-0.7325289845466614,3.053083658218384,-0.15534371137619019,-0.9878601431846619,0.0009153637802228332,-0.45104050636291504,-0.1298156976699829,-0.44811975955963135
1.3838643031355184,-1.5040178949481002,0.38892124255079297,-1.2953389883041382,-0.7782676815986633,3.028524398803711,-0.18543139100074768,-0.9825790524482727,-0.012401256710290909,-0.49329477548599243,-0.38938450813293457,-0.4672280550003052
1.3526205757009038,-1.4673635377430316,0.3440455725225062,-1.0471203327178955,-0.6684802174568176,3.0191755294799805,-0.21529316902160645,-0.9762939214706421,-0.022348126396536827,-0.49277567863464355,-0.648431658744812,-0.452978253364563
1.321485198674441,-1.4456579015028639,0.3156079514430915,-0.9931236505508423,-0.5266644954681396,2.9871230125427246,-0.24480800330638885,-0.9690825939178467,-0.030795805156230927,-0.49072667956352234,-0.8977389335632324,-0.3799248933792114
1.2907553845462028,-1.4258194598187286,0.29023048384260897,-1.1615203619003296,-0.40125492215156555,2.8996081352233887,-0.2734960913658142,-0.9610441327095032,-0.039930760860443115,-0.5357995629310608,-1.1250615119934082,-0.24246346950531006
1.2608470823634552,-1.4020930468141692,0.26156735669164505,-1.412213683128357,-0.34368908405303955,2.7131311893463135,-0.3006807565689087,-0.952349066734314,-0.051212605088949203,-0.6070798635482788,-1.3511942625045776,-0.08947325497865677
1.2327175094981848,-1.3746834280270748,0.2291947659238967,-1.6142070293426514,-0.2977612614631653,2.418926477432251,-0.325318306684494,-0.9433935880661011,-0.06462980806827545,-0.6917410492897034,-1.5561031103134155,-0.019995220005512238
1.207278861981626,-1.345341476293417,0.19546320913575474,-1.6891037225723267,-0.15292607247829437,2.050114154815674,-0.34656625986099243,-0.9346519112586975,-0.07948639243841171,-0.7711400985717773,-1.7179210186004639,-0.041317231953144073
1.1852849335078588,-1.3162500129204926,0.1636169893584188,-1.5856889486312866,0.05111892893910408,1.6558085680007935,-0.36391687393188477,-0.9266062378883362,-0.09468764811754227,-0.8294425010681152,-1.853590965270996,-0.114754319190979
1.1672530484661001,-1.2901781986147045,0.137009221009944,-1.3087490797042847,0.24922533333301544,1.277716875076294,-0.37731999158859253,-0.9196754097938538,-0.10875256359577179,-0.8511955738067627,-1.9649683237075806,-0.20519685745239258
1.1535237126781588,-1.2694906173091172,0.11819272370063677,-0.8947070240974426,0.4333302080631256,0.9228355288505554,-0.38701173663139343,-0.9141976833343506,-0.12027066200971603,-0.8333709836006165,-2.0525994300842285,-0.28141677379608154
1.1442729565121759,-1.2552164116261062,0.10824991767507006,-0.4385163486003876,0.5997532606124878,0.5902729034423828,-0.3932780921459198,-0.9104095697402954,-0.1284017711877823,-0.8018054962158203,-2.0985474586486816,-0.3159492611885071
1.1394595102514398,-1.2470813172660176,0.10638347599296379,-0.01664925552904606,0.6657266616821289,0.2726372182369232,-0.3963705003261566,-0.9084076285362244,-0.13298924267292023,-0.760703444480896,-2.101052761077881,-0.27290964126586914
1.139059996798068,-1.245296293450864,0.11139856239415882,0.3897358477115631,0.5814187526702881,-0.06428736448287964,-0.3964763879776001,-0.908240556716919,-0.13381262123584747,-0.7235797643661499,-2.06105899810791,-0.1663428395986557
1.1433572122565323,-1.2513727923514901,0.12349301860949033,0.8386289477348328,0.3924352824687958,-0.42978012561798096,-0.3935731053352356,-0.9100303053855896,-0.1301742047071457,-0.6966215968132019,-1.9908030033111572,-0.08346390724182129
1.1524288725778817,-1.2666919567595853,0.1434588940414383,1.2617844343185425,0.1821240335702896,-0.7843021154403687,-0.38762784004211426,-0.9137533903121948,-0.12165277451276779,-0.680304229259491,-1.8886605501174927,-0.04271470010280609
1.1655895930146805,-1.291055206837977,0.17097474292820872,1.577955722808838,-0.010979121550917625,-1.0917425155639648,-0.37888509035110474,-0.9190208911895752,-0.1088438555598259,-0.6472532749176025,-1.7441262006759644,0.01159977912902832
1.1817185302640443,-1.3228684673113924,0.20432319005622016,1.7161086797714233,-0.1953861117362976,-1.3311814069747925,-0.3677367568016052,-0.9252592921257019,-0.09308735281229019,-0.5944824814796448,-1.5834994316101074,0.08756381273269653
1.1995342424245452,-1.358650566371294,0.23996623251992186,1.6324899196624756,-0.3246322572231293,-1.5154167413711548,-0.35465893149375916,-0.9318702220916748,-0.07638882100582123,-0.542664647102356,-1.4289088249206543,0.16647684574127197
1.2182127871615143,-1.3931245007755075,0.273261083712296,1.3791923522949219,-0.3305565118789673,-1.6820164918899536,-0.3398878872394562,-0.938483715057373,-0.06103206053376198,-0.5153214335441589,-1.2790610790252686,0.2375001311302185
1.237725847624957,-1.421421919267722,0.3001523623596826,1.025159239768982,-0.2530486583709717,-1.8617923259735107,-0.32330620288848877,-0.9450429081916809,-0.04865609481930733,-0.5202149152755737,-1.1178083419799805,0.2657889127731323
1.2581670642427407,-1.4398204934765633,0.3176557838146679,0.6417289972305298,-0.09639565646648407,-2.0137877464294434,-0.304928183555603,-0.9515281915664673,-0.04016817733645439,-0.5218693017959595,-0.9580637216567993,0.24105030298233032
1.2793501124245932,-1.4466564563708644,0.3247559149865009,0.32401496171951294,0.0798877626657486,-2.115598678588867,-0.2851267158985138,-0.9578292965888977,-0.035578545182943344,-0.49864092469215393,-0.8061172366142273,0.17515087127685547
1.3010095341453756,-1.4434350304960575,0.32293838576108097,0.1369858831167221,0.2035716474056244,-2.1766908168792725,-0.26436740159988403,-0.9638277292251587,-0.03385341912508011,-0.4585787355899811,-0.6563352942466736,0.06862843036651611
1.3229658905952564,-1.434445835858654,0.3160619384662404,0.10916491597890854,0.24880677461624146,-2.2022433280944824,-0.2430247962474823,-0.9694468975067139,-0.033343441784381866,-0.4119586646556854,-0.5143788456916809,-0.06144392117857933
1.3450345664446897,-1.4262157569925908,0.3098329951146534,0.2369690090417862,0.16559818387031555,-2.1920902729034424,-0.22151432931423187,-0.9746238589286804,-0.03225170820951462,-0.3654913008213043,-0.3695994019508362,-0.17954003810882568
1.3671208914130584,-1.4271087803525027,0.31150160784999675,0.4793563485145569,-0.027925487607717514,-2.15447735786438,-0.20018698275089264,-0.9793297648429871,-0.028963983058929443,-0.31476661562919617,-0.25034576654434204,-0.27850043773651123
1.3891912391580354,-1.4459132206012477,0.3292482222544104,0.7872897982597351,-0.24460165202617645,-2.1149041652679443,-0.1792028844356537,-0.9835550785064697,-0.022496484220027924,-0.2810479700565338,-0.1500968337059021,-0.36297082901000977
1.4112648039608608,-1.4915792916500152,0.3722827382328009,1.1065617799758911,-0.39372962713241577,-2.1151435375213623,-0.1583583801984787,-0.9873018264770508,-0.01257098838686943,-0.2855655252933502,-0.04507744312286377,-0.42300617694854736
1.433080228894708,-1.5733491226883987,0.4506654369332347,1.3664209842681885,-0.43916764855384827,-2.1415131092071533,-0.13728171586990356,-0.9905321002006531,0.00035045293043367565,-0.31237950921058655,0.06397253274917603,-0.4463798999786377
1.4538181633114036,-1.7049369601790294,0.5789094330256249,1.5777580738067627,-0.4290737211704254,-2.195727825164795,-0.11566420644521713,-0.9931658506393433,0.01560900453478098,-0.3145725727081299,0.1571977138519287,-0.4463186264038086
1.4717501742349386,-1.905693114039458,0.7766873610678753,1.712982177734375,-0.37769392132759094,-2.2561371326446533,-0.09339180588722229,-0.9950989484786987,0.03250085189938545,-0.2997356057167053,0.22477412223815918,-0.44245851039886475
1.4841892014076952,-2.192191153159906,1.060833993725765,1.798994541168213,-0.337115079164505,-2.334428310394287,-0.0703306645154953,-0.9962519407272339,0.050357941538095474,-0.2990387976169586,0.29649901390075684,-0.4121437072753906
1.4876661917887763,-2.550814459209725,1.4172583417106535,1.8897184133529663,-0.35922226309776306,-2.4390954971313477,-0.046251844614744186,-0.9965466856956482,0.06896227598190308,-0.30566155910491943,0.40720635652542114,-0.36316680908203125
1.4794742065414344,-2.9063925473133994,1.770263883587695,2.0369763374328613,-0.4188656210899353,-2.4910402297973633,-0.021252639591693878,-0.9958330392837524,0.08868743479251862,-0.27328774333000183,0.5052931904792786,-0.34675920009613037
1.4606270963087271,3.105869309484352,2.0377268583543224,2.1962475776672363,-0.538466215133667,-2.442185878753662,0.0039268736727535725,-0.9939374923706055,0.1098778247833252,-0.18570476770401,0.5600689649581909,-0.3564748764038086
1.4354443420686196,2.9303505491025805,2.208605351031138,2.2369790077209473,-0.6331961750984192,-2.29948353767395,0.028293577954173088,-0.9908539056777954,0.13194088637828827,-0.09314334392547607,0.6009154319763184,-0.33213603496551514
1.4083130666914578,2.8197718620498624,2.3137010550218515,2.1390223503112793,-0.681376039981842,-2.1203978061676025,0.05116721987724304,-0.986828625202179,0.15346571803092957,-0.03784622997045517,0.6634183526039124,-0.25388360023498535
1.3819217465431857,2.7460645762888363,2.3815928375792192,1.9468998908996582,-0.6770375370979309,-1.9388175010681152,0.07234125584363937,-0.9822161793708801,0.17325925827026367,-0.0253593847155571,0.7299118041992188,-0.17107699811458588
1.357557305767084,2.6935154490352655,2.4286590947142894,1.7106208801269531,-0.596508800983429,-1.7597213983535767,0.09168405085802078,-0.9773505926132202,0.19073592126369476,-0.01529848575592041,0.7681677341461182,-0.12817466259002686
1.3359620660950406,2.653906281624158,2.4639896460279194,1.412886381149292,-0.4184354543685913,-1.575657606124878,0.10903133451938629,-0.9725528955459595,0.20555661618709564,-0.0002665966749191284,0.7730593085289001,-0.12161776423454285
1.3180991868272445,2.6228311131400885,2.493065953086388,1.0247018337249756,-0.13886961340904236,-1.3694915771484375,0.12395957112312317,-0.9682416319847107,0.21712304651737213,0.01269819587469101,0.7741954922676086,-0.10231579840183258
1.3045648524863218,2.5969426929182937,2.519999599025534,0.6011494994163513,0.16131125390529633,-1.1909074783325195,0.13631585240364075,-0.9647692441940308,0.22502976655960083,0.011328235268592834,0.7987231016159058,-0.06023469567298889
1.2952363802414824,2.5731710116950177,2.5475924274353856,0.2065615952014923,0.39170631766319275,-1.0463032722473145,0.14646489918231964,-0.9622730016708374,0.22930142283439636,-0.026622295379638672,0.8437578678131104,-0.03174567222595215
1.2895446970410729,2.550077963516842,2.5766510466338888,-0.1184348538517952,0.5651997923851013,-0.9128515720367432,0.1547718495130539,-0.9607087969779968,0.2304004281759262,-0.04359625279903412,0.8890535235404968,-0.03379085659980774
1.2866794231202532,2.5272431137676037,2.6069230051401187,-0.3527759611606598,0.667567789554596,-0.8003719449043274,0.16157826781272888,-0.9599095582962036,0.22905489802360535,-0.049502402544021606,0.9142248034477234,-0.06303910911083221
1.2856245570158014,2.5043951669729574,2.6377395948972024,-0.47387441992759705,0.663841724395752,-0.7272068858146667,0.1673717349767685,-0.9596133232116699,0.22611787915229797,-0.03770248591899872,0.9215120673179626,-0.08953620493412018
1.2853705142996277,2.4815827052908377,2.6681527247299845,-0.5066012144088745,0.6061438918113708,-0.6632310748100281,0.17263570427894592,-0.9595418572425842,0.22243405878543854,-0.03556591272354126,0.9254993796348572,-0.11652255058288574
1.2853307290640832,2.4599446035521453,2.696723005728793,-0.4776102900505066,0.5454972982406616,-0.6012592911720276,0.17743201553821564,-0.9595306515693665,0.2186764031648636,-0.039828166365623474,0.9446836709976196,-0.13858267664909363
1.284923337962201,2.440098977454349,2.7227748813985713,-0.3859243392944336,0.47859498858451843,-0.5813363790512085,0.18198874592781067,-0.959415853023529,0.21541081368923187,-0.050412118434906006,0.972645103931427,-0.16075372695922852
1.2836673329027082,2.423113073776823,2.7451190741889864,-0.24284523725509644,0.4074054956436157,-0.5256933569908142,0.18641437590122223,-0.9590609073638916,0.21319571137428284,-0.06794504821300507,1.008026123046875,-0.18762168288230896
1.2818752864749896,2.410616821706528,2.761945396776163,-0.1237340122461319,0.31279823184013367,-0.42369115352630615,0.19021064043045044,-0.958551824092865,0.21212852001190186,-0.043527841567993164,1.0373328924179077,-0.19705259799957275
1.2798548018331048,2.402332272221906,2.773393542515672,-0.014269575476646423,0.2279171645641327,-0.32923921942710876,0.19326603412628174,-0.9579741954803467,0.2119762897491455,-0.002332732081413269,1.0384643077850342,-0.1801920086145401
1.2776353462047567,2.3984139594532667,2.7796282485594555,0.10303180664777756,0.18690821528434753,-0.2344502955675125,0.19553355872631073,-0.9573351740837097,0.21278271079063416,0.015663444995880127,1.0379624366760254,-0.17283496260643005
1.2750893342487482,2.399489967853442,2.7804829501488415,0.23598213493824005,0.1973067820072174,-0.14504797756671906,0.19695091247558594,-0.9565963745117188,0.2147885113954544,0.019464582204818726,1.0513838529586792,-0.1825464963912964
1.2722198878010673,2.4056609466793986,2.776355396414094,0.34086260199546814,0.2504246234893799,-0.061214420944452286,0.1974634975194931,-0.9557561874389648,0.21803344786167145,0.03581292927265167,1.0614690780639648,-0.18507422506809235
1.269401820520482,2.4163315363811573,2.768130788427084,0.395377516746521,0.30752038955688477,0.05048361420631409,0.1969113051891327,-0.9549234509468079,0.22214238345623016,0.07084998488426208,1.058957815170288,-0.16547110676765442
1.2671624428003978,2.4313613640019502,2.7558889479386397,0.4176790714263916,0.35936659574508667,0.20690849423408508,0.19494439661502838,-0.9542562961578369,0.22669774293899536,0.11731153726577759,1.054689645767212,-0.13731157779693604
1.2658699820927959,2.4511028225725107,2.739136826196838,0.4221925735473633,0.38414037227630615,0.396546870470047,0.1912166327238083,-0.9538690447807312,0.2314523309469223,0.157614603638649,1.0584375858306885,-0.10753549635410309
1.2657785144433782,2.475633213866897,2.717302560453431,0.40295013785362244,0.34425339102745056,0.6103564500808716,0.18553604185581207,-0.9538416266441345,0.23614154756069183,0.1859087198972702,1.0773462057113647,-0.07859434187412262
1.267326951117348,2.5039226268591364,2.690876581377282,0.2916742265224457,0.27451586723327637,0.8316075801849365,0.1779027134180069,-0.9543054699897766,0.24010780453681946,0.20259049534797668,1.0932520627975464,-0.04581741988658905
1.2713819601472054,2.534692273733094,2.661347973413559,0.0548209585249424,0.2439187914133072,1.0567628145217896,0.16822314262390137,-0.95550936460495,0.24228647351264954,0.21013382077217102,1.0968058109283447,0.00998719036579132
1.278715801475035,2.5672507775170494,2.6299294204219548,-0.26144325733184814,0.26142826676368713,1.2670066356658936,0.1564359962940216,-0.9576468467712402,0.24174506962299347,0.21076685190200806,1.1023000478744507,0.06712353229522705
1.2895817490901884,2.601117287861765,2.5974693217434415,-0.6109058260917664,0.2869458794593811,1.4316701889038086,0.14279784262180328,-0.9607190489768982,0.23796626925468445,0.2064606249332428,1.0982311964035034,0.09148645401000977
1.3040363683904153,2.6374615609585064,2.5629036824164517,-0.9546861052513123,0.3274594843387604,1.6303249597549438,0.12733526527881622,-0.9646300673484802,0.23081418871879578,0.21478213369846344,1.092284917831421,0.08872035145759583
1.3220329842342016,2.680393461840213,2.522289514259495,-1.2488981485366821,0.40806320309638977,1.8667162656784058,0.10956715047359467,-0.9692176580429077,0.2204822301864624,0.24240738153457642,1.0848639011383057,0.054038867354393005
1.3427892987392922,2.735302599036205,2.470552864359469,-1.4708040952682495,0.5175796151161194,2.0722899436950684,0.08933059871196747,-0.9741188287734985,0.20763571560382843,0.2468511015176773,1.0657174587249756,-0.006707817316055298
1.3652517019839479,2.8057955099278926,2.4042309503199797,-1.6624467372894287,0.6171565651893616,2.1815028190612793,0.06725570559501648,-0.9789499640464783,0.19270141422748566,0.1963704526424408,1.070792555809021,-0.04446209967136383
1.3887605751047893,2.89619755220718,2.3188801843870617,-1.8979439735412598,0.7065980434417725,2.2988226413726807,0.043980006128549576,-0.9834771752357483,0.17560918629169464,0.111430823802948,1.0708184242248535,-0.041621580719947815
1.4133794814470266,3.016077598124369,2.2046870538691095,-2.216313362121582,0.74335116147995,2.3731586933135986,0.019625335931777954,-0.9876355528831482,0.1555364578962326,0.05903378129005432,1.0560098886489868,0.002529636025428772
1.4384727127499033,-3.1018893493958783,2.0451833410832077,-2.582045316696167,0.7161884903907776,2.4319252967834473,-0.0052370657213032246,-0.9912580251693726,0.1318357139825821,0.004046916961669922,1.018357515335083,0.0576176643371582
1.4623999339804254,-2.8522951686053144,1.8006036695487457,-3.0528807640075684,0.629462718963623,2.5526275634765625,-0.03086327575147152,-0.9941308498382568,0.10369056463241577,-0.013722836971282959,0.9501243829727173,0.10852885246276855
1.4794368576315828,-2.462317363230362,1.4145291487500455,-3.4349184036254883,0.5127227306365967,2.6464295387268066,-0.057315390557050705,-0.9958296418190002,0.07098202407360077,-0.024181745946407318,0.842432975769043,0.14642548561096191
1.4792946735876709,-1.9651544812446715,0.9196433865992877,-3.6560559272766113,0.32458674907684326,2.7153587341308594,-0.08436135947704315,-0.9958166480064392,0.03510770574212074,-0.09285416454076767,0.7634251713752747,0.08848869800567627
1.4590018581068926,-1.556939077538934,0.511258639630831,-3.618987798690796,0.027590755373239517,2.719907283782959,-0.11155335605144501,-0.9937574863433838,-0.001545921666547656,-0.1898076981306076,0.6826457977294922,-0.024012327194213867
1.4271508622068776,-1.3170236304962462,0.26780164046957095,-3.3012735843658447,-0.34626972675323486,2.702537775039673,-0.13856813311576843,-0.9897007346153259,-0.03593965247273445,-0.3326232433319092,0.5570833683013916,-0.20580512285232544
1.3920376798416119,-1.194616684970526,0.13868056857401564,-2.766695261001587,-0.6395426392555237,2.648312568664551,-0.16537566483020782,-0.9840651750564575,-0.0653216764330864,-0.5011434555053711,0.34189891815185547,-0.4351969361305237
1.3586068668971338,-1.1381810039296232,0.07452028359904862,-2.1363534927368164,-0.6130251884460449,2.478379726409912,-0.19119952619075775,-0.9775721430778503,-0.08829407393932343,-0.658989667892456,0.06102222204208374,-0.665367841720581
1.3293777668091329,-1.1141179165800048,0.04459724170121674,-1.6089905500411987,-0.4069753587245941,2.196744203567505,-0.2145805060863495,-0.9709997773170471,-0.10542739927768707,-0.7715034484863281,-0.24327951669692993,-0.779276967048645
1.3042679271282334,-1.1028647445548847,0.02928380551685268,-1.3476026058197021,-0.32376277446746826,1.9615329504013062,-0.23507148027420044,-0.9646910429000854,-0.11879724264144897,-0.7951713800430298,-0.5238802433013916,-0.7153090238571167
1.2811207566494538,-1.0961481509911966,0.018415081481102033,-1.3057345151901245,-0.4546491503715515,1.9040557146072388,-0.25406473875045776,-0.958336591720581,-0.13054540753364563,-0.6727540493011475,-0.7952645421028137,-0.5335016846656799
1.2575961895651775,-1.092490657745353,0.008273762723004341,-1.3885654211044312,-0.7507308125495911,1.9966257810592651,-0.27352824807167053,-0.9513524770736694,-0.1418132334947586,-0.4863899350166321,-1.1004512310028076,-0.38620173931121826
1.232590479914044,-1.0914173804720577,-0.0018710189528210594,-1.4747134447097778,-0.919438898563385,2.1279940605163574,-0.29439616203308105,-0.9433514475822449,-0.1530335247516632,-0.37352681159973145,-1.404686450958252,-0.3279843330383301
1.206607320418356,-1.091765768968017,-0.011145107455923078,-1.4688278436660767,-0.8647465705871582,2.151308059692383,-0.31609979271888733,-0.934412956237793,-0.16417568922042847,-0.39787423610687256,-1.6333973407745361,-0.3351374864578247
1.1814901815403287,-1.0909616584351125,-0.020223713626779147,-1.4298213720321655,-0.6353261470794678,1.9561398029327393,-0.3366850018501282,-0.9251726269721985,-0.1752111166715622,-0.531936764717102,-1.8493483066558838,-0.37825554609298706
1.1591054749615288,-1.085209147582443,-0.03142238586058374,-1.412251353263855,-0.25925740599632263,1.5724642276763916,-0.3539016544818878,-0.9164454936981201,-0.1867656260728836,-0.6928513050079346,-2.08160138130188,-0.39586055278778076
1.1408388189438015,-1.072240501614808,-0.04619059520027525,-1.3627372980117798,0.15395814180374146,1.0604650974273682,-0.36609312891960144,-0.9089834690093994,-0.19931162893772125,-0.8068957328796387,-2.271360397338867,-0.3797745704650879
1.1273826509086908,-1.052721331084331,-0.06429616426496447,-1.2673630714416504,0.4524557292461395,0.5433966517448425,-0.3727265000343323,-0.9032923579216003,-0.2124572992324829,-0.8458709120750427,-2.387326717376709,-0.35806864500045776
1.1187381950720443,-1.0295914157346475,-0.08397919365753354,-1.0474467277526855,0.6037046909332275,0.09474401921033859,-0.3743918836116791,-0.8995499610900879,-0.22503522038459778,-0.798047661781311,-2.4400649070739746,-0.3196118474006653
1.1151785047277143,-1.0073669403458372,-0.10167933447441967,-0.6096081733703613,0.6526195406913757,-0.2942766845226288,-0.372003436088562,-0.8979893326759338,-0.23500841856002808,-0.700262188911438,-2.4311580657958984,-0.3160320520401001
1.1174976972298378,-0.9902990030384962,-0.11337064137366071,0.01621553674340248,0.6444540023803711,-0.6444871425628662,-0.3661958575248718,-0.8990074396133423,-0.2401803433895111,-0.6144865155220032,-2.3557686805725098,-0.36969804763793945
1.12639064171638,-0.9811713571687657,-0.1168053596418393,0.7157760262489319,0.54264897108078,-0.9967077970504761,-0.35732904076576233,-0.9028663039207458,-0.23905763030052185,-0.5684979557991028,-2.227459192276001,-0.3817918300628662
1.1420295169171666,-0.9815731588792758,-0.11127521380442897,1.395249366760254,0.37188470363616943,-1.3300565481185913,-0.34564292430877686,-0.9094791412353516,-0.23103849589824677,-0.5386191606521606,-2.062826156616211,-0.3210395872592926
1.163769927567449,-0.9918227428720481,-0.09693344257811655,1.9392457008361816,0.2032129019498825,-1.6429011821746826,-0.33136188983917236,-0.918302059173584,-0.2166120707988739,-0.5049723386764526,-1.8712793588638306,-0.23970186710357666
1.1902048387248199,-1.0103312874667498,-0.07533231294118212,2.263688564300537,0.09024880826473236,-1.8935070037841797,-0.3146381378173828,-0.9284451007843018,-0.19746612012386322,-0.4683208465576172,-1.6593694686889648,-0.13450396060943604
1.2193132368318127,-1.0343799696872409,-0.04901439118709717,2.3309555053710938,0.023408815264701843,-2.0656237602233887,-0.29593387246131897,-0.9388631582260132,-0.17595303058624268,-0.42173275351524353,-1.4364421367645264,-0.01034139096736908
1.2490030290686216,-1.060179139537354,-0.021454488403258504,2.1721887588500977,0.026656538248062134,-2.144899368286133,-0.27592626214027405,-0.9486697912216187,-0.15456542372703552,-0.36315757036209106,-1.238891363143921,0.10073263943195343
1.2777482323593323,-1.0833698980205446,0.0034714641527410404,1.8774131536483765,0.08939012885093689,-2.159175395965576,-0.2552303969860077,-0.9573678374290466,-0.13529428839683533,-0.3025698661804199,-1.0537559986114502,0.17258697748184204
1.3047446370856504,-1.1003791703550883,0.02245646548487358,1.5295146703720093,0.15507753193378448,-2.131643772125244,-0.2343655526638031,-0.9648165106773376,-0.11917272955179214,-0.267145037651062,-0.8803831934928894,0.18896663188934326
1.3298307811120171,-1.1089419083473295,0.033270728730121414,1.2032347917556763,0.22360900044441223,-2.092434883117676,-0.21363769471645355,-0.9711080193519592,-0.10634040832519531,-0.25148066878318787,-0.7377238273620605,0.15086574852466583
1.3532863934861243,-1.1078352044318132,0.03466245335662187,0.9517648816108704,0.2597057521343231,-2.0663490295410156,-0.1930830180644989,-0.9764378070831299,-0.09637587517499924,-0.2560136318206787,-0.6052578091621399,0.07487643510103226
1.3755926514360584,-1.098161104521482,0.027442798536759166,0.8012510538101196,0.2522217333316803,-2.032010316848755,-0.17270246148109436,-0.9810081720352173,-0.08830026537179947,-0.26876479387283325,-0.47567218542099,-0.014986269176006317
1.3970286500124183,-1.0830958921073377,0.014440822692882552,0.7648970484733582,0.19879019260406494,-1.974466323852539,-0.1527375727891922,-0.9849403500556946,-0.08101780712604523,-0.2665891647338867,-0.3528587818145752,-0.11194460839033127
1.417940071148501,-1.0678169585804338,0.0006682880396909433,0.8350933790206909,0.13998226821422577,-1.9067550897598267,-0.13340525329113007,-0.9883401989936829,-0.07339655607938766,-0.25650256872177124,-0.23219531774520874,-0.2158336639404297
1.4387656057565565,-1.058579014232177,-0.007518731030202604,0.9872035384178162,0.08306092023849487,-1.8325772285461426,-0.11475172638893127,-0.9912965893745422,-0.06452184170484543,-0.25072675943374634,-0.11562174558639526,-0.31507086753845215
1.4597625734188295,-1.0634754554026495,-0.0018985695754848452,1.1710675954818726,0.05994069576263428,-1.7560454607009888,-0.0968504324555397,-0.9938420653343201,-0.0538339801132679,-0.2545746862888336,-0.011849522590637207,-0.38412362337112427
1.4809983931200668,-1.0919549074879593,0.027269829659926477,1.339372992515564,0.05369611829519272,-1.7020899057388306,-0.07959229499101639,-0.9959708452224731,-0.04131947457790375,-0.2647222578525543,0.09304720163345337,-0.40820425748825073
1.5023835602102786,-1.1590048147296184,0.09504441602958341,1.4537672996520996,0.05208301916718483,-1.680722713470459,-0.06264850497245789,-0.997660756111145,-0.027362536638975143,-0.2793772220611572,0.19909179210662842,-0.3928185701370239
1.5232952106647655,-1.3017582843344349,0.23866967994469276,1.4921871423721313,0.0797247588634491,-1.6883752346038818,-0.04578007385134697,-0.9988720417022705,-0.012622608803212643,-0.28431326150894165,0.2970132827758789,-0.36109548807144165
1.5418126842151256,-1.6554620905269453,0.5936699653988875,1.5190509557724,0.12696366012096405,-1.6715482473373413,-0.02888363227248192,-0.9995800256729126,0.0024513148237019777,-0.2850201427936554,0.38089698553085327,-0.3318883180618286
1.5492776154110313,-2.5329759586923046,1.4725687192828278,1.5120244026184082,0.08914277702569962,-1.639562964439392,-0.012308517470955849,-0.9997684955596924,0.017662780359387398,-0.2666068375110626,0.46557337045669556,-0.31871843338012695
1.5378735911433037,3.0173204061298433,2.2060906760585404,1.4850845336914062,-0.017969004809856415,-1.6312546730041504,0.004080704413354397,-0.9994580745697021,0.03266759589314461,-0.2426823377609253,0.5418163537979126,-0.2669050693511963
1.5190978683895373,2.7349226529146606,2.4878215189750343,1.4704105854034424,-0.15753436088562012,-1.6257610321044922,0.020441077649593353,-0.9986639618873596,0.04746256768703461,-0.22689244151115417,0.6156834959983826,-0.2234419584274292
1.49858185297676,2.6080444230963122,2.612905162502336,1.4689711332321167,-0.23413912951946259,-1.5948433876037598,0.036696746945381165,-0.9973936676979065,0.06212487444281578,-0.20558097958564758,0.6727017760276794,-0.22543954849243164
1.4778560147349176,2.5387538256340445,2.6799693261267676,1.4073891639709473,-0.24645785987377167,-1.561346411705017,0.052620481699705124,-0.9956841468811035,0.07644854485988617,-0.17737630009651184,0.7167075872421265,-0.23802363872528076
1.4577481571187714,2.4904988287686876,2.7260699920752436,1.2806651592254639,-0.22517943382263184,-1.5572309494018555,0.06836813688278198,-0.9936168789863586,0.08973000198602676,-0.1634303331375122,0.7445170879364014,-0.20560503005981445
1.4385479677085593,2.4502657878278993,2.7646551857664887,1.130326509475708,-0.15787363052368164,-1.5606666803359985,0.08407101035118103,-0.9912679195404053,0.10158789157867432,-0.17255666851997375,0.7674520015716553,-0.1599220186471939
1.4202879138078415,2.4143707872731612,2.7996444138753622,0.9929406046867371,-0.09309361129999161,-1.5548639297485352,0.09968031197786331,-0.988694965839386,0.11200956255197525,-0.17263253033161163,0.7983874082565308,-0.14167240262031555
1.4029262233500794,2.3826955941981507,2.831003075846312,0.889904260635376,-0.05268041044473648,-1.5104494094848633,0.11497367173433304,-0.9859429001808167,0.12123493105173111,-0.15176257491111755,0.8300132751464844,-0.13164114952087402
1.3864364020137032,2.3570272137933026,2.85672615114723,0.846325159072876,-0.018526962026953697,-1.4194111824035645,0.12951765954494476,-0.9830538034439087,0.12973354756832123,-0.1147165596485138,0.8549256324768066,-0.14044499397277832
1.3707616571867638,2.3392659302117313,2.874652798892337,0.8663744926452637,-0.02160371094942093,-1.2817111015319824,0.14286351203918457,-0.9800596833229065,0.13810664415359497,-0.0733444094657898,0.8784818053245544,-0.16430580615997314
1.3558239550648514,2.3299447725893123,2.883649398950458,0.9307273626327515,-0.09037501364946365,-1.1229019165039062,0.15474741160869598,-0.9769822955131531,0.146829292178154,-0.02915225923061371,0.8932725787162781,-0.18296195566654205
1.3416157162470654,2.327366375593631,2.884711824822952,0.9803780317306519,-0.2219490259885788,-0.966827392578125,0.16520439088344574,-0.9738528728485107,0.15594373643398285,-0.002545654773712158,0.9073244333267212,-0.18058645725250244
1.3282794264328317,2.3286506839564503,2.880455922212957,0.9821140170097351,-0.33613502979278564,-0.8318012356758118,0.17442215979099274,-0.9707366228103638,0.16506892442703247,-0.00016671419143676758,0.9230375289916992,-0.15164101123809814
1.315992228365604,2.3312647533690685,2.8740663394694503,0.9270609021186829,-0.3653901219367981,-0.7296620607376099,0.18261857330799103,-0.9677127003669739,0.17373298108577728,-0.017152175307273865,0.9349365830421448,-0.11236189305782318
1.3049208963786478,2.334059470180684,2.867603727272253,0.830171525478363,-0.31376710534095764,-0.6373181343078613,0.18986205756664276,-0.9648628234863281,0.18163757026195526,-0.03574824333190918,0.9480476379394531,-0.09142746031284332
1.2952973180454201,2.3366443977053586,2.8622137656710454,0.6955413222312927,-0.20088449120521545,-0.5497102737426758,0.1960761547088623,-0.962289571762085,0.18855561316013336,-0.04637211561203003,0.9623047113418579,-0.07831072807312012
1.2873959727146755,2.3384001107216905,2.8589781039465736,0.5213086605072021,-0.06689713150262833,-0.4616546630859375,0.20120985805988312,-0.9601101875305176,0.19417351484298706,-0.04468512535095215,0.977657675743103,-0.058187007904052734
1.2815177939592564,2.339216664355493,2.858193374293646,0.32352638244628906,0.07351217418909073,-0.3430238962173462,0.20510543882846832,-0.9584499597549438,0.19825656712055206,-0.02376994490623474,0.9966732263565063,-0.03246966004371643
1.278043179068806,2.339769872172203,2.85893216099502,0.1332896649837494,0.16676777601242065,-0.17596036195755005,0.20738762617111206,-0.9574529528617859,0.2006845921278,0.025064796209335327,1.0146734714508057,-0.012940198183059692
1.2771915288767175,2.341114381259067,2.859492206617843,-0.03442183509469032,0.19775685667991638,0.033391524106264114,0.20770324766635895,-0.9572068452835083,0.20153146982192993,0.08045908808708191,1.0263900756835938,-0.008644908666610718
1.2788692232004506,2.3438534978228716,2.8586779566760705,-0.16776610910892487,0.19107237458229065,0.23703621327877045,0.20600005984306335,-0.9576910138130188,0.20097729563713074,0.12033972144126892,1.0310553312301636,-0.007312566041946411
1.2828111038595205,2.348285559942392,2.8561469389648435,-0.2784089744091034,0.21601474285125732,0.4239610731601715,0.20241568982601166,-0.9588180780410767,0.19923895597457886,0.1363295018672943,1.0334486961364746,-0.0022325515747070312
1.2887456041389427,2.3551858246236104,2.8513736807852097,-0.3588416576385498,0.24231185019016266,0.603007435798645,0.1970052570104599,-0.9604867100715637,0.19660823047161102,0.14897260069847107,1.0391608476638794,-0.0011277198791503906
1.2963694744635632,2.365240039890055,2.843357779030562,-0.4124034345149994,0.21787334978580475,0.7784351706504822,0.1898820996284485,-0.962580680847168,0.1933487206697464,0.16407611966133118,1.0462901592254639,-0.006641954183578491
1.305567200491909,2.3785912236003686,2.8316060165801296,-0.4709857106208801,0.18277022242546082,0.9437373876571655,0.1811572164297104,-0.9650324583053589,0.1894592046737671,0.16985604166984558,1.0451562404632568,0.0035494565963745117
1.3162341423135038,2.394942628927428,2.8163595058132738,-0.5471380352973938,0.1349710077047348,1.0747852325439453,0.17103390395641327,-0.9677736163139343,0.18482986092567444,0.1594410240650177,1.0503692626953125,0.027923583984375
1.328323210624998,2.412925931127125,2.798846422336992,-0.6617839336395264,0.06488992273807526,1.179433822631836,0.1598796546459198,-0.9707471132278442,0.17913299798965454,0.14253433048725128,1.0585767030715942,0.05855332314968109
1.341925126950624,2.4319742431488724,2.779588332479118,-0.7871407866477966,0.0037200450897216797,1.2838411331176758,0.14782162010669708,-0.9739230871200562,0.17211267352104187,0.1269587129354477,1.0563205480575562,0.07535456120967865
1.3571348114144184,2.453776163934914,2.757143620868313,-0.8998786211013794,-0.01964493840932846,1.4253555536270142,0.13461458683013916,-0.9772610664367676,0.16383011639118195,0.1278366595506668,1.048290491104126,0.06927861273288727
1.374053464251399,2.481785394080767,2.7280631189848834,-0.9971572756767273,-0.0815434604883194,1.60097074508667,0.11982060968875885,-0.9807084798812866,0.15444858372211456,0.15061098337173462,1.0428268909454346,0.05160629749298096
1.3924334952222015,2.5186198025596767,2.689274358368781,-1.0667134523391724,-0.1697510927915573,1.7328791618347168,0.10351548343896866,-0.9841354489326477,0.14409038424491882,0.1466676890850067,1.028202772140503,0.0415787547826767
1.4114359483404153,2.568303853674966,2.636708112087588,-1.0697667598724365,-0.25156551599502563,1.8629173040390015,0.08607146888971329,-0.9873290061950684,0.13331633806228638,0.10783728212118149,0.9912657737731934,0.026306018233299255
1.4306065394439498,2.639207218913754,2.5619745052424987,-1.0704063177108765,-0.3494798243045807,1.9914460182189941,0.06728322058916092,-0.9901894927024841,0.12246585637331009,0.07431837171316147,0.9427498579025269,0.0015425533056259155
1.4491816956394843,2.7379284889320186,2.458573225306409,-1.0869117975234985,-0.40034806728363037,2.0378894805908203,0.04765167832374573,-0.9926140308380127,0.11156532168388367,0.01300206407904625,0.8970634937286377,-0.00562334805727005
1.4668713200916743,2.8709718227189946,2.320734319887588,-1.2311004400253296,-0.371454656124115,2.0404372215270996,0.02773233689367771,-0.9946046471595764,0.09996277838945389,-0.07024326920509338,0.8388734459877014,0.006909959018230438
1.4841200037567477,3.0499981287643734,2.1374462593172923,-1.5189779996871948,-0.3210417926311493,1.9773108959197998,0.007918310351669788,-0.9962459802627563,0.08620771020650864,-0.12338149547576904,0.7518457174301147,0.06453407555818558
1.5006170426887915,-2.979445081376129,1.8800709045451576,-1.8933926820755005,-0.23753789067268372,1.9289973974227905,-0.011320347897708416,-0.9975384473800659,0.06920216232538223,-0.18341228365898132,0.6793926954269409,0.12524080276489258
1.5135261592419311,-2.5743210179217955,1.4724655561837598,-2.289979934692383,-0.09587983787059784,1.984574317932129,-0.030757613480091095,-0.9983605146408081,0.04827556014060974,-0.19501137733459473,0.593437910079956,0.14148294925689697
1.5143571923419845,-2.004363512707874,0.9011332895340767,-2.6068551540374756,-0.01580631546676159,2.1060516834259033,-0.051191918551921844,-0.9984077215194702,0.023699073120951653,-0.16755804419517517,0.5091803073883057,0.10090434551239014
1.4974320045026912,-1.524333396875291,0.4197249828368631,-2.797518253326416,-0.08955004811286926,2.3013482093811035,-0.07322093099355698,-0.9973100423812866,-0.003404509276151657,-0.16612839698791504,0.44300395250320435,0.03778278827667236
1.4680748208673504,-1.2573362256181484,0.1498611990476517,-2.8673858642578125,-0.2894144058227539,2.5626962184906006,-0.0975455567240715,-0.9947288036346436,-0.03161909058690071,-0.1633186638355255,0.349312424659729,-0.03559565544128418
1.4323469480696511,-1.1245803350753174,0.012112302679497268,-2.818277597427368,-0.5154927968978882,2.8019042015075684,-0.12449470907449722,-0.9904311895370483,-0.05955784395337105,-0.1720140278339386,0.22967374324798584,-0.13329778611660004
1.3941375322530454,-1.0602060690199726,-0.05959152074307578,-2.663952589035034,-0.7799819111824036,2.900068759918213,-0.15332768857479095,-0.9844363927841187,-0.08588403463363647,-0.23354360461235046,0.10565203428268433,-0.2241743803024292
1.3563999216501612,-1.0317685747393635,-0.0980396681839022,-2.3796510696411133,-1.0706443786621094,2.845458984375,-0.1825910061597824,-0.9771049618721008,-0.10920929163694382,-0.3485979437828064,-0.03832179307937622,-0.29841381311416626
1.3211711316563892,-1.025437927724209,-0.11683793582604474,-1.9665480852127075,-1.304382085800171,2.7180354595184326,-0.21120549738407135,-0.9690051078796387,-0.12814617156982422,-0.4495305120944977,-0.2037702202796936,-0.3842132091522217
1.289597896625819,-1.0347373156786865,-0.12144443444397632,-1.4753553867340088,-1.4146581888198853,2.5473008155822754,-0.23858116567134857,-0.9607235789299011,-0.14173753559589386,-0.5162100791931152,-0.3769536018371582,-0.4745190143585205
1.2621702955224592,-1.0540050452576442,-0.11579283154470668,-0.9978486895561218,-1.3269965648651123,2.338940382003784,-0.2640829086303711,-0.9527518153190613,-0.15008069574832916,-0.5828104019165039,-0.5693276524543762,-0.53343665599823
1.2388527867356065,-1.0780844794401654,-0.10351607067761222,-0.5888627171516418,-1.1502516269683838,2.094306707382202,-0.2871187925338745,-0.9454107880592346,-0.15414735674858093,-0.6404629945755005,-0.7600489258766174,-0.5324522256851196
1.219399029500041,-1.1040132458145966,-0.0873297965695368,-0.2506926953792572,-0.9870631694793701,1.846556305885315,-0.30738696455955505,-0.938892662525177,-0.15490013360977173,-0.6472333669662476,-0.938930332660675,-0.49704670906066895
1.2031912098644935,-1.1309958937835465,-0.06885694577411541,-0.014818133786320686,-0.9643061757087708,1.6296945810317993,-0.3251820504665375,-0.9331907033920288,-0.15301010012626648,-0.6035746932029724,-1.1141421794891357,-0.4363604784011841
1.189223591004591,-1.1582879731213318,-0.05026296387910554,0.07365451008081436,-1.02679443359375,1.474363923072815,-0.34114521741867065,-0.928080141544342,-0.14929082989692688,-0.5554459691047668,-1.2718408107757568,-0.3384561538696289
1.1761495707840308,-1.1831677364880817,-0.03459336846764701,-0.019953737035393715,-1.0262852907180786,1.3909262418746948,-0.35595691204071045,-0.9231324195861816,-0.14533203840255737,-0.49604809284210205,-1.417840600013733,-0.2352219820022583
1.162958188559553,-1.2015811883331937,-0.02519124918873627,-0.2962520718574524,-0.890667736530304,1.320634365081787,-0.36989784240722656,-0.917980432510376,-0.14313586056232452,-0.45253562927246094,-1.5595130920410156,-0.15154170989990234
1.149210127878506,-1.2084030090434479,-0.025844864694448935,-0.7501146793365479,-0.5621479153633118,1.2147297859191895,-0.3826308846473694,-0.9124410152435303,-0.14506980776786804,-0.45678552985191345,-1.7057079076766968,-0.07006369531154633
1.135021891362136,-1.199876766325188,-0.03883764562663576,-1.2637559175491333,-0.08469153940677643,1.0229454040527344,-0.39340686798095703,-0.9065434336662292,-0.15300436317920685,-0.5015974044799805,-1.8297085762023926,-0.0004988908767700195
1.1214875537815363,-1.1762583384984822,-0.06329290353062515,-1.656110167503357,0.37379691004753113,0.6838674545288086,-0.40097466111183167,-0.900747537612915,-0.1669536679983139,-0.5793110132217407,-1.9001253843307495,0.008994817733764648
1.1100861088116623,-1.141832131201436,-0.0955887824511123,-1.8123937845230103,0.6877065896987915,0.2657829523086548,-0.4043038785457611,-0.8957369923591614,-0.18491563200950623,-0.640633225440979,-1.916106939315796,-0.04305051267147064
1.101929080188383,-1.1028429748894768,-0.13053089311234295,-1.6691538095474243,0.8431129455566406,-0.14139172434806824,-0.40329673886299133,-0.8920807242393494,-0.20382368564605713,-0.6352927684783936,-1.87723708152771,-0.13055729866027832
1.0978016351931967,-1.0657047955242362,-0.1625298318017179,-1.241018295288086,0.858605146408081,-0.4728013277053833,-0.3986693322658539,-0.8902080655097961,-0.22043704986572266,-0.5674866437911987,-1.8044941425323486,-0.2581852674484253
1.0984287247692959,-1.0354924555165057,-0.18728128126891588,-0.6309890151023865,0.7614415287971497,-0.7475674152374268,-0.39134839177131653,-0.8904935121536255,-0.2320946305990219,-0.47620534896850586,-1.7120609283447266,-0.37410640716552734
1.104329629373394,-1.0146946587716967,-0.20284657447634175,0.04141457751393318,0.6179725527763367,-0.9840821027755737,-0.3819672465324402,-0.8931629061698914,-0.23740491271018982,-0.40732404589653015,-1.6007336378097534,-0.43237945437431335
1.1154394956373688,-1.003124845280795,-0.2095257895978778,0.6179958581924438,0.5021008253097534,-1.2013838291168213,-0.3708053231239319,-0.8981041312217712,-0.2364582121372223,-0.3818039000034332,-1.479871392250061,-0.42841291427612305
1.1308936342189952,-0.9984845832340977,-0.2093724567591183,1.030914545059204,0.4565247893333435,-1.3815836906433105,-0.357992559671402,-0.9047930836677551,-0.2306312918663025,-0.38060909509658813,-1.3436048030853271,-0.3660786747932434
1.1494401945917108,-0.9979000872957053,-0.20508964264884288,1.2476812601089478,0.44240710139274597,-1.5274529457092285,-0.3436957001686096,-0.9125351309776306,-0.2217051386833191,-0.3746728003025055,-1.2014482021331787,-0.2807055711746216
1.1698666311055081,-0.998260097291738,-0.19966291490181987,1.3045735359191895,0.4897996783256531,-1.656837821006775,-0.32803764939308167,-0.9206985831260681,-0.21143752336502075,-0.37151679396629333,-1.0689104795455933,-0.2042880356311798
1.191166804736993,-0.996187742766628,-0.19589921190222304,1.226481318473816,0.6292119026184082,-1.7467093467712402,-0.3110639750957489,-0.9288020133972168,-0.20141077041625977,-0.3666703701019287,-0.942276656627655,-0.15025842189788818
1.212252115605744,-0.9889341517959538,-0.19596874726537486,1.059773564338684,0.8018198013305664,-1.7679152488708496,-0.29316574335098267,-0.9364086389541626,-0.1928541511297226,-0.34874099493026733,-0.8069385290145874,-0.11734160780906677
1.2322914258386057,-0.9752524513154915,-0.20119733323261965,0.8598349094390869,0.9384751319885254,-1.7483381032943726,-0.2749081552028656,-0.9432522058486938,-0.18628184497356415,-0.3092440068721771,-0.6819157600402832,-0.09780614078044891
1.251041336479358,-0.9552870059450643,-0.2119477611883583,0.7061700820922852,1.0096136331558228,-1.7162256240844727,-0.2566474974155426,-0.9493124485015869,-0.18148858845233917,-0.2751213312149048,-0.5715616941452026,-0.0975182056427002
1.2686561449053508,-0.9305997307905721,-0.2268966858770275,0.6281711459159851,1.0734535455703735,-1.657791018486023,-0.23864014446735382,-0.954701840877533,-0.17775098979473114,-0.2608715891838074,-0.4593455195426941,-0.12916409969329834
1.2854576595449925,-0.9033344579918325,-0.24392220317568034,0.6368829607963562,1.1062211990356445,-1.6009224653244019,-0.22107534110546112,-0.9595663547515869,-0.17423638701438904,-0.2440430223941803,-0.35172832012176514,-0.17320609092712402
1.3020187513986508,-0.8758633224175388,-0.26103678719731593,0.7237774133682251,1.0776679515838623,-1.5493122339248657,-0.20397073030471802,-0.9640962481498718,-0.17004291713237762,-0.2293178141117096,-0.2396087646484375,-0.21984946727752686
1.3186923198516534,-0.8508964154455847,-0.27618255037835054,0.8482428193092346,0.980844259262085,-1.4752625226974487,-0.18754860758781433,-0.9683897495269775,-0.16445966064929962,-0.21389484405517578,-0.129327654838562,-0.25067079067230225
1.3354733416790383,-0.8311413786468782,-0.2869572911804911,0.9952911138534546,0.8706123232841492,-1.3598471879959106,-0.17223359644412994,-0.9724391102790833,-0.15715575218200684,-0.18637840449810028,-0.027820348739624023,-0.25850874185562134
1.3523065186007246,-0.8187615480482144,-0.29127562774077465,1.1375576257705688,0.7558084726333618,-1.231155514717102,-0.15829706192016602,-0.9762259125709534,-0.1480717658996582,-0.1440405398607254,0.07528585195541382,-0.25846803188323975
1.3690869269106622,-0.8157276510239116,-0.2872739688497866,1.2719228267669678,0.6311445832252502,-1.0927376747131348,-0.14589637517929077,-0.9797255396842957,-0.1373043954372406,-0.10042624175548553,0.16997188329696655,-0.25618910789489746
1.3857257166852783,-0.824000490355288,-0.27289233711257777,1.3898205757141113,0.5387807488441467,-0.956024169921875,-0.13504396378993988,-0.9829232692718506,-0.12500064074993134,-0.06902705132961273,0.25576555728912354,-0.25224220752716064
1.4019950637402,-0.8443629716219517,-0.24693448986722416,1.460382103919983,0.5000314712524414,-0.8357859253883362,-0.12558920681476593,-0.9857868552207947,-0.11158787459135056,-0.050924450159072876,0.3303454518318176,-0.23353523015975952
1.4176898616995182,-0.877485068670517,-0.20845058455754434,1.5079314708709717,0.4732673168182373,-0.7394260764122009,-0.117300845682621,-0.9883021116256714,-0.09746740758419037,-0.03371533751487732,0.40511101484298706,-0.1965540051460266
1.4326334744702842,-0.9238258398079496,-0.15674108387512004,1.5046195983886719,0.4931882619857788,-0.6681452393531799,-0.1098928302526474,-0.9904707074165344,-0.08301689475774765,-0.02435395121574402,0.4783092737197876,-0.17183518409729004
1.4464375885803575,-0.982283966844612,-0.09251191121076109,1.447898030281067,0.5502784252166748,-0.6054880023002625,-0.10317203402519226,-0.9922773838043213,-0.0688573494553566,-0.020408838987350464,0.5283490419387817,-0.13643419742584229
1.4589093377607187,-1.0512263922844298,-0.017246387652937248,1.361350417137146,0.6055147647857666,-0.5892115831375122,-0.09691965579986572,-0.9937471747398376,-0.05543716251850128,-0.021091781556606293,0.5625795125961304,-0.09731841087341309
1.47057102426532,-1.1280407405240405,0.06621911134323691,1.274399757385254,0.6226466298103333,-0.6663140654563904,-0.09040998667478561,-0.9949816465377808,-0.042868006974458694,-0.047804079949855804,0.600358784198761,-0.06551498174667358
1.482180318779862,-1.2115855648654275,0.1563582078709951,1.1819329261779785,0.6095675826072693,-0.8043280839920044,-0.0828525573015213,-0.9960761666297913,-0.031111305579543114,-0.08166765421628952,0.628262996673584,-0.04190182685852051
1.4940300763442518,-1.3039439524269636,0.2551045253915069,1.0940437316894531,0.598151683807373,-0.934217095375061,-0.07397899776697159,-0.997054934501648,-0.020223813131451607,-0.09981859475374222,0.6377254724502563,-0.02787172980606556
1.5058328524328042,-1.416360567778273,0.3737809210346236,1.0378470420837402,0.5937156677246094,-1.0004603862762451,-0.06414800137281418,-0.9978905916213989,-0.009986263699829578,-0.07507315278053284,0.6598930358886719,-0.026939809322357178
1.5166621115788805,-1.570023475682257,0.5335814408967198,1.0258859395980835,0.5725204348564148,-0.987640917301178,-0.05411350354552269,-0.9985350966453552,-4.1821687773335725e-05,-0.02526269108057022,0.6956936717033386,-0.03856271505355835
1.524997718672101,-1.7937712324203812,0.7630791244394584,1.0630801916122437,0.5160054564476013,-0.8973877429962158,-0.044652100652456284,-0.9989514350891113,0.010124648921191692,0.032384101301431656,0.7222942113876343,-0.05999016761779785
1.5287638436667612,-2.091115474076126,1.065559428162822,1.1242172718048096,0.448627233505249,-0.7451942563056946,-0.03646143898367882,-0.9991167783737183,0.020891884341835976,0.0974966287612915,0.7338273525238037,-0.08609247207641602
1.5267033380305044,-2.391673156177099,1.3704091831400298,1.1654469966888428,0.3499198257923126,-0.5537864565849304,-0.030046476051211357,-0.9990280866622925,0.03225788101553917,0.1545887291431427,0.7295729517936707,-0.09370481967926025
1.520109521301551,-2.6149217032558822,1.5969748686675636,1.1453965902328491,0.27146896719932556,-0.39231377840042114,-0.025469109416007996,-0.9987156987190247,0.04380246624350548,0.17302164435386658,0.7101871371269226,-0.07544898986816406
1.511581304070454,-2.7589849185453534,1.743898985356133,1.0795501470565796,0.26231008768081665,-0.31694498658180237,-0.022095652297139168,-0.9982473254203796,0.0549042634665966,0.1266946792602539,0.6789417266845703,-0.05079936981201172
1.502780293941714,-2.8560235541347354,1.843857463324005,0.9912390112876892,0.27959874272346497,-0.3082035183906555,-0.019146744161844254,-0.997687816619873,0.06521511822938919,0.05904853343963623,0.6512672305107117,-0.035795919597148895
1.494340454395867,-2.926963539865351,1.9177800832431362,0.9001078009605408,0.2708433270454407,-0.30349451303482056,-0.016268299892544746,-0.9970786571502686,0.07462979108095169,0.016192050650715828,0.636742353439331,-0.02406192570924759
1.4864720113289813,-2.9802782591788097,1.9737684321309459,0.8111982345581055,0.22211948037147522,-0.2793947756290436,-0.013527733273804188,-0.9964467883110046,0.08313076198101044,0.011986645869910717,0.6067526340484619,-0.008621945977210999
1.4790925244218365,-3.0199376345222944,2.0154794747823948,0.7506638169288635,0.1507827192544937,-0.23167359828948975,-0.011113129556179047,-0.9957981705665588,0.09089843928813934,0.02185538411140442,0.5608769059181213,0.0005018636584281921
1.4720031484291616,-3.048457286591795,2.045332404502127,0.7153223156929016,0.09396366775035858,-0.17605583369731903,-0.0091731371358037,-0.9951239228248596,0.09820757061243057,0.034746915102005005,0.526785671710968,-0.006837710738182068
1.4651532247272723,-3.067483247988848,2.0654198357633966,0.67845219373703,0.10703286528587341,-0.11799360811710358,-0.007807631511241198,-0.9944249391555786,0.10515983402729034,0.04094976186752319,0.494806170463562,-0.02045808732509613
1.4586696811886855,-3.0785937367530876,2.078113001475967,0.628573477268219,0.20115876197814941,-0.06663717329502106,-0.007044477388262749,-0.9937204122543335,0.11167105287313461,0.03585311770439148,0.46128010749816895,-0.027625441551208496
1.4527873577010189,-3.082408190484697,2.0845664874891785,0.5498379468917847,0.31965506076812744,-0.008764551021158695,-0.006964127998799086,-0.9930450320243835,0.11753076314926147,0.026159733533859253,0.4278440475463867,-0.02130866050720215
1.447680997910334,-3.079353584320374,2.085176851415236,0.46523648500442505,0.4039212465286255,0.05537959188222885,-0.007638439070433378,-0.9924308657646179,0.12256889045238495,0.03136587142944336,0.3968953490257263,0.0012412220239639282
1.4434630289006447,-3.071464575747172,2.081454816382267,0.35619068145751953,0.41514888405799866,0.08724937587976456,-0.008898280560970306,-0.991904079914093,0.12667806446552277,0.03134399652481079,0.36627840995788574,0.02945004403591156
1.4405687339787192,-3.0611165991304072,2.0744661102533293,0.21168839931488037,0.28746387362480164,0.13934363424777985,-0.010439353995025158,-0.9915323853492737,0.1294398456811905,0.037127017974853516,0.3296061158180237,0.09011909365653992
1.43872318381269,-3.0461475085235783,2.0626967441950965,0.13160474598407745,0.37139391899108887,0.19575178623199463,-0.012550203129649162,-0.9912909865379333,0.13109174370765686,0.0416334867477417,0.2991368770599365,0.07441379129886627
1.4376140099588786,-3.0280714933762707,2.0483952205735343,0.050736140459775925,0.40628668665885925,0.19509994983673096,-0.01504206471145153,-0.9911443591117859,0.13193480670452118,0.024395735934376717,0.2739812135696411,0.06365250051021576
1.4371553214473651,-3.0111147974605488,2.035750396322942,0.002044500783085823,0.47975826263427734,0.144549161195755,-0.017336217686533928,-0.9910833239555359,0.1321122646331787,-0.002545952796936035,0.24878889322280884,0.05482339859008789
1.4371536679061399,-2.9979062033398858,2.0274547693714404,-0.03311570733785629,0.5065174102783203,0.0713934376835823,-0.019079670310020447,-0.9910830855369568,0.13187174499034882,-0.024239985272288322,0.21335792541503906,0.05018101632595062
1.437564207374156,-2.9898728392348843,2.0244470703817323,-0.05672995746135712,0.5046228170394897,-0.004240067675709724,-0.020077072083950043,-0.9911377429962158,0.1313130110502243,-0.03348124027252197,0.18590080738067627,0.05656862258911133
1.4382763442626183,-2.986556098413591,2.026459668044352,-0.07551905512809753,0.5645871162414551,-0.0660204216837883,-0.020403563976287842,-0.9912320971488953,0.13054873049259186,-0.03436020016670227,0.1669369339942932,0.05408287048339844
1.4393594873379971,-2.9852644809174835,2.031189920980222,-0.12703631818294525,0.6201116442680359,-0.08676857501268387,-0.020404981449246407,-0.9913746118545532,0.12946154177188873,-0.023723391816020012,0.14954715967178345,0.05478857457637787
1.441262582259345,-2.9829348969634695,2.034928596904613,-0.2381381243467331,0.5780885219573975,-0.062064651399850845,-0.020408404991030693,-0.9916222095489502,0.12755048274993896,0.005302250385284424,0.13769453763961792,0.09602153301239014
1.444207651292869,-2.9759884837349935,2.0335011435843975,-0.34629547595977783,0.5283010005950928,0.004157244693487883,-0.020812252536416054,-0.9919983744621277,0.12452372163534164,0.03961113467812538,0.13350838422775269,0.13664588332176208
1.4479912805402944,-2.9624064865989608,2.0248521714786607,-0.43169134855270386,0.4654349386692047,0.0703253224492073,-0.02183280885219574,-0.9924689531326294,0.1205374225974083,0.06594598293304443,0.1304997205734253,0.1469341665506363
1.4523760482689596,-2.943907593086906,2.010600286333057,-0.4895804822444916,0.40425893664360046,0.09615159779787064,-0.023203589022159576,-0.9929965138435364,0.11584354192018509,0.06931567192077637,0.1079866886138916,0.1341109275817871
1.4571591714871779,-2.924023401709954,1.9944591941510887,-0.5262863039970398,0.3690122663974762,0.06600453704595566,-0.024477053433656693,-0.9935502409934998,0.11072158068418503,0.04409986734390259,0.07379603385925293,0.11153817176818848
1.4623687734231674,-2.9073065014623554,1.9813060335896289,-0.5526587963104248,0.35880544781684875,-0.020616112276911736,-0.02512218989431858,-0.9941275119781494,0.10525951534509659,0.002905428409576416,0.04629719257354736,0.08748972415924072
1.467973002552583,-2.8976479607339303,1.975342026636252,-0.5633915066719055,0.39266055822372437,-0.11612943559885025,-0.024791985750198364,-0.9947183132171631,0.09960553795099258,-0.038715068250894547,0.02398449182510376,0.05846048891544342
1.4736691211446853,-2.8944209847014717,1.976458075155127,-0.5392467379570007,0.47223395109176636,-0.17646841704845428,-0.023726871237158775,-0.9952868819236755,0.09403061121702194,-0.06520134210586548,0.00709688663482666,0.022562041878700256
