attitudeX,attitudeY,attitudeZ,gyroX,gyroY,gyroZ,gravityX,gravityY,gravityZ,accX,accY,accZ
1.0827820779450268,0.49788201774583746,0.4139828148427944,0.2702668607234955,-0.0062404293566942215,-0.06989159435033798,0.223917618393898,-0.8832656741142273,-0.4119498133659363,-0.005228638648986816,-0.02354884147644043,-0.026648789644241333
1.085045912531057,0.5015280090484922,0.4099692495207605,0.2888517379760742,0.038258593529462814,-0.03740476071834564,0.22445610165596008,-0.884324848651886,-0.4093761444091797,0.019684523344039917,-0.03196525573730469,0.019895553588867188
1.0872175598801463,0.5047814300858444,0.40707434462665437,0.21086160838603973,0.09050524979829788,0.0059673679061234,0.22485753893852234,-0.8853366374969482,-0.40696191787719727,0.035808369517326355,-0.03431046009063721,0.06746914982795715
1.0885295205154097,0.5068730964757961,0.40575226174005985,0.07379989326000214,0.08743276447057724,0.009461700916290283,0.22514435648918152,-0.8859458565711975,-0.40547510981559753,0.030028432607650757,-0.025919437408447266,0.08148515224456787
1.0885640713202285,0.5075570634790606,0.40581668484472244,-0.06981601566076279,0.060582082718610764,-0.0023585818707942963,0.22540666162967682,-0.8859618902206421,-0.4052940905094147,0.017894774675369263,-0.017419397830963135,0.058217644691467285
1.087442893466895,0.5067887661731798,0.4072941260110093,-0.18506696820259094,0.04526543989777565,0.014903761446475983,0.22557714581489563,-0.8854413628578186,-0.4063352644443512,0.007897630333900452,-0.028559982776641846,0.025033384561538696
1.0857782152388593,0.5043862876714673,0.4102563192214475,-0.22971193492412567,-0.00939194392412901,0.06566840410232544,0.22531244158744812,-0.8846665024757385,-0.40816614031791687,0.007674068212509155,-0.03461456298828125,0.012093663215637207
1.0842619269316003,0.500235695321277,0.4144080084519073,-0.21615086495876312,-0.09312278777360916,0.12808038294315338,0.2242594212293625,-0.8839585781097412,-0.4102742373943329,0.017973870038986206,-0.015821635723114014,-0.007358819246292114
1.0833177750065741,0.4943410117379691,0.4194625473627211,-0.1729048490524292,-0.1887659728527069,0.1965894103050232,0.22223298251628876,-0.8835167288780212,-0.412323534488678,0.01554475724697113,0.0011925697326660156,-0.009810835123062134
1.0830676555364622,0.4869873277324841,0.4252834430383594,-0.13117152452468872,-0.24783940613269806,0.2571640610694885,0.21929830312728882,-0.8833995461463928,-0.4141418933868408,0.015610799193382263,0.007499337196350098,-0.001980602741241455
1.083247228912119,0.47878164110047494,0.4315754066095197,-0.11271806806325912,-0.272244393825531,0.276003360748291,0.21581953763961792,-0.8834836483001709,-0.41578659415245056,0.014191478490829468,0.004791080951690674,0.012924015522003174
1.0835369692757606,0.4710424469020047,0.4375136515772743,-0.1137487143278122,-0.2269698530435562,0.24711231887340546,0.21247902512550354,-0.8836193680763245,-0.41721615195274353,-0.0043796151876449585,0.0033094286918640137,0.02036556601524353
1.0834648300086454,0.4646822563167005,0.4425999552676693,-0.12967780232429504,-0.14970146119594574,0.1702757179737091,0.20984987914562225,-0.8835855722427368,-0.418616384267807,-0.027949810028076172,0.003305971622467041,0.009848862886428833
1.0828534419494877,0.4603411378623211,0.4462430319507557,-0.141617551445961,-0.0792456716299057,0.08528652042150497,0.20827049016952515,-0.8832991123199463,-0.4200071096420288,-0.04263631999492645,0.00019681453704833984,-0.001242309808731079
1.0818472721663723,0.4580423967938736,0.44839813288074587,-0.1423441618680954,-0.010279274545609951,0.01801520213484764,0.20769739151000977,-0.8828269839286804,-0.4212817847728729,-0.03725668787956238,0.00382918119430542,-0.016950666904449463
1.0806797789101226,0.4571616235700419,0.4494933607808844,-0.11793362349271774,0.008106124587357044,-0.0022493237629532814,0.2077811062335968,-0.8822780251502991,-0.4223892092704773,-0.018587350845336914,0.005950510501861572,-0.023625195026397705
1.0797797628751826,0.4564610062886184,0.450375163841765,-0.07452085614204407,-0.00734517490491271,0.019008208066225052,0.20783503353595734,-0.8818539977073669,-0.42324724793434143,0.006123721599578857,0.005999565124511719,-0.025773167610168457
1.079489220593589,0.45534727782575923,0.45137579598832606,-0.017183266580104828,-0.04623930901288986,0.05570710077881813,0.2074761986732483,-0.8817169666290283,-0.42370858788490295,0.01916263997554779,0.01123356819152832,-0.030484557151794434
1.079898785869453,0.45396498564977067,0.4523157904269788,0.040429867804050446,-0.07067051529884338,0.07171443104743958,0.2067318707704544,-0.8819100856781006,-0.42367023229599,0.012445405125617981,0.011060535907745361,-0.038030266761779785
1.0809416086930985,0.4526735704265741,0.4529418623295795,0.09646677225828171,-0.0776786282658577,0.07401007413864136,0.20578216016292572,-0.8824012279510498,-0.4231094717979431,-0.007585734128952026,0.009919047355651855,-0.027955621480941772
1.0824506203500774,0.4513307176097803,0.4535214889937671,0.13036619126796722,-0.07591842114925385,0.07264912873506546,0.2046329230070114,-0.8831102252006531,-0.4221870005130768,-0.007550328969955444,0.0172196626663208,-0.007439553737640381
1.084120941267499,0.44987847994882446,0.4541913860899192,0.13753089308738708,-0.06846503168344498,0.0745634064078331,0.20337781310081482,-0.8838926553726196,-0.4211547374725342,0.0009679198265075684,0.02282392978668213,0.021755874156951904
1.0855795112773599,0.4483550262516565,0.45504824701652347,0.10992270708084106,-0.05739670619368553,0.0831860676407814,0.20217683911323547,-0.8845738768577576,-0.42030173540115356,0.008745446801185608,0.025961875915527344,0.05499103665351868
1.0865989323283534,0.4467271948244365,0.45618499046407424,0.04923113062977791,-0.059108853340148926,0.0863051563501358,0.20110271871089935,-0.8850488662719727,-0.419816792011261,0.008980318903923035,0.03415781259536743,0.0738389790058136
1.0869629690789144,0.4447381314079541,0.45773735940253674,-0.02489408478140831,-0.056877706199884415,0.08255497366189957,0.20012861490249634,-0.8852182626724243,-0.4199250340461731,0.000799134373664856,0.03269451856613159,0.06183180212974548
1.086605078657125,0.4424341253093706,0.45975612192058146,-0.0915338322520256,-0.053562868386507034,0.0774715319275856,0.19929634034633636,-0.8850517272949219,-0.42067158222198486,-0.006425201892852783,0.015941619873046875,0.026765882968902588
1.0857249044662625,0.43973336870031793,0.46226200295990927,-0.13059847056865692,-0.04061513394117355,0.07153472304344177,0.19849100708961487,-0.8846416473388672,-0.4219129979610443,-0.007435664534568787,0.003645002841949463,0.011283636093139648
1.0847186342612036,0.43708339300237764,0.464822918411298,-0.12853237986564636,-0.0357319600880146,0.05821678787469864,0.19774897396564484,-0.8841720223426819,-0.42324379086494446,-0.010813534259796143,0.013291895389556885,0.01035618782043457
1.0838077348799948,0.4348271039533789,0.46693847387543774,-0.10900568962097168,-0.04351186752319336,0.04621865972876549,0.19713272154331207,-0.8837460875511169,-0.42441919445991516,-0.017750367522239685,0.02261638641357422,0.021999120712280273
1.0831395524692433,0.4328287300932286,0.4686810325965397,-0.09183336049318314,-0.055342428386211395,0.05196336656808853,0.1965317279100418,-0.8834332227706909,-0.42534807324409485,-0.02355806529521942,0.021784722805023193,0.03832414746284485
1.0826479813844774,0.430921986008781,0.4703488003568295,-0.09302889555692673,-0.04247787594795227,0.06210901588201523,0.19590173661708832,-0.8832027912139893,-0.42611658573150635,-0.03440268337726593,0.021157562732696533,0.05612143874168396
1.082151565472149,0.42894791030931134,0.4723290893938129,-0.11029017716646194,-0.013826523907482624,0.07767786085605621,0.19524255394935608,-0.882969856262207,-0.426901251077652,-0.046881303191185,0.022938787937164307,0.06914365291595459
1.0815341163574075,0.4267999003428484,0.4747534837040066,-0.12279614806175232,-0.0008775517344474792,0.08322849124670029,0.19455073773860931,-0.88267982006073,-0.4278157949447632,-0.04443472623825073,0.022526681423187256,0.05315142869949341
1.0808315673487399,0.42441941164294666,0.4774582042460835,-0.1192389577627182,-0.0053495317697525024,0.09389232099056244,0.1937871128320694,-0.88234943151474,-0.42884278297424316,-0.03219646215438843,0.003961920738220215,0.011652171611785889
1.080316984427422,0.42174603491527224,0.4803859456725002,-0.09359757602214813,-0.010360557585954666,0.11462467163801193,0.1928257793188095,-0.882107138633728,-0.4297734498977661,-0.014435261487960815,-0.021564066410064697,-0.025777697563171387
1.0801355810680566,0.418923236220807,0.4834406926057157,-0.06428736448287964,-0.01760595291852951,0.12560808658599854,0.19167692959308624,-0.8820217251777649,-0.43046221137046814,-0.005504399538040161,-0.04382055997848511,-0.04571884870529175
1.0802232221943733,0.41614751938599565,0.4862721095451464,-0.04017435759305954,-0.03950461745262146,0.11631914973258972,0.19045010209083557,-0.8820629715919495,-0.43092188239097595,-0.01276145875453949,-0.06826961040496826,-0.03495955467224121
1.080390179537227,0.4134746604915248,0.48878009824838037,-0.04262926056981087,-0.04791594669222832,0.10727585852146149,0.18923838436603546,-0.882141649723053,-0.43129438161849976,-0.024016186594963074,-0.08940058946609497,-0.03345784544944763
1.0803400831809218,0.41104239266564035,0.4911742970874204,-0.07765980809926987,-0.009797101840376854,0.0837346538901329,0.1882064938545227,-0.8821180462837219,-0.4317939579486847,-0.03741912543773651,-0.1161118745803833,-0.03669670224189758
1.079734817188158,0.40943384861314563,0.4934377446392264,-0.1353987455368042,0.10062980651855469,0.05226994305849075,0.1877242773771286,-0.8818327784538269,-0.43258601427078247,-0.04796898365020752,-0.16182255744934082,-0.044312238693237305
1.0783200971593963,0.4096940013911742,0.49525856269123175,-0.19446924328804016,0.27592840790748596,-0.016514448449015617,0.18833354115486145,-0.8811647891998291,-0.43368101119995117,-0.05565834045410156,-0.23225373029708862,-0.0764203667640686
1.076030209234188,0.4129924804406773,0.49553757915619295,-0.22928953170776367,0.4242379665374756,-0.14964480698108673,0.1905723214149475,-0.8800798058509827,-0.4349043667316437,-0.06874608993530273,-0.33856338262557983,-0.1544053554534912
1.0730475804269533,0.419831804212602,0.4931108497270913,-0.2154606133699417,0.5039913654327393,-0.29844316840171814,0.19461128115653992,-0.8786596655845642,-0.4359856843948364,-0.06956548988819122,-0.45978015661239624,-0.24904239177703857
1.0699151682767218,0.42911074415976985,0.48823195722573576,-0.15328513085842133,0.4851822555065155,-0.3655817210674286,0.19979248940944672,-0.8771597743034363,-0.43666180968284607,-0.033044442534446716,-0.5782844424247742,-0.3253469169139862
1.067613426118945,0.4384571284451816,0.4826981349789605,-0.028781963512301445,0.3961091935634613,-0.29162105917930603,0.20472164452075958,-0.8760521411895752,-0.43660253286361694,0.0409906804561615,-0.68010014295578,-0.38332855701446533
1.0673831756782346,0.4448612356567799,0.47874927650916216,0.15665607154369354,0.17869940400123596,-0.0525331050157547,0.20760023593902588,-0.8759410977363586,-0.4354645013809204,0.142268568277359,-0.7469837069511414,-0.44223636388778687
1.0703414584144644,0.4452887248280117,0.4786356483763617,0.38353243470191956,-0.13008363544940948,0.3095661699771881,0.20666944980621338,-0.8773643970489502,-0.43303540349006653,0.2665056586265564,-0.7964637279510498,-0.47545766830444336
1.0771135710590491,0.43756529967713376,0.4841189359760719,0.6165196299552917,-0.43142375349998474,0.7405370473861694,0.20079635083675385,-0.8805936574935913,-0.4292266368865967,0.36318379640579224,-0.8632569313049316,-0.4931061565876007
1.087741198967224,0.4218792539923839,0.49603114188729264,0.8452847003936768,-0.5730038285255432,1.1407699584960938,0.19019605219364166,-0.8855800032615662,-0.4237610995769501,0.40979480743408203,-0.9129581451416016,-0.507253885269165
1.101578676388755,0.4007659020178888,0.5137666898927954,1.0256024599075317,-0.469200998544693,1.4281985759735107,0.17640943825244904,-0.8919223546981812,-0.41635820269584656,0.38273364305496216,-0.9242702126502991,-0.5234763622283936
1.1174453691648907,0.37672145736381174,0.5362429664925475,1.144636869430542,-0.3232513666152954,1.608201265335083,0.16112160682678223,-0.8989844918251038,-0.40726757049560547,0.34254056215286255,-0.902468204498291,-0.5173083543777466
1.1346189746690654,0.3498570896589065,0.5625953404683794,1.256332278251648,-0.302290678024292,1.7149381637573242,0.14480994641780853,-0.9063732624053955,-0.3968846797943115,0.35830289125442505,-0.8366381525993347,-0.5551111698150635
1.152982153710175,0.319871793344393,0.5921617000307042,1.4063588380813599,-0.30798840522766113,1.790126919746399,0.12759020924568176,-0.9139780402183533,-0.38518133759498596,0.3780403137207031,-0.7463611960411072,-0.6134759187698364
1.1729061309384836,0.28720036150595357,0.6245445530854996,1.6250370740890503,-0.27929335832595825,1.8378989696502686,0.10975915938615799,-0.9218805432319641,-0.37160342931747437,0.3732883632183075,-0.6512700319290161,-0.6420989036560059
1.1949213444606233,0.2519235092030916,0.6597479822734414,1.9085698127746582,-0.25755393505096436,1.884941816329956,0.09150265902280807,-0.9301868081092834,-0.35549941658973694,0.3623853325843811,-0.5257457494735718,-0.6215513944625854
1.2195736872339125,0.21281907774095196,0.6987745116876176,2.2397124767303467,-0.2742048501968384,1.9431910514831543,0.07266808301210403,-0.9389527440071106,-0.3362840414047241,0.37122535705566406,-0.36526167392730713,-0.5677534937858582
1.247128295419103,0.16702221861584293,0.7440022777696906,2.592481851577759,-0.3514520227909088,2.0310800075531006,0.052874162793159485,-0.9480751752853394,-0.3136204183101654,0.3837866187095642,-0.19933992624282837,-0.495644748210907
1.2775862965086417,0.10989489166315132,0.7998875905551737,2.954556941986084,-0.40954646468162537,2.159976005554199,0.03169866278767586,-0.957321047782898,-0.28728318214416504,0.3881774842739105,-0.04248058795928955,-0.40323805809020996
1.3105479225775993,0.03504599686007184,0.8733414559085986,3.3009591102600098,-0.4311102628707886,2.300640344619751,0.009016208350658417,-0.966326117515564,-0.25716254115104675,0.37339961528778076,0.11795270442962646,-0.2914367914199829
1.3448129133465807,-0.06715648214980373,0.9739298856070641,3.588371515274048,-0.47397783398628235,2.4050469398498535,-0.015036099590361118,-0.9745742082595825,-0.22355978190898895,0.3408418297767639,0.2892410159111023,-0.16819441318511963
1.3782993986669834,-0.20911764562754892,1.114191803570386,3.7981796264648438,-0.4546828866004944,2.4116733074188232,-0.03971543908119202,-0.9815295934677124,-0.18714262545108795,0.2889067530632019,0.4554675817489624,-0.05771517753601074
1.4081339668572068,-0.4055307700492008,1.3095977275083954,3.9028401374816895,-0.34205275774002075,2.332111358642578,-0.06388881802558899,-0.9867995977401733,-0.1488112211227417,0.20297273993492126,0.5976547598838806,0.026862934231758118
1.4302323109521842,-0.6679808148336103,1.5720819064050435,3.863220691680908,-0.2519837021827698,2.207425355911255,-0.08677871525287628,-0.9901371598243713,-0.1099894791841507,0.12492573261260986,0.7107335925102234,0.10326030105352402
1.4402595172331119,-0.9843074014333355,1.8889513626671532,3.716061592102051,-0.21218650043010712,2.1062464714050293,-0.10841434448957443,-0.9914921522140503,-0.07203943282365799,0.08511422574520111,0.8122013807296753,0.14519000053405762
1.436617119342644,-1.2988882468711487,2.2039431501953914,3.482954263687134,-0.26498210430145264,1.9763168096542358,-0.12886232137680054,-0.9910114407539368,-0.035928547382354736,0.05948065221309662,0.9192340970039368,0.14666152000427246
1.4225562295244103,-1.5558556028018653,2.460028871198003,3.2103044986724854,-0.41497504711151123,1.7938330173492432,-0.1476813554763794,-0.9890325665473938,-0.002206630539149046,0.03263011574745178,1.049213171005249,0.15006428956985474
1.4030832745298485,-1.7448229729671,2.646650900220076,2.9254801273345947,-0.49450060725212097,1.5942692756652832,-0.16440613567829132,-0.9859691262245178,0.028903421014547348,0.005348563194274902,1.1823803186416626,0.17339754104614258
1.381736777536218,-1.8805395078868816,2.779203448763549,2.646658182144165,-0.5727296471595764,1.4116824865341187,-0.17899170517921448,-0.9821814298629761,0.057285286486148834,-0.02745966613292694,1.291324496269226,0.21383285522460938
1.3601000617138415,-1.980594969554222,2.8746482737473595,2.4076974391937256,-0.7245275974273682,1.305457353591919,-0.19182419776916504,-0.9778855443000793,0.08332686126232147,-0.028329551219940186,1.367793321609497,0.23016488552093506
1.3383240263931064,-2.056691903628843,2.944203638913702,2.225618362426758,-0.9290440082550049,1.2993265390396118,-0.20371867716312408,-0.9730997681617737,0.10758943110704422,-0.002046048641204834,1.432679295539856,0.2192842960357666
1.315905064448817,-2.1168608503807103,2.995483999901894,2.129631757736206,-1.1346293687820435,1.3787769079208374,-0.21547287702560425,-0.9676907062530518,0.13094359636306763,0.03154347836971283,1.4764950275421143,0.1655956506729126
1.2925014559225676,-2.165497054787681,3.0335600821722672,2.076566219329834,-1.2204575538635254,1.4612319469451904,-0.22755248844623566,-0.9615252614021301,0.15391315519809723,0.05250366032123566,1.5102922916412354,0.11374117434024811
1.2686281028922881,-2.2056468133390004,3.062472073804886,2.0125813484191895,-1.2619291543960571,1.4559476375579834,-0.2396087944507599,-0.9546934962272644,0.1764886975288391,0.04714970290660858,1.52787446975708,0.09108938276767731
1.245586975248191,-2.240629513471906,3.085513176511597,1.8925739526748657,-1.341367483139038,1.317165732383728,-0.2504696547985077,-0.9475838541984558,0.198367640376091,0.026775836944580078,1.5123422145843506,0.06176412105560303
1.2250581535955127,-2.2716676326780854,3.104876074085936,1.6633267402648926,-1.1458163261413574,1.0279369354248047,-0.2590080499649048,-0.9408255219459534,0.21854554116725922,0.02756279706954956,1.5003347396850586,0.02467942237854004
1.20894629650595,-2.2985337934350047,3.1221368921874624,1.3506479263305664,-1.028319239616394,0.6028080582618713,-0.2643289566040039,-0.9352434873580933,0.2354777753353119,0.0671854317188263,1.4817370176315308,0.05857419967651367
1.1980388743745167,-2.3251790062761275,3.1401212479716865,1.072358250617981,-0.9116768836975098,0.13038936257362366,-0.2653792202472687,-0.931326687335968,0.24940772354602814,0.07476648688316345,1.4116125106811523,0.017025917768478394
1.1922646063726823,-2.352441529881531,-3.122265627396814,0.828860878944397,-0.6651611328125,-0.3601372241973877,-0.2622947096824646,-0.9292082786560059,0.2603332996368408,0.06248095631599426,1.3475737571716309,-0.03758552670478821
1.191323696219826,-2.3816048954901787,-3.096646622790734,0.6282075643539429,-0.4151802361011505,-0.8629257678985596,-0.2551940679550171,-0.9288601279258728,0.2685043215751648,0.025366216897964478,1.2853970527648926,-0.07851722836494446
1.1949132750623943,-2.4144873156464928,-3.0649138720467572,0.4193662106990814,-0.26957857608795166,-1.3266342878341675,-0.24401117861270905,-0.9301838278770447,0.27425676584243774,-0.002448752522468567,1.2216418981552124,-0.11596214771270752
1.2023076387305338,-2.4508811954975642,-3.028066699428482,0.20181001722812653,-0.14702565968036652,-1.6471863985061646,-0.2294817417860031,-0.9328727722167969,0.2776437997817993,0.028721928596496582,1.1515772342681885,-0.16613274812698364
1.2125018109654082,-2.4901023741875927,-2.987575552856624,-0.00985029898583889,-0.1493023931980133,-1.852495551109314,-0.21264086663722992,-0.9364962577819824,0.27885183691978455,0.08487910032272339,1.085239052772522,-0.21597042679786682
1.2247496342689297,-2.5325271461910837,-2.9444835291560123,-0.21379528939723969,-0.2441493570804596,-1.9667608737945557,-0.19404613971710205,-0.9407209753990173,0.27819085121154785,0.13214127719402313,1.030992031097412,-0.23461174964904785
1.2384268680879953,-2.5773402316690293,-2.8998496230731625,-0.41610074043273926,-0.2923427224159241,-1.999899983406067,-0.17449136078357697,-0.945271909236908,0.2757059633731842,0.16692304611206055,1.0034384727478027,-0.2371927797794342
1.2532110983063587,-2.6232835406864696,-2.8547080694818727,-0.6345694065093994,-0.33849331736564636,-1.9695029258728027,-0.15470387041568756,-0.9499922394752502,0.2712585926055908,0.18541988730430603,0.9829818606376648,-0.23771992325782776
1.2690329616355316,-2.6681682839133924,-2.811212657904025,-0.8893638849258423,-0.34242281317710876,-1.8449617624282837,-0.13550665974617004,-0.9548138976097107,0.26451608538627625,0.22197823226451874,0.9651592373847961,-0.23511239886283875
1.2860403647064143,-2.708437870180758,-2.7726071797891003,-1.191443681716919,-0.31519532203674316,-1.6316932439804077,-0.11791401356458664,-0.9597302079200745,0.25497958064079285,0.27021199464797974,0.9408701658248901,-0.25180572271347046
1.3047714438880715,-2.740738652022401,-2.7420368274114044,-1.5584856271743774,-0.25605955719947815,-1.3921136856079102,-0.10258419066667557,-0.9648235440254211,0.2420578896999359,0.32659852504730225,0.8842418789863586,-0.2697373628616333
1.3260318062876666,-2.7625122018754222,-2.7217767731737146,-1.9809125661849976,-0.18260587751865387,-1.1677045822143555,-0.08967739343643188,-0.970194399356842,0.22512388229370117,0.38124239444732666,0.7924448251724243,-0.30196714401245117
1.350654576595834,-2.772080397647954,-2.713639510220469,-2.4500811100006104,-0.15066605806350708,-0.9831113219261169,-0.07886575162410736,-0.9758664965629578,0.20362848043441772,0.40256574749946594,0.6725371479988098,-0.3399200439453125
1.3791550760471005,-2.7690177238198346,-2.7185934489987074,-2.915233850479126,-0.2236902415752411,-0.9124682545661926,-0.06933420151472092,-0.9816929697990417,0.17740316689014435,0.3733350932598114,0.5058932900428772,-0.39818263053894043
1.4118350142369966,-2.7569467101204577,-2.7339059675664976,-3.321645975112915,-0.3760960102081299,-1.0214653015136719,-0.05939619243144989,-0.987392246723175,0.14672614634037018,0.29352709650993347,0.33358365297317505,-0.46038591861724854
1.448259976506866,-2.740669287118951,-2.754643752392572,-3.581400156021118,-0.46159934997558594,-1.223374366760254,-0.047702159732580185,-0.9925017952919006,0.11253640055656433,0.21896684169769287,0.20885628461837769,-0.5090055465698242
1.4867417693493177,-2.720731591447166,-2.7795540564479624,-3.6304140090942383,-0.5087714195251465,-1.353219747543335,-0.034299712628126144,-0.9964694976806641,0.07662929594516754,0.22566020488739014,0.08356666564941406,-0.5603482723236084
1.5248947297578004,-2.678795312931431,-2.826904642119653,-3.487217664718628,-0.5470637679100037,-1.3238892555236816,-0.02048625983297825,-0.9989467263221741,0.04105976223945618,0.3469328284263611,-0.0756840705871582,-0.5880569219589233
1.5600053757145487,-2.3374066076060958,3.1093165147666433,-3.2092154026031494,-0.5270301699638367,-1.1687736511230469,-0.0077845193445682526,-0.9999417662620544,0.007497371174395084,0.47307083010673523,-0.2502719759941101,-0.5725761651992798
1.5476749953246027,0.12042468130689456,0.646921907652528,-2.8587851524353027,-0.34705185890197754,-0.9437694549560547,0.0027774490881711245,-0.9997327327728271,-0.022952187806367874,0.5236202478408813,-0.45597100257873535,-0.5428285002708435
1.5196247982445228,0.2223658691637248,0.5428170274415682,-2.5196094512939453,-0.06774058192968369,-0.7813400626182556,0.011280287988483906,-0.9986910223960876,-0.049889616668224335,0.46940210461616516,-0.7777066230773926,-0.5405645370483398
1.4944415370771136,0.24940285120399688,0.5160671665247976,-2.295405387878418,0.11947065591812134,-0.7436890602111816,0.01882771961390972,-0.9970864057540894,-0.07391943782567978,0.3292253017425537,-1.1243581771850586,-0.4915408492088318
1.4706402047737317,0.2731393005089565,0.49394286176635255,-2.204488754272461,0.20779864490032196,-0.8732004165649414,0.026972606778144836,-0.9949885606765747,-0.09628231078386307,0.13675424456596375,-1.4309146404266357,-0.4082648754119873
1.446494874108964,0.3011670836481978,0.4682238072058458,-2.2770543098449707,0.2736676037311554,-1.0333603620529175,0.03677726536989212,-0.9922845363616943,-0.11840126663446426,-0.08772632479667664,-1.7321264743804932,-0.3131783604621887
1.4207217878017153,0.32639099789357984,0.4452763697723457,-2.410630702972412,0.2182919681072235,-1.1426855325698853,0.047937314957380295,-0.9887599349021912,-0.14161796867847443,-0.235834002494812,-2.022623062133789,-0.17466628551483154
1.3939286973878735,0.3472513189225945,0.42592675605102415,-2.393498659133911,0.11712047457695007,-1.2100870609283447,0.05987706407904625,-0.984399676322937,-0.16544432938098907,-0.34552156925201416,-2.232412338256836,-0.1368933618068695
1.3684456668416354,0.3662360512626017,0.40691969007567363,-2.0775184631347656,-0.051211271435022354,-1.2242481708526611,0.07196895778179169,-0.9795968532562256,-0.18764430284500122,-0.3955010175704956,-2.3368704319000244,-0.18142007291316986
1.3471687440875033,0.3864912485618592,0.3849967146720475,-1.5042774677276611,-0.17842228710651398,-1.186506986618042,0.0835934653878212,-0.9750993847846985,-0.2054099440574646,-0.3762417435646057,-2.3888988494873047,-0.23643885552883148
1.3318704588429537,0.41026462107116557,0.35822158065799586,-0.8274735808372498,-0.25844520330429077,-1.1227868795394897,0.09439177811145782,-0.9715927243232727,-0.21701961755752563,-0.32731714844703674,-2.431269645690918,-0.20059822499752045
1.322820954074069,0.4395321525297632,0.3257089498928654,-0.17052723467350006,-0.19187335669994354,-1.0403952598571777,0.10443929582834244,-0.969411313533783,-0.22211244702339172,-0.30109453201293945,-2.4636025428771973,-0.13492797315120697
1.3195628494476548,0.4737431799736912,0.28852379390562355,0.3806845247745514,-0.1763971894979477,-0.8799751996994019,0.11341579258441925,-0.9686065316200256,-0.2212197184562683,-0.24790674448013306,-2.4606995582580566,-0.06939922273159027
1.3212914010914665,0.5097046977914607,0.24953413886449533,0.8200011253356934,-0.17270244657993317,-0.6463945508003235,0.12047908455133438,-0.9690347909927368,-0.21553723514080048,-0.1724047064781189,-2.396336793899536,0.005103185772895813
1.3273705329112682,0.5451967170773167,0.2112866612743737,1.1524661779403687,-0.14918434619903564,-0.34340861439704895,0.12499403208494186,-0.9705179333686829,-0.20608538389205933,-0.11197824031114578,-2.2814197540283203,0.028686657547950745
1.3372594039031356,0.577964030471526,0.1759001252638985,1.3973749876022339,-0.17862646281719208,-0.015544774010777473,0.12642911076545715,-0.97285395860672,-0.193831667304039,-0.05626918375492096,-2.144531726837158,0.042922213673591614
1.3506245122770324,0.6068435631585322,0.14409104949474422,1.6085772514343262,-0.2411835789680481,0.3211722671985626,0.12454693764448166,-0.9758599400520325,-0.17940276861190796,-0.010838426649570465,-2.003357410430908,0.022572889924049377
1.367567107108465,0.6320774440385302,0.11555860951234029,1.8415188789367676,-0.2848280966281891,0.6648736000061035,0.11924753338098526,-0.9794199466705322,-0.16283941268920898,0.036270081996917725,-1.8751485347747803,-0.03267151117324829
1.3883075149000317,0.656460002840428,0.08764572231859831,2.1092562675476074,-0.31958848237991333,0.9552015662193298,0.11075885593891144,-0.9833950996398926,-0.14375899732112885,0.08691877126693726,-1.74837064743042,-0.09829121828079224
1.4125034726346979,0.6866052311713345,0.05348959104738633,2.3817567825317383,-0.38602903485298157,1.1252162456512451,0.09992561489343643,-0.9874978065490723,-0.12191331386566162,0.12678951025009155,-1.6028800010681152,-0.15729206800460815
1.4392083782840093,0.7334626840350913,0.0017734650817924694,2.6206889152526855,-0.4680994153022766,1.2066885232925415,0.08783703297376633,-0.991354763507843,-0.09746968746185303,0.16727468371391296,-1.4537440538406372,-0.21904343366622925
1.4673866975196799,0.8161146794146318,-0.08646853701091735,2.8307454586029053,-0.5272100567817688,1.2429027557373047,0.07519829273223877,-0.9946579933166504,-0.07071493566036224,0.23003855347633362,-1.306687831878662,-0.2722417116165161
1.495597536300925,0.9807528108559256,-0.2572974598826863,3.0354158878326416,-0.5760141015052795,1.2467963695526123,0.062425848096609116,-0.9971739053726196,-0.041801515966653824,0.293592244386673,-1.1442903280258179,-0.30440521240234375
1.519746068761188,1.3613712062293994,-0.6445505501323975,3.2597646713256836,-0.5954938530921936,1.2175742387771606,0.049912530928850174,-0.9986972212791443,-0.010608484968543053,0.3484487235546112,-0.9421138763427734,-0.3571131229400635
1.5264050456477412,2.113071934294459,-1.4028660160007547,3.4737932682037354,-0.5619816780090332,1.1641457080841064,0.038011934608221054,-0.9990148544311523,0.02290322072803974,0.3939034044742584,-0.7050409317016602,-0.4324185848236084
1.506508099651329,2.710190037314448,-2.0058911490125984,3.62703013420105,-0.4391922354698181,1.1028119325637817,0.02686353214085102,-0.9979342222213745,0.058358415961265564,0.4156566560268402,-0.454961895942688,-0.48699307441711426
1.4743638677366528,2.9711695824080433,-2.271028458081157,3.676435708999634,-0.2242327630519867,1.057756781578064,0.016329258680343628,-0.9953539967536926,0.09488657861948013,0.41088634729385376,-0.20923566818237305,-0.5208967924118042
1.4390309859669594,3.095620049039814,-2.3976578149485,3.606231689453125,-0.055742084980010986,1.0373867750167847,0.006037942133843899,-0.9913315176963806,0.13124528527259827,0.4082687199115753,0.010588109493255615,-0.5006759166717529
1.4036813756406714,-3.116787092785704,-2.469390586209814,3.450204372406006,0.014326748438179493,1.0177185535430908,-0.004125708248466253,-0.9860687851905823,0.16628779470920563,0.4112302362918854,0.21012872457504272,-0.4599738121032715
1.3695840123934884,-3.07052468681067,-2.515966391181745,3.253056287765503,0.07451919466257095,1.008130431175232,-0.014191482216119766,-0.9798250198364258,0.19935257732868195,0.39955222606658936,0.40223413705825806,-0.450558066368103
1.3372241719469433,-3.036320910504229,-2.5500112137644866,3.0441665649414062,0.11726159602403641,1.0196752548217773,-0.024320585653185844,-0.9728457927703857,0.23017266392707825,0.3928661346435547,0.575308620929718,-0.4587036371231079
1.3066044373184784,-3.0076453564729246,-2.5777919410817804,2.8574469089508057,0.24462798237800598,1.061854600906372,-0.03487306088209152,-0.9653038382530212,0.25879019498825073,0.388648122549057,0.7295402884483337,-0.479203462600708
1.2774296763054438,-2.9811485614559636,-2.6020580638155604,2.7046492099761963,0.37763291597366333,1.103697657585144,-0.04619786515831947,-0.9572757482528687,0.28546249866485596,0.37267494201660156,0.8776401281356812,-0.5303661823272705
1.2495139852731838,-2.9569808954873023,-2.623143779790064,2.5643115043640137,0.42216259241104126,1.0997498035430908,-0.05796680599451065,-0.9488312602043152,0.3104178011417389,0.32816946506500244,1.0481200218200684,-0.5492331981658936
1.2228416425298574,-2.9365859661326463,-2.6404339680740447,2.4339263439178467,0.38209906220436096,1.0334903001785278,-0.06941358000040054,-0.9400720596313477,0.33383503556251526,0.25267165899276733,1.2089474201202393,-0.5580173134803772
1.1976214328838244,-2.9207795545773103,-2.653542622060038,2.2815887928009033,0.3249932825565338,0.9257580041885376,-0.079849973320961,-0.9311745762825012,0.3557214140892029,0.1632545292377472,1.349509596824646,-0.5617761611938477
1.174269803903602,-2.9091389627507014,-2.662890571405715,2.0951404571533203,0.26479437947273254,0.8024080991744995,-0.08897119760513306,-0.9224080443382263,0.37582919001579285,0.09670743346214294,1.467329978942871,-0.5389763116836548
1.1531836085969305,-2.9006699262165903,-2.669483886816715,1.867632508277893,0.22287720441818237,0.6927345395088196,-0.0967707708477974,-0.9140597581863403,0.39386558532714844,0.06422381103038788,1.5645877122879028,-0.508489727973938
1.134608037053849,-2.893594847580093,-2.6747632107481905,1.6160812377929688,0.23388724029064178,0.6302035450935364,-0.10370534658432007,-0.9063686728477478,0.4095621407032013,0.05702872574329376,1.6543697118759155,-0.48196518421173096
1.1186890431765626,-2.8864905535245255,-2.680000938408538,1.3419221639633179,0.23171330988407135,0.5941339135169983,-0.11023962497711182,-0.8995285034179688,0.422724187374115,0.06882728636264801,1.7318649291992188,-0.45960474014282227
1.1056568808254819,-2.879544579590626,-2.685581143977037,1.0411704778671265,0.14957688748836517,0.5441567897796631,-0.116200290620327,-0.89375901222229,0.43323442339897156,0.06369484961032867,1.7917999029159546,-0.4305031895637512
1.0957591679957384,-2.8734370117734067,-2.691240758176916,0.72980135679245,0.06443971395492554,0.45910215377807617,-0.12118221074342728,-0.8892757296562195,0.4410257935523987,0.028607159852981567,1.8220605850219727,-0.4265604615211487
1.089096323202637,-2.8686011495599693,-2.6963151859654952,0.4246300458908081,0.0035888822749257088,0.33877068758010864,-0.12490811944007874,-0.8862085938453674,0.4461299777030945,0.0020749270915985107,1.8092281818389893,-0.44567233324050903
1.0858283994662596,-2.865528975371129,-2.700064028657395,0.1056382954120636,-0.05172877013683319,0.1657552421092987,-0.12706685066223145,-0.8846899271011353,0.4485282599925995,-0.007393553853034973,1.7762916088104248,-0.44782644510269165
1.086292865651496,-2.8644856966046457,-2.7017597730131504,-0.24209383130073547,-0.027431420981884003,-0.03906156122684479,-0.12742240726947784,-0.8849063515663147,0.44800055027008057,-0.022296831011772156,1.7540315389633179,-0.42946118116378784
1.0908870715337629,-2.864688826813989,-2.7015893670327515,-0.6363013982772827,0.009620759636163712,-0.2239847332239151,-0.12621857225894928,-0.8870368003845215,0.4441108703613281,-0.019045040011405945,1.730588436126709,-0.4016914665699005
1.0999488973691542,-2.8658375882645943,-2.700348525013508,-1.0704224109649658,-0.021160589531064034,-0.37678173184394836,-0.12351472675800323,-0.8911841511726379,0.4365033805370331,0.02167758345603943,1.688577651977539,-0.34504225850105286
1.1134927664558718,-2.8679397819460792,-2.6984744274899195,-1.476080060005188,-0.06450701504945755,-0.5160486698150635,-0.11932366341352463,-0.8972463011741638,0.425101101398468,0.05075068771839142,1.6349477767944336,-0.3129795789718628
1.1309013050223655,-2.8712663733873645,-2.695618510938509,-1.785352110862732,-0.08426634222269058,-0.6582244038581848,-0.11372002959251404,-0.9047963619232178,0.4103794991970062,0.04636777937412262,1.5618855953216553,-0.3349705934524536
1.1511017471638556,-2.8770748632884415,-2.690292804477409,-1.9716695547103882,-0.10979880392551422,-0.8403236269950867,-0.10653361678123474,-0.9132134318351746,0.3933090567588806,0.02183207869529724,1.4654288291931152,-0.3824142813682556
1.1732914626841437,-2.8876495381880787,-2.6801291286457354,-2.0936176776885986,-0.13738222420215607,-1.0757052898406982,-0.09725311398506165,-0.9220297932624817,0.37470418214797974,-0.00891752541065216,1.3701192140579224,-0.4136904180049896
1.1971932532387475,-2.9047601695294603,-2.663455478393429,-2.228801727294922,-0.19851551949977875,-1.2883031368255615,-0.08563161641359329,-0.9310183525085449,0.35478484630584717,-0.012680746614933014,1.2880891561508179,-0.4004848897457123
1.2228461555305374,-2.9285764378369987,-2.6404644021906734,-2.3982093334198,-0.2583570182323456,-1.4177395105361938,-0.07208430767059326,-0.9400736093521118,0.3332642912864685,0.03759948909282684,1.1955974102020264,-0.36292749643325806
1.2502228764689387,-2.958322026068618,-2.6120478789240047,-2.5879554748535156,-0.3196544051170349,-1.470533847808838,-0.057427797466516495,-0.9490548968315125,0.3098335564136505,0.08152145147323608,1.0812876224517822,-0.3434792757034302
1.2792699768258091,-2.99335181701575,-2.5790376408525977,-2.7980525493621826,-0.38997945189476013,-1.4268805980682373,-0.042450644075870514,-0.9578062891960144,0.2842619717121124,0.0940558910369873,0.9522216320037842,-0.3231872618198395
1.310059265419024,-3.03111943093933,-2.5440868090782907,-3.0448086261749268,-0.42677175998687744,-1.2266082763671875,-0.02842133305966854,-0.9662002325057983,0.2562215328216553,0.14119908213615417,0.8204787373542786,-0.2665059566497803
1.342673071218166,-3.0658975131060413,-2.512374919301877,-3.2808613777160645,-0.3575844466686249,-0.887258768081665,-0.017102094367146492,-0.9740925431251526,0.22550217807292938,0.25288093090057373,0.6670399308204651,-0.22254206240177155
1.3768173500009064,-3.0920104954129033,-2.4884559751746473,-3.434471845626831,-0.17547248303890228,-0.5473852157592773,-0.009553790092468262,-0.9812449812889099,0.1925281137228012,0.33459657430648804,0.46139323711395264,-0.23902174830436707
1.4117430510285516,-3.108945499483014,-2.47208211074176,-3.4892423152923584,0.0019140196964144707,-0.3264954686164856,-0.005169848911464214,-0.9873776435852051,0.1582990139722824,0.3063936233520508,0.21232277154922485,-0.3019453287124634
1.4467524762514776,-3.119661757072051,-2.4607761359529277,-3.469506025314331,0.08266450464725494,-0.18262682855129242,-0.002713199472054839,-0.9923164248466492,0.12369601428508759,0.22565937042236328,-0.07555466890335083,-0.35167765617370605
1.4812292045864475,-3.125974202322845,-2.453398982088227,-3.3938775062561035,0.10190476477146149,-0.1201714426279068,-0.0013969758292660117,-0.9959915280342102,0.08943667262792587,0.1502617597579956,-0.3709059953689575,-0.39471936225891113
1.5147861093395134,-3.141590248557719,-2.437218901516858,-3.296767234802246,-0.011716455221176147,-0.17055173218250275,-1.3463265702284843e-07,-0.9984318614006042,0.055979568511247635,-0.0036619603633880615,-0.6319239139556885,-0.4160717725753784
1.5474737230064612,3.070865087984713,-2.367333737881532,-3.2327067852020264,-0.15747125446796417,-0.12859736382961273,0.00164820218924433,-0.9997280240058899,0.02326466329395771,-0.09150716662406921,-0.8497287631034851,-0.3982647657394409
1.5617367310301045,0.23082058834589886,0.470993165172163,-3.165306806564331,-0.17914587259292603,0.05499666929244995,0.0020756723824888468,-0.9999589323997498,-0.008832305669784546,-0.018188923597335815,-1.0474196672439575,-0.36456555128097534
1.53074446202869,0.02251034145066257,0.6777432595587122,-3.0490450859069824,-0.1434219628572464,0.14239148795604706,0.0009013230446726084,-0.9991980195045471,-0.04003363475203514,0.02166643738746643,-1.2140893936157227,-0.31627440452575684
1.5011939423488474,0.003294985378129302,0.6956591780461682,-2.830535411834717,-0.12070344388484955,-0.06301857531070709,0.0002291584969498217,-0.9975787401199341,-0.06954739987850189,-0.0752413272857666,-1.377314567565918,-0.29286420345306396
1.4742522528950823,0.03144753050936508,0.6663683842588186,-2.5175259113311768,-0.07730697095394135,-0.544864296913147,0.00303085520863533,-0.9953432679176331,-0.09634639322757721,-0.21537211537361145,-1.5480375289916992,-0.26139599084854126
1.4504261958510691,0.09707048796164694,0.6000013629139255,-2.116757869720459,0.009573333896696568,-1.203842282295227,0.01163784321397543,-0.9927642345428467,-0.11951383948326111,-0.32825767993927,-1.7165557146072388,-0.18473123013973236
1.4294762514601742,0.1923510002655589,0.5043471516671688,-1.6499521732330322,0.07301196455955505,-1.8336820602416992,0.026925833895802498,-0.9900309443473816,-0.1382521390914917,-0.38433241844177246,-1.8293659687042236,-0.13434617221355438
1.4106303862909952,0.2997885166400544,0.3964274629529807,-1.2054877281188965,0.06833642721176147,-2.1696958541870117,0.0470978245139122,-0.9872008562088013,-0.15236859023571014,-0.2864776849746704,-1.9029815196990967,-0.13103292882442474
1.3936195073465605,0.4009093555359031,0.29435686483074375,-0.8137657642364502,0.02564942091703415,-2.1580958366394043,0.0687829852104187,-0.9843451976776123,-0.162275493144989,-0.1372949182987213,-1.9505302906036377,-0.12684808671474457
1.3790925644969705,0.4839334786252463,0.20979787062054073,-0.4826906621456146,-0.042098164558410645,-1.8409405946731567,0.0886477380990982,-0.9816810488700867,-0.1686534285545349,-0.036386340856552124,-1.995476484298706,-0.10792744159698486
1.3683556535015864,0.5447685432961437,0.14716278308427283,-0.17825089395046234,-0.07028798758983612,-1.3276562690734863,0.10419370979070663,-0.9795787930488586,-0.1719566136598587,0.035271644592285156,-2.0531208515167236,-0.08794641494750977
1.3625557285594774,0.5856289995611038,0.10450743340022171,0.12915962934494019,-0.11077089607715607,-0.7541495561599731,0.11426930874586105,-0.9783961772918701,-0.17228861153125763,0.07034679502248764,-2.075223207473755,-0.06701497733592987
1.3622597946147286,0.6102377459344636,0.07798932000591284,0.4388197362422943,-0.1534627079963684,-0.19151870906352997,0.11863981187343597,-0.9783349633216858,-0.16966170072555542,0.10227696597576141,-2.0518620014190674,-0.05313192307949066
1.367407499829034,0.622774718601358,0.06364414612754898,0.7322871088981628,-0.1366882026195526,0.29160210490226746,0.11781872063875198,-0.9793877005577087,-0.16406865417957306,0.1502629518508911,-2.000791072845459,-0.05903017520904541
1.3772640435864425,0.627823060325836,0.05736333668744788,1.0033668279647827,-0.08156716823577881,0.6402168273925781,0.11296965181827545,-0.9813309907913208,-0.1556515097618103,0.18448519706726074,-1.9380414485931396,-0.06796610355377197
1.3908786093879073,0.630940135531373,0.05367536883228243,1.271740198135376,-0.015872949734330177,0.8298501968383789,0.10556275397539139,-0.9838584065437317,-0.14449653029441833,0.1968664526939392,-1.871396780014038,-0.09306764602661133
1.4075237237081153,0.6389503829020632,0.045827008351838394,1.562103271484375,0.07126674801111221,0.9048498868942261,0.09693654626607895,-0.9867005944252014,-0.13048158586025238,0.20323438942432404,-1.7663969993591309,-0.1309473067522049
1.4266418621743153,0.661283565542062,0.024400139387879192,1.868117094039917,0.15798738598823547,0.8669589757919312,0.0882234126329422,-0.9896277189254761,-0.11337385326623917,0.2021666169166565,-1.611660122871399,-0.1768636703491211
1.447515275420894,0.7115340856541598,-0.024426546469299145,2.169010639190674,0.20710113644599915,0.7613859176635742,0.0802982971072197,-0.9924104809761047,-0.0931319072842598,0.1829310953617096,-1.425390362739563,-0.21610277891159058
1.4691426687059252,0.8095448555453929,-0.12084977900883412,2.4352810382843018,0.23069506883621216,0.6486830115318298,0.07346729934215546,-0.9948377013206482,-0.07000230997800827,0.17967602610588074,-1.2351579666137695,-0.2609609365463257
1.489978328450865,0.9891567215739937,-0.29872471318940724,2.6567890644073486,0.26092246174812317,0.5909493565559387,0.0674547478556633,-0.9967359900474548,-0.044352464377880096,0.20486891269683838,-1.0492234230041504,-0.3073168992996216
1.5068946303939632,1.3051554617197898,-0.612771295124425,2.8133506774902344,0.2790674865245819,0.6028403043746948,0.06161811202764511,-0.9979589581489563,-0.016764484345912933,0.2625548839569092,-0.8619958162307739,-0.33240246772766113
1.5141902281979835,1.784803260007402,-1.0905230520822193,2.8960671424865723,0.2682425379753113,0.6674903631210327,0.05528562515974045,-0.9983983039855957,0.012015501968562603,0.31948554515838623,-0.6574244499206543,-0.34207844734191895
1.507414563342875,2.281167070877968,-1.5849543956350665,2.921872615814209,0.29020988941192627,0.7762426137924194,0.048018984496593475,-0.9979920387268066,0.041304659098386765,0.3472141921520233,-0.44550466537475586,-0.36349403858184814
1.4898331769387019,2.6329607158506074,-1.934466086473998,2.9092695713043213,0.33736729621887207,0.9154084920883179,0.03938434273004532,-0.9967242479324341,0.07063645869493484,0.36981064081192017,-0.25188714265823364,-0.378406286239624
1.4667429229346909,2.8565380599679835,-2.1553773050013705,2.880727529525757,0.3756193220615387,1.054496169090271,0.029208222404122353,-0.9945913553237915,0.09967489540576935,0.3859681785106659,-0.07079267501831055,-0.38240504264831543
1.4409976333099488,3.004669691384168,-2.3004533764761144,2.828848361968994,0.4322591722011566,1.1654759645462036,0.017667029052972794,-0.9915879964828491,0.12822161614894867,0.3801906704902649,0.10711246728897095,-0.4016897976398468
1.414110961785805,3.1091509010708296,-2.4013566833661435,2.745065450668335,0.482575923204422,1.2371652126312256,0.005061481148004532,-0.9877499341964722,0.1559627503156662,0.36272114515304565,0.27850621938705444,-0.4177882671356201
1.3870998155884673,-3.096907620052941,-2.4745208927719706,2.614819288253784,0.5138829946517944,1.261344075202942,-0.00815969705581665,-0.9831751585006714,0.18248315155506134,0.33808526396751404,0.4419459104537964,-0.4069857597351074
1.360838088385484,-3.0379979145806795,-2.529263619988059,2.4385507106781006,0.528668999671936,1.250464916229248,-0.021552518010139465,-0.9780396223068237,0.20730169117450714,0.30483198165893555,0.5918244123458862,-0.3833881616592407
1.336121025584877,-2.991233928569791,-2.5717188882820285,2.212212324142456,0.5379248261451721,1.2229440212249756,-0.034830883145332336,-0.972589910030365,0.22990354895591736,0.2880810499191284,0.7188515067100525,-0.35591065883636475
1.3133402768547364,-2.952567814333042,-2.6058774865864818,1.9813848733901978,0.5704182386398315,1.1755419969558716,-0.04784354567527771,-0.9670408368110657,0.2500854432582855,0.2750622034072876,0.820220947265625,-0.3581177592277527
1.2925995886280652,-2.920031654370905,-2.633593522453617,1.7734508514404297,0.5808913707733154,1.090179443359375,-0.06034904718399048,-0.9615522027015686,0.26790952682495117,0.24031123518943787,0.900181233882904,-0.3644060790538788
1.2737897944456764,-2.893746591006892,-2.655108727979286,1.5994266271591187,0.5382519364356995,0.9601296782493591,-0.07179397344589233,-0.9562168121337891,0.2837159037590027,0.1800856739282608,0.9849950671195984,-0.36254292726516724
1.2565882767093757,-2.873995409163659,-2.67034542793793,1.4938451051712036,0.5077944397926331,0.7947654724121094,-0.08172097057104111,-0.9510414600372314,0.2980634570121765,0.11669415980577469,1.086310625076294,-0.3895705044269562
1.2404507415712556,-2.8604841692969574,-2.679125075258285,1.461012601852417,0.5333713293075562,0.610195517539978,-0.08998686075210571,-0.9459303021430969,0.3116375505924225,0.0384884849190712,1.2149887084960938,-0.41728952527046204
1.2248590297193473,-2.8527768559436852,-2.6815198794486323,1.480758786201477,0.5399349331855774,0.4134158194065094,-0.09657533466815948,-0.9407580494880676,0.3250342309474945,-0.02743278443813324,1.3626484870910645,-0.4144965708255768
1.2096452281009331,-2.850860002086727,-2.6781100667132383,1.488506555557251,0.46829932928085327,0.23502624034881592,-0.1012895405292511,-0.9354907274246216,0.3385222852230072,-0.07722300291061401,1.5279438495635986,-0.3935302793979645
1.195101371046356,-2.8532922813884665,-2.671142468956541,1.4190199375152588,0.3451952338218689,0.12251835316419601,-0.1043236032128334,-0.9302528500556946,0.3517758250236511,-0.10679696500301361,1.6938483715057373,-0.3650510311126709
1.1821107016466952,-2.8575745818700677,-2.663404877393902,1.204921841621399,0.239994615316391,0.06235213577747345,-0.10619372129440308,-0.9254079461097717,0.3637896180152893,-0.13407114148139954,1.843758225440979,-0.3154040575027466
1.1721155767201636,-2.8614243108195767,-2.657075546818153,0.8221144676208496,0.16017436981201172,0.032239776104688644,-0.10734494030475616,-0.9215739369392395,0.3730666935443878,-0.17147889733314514,1.9451487064361572,-0.2427261769771576
1.1666231798612754,-2.8634522970271643,-2.6534648543900796,0.2924163341522217,0.09695813059806824,-0.00507767777889967,-0.10797610878944397,-0.9194278717041016,0.37814441323280334,-0.19124871492385864,1.9742987155914307,-0.16049319505691528
1.1668064916130674,-2.8636854176011957,-2.6525128387819454,-0.30928683280944824,0.0263364240527153,-0.08165901154279709,-0.10784173011779785,-0.919499933719635,0.37800756096839905,-0.18825502693653107,1.9493920803070068,-0.10188466310501099
1.1730067828939328,-2.8630328133427896,-2.653367262855354,-0.888457715511322,-0.04912161827087402,-0.20129980146884918,-0.10651879757642746,-0.9219195246696472,0.3724488914012909,-0.16369906067848206,1.885603666305542,-0.11079120635986328
1.184638348667957,-2.862746584151598,-2.6545340373273083,-1.3416420221328735,-0.11060655117034912,-0.35976988077163696,-0.10366673767566681,-0.926362931728363,0.36208444833755493,-0.1292739063501358,1.8057420253753662,-0.17331799864768982
1.2003616244009083,-2.8646905448832376,-2.653936275382457,-1.6428449153900146,-0.1608799397945404,-0.5413086414337158,-0.09896829724311829,-0.932170033454895,0.3482306897640228,-0.09236165881156921,1.7134199142456055,-0.2546790540218353
1.2186669758246007,-2.8698609805933017,-2.650352019530991,-1.7810605764389038,-0.20277279615402222,-0.6809256672859192,-0.09257036447525024,-0.9386404156684875,0.332241952419281,-0.04515542834997177,1.6181448698043823,-0.31644919514656067
1.2378957995667768,-2.8786437012070474,-2.6433898851154107,-1.7781598567962646,-0.23443053662776947,-0.7766732573509216,-0.08494102954864502,-0.9450984597206116,0.31555280089378357,0.0336715430021286,1.491149663925171,-0.39836233854293823
1.2568749549780787,-2.891802929514494,-2.6320250402013476,-1.6945900917053223,-0.23848280310630798,-0.8863456845283508,-0.07633305341005325,-0.9511299729347229,0.2992069125175476,0.08200938254594803,1.3670389652252197,-0.45359542965888977
1.2752590101183698,-2.911368621206336,-2.6139287832725073,-1.6106384992599487,-0.22279100120067596,-1.0455713272094727,-0.06646275520324707,-0.9566457867622375,0.28356873989105225,0.08925942331552505,1.2699851989746094,-0.4575648605823517
1.2933764007694488,-2.940227136951855,-2.5863072169803862,-1.6008697748184204,-0.2529939115047455,-1.2508471012115479,-0.05477696657180786,-0.9617652297019958,0.2683408558368683,0.07575783878564835,1.1916848421096802,-0.4416044056415558
1.3121129132442084,-2.9806815696588527,-2.547389907353173,-1.719819188117981,-0.33802512288093567,-1.4392099380493164,-0.04098482429981232,-0.966727614402771,0.2525026798248291,0.0758969858288765,1.131629467010498,-0.3863071799278259
1.3323734464671728,-3.0335320461437756,-2.4967599721718767,-1.9544583559036255,-0.402820885181427,-1.5500088930130005,-0.025471027940511703,-0.9717116355895996,0.23479239642620087,0.10603746771812439,1.0722519159317017,-0.32292723655700684
1.3543368686411594,-3.0986232924312915,-2.4343218614699365,-2.1909332275390625,-0.45267194509506226,-1.5649386644363403,-0.009225835092365742,-0.9766640067100525,0.2145751267671585,0.14135172963142395,0.9808600544929504,-0.3006041944026947
1.3772786282967473,3.106612905199721,-2.359800168849667,-2.35356068611145,-0.5321579575538635,-1.4602681398391724,0.006725678686052561,-0.9813337922096252,0.1921950727701187,0.17724958062171936,0.8280134201049805,-0.3330337703227997
1.4001212348969028,3.018229269386292,-2.275560225361988,-2.408134937286377,-0.5642097592353821,-1.1831421852111816,0.02089996449649334,-0.9854703545570374,0.16855758428573608,0.2223251461982727,0.6314206123352051,-0.36325979232788086
1.4220614296813223,2.927092303295308,-2.1888491463012323,-2.355133295059204,-0.5306597948074341,-0.7882929444313049,0.03154302015900612,-0.9889593124389648,0.14479120075702667,0.30854490399360657,0.3709478974342346,-0.37979185581207275
1.4429621187403467,2.8363460284710533,-2.102189108642675,-2.28184175491333,-0.45278409123420715,-0.45993924140930176,0.03831332549452782,-0.9918403029441833,0.12159319967031479,0.2864089906215668,0.10803604125976562,-0.3539541959762573
1.463242430217028,2.736387056967481,-2.005994599111916,-2.304564952850342,-0.44505026936531067,-0.25688543915748596,0.04231645166873932,-0.9942216277122498,0.09865286946296692,0.18516162037849426,-0.0880231261253357,-0.2764178514480591
1.4837642739531536,2.602681011661343,-1.876488724522034,-2.4935030937194824,-0.5186477899551392,-0.12432430684566498,0.04460911080241203,-0.9962151050567627,0.07460326701402664,0.15276333689689636,-0.2545325756072998,-0.20428776741027832
1.5047377724579551,2.3794262684302465,-1.657813251640752,-2.8437271118164062,-0.4873058795928955,-0.008821677416563034,0.04557852819561958,-0.9978189468383789,0.047747038304805756,0.2050471305847168,-0.4463490843772888,-0.15948724746704102
1.5220382738584917,1.929534801389121,-1.2110233983277003,-3.2327399253845215,-0.2543788254261017,0.005208432674407959,0.045636098831892014,-0.9988115429878235,0.01711186021566391,0.2622404992580414,-0.7126447558403015,-0.1399298906326294
1.5216540255202728,1.2225059184409643,-0.504624035623283,-3.486734628677368,-0.04186815023422241,-0.1330929696559906,0.046175163239240646,-0.9987927675247192,-0.01676584593951702,0.24574077129364014,-1.0587328672409058,-0.1461675763130188
1.4996600446622135,0.7562630284238047,-0.03729045305034289,-3.449314594268799,0.09717074036598206,-0.3957732021808624,0.04877331852912903,-0.9974708557128906,-0.05170149356126785,0.19008779525756836,-1.4584617614746094,-0.20110619068145752
1.4702773364069148,0.5741706719825231,0.14704052239290225,-3.0350422859191895,0.22201545536518097,-0.7367334365844727,0.0545036718249321,-0.9949522018432617,-0.08425772935152054,0.10177686810493469,-1.8218659162521362,-0.31765884160995483
1.4424403872062788,0.522902491089399,0.20134233630805431,-2.312814235687256,0.30425795912742615,-1.0982692241668701,0.06392443180084229,-0.9917736649513245,-0.11089861392974854,0.020243071019649506,-2.058427572250366,-0.42451709508895874
1.4196752459375483,0.5356268965204314,0.19159927799828327,-1.4700596332550049,0.301127165555954,-1.4171912670135498,0.07683563232421875,-0.9886029362678528,-0.12946173548698425,-0.006294228136539459,-2.170851230621338,-0.4320160150527954
1.4021282547092826,0.583802494879563,0.14584319627323075,-0.7487616539001465,0.31109392642974854,-1.649268627166748,0.09252993762493134,-0.9858092069625854,-0.1400659829378128,-0.03651487082242966,-2.1821138858795166,-0.35946106910705566
1.388125628655853,0.6481975724242992,0.08398571566995557,-0.32751908898353577,0.38893893361091614,-1.6916338205337524,0.10967563837766647,-0.983362078666687,-0.14481228590011597,-0.0432235449552536,-2.1400206089019775,-0.2203763872385025
1.376078348329091,0.710181149906027,0.02526781456800378,-0.18882113695144653,0.4619097113609314,-1.497892141342163,0.12615010142326355,-0.9811022877693176,-0.14671282470226288,-0.012060090899467468,-2.085029363632202,-0.0487218052148819
1.36578337642614,0.7577273785160749,-0.018347521447054146,-0.17940765619277954,0.4896768629550934,-1.146118402481079,0.13991501927375793,-0.9790583252906799,-0.14788058400154114,0.006859287619590759,-2.02878475189209,0.07868188619613647
1.3579283829353264,0.789034067828239,-0.04540708893265981,-0.14739395678043365,0.46887335181236267,-0.7450264096260071,0.14992877840995789,-0.9774290323257446,-0.1488424688577652,-0.009837791323661804,-1.9809603691101074,0.12365011870861053
1.3535286047435844,0.8075935860362651,-0.05985060903492878,-0.012339191511273384,0.41398295760154724,-0.31151145696640015,0.15577127039432526,-0.9764900803565979,-0.14900550246238708,-0.02031897008419037,-1.9490165710449219,0.1306338757276535
1.3535902167832468,0.8182489317937318,-0.06694553059249629,0.25441014766693115,0.3307855427265167,0.10592684894800186,0.15730614960193634,-0.9765033721923828,-0.14729611575603485,-0.00029315054416656494,-1.9049054384231567,0.08810721337795258
1.3585297611661478,0.8264956430694606,-0.07254181418420773,0.5922686457633972,0.22352859377861023,0.43902090191841125,0.15496526658535004,-0.9775559306144714,-0.14272409677505493,0.018313556909561157,-1.8407728672027588,0.00266362726688385
1.3677338132657133,0.8375902164082993,-0.08204882463941658,0.9282990097999573,0.13453730940818787,0.6381627321243286,0.1498475819826126,-0.9794535636901855,-0.13496892154216766,-0.0022034943103790283,-1.747826099395752,-0.06515014171600342
1.3802177470922474,0.8556005225878703,-0.0993638382939555,1.2202569246292114,0.07428888231515884,0.7751408219337463,0.14301104843616486,-0.9818947911262512,-0.12421992421150208,-0.018117815256118774,-1.6179282665252686,-0.106721892952919
1.3953955315622792,0.88175159036883,-0.12541408928492961,1.4484169483184814,0.03189222887158394,0.9238701462745667,0.13469049334526062,-0.9846566915512085,-0.11094878613948822,0.033003613352775574,-1.4916157722473145,-0.13522136211395264
1.4127959890399655,0.9172855145039217,-0.1611942766878916,1.6335314512252808,0.019420377910137177,1.0501295328140259,0.1249237060546875,-0.9875438809394836,-0.0956614539027214,0.0966491773724556,-1.3623706102371216,-0.15237021446228027
1.4319181860518782,0.9673217450309376,-0.21169785654980822,1.8098512887954712,-0.0061304280534386635,1.154767632484436,0.11398076266050339,-0.9903719425201416,-0.0785612240433693,0.1575799286365509,-1.236053228378296,-0.20148342847824097
1.4523778542398886,1.040749457205093,-0.28601538389912307,1.9790946245193481,-0.053350403904914856,1.2659690380096436,0.10193169116973877,-0.9929966926574707,-0.0597299300134182,0.2595643103122711,-1.1240077018737793,-0.2678763270378113
1.4736562216472333,1.154919241813147,-0.40139925445580565,2.1527252197265625,-0.04247783124446869,1.3778012990951538,0.08872078359127045,-0.9952856302261353,-0.03918233513832092,0.38744500279426575,-1.0209192037582397,-0.33978497982025146
1.4943893225351086,1.3494527503265805,-0.5966937210295775,2.3368070125579834,0.03628462553024292,1.4684702157974243,0.07447008788585663,-0.9970824122428894,-0.01675804890692234,0.47925615310668945,-0.9023469090461731,-0.4129447937011719
1.51085461894752,1.6971515480016983,-0.9445030787725909,2.5086050033569336,0.0952153131365776,1.538673758506775,0.05942802503705025,-0.9982040524482727,0.00754926074296236,0.5366566181182861,-0.7346908450126648,-0.4488945007324219
1.5157700287295095,2.225955133779614,-1.4728801451507287,2.656719923019409,0.15755698084831238,1.6171818971633911,0.04361305385828018,-0.9984864592552185,0.03351125121116638,0.5826687216758728,-0.530139148235321,-0.46428215503692627
1.5043016481549072,2.7239046820411836,-1.9697731184244736,2.759840965270996,0.22776861488819122,1.6929240226745605,0.0269541684538126,-0.9977900385856628,0.06073463335633278,0.6071859002113342,-0.31791436672210693,-0.48442554473876953
1.4814945673755984,3.034931471560223,-2.2791145070141634,2.811436891555786,0.28290778398513794,1.7553095817565918,0.009494387544691563,-0.9960152506828308,0.08867663890123367,0.5967526435852051,-0.11239844560623169,-0.49855828285217285
1.4535056458560645,-3.0694737165017396,-2.456042540427015,2.8001043796539307,0.26139262318611145,1.7766772508621216,-0.00843224860727787,-0.993129312992096,0.11671864986419678,0.5535677671432495,0.0882067084312439,-0.5051007270812988
1.4236927746139463,-2.960586517057956,-2.5634116920748027,2.7235684394836426,0.2339053452014923,1.769313097000122,-0.0263860784471035,-0.9891997575759888,0.14417898654937744,0.4925573766231537,0.28064262866973877,-0.5020738840103149
1.393696237529996,-2.8874531955318807,-2.634900605617131,2.611534595489502,0.2927531898021698,1.7642508745193481,-0.044292815029621124,-0.9843587279319763,0.17051702737808228,0.4345516264438629,0.4496602416038513,-0.48706066608428955
1.364130310516019,-2.833215150324742,-2.6865884697026936,2.504293441772461,0.4092757999897003,1.7576360702514648,-0.062280476093292236,-0.978720486164093,0.1955188810825348,0.3972261846065521,0.6007601618766785,-0.46251723170280457
1.3351543992422579,-2.7901757244129355,-2.7257175962442695,2.40439510345459,0.5567532181739807,1.726534366607666,-0.08036606013774872,-0.9723646640777588,0.219199076294899,0.3614482581615448,0.7462904453277588,-0.4359959363937378
1.3069902325964124,-2.7553472702644792,-2.755290213473639,2.306544303894043,0.6658251285552979,1.6502844095230103,-0.0982305258512497,-0.9654045104980469,0.24154692888259888,0.3113653063774109,0.8877830505371094,-0.4097902774810791
1.2799589311842707,-2.7273006645847326,-2.777161277815063,2.1934587955474854,0.7309484481811523,1.5437575578689575,-0.11543074250221252,-0.9580040574073792,0.26249560713768005,0.2566661238670349,1.0211143493652344,-0.38040030002593994
1.2543785038930007,-2.704846210021687,-2.792631302151877,2.0722453594207764,0.8006537556648254,1.39389169216156,-0.13162057101726532,-0.9503561854362488,0.2819563150405884,0.1857282668352127,1.1435476541519165,-0.3675733804702759
1.2306926156930533,-2.6874244283123248,-2.802390378288026,1.9148551225662231,0.8180851936340332,1.2045925855636597,-0.1463487148284912,-0.9427200555801392,0.2997681498527527,0.0881364643573761,1.2587143182754517,-0.36423659324645996
1.209505654701188,-2.6747732451940176,-2.8075401674711316,1.7041751146316528,0.7236103415489197,0.9865145683288574,-0.15908373892307281,-0.9354413747787476,0.3156604468822479,-0.02022230625152588,1.382630705833435,-0.33819809556007385
1.191311193819243,-2.666781453422874,-2.809402463676464,1.464557409286499,0.5149309039115906,0.7824650406837463,-0.16935549676418304,-0.9288554787635803,0.32946398854255676,-0.14595209062099457,1.5194926261901855,-0.31879815459251404
1.1761438896143301,-2.6626409616850557,-2.8096209034542734,1.2160091400146484,0.2679291367530823,0.6286962628364563,-0.17719058692455292,-0.9231302738189697,0.34122416377067566,-0.258157879114151,1.6553995609283447,-0.30242112278938293
1.1637491926616694,-2.6607471555639988,-2.809965329199708,0.9673513770103455,0.053650371730327606,0.5470237135887146,-0.18311475217342377,-0.918293833732605,0.3510057032108307,-0.32185953855514526,1.7726030349731445,-0.2513659596443176
1.153746232190697,-2.659191430893254,-2.811994654094407,0.7246015667915344,-0.10692652314901352,0.5267732739448547,-0.18791307508945465,-0.914287805557251,0.3588409721851349,-0.32734572887420654,1.8547935485839844,-0.1930847465991974
1.1459325866202723,-2.656736335320182,-2.8164647346375844,0.4852626919746399,-0.20953133702278137,0.5196314454078674,-0.19211728870868683,-0.9110949039459229,0.3646879494190216,-0.299642950296402,1.8958359956741333,-0.15231606364250183
1.1403956305249567,-2.653152162482986,-2.822986005404787,0.23693916201591492,-0.2514417767524719,0.46598097681999207,-0.1957872062921524,-0.9087986350059509,0.36844587326049805,-0.262556254863739,1.9084324836730957,-0.13790085911750793
1.13758020591079,-2.6490713246841837,-2.8304365692666535,-0.03974743187427521,-0.2829621136188507,0.33685076236724854,-0.1984984129667282,-0.907620370388031,0.3698972761631012,-0.2163422703742981,1.8965728282928467,-0.14426562190055847
1.1381731220998035,-2.6454703026644784,-2.8377009296655307,-0.3555847704410553,-0.31689292192459106,0.13177885115146637,-0.19957290589809418,-0.9078691005706787,0.36870673298835754,-0.16547834873199463,1.8459181785583496,-0.14568421244621277
1.1427497286772066,-2.643274346766142,-2.8437435370119344,-0.6827675104141235,-0.3398491442203522,-0.13738597929477692,-0.19839394092559814,-0.909778356552124,0.36461371183395386,-0.12115557491779327,1.774249792098999,-0.15678909420967102
1.151448680165758,-2.6433941513919605,-2.8473556843937398,-0.9735043048858643,-0.3358035385608673,-0.4324783384799957,-0.19456101953983307,-0.913354754447937,0.3576715290546417,-0.07039253413677216,1.7026615142822266,-0.21115663647651672
1.1637495304691516,-2.6464483245995845,-2.8476560675521787,-1.183219313621521,-0.3346693813800812,-0.7127004265785217,-0.18811525404453278,-0.9182940125465393,0.3483523428440094,-0.007212519645690918,1.616459608078003,-0.29224565625190735
1.178715674580027,-2.653539554550845,-2.843701146825786,-1.287439227104187,-0.3501950800418854,-0.9623908996582031,-0.17917515337467194,-0.9241160154342651,0.33749961853027344,0.044882580637931824,1.5118844509124756,-0.35616108775138855
1.1952513907753257,-2.6659888391739517,-2.8342634125923705,-1.300309419631958,-0.389900803565979,-1.1865041255950928,-0.16793939471244812,-0.9303078651428223,0.32607319951057434,0.07244989275932312,1.4126991033554077,-0.4016347825527191
1.2127328308871081,-2.6851112505461763,-2.8185708053048053,-1.315317153930664,-0.511313259601593,-1.3749638795852661,-0.15448088943958282,-0.9365772604942322,0.314577579498291,0.08148287236690521,1.3490068912506104,-0.39856192469596863
1.231156188540739,-2.710922857207873,-2.797481433608477,-1.3965140581130981,-0.6844173073768616,-1.4889805316925049,-0.13908234238624573,-0.9428746104240417,0.30272677540779114,0.09225316345691681,1.322284460067749,-0.3603745698928833
1.2509372290320748,-2.741373132121687,-2.7733819172471788,-1.59954035282135,-0.835383951663971,-1.517282247543335,-0.12250957638025284,-0.9492797255516052,0.289585143327713,0.10999739170074463,1.3133697509765625,-0.3329353332519531
1.2728873641577019,-2.7731658944191633,-2.7494648497561283,-1.9220085144042969,-0.9496414661407471,-1.4575252532958984,-0.10571141541004181,-0.9559523463249207,0.27382519841194153,0.133238285779953,1.312474012374878,-0.2631441354751587
1.2974989773492838,-2.803069661330826,-2.7282812602672797,-2.258424758911133,-0.9433233737945557,-1.3566412925720215,-0.08963488787412643,-0.9628861546516418,0.25458964705467224,0.16775992512702942,1.2803146839141846,-0.22732234001159668
1.3241636017390905,-2.8303825178569344,-2.709513418716735,-2.449094295501709,-0.8849059343338013,-1.253219723701477,-0.0747583732008934,-0.9697400331497192,0.23241259157657623,0.2118433713912964,1.1802654266357422,-0.2828887701034546
1.351580460671291,-2.8577572226979853,-2.690279775292809,-2.5028765201568604,-0.847103476524353,-1.2050704956054688,-0.06089853122830391,-0.9760682582855225,0.20876286923885345,0.2423408031463623,1.02213454246521,-0.3606184720993042
1.378831301174511,-2.8902186853601535,-2.665865240591839,-2.4649174213409424,-0.8677681684494019,-1.187947392463684,-0.04745560884475708,-0.9816312193870544,0.1847916692495346,0.24208149313926697,0.8651304244995117,-0.3698350191116333
1.4053389314045437,-2.9298952709145163,-2.6347480428773955,-2.441070318222046,-0.9415246844291687,-1.0689475536346436,-0.03460726886987686,-0.9863431453704834,0.1610257625579834,0.27752721309661865,0.709915041923523,-0.36796557903289795
1.4317753632504904,-2.9641866895947824,-2.6098828694055833,-2.612724781036377,-0.9793669581413269,-0.6505680680274963,-0.024455169215798378,-0.9903521537780762,0.13639941811561584,0.45032799243927,0.5748246908187866,-0.2895824909210205
1.4600420045857112,-2.9596955673730903,-2.623619343029868,-3.0174386501312256,-0.8138978481292725,-0.004382117185741663,-0.019994251430034637,-0.9938730001449585,0.10870569944381714,0.6975455284118652,0.46601033210754395,-0.14196990430355072
1.4914139693768695,-2.8544919957735835,-2.735916876829034,-3.5608882904052734,-0.49249863624572754,0.5951926112174988,-0.022455403581261635,-0.996850848197937,0.07605350017547607,0.8325598239898682,0.3309726119041443,-0.07776248455047607
1.5227665388607061,-2.469250313699078,-3.1248674380881534,-4.140566349029541,-0.10180652141571045,0.884245753288269,-0.029902465641498566,-0.9988467693328857,0.037562429904937744,0.7704573273658752,0.11842995882034302,-0.13350975513458252
1.5315972225394365,-1.4056819548174184,2.0948133098149206,-4.6091718673706055,0.27025943994522095,0.8231692314147949,-0.03865251690149307,-0.9992318153381348,-0.006440723314881325,0.5869923830032349,-0.2139790654182434,-0.2934250831604004
1.500538542005731,-0.6942173391103845,1.3869390846042218,-4.793994903564453,0.6155180335044861,0.40424177050590515,-0.04491298273205757,-0.9975329637527466,-0.05395270138978958,0.38681668043136597,-0.6796826124191284,-0.4944329857826233
1.4596876003746464,-0.41614322318523356,1.114844271424544,-4.593460559844971,0.7466124296188354,-0.32305508852005005,-0.0448216088116169,-0.9938337802886963,-0.10141678154468536,0.06743517518043518,-1.2276322841644287,-0.6963890194892883
1.4207589657245825,-0.2549164112265342,0.9593419787078494,-3.9986495971679688,0.6372276544570923,-0.9002925753593445,-0.037692222744226456,-0.9887654781341553,-0.1446443498134613,-0.12830808758735657,-1.7326090335845947,-0.8788389563560486
1.3877710238293544,-0.1456617278316957,0.8541868315848289,-3.0957751274108887,0.4694083631038666,-1.1719805002212524,-0.026417497545480728,-0.98329758644104,-0.1800774782896042,-0.05874177813529968,-2.0854127407073975,-0.9888221025466919
1.3634359079467138,-0.06447112565437549,0.7754180898382446,-2.042238235473633,0.3114844858646393,-1.344528079032898,-0.013263932429254055,-0.978577733039856,-0.20544932782649994,-0.055049628019332886,-2.247114896774292,-0.9590404033660889
1.348147301785269,0.0054041838573371725,0.7063569312713379,-1.1243152618408203,0.1752893328666687,-1.4945435523986816,0.0011933115310966969,-0.9753159284591675,-0.22081038355827332,-0.15982365608215332,-2.2826337814331055,-0.8065638542175293
1.3392975357531038,0.07274806913850136,0.6384666140707698,-0.5618894100189209,0.06537987291812897,-1.621679663658142,0.016676345840096474,-0.9733235836029053,-0.22882968187332153,-0.22654569149017334,-2.2669413089752197,-0.5725162029266357
1.333272705533924,0.1426401549608708,0.5666681669224524,-0.30038684606552124,-0.05803375691175461,-1.8246240615844727,0.03344903886318207,-0.9719236493110657,-0.23290689289569855,-0.3167589604854584,-2.2573397159576416,-0.3344607353210449
1.3274603030507122,0.21692511831153247,0.4890282829154882,-0.18627919256687164,-0.15621066093444824,-1.9871582984924316,0.05185737460851669,-0.9705395698547363,-0.23529502749443054,-0.4375995397567749,-2.273189067840576,-0.16463784873485565
1.3212462247311612,0.2897042301067414,0.4121832461904028,-0.07067517191171646,-0.18987244367599487,-1.9114919900894165,0.07055110484361649,-0.9690236449241638,-0.2366766482591629,-0.380411297082901,-2.304978370666504,-0.036150574684143066
1.3158269954499038,0.3538056502325074,0.3439429021434921,0.13508811593055725,-0.19241124391555786,-1.631422996520996,0.08738526701927185,-0.9676710367202759,-0.23659378290176392,-0.20213133096694946,-2.322291851043701,0.04456186294555664
1.3131316110395344,0.4063661444154957,0.2878833785758479,0.4235546588897705,-0.1346033364534378,-1.1759607791900635,0.1007249653339386,-0.966987669467926,-0.23407116532325745,-0.03148055076599121,-2.2971725463867188,0.05761849880218506
1.3147255860637859,0.4452272644288719,0.24690599751610925,0.7197495698928833,-0.012880638241767883,-0.5744690299034119,0.1090788021683693,-0.96739262342453,-0.22858944535255432,0.1535402089357376,-2.2551259994506836,0.045911163091659546
1.3212850508190739,0.4695311490811259,0.22248252514708347,0.9830060005187988,0.1508806198835373,0.052972860634326935,0.11172811686992645,-0.9690332412719727,-0.22020764648914337,0.26517927646636963,-2.206671714782715,0.042869940400123596
1.3325609466993662,0.4803041998024806,0.21365049798194624,1.205282211303711,0.27899760007858276,0.5799040794372559,0.10903813689947128,-0.9717559218406677,-0.20928722620010376,0.2667095959186554,-2.1094512939453125,0.035123348236083984
1.3476818735110585,0.4800641340756557,0.21720382379959285,1.3909293413162231,0.353685200214386,0.9297302961349487,0.10218963027000427,-0.9752130508422852,-0.19625720381736755,0.18878024816513062,-1.9745092391967773,-0.015794217586517334
1.365554103375632,0.47291725139222146,0.2281598922774386,1.5626928806304932,0.3491019010543823,1.0970580577850342,0.09282974898815155,-0.9790116548538208,-0.18143519759178162,0.07890795916318893,-1.8476941585540771,-0.09885357320308685
1.3854356746978156,0.46275345897833925,0.24184053696775473,1.7374364137649536,0.2932121753692627,1.152121901512146,0.0822744220495224,-0.9828698635101318,-0.16491733491420746,0.020554594695568085,-1.7554266452789307,-0.19259612262248993
1.4070639110756853,0.4525631557141195,0.2547450965983995,1.938991665840149,0.21166086196899414,1.1488299369812012,0.0712762176990509,-0.9866257905960083,-0.14659245312213898,0.016110926866531372,-1.6651839017868042,-0.291548490524292
1.430655396896894,0.4458131210521515,0.26347937078402,2.18764591217041,0.1679617166519165,1.130285620689392,0.06022997573018074,-0.9901963472366333,-0.1260300725698471,0.03985247015953064,-1.5311201810836792,-0.387931764125824
1.456439152874796,0.4466373376679146,0.26417647929341304,2.439764976501465,0.13564398884773254,1.102437973022461,0.04928723722696304,-0.9934683442115784,-0.1029144898056984,0.08730947971343994,-1.3436899185180664,-0.4645293951034546
1.4841846972983166,0.46247529049126607,0.24953913925362753,2.65177059173584,0.11851304024457932,1.063720464706421,0.038594480603933334,-0.9962515830993652,-0.07741571962833405,0.14879873394966125,-1.1107888221740723,-0.5031049251556396
1.5132111057505777,0.5138768928423397,0.19923647840018693,2.7869017124176025,0.1318725198507309,1.010120153427124,0.0282901618629694,-0.9983424544334412,-0.050119008868932724,0.20741239190101624,-0.8583164215087891,-0.5165924429893494
1.542181384151423,0.7047980384081806,0.00975557053676283,2.847599744796753,0.19059975445270538,0.949357271194458,0.018536031246185303,-0.9995906352996826,-0.0217936672270298,0.2581973969936371,-0.6023685932159424,-0.5181539058685303
1.5593516640137064,2.2060632159085976,-1.4893323429138,2.8378963470458984,0.27723291516304016,0.9166623950004578,0.009215094149112701,-0.9999344944953918,0.006793484557420015,0.3175366520881653,-0.35614460706710815,-0.5182528495788574
1.5358000184401972,3.140203519150782,-2.4205244712476537,2.7754244804382324,0.3295721709728241,0.8934828639030457,4.860524495597929e-05,-0.9993876814842224,0.03498956933617592,0.38302332162857056,-0.12147718667984009,-0.5230419635772705
1.5078557771997285,-3.0010441225537274,-2.559408172795364,2.6669483184814453,0.30576297640800476,0.8441275358200073,-0.008811041712760925,-0.9980198740959167,0.06227704882621765,0.407599538564682,0.1014135479927063,-0.5174009799957275
1.4807258125523035,-2.9490088211906254,-2.608690765386599,2.5387580394744873,0.27298372983932495,0.7936199903488159,-0.017216037958860397,-0.9959464073181152,0.0882871150970459,0.3924601972103119,0.3088735342025757,-0.5017392635345459
1.4547659654793073,-2.92126651922119,-2.633895311367279,2.423501491546631,0.2622160315513611,0.7773523330688477,-0.025301501154899597,-0.9932760000228882,0.11297234892845154,0.3674493730068207,0.4968312382698059,-0.485424280166626
1.4297098649513569,-2.90196508999055,-2.650751561497473,2.344712018966675,0.24999654293060303,0.7863324880599976,-0.03337480500340462,-0.9900637865066528,0.13660171627998352,0.3498268723487854,0.6679353713989258,-0.4693807363510132
1.4052099178887325,-2.8862315056646493,-2.664378669285931,2.292600631713867,0.20143058896064758,0.8134509325027466,-0.04163540527224541,-0.9863218665122986,0.15948566794395447,0.3273257613182068,0.8444303870201111,-0.44601523876190186
1.38100784340624,-2.873212272242549,-2.675697044209279,2.2671194076538086,0.18535634875297546,0.8153311014175415,-0.050024621188640594,-0.9820441603660583,0.1818976253271103,0.2847048342227936,1.0302619934082031,-0.4266791343688965
1.357043275177427,-2.8632371423942833,-2.683665568705329,2.2442800998687744,0.24943439662456512,0.7731916308403015,-0.05828774720430374,-0.9772416949272156,0.2039639949798584,0.20155254006385803,1.2128372192382812,-0.41946396231651306
1.3336079618079693,-2.856607915106011,-2.6877074775779657,2.1906609535217285,0.2789764702320099,0.6908649206161499,-0.06606024503707886,-0.9720024466514587,0.22549311816692352,0.11621592193841934,1.3929314613342285,-0.390883207321167
1.3113254342365284,-2.8539808248797027,-2.687610487992044,2.0644690990448,0.2634081542491913,0.5546151995658875,-0.07277927547693253,-0.9665258526802063,0.24603070318698883,0.03573098033666611,1.559039831161499,-0.3314494788646698
1.2910156920427112,-2.854890395930806,-2.683862482454627,1.866996169090271,0.27905502915382385,0.40561234951019287,-0.07809101045131683,-0.9611160159111023,0.2648724913597107,-0.04004250466823578,1.6928056478500366,-0.26568132638931274
1.273279729562428,-2.8571051939204097,-2.67843748285462,1.6052730083465576,0.31381112337112427,0.30267637968063354,-0.08227623254060745,-0.9560674428939819,0.2813640236854553,-0.07693395018577576,1.7766088247299194,-0.2061077356338501
1.2585721898427926,-2.858527030542874,-2.6735408578282707,1.2873142957687378,0.3292067348957062,0.2412458062171936,-0.08579444140195847,-0.9516527056694031,0.29495155811309814,-0.08388325572013855,1.8160936832427979,-0.14060890674591064
1.2471844772255671,-2.8585920231414916,-2.670296091100146,0.9495604038238525,0.2621003985404968,0.20132368803024292,-0.08879577368497849,-0.948093056678772,0.3053438067436218,-0.08043941855430603,1.8197208642959595,-0.1192171573638916
1.2390075885165421,-2.857475500546339,-2.669200371452143,0.6462035179138184,0.1698751598596573,0.19026394188404083,-0.09130673855543137,-0.9454612135887146,0.3126758635044098,-0.06376829743385315,1.7815666198730469,-0.17481279373168945
1.2334135993543258,-2.854938566012816,-2.6705066034255203,0.4120027720928192,0.08631423115730286,0.20726662874221802,-0.09359347075223923,-0.9436242580413818,0.31751081347465515,-0.0374336838722229,1.7066402435302734,-0.2594054341316223
1.2296486814483354,-2.851618833827118,-2.6736760429907864,0.2547789216041565,-0.01826779544353485,0.2025764435529709,-0.09566229581832886,-0.9423713088035583,0.3206009864807129,-0.010187909007072449,1.6198616027832031,-0.33012259006500244
1.2272445992779064,-2.8488641402361243,-2.6771971836177655,0.1424635797739029,-0.0916900783777237,0.15635168552398682,-0.09719858318567276,-0.9415642619132996,0.32250455021858215,-0.0003965795040130615,1.5571191310882568,-0.3809458017349243
1.2259648271896568,-2.84766236810028,-2.67973205294381,0.05438164621591568,-0.14368166029453278,0.07647033035755157,-0.0979350358247757,-0.9411324262619019,0.3235403001308441,0.008976355195045471,1.5163278579711914,-0.4043051302433014
1.2257876523907947,-2.8485592726766127,-2.680647348685473,-0.03744228184223175,-0.20923909544944763,-0.0064269499853253365,-0.0976930558681488,-0.9410725235939026,0.3237878978252411,0.02913534641265869,1.5008716583251953,-0.397152304649353
1.2268896605731712,-2.8512683550633477,-2.6802451557032754,-0.16953778266906738,-0.24935674667358398,-0.08649297058582306,-0.09651871770620346,-0.9414446353912354,0.3230579197406769,0.06793902814388275,1.5094681978225708,-0.38961681723594666
1.2298636282877677,-2.8551915137642783,-2.678664654631793,-0.3766118884086609,-0.2328728437423706,-0.18796367943286896,-0.09445898234844208,-0.9424431920051575,0.32074615359306335,0.09215494990348816,1.5366969108581543,-0.36884191632270813
1.2355282116643609,-2.8602378711027936,-2.675556831334308,-0.6580387949943542,-0.18774907290935516,-0.3328266739845276,-0.09135564416646957,-0.9443221092224121,0.3160857558250427,0.08673226088285446,1.5512555837631226,-0.3197173774242401
1.244617605621951,-2.8672966156307784,-2.6697617021592173,-0.9829881191253662,-0.12643778324127197,-0.5329341888427734,-0.08679352700710297,-0.9472736716270447,0.3084470331668854,0.05740513652563095,1.5344318151474,-0.26784345507621765
1.2573387435292478,-2.878223468234934,-2.659210312583174,-1.2748736143112183,-0.050244126468896866,-0.781328558921814,-0.08027413487434387,-0.9512731432914734,0.2977169454097748,0.017270632088184357,1.4839880466461182,-0.24717989563941956
1.2729659507466708,-2.8955192786907293,-2.641249976260964,-1.450700044631958,0.004415122792124748,-1.0478116273880005,-0.07148285210132599,-0.9559754133224487,0.2846069037914276,-0.01535489410161972,1.3994722366333008,-0.2655945122241974
1.2902963862035992,-2.922996841406526,-2.6127642842877257,-1.5267356634140015,-0.05790643393993378,-1.3277761936187744,-0.06003439798951149,-0.9609171748161316,0.2702481150627136,-0.03890356421470642,1.2940623760223389,-0.3020017147064209
1.3084235640740405,-2.9654878282061676,-2.5703948410777833,-1.573103666305542,-0.29181426763534546,-1.5911273956298828,-0.04544119909405708,-0.9657772779464722,0.255361944437027,-0.08619633316993713,1.2151057720184326,-0.32733771204948425
1.326848326940553,-3.024120021773652,-2.514253400392819,-1.6571518182754517,-0.549435019493103,-1.6880310773849487,-0.02830870822072029,-0.9703919291496277,0.2398717850446701,-0.10837948322296143,1.1530547142028809,-0.34344837069511414
1.3455025004809125,-3.0921681821147744,-2.4507907052298723,-1.8111807107925415,-0.6974892020225525,-1.5223842859268188,-0.011036583222448826,-0.974728524684906,0.22312015295028687,-0.03460243344306946,1.0728577375411987,-0.31261301040649414
1.3650417674091657,3.123050071890678,-2.388562617092016,-2.0487051010131836,-0.7201443314552307,-1.1796848773956299,0.003788141766563058,-0.9789071083068848,0.20427078008651733,0.07104098796844482,0.9923043251037598,-0.1990981101989746
1.3865781842743745,3.060174440791224,-2.3314946229515723,-2.3567943572998047,-0.64398592710495,-0.8144679069519043,0.014897490851581097,-0.9830797910690308,0.1825704276561737,0.13389098644256592,0.9318103790283203,-0.07400418817996979
1.4110819852795742,2.9999747981576648,-2.2760525845330704,-2.714043378829956,-0.44583871960639954,-0.5336297154426575,0.022447019815444946,-0.9872727394104004,0.157443106174469,0.16119253635406494,0.8399493098258972,-0.010150104761123657
1.4389857006352937,2.9335742145645805,-2.211642806128553,-3.0845704078674316,-0.07560528069734573,-0.34285634756088257,0.02714281715452671,-0.9913255572319031,0.128595232963562,0.17254900932312012,0.6637652516365051,-0.038049712777137756
1.4699047700206407,2.8408213347311464,-2.1174072041793077,-3.412551164627075,0.22103513777256012,-0.21731828153133392,0.029839076101779938,-0.9949147701263428,0.09619873762130737,0.20124006271362305,0.3499715328216553,-0.16841864585876465
1.5023709285999907,2.670161874326953,-1.9432030264355182,-3.645204544067383,0.353164941072464,-0.06718285381793976,0.031051669269800186,-0.9976599216461182,0.06091343238949776,0.2053680419921875,-0.10953307151794434,-0.3258519172668457
1.5317489816815315,2.234789764767365,-1.5038797064235099,-3.706401824951172,0.2832545340061188,0.10771779716014862,0.030744478106498718,-0.9992377758026123,0.024058282375335693,0.14360249042510986,-0.6312096118927002,-0.47783946990966797
1.5401551421524704,1.1530473894356763,-0.4199383285927698,-3.5526936054229736,0.04278869554400444,0.467018723487854,0.028003744781017303,-0.9995306134223938,-0.012430169619619846,0.06658554077148438,-1.1242334842681885,-0.5657864212989807
1.5201441181075204,0.4223984816461548,0.3107016203451879,-3.150825023651123,-0.1264914721250534,0.9704038500785828,0.020756004378199577,-0.9987174272537231,-0.04618065059185028,0.16198328137397766,-1.4361884593963623,-0.5945969820022583
1.4950759803707674,0.12627941131412013,0.6059704488594747,-2.6093430519104004,-0.1464979350566864,1.1980388164520264,0.009527310729026794,-0.9971345663070679,-0.07504481077194214,0.2148989737033844,-1.541515827178955,-0.5844553709030151
1.471763440891771,-0.015850992094239014,0.7471202249544183,-2.176187038421631,-0.15966545045375824,0.9305236339569092,-0.001567122875712812,-0.9951002597808838,-0.09885764122009277,0.09217384457588196,-1.6008926630020142,-0.466816246509552
1.4510819369949521,-0.0617395573804799,0.7917906621399311,-1.9245668649673462,-0.1222192719578743,0.14001329243183136,-0.007368795573711395,-0.9928427934646606,-0.11920121312141418,-0.06639215350151062,-1.7450569868087769,-0.3040471076965332
1.4326264798192372,-0.02529549125652355,0.75408485538996,-1.800779938697815,-0.06126238778233528,-0.9601953029632568,-0.0034835876431316137,-0.9904696941375732,-0.1376863718032837,-0.2714187204837799,-1.9362423419952393,-0.2160733938217163
1.4147879871342912,0.06961992180384857,0.6577686653292689,-1.6798814535140991,-0.02003532461822033,-1.8764718770980835,0.010808533988893032,-0.9878553748130798,-0.15499967336654663,-0.3507438004016876,-2.1452012062072754,-0.17411720752716064
1.3964946459645717,0.18367802341793013,0.5421546740247133,-1.4319534301757812,0.040065839886665344,-2.2662622928619385,0.031674716621637344,-0.984847903251648,-0.17050327360630035,-0.20252734422683716,-2.332672119140625,-0.13821262121200562
1.379436245066086,0.28684931635560446,0.4379516631831355,-0.966898500919342,0.07868433743715286,-2.145486354827881,0.05381186679005623,-0.9817464351654053,-0.18242253363132477,-0.016671929508447647,-2.4373512268066406,-0.13947688043117523
1.366785593649838,0.36835108581238524,0.35502834942565525,-0.3605969250202179,-0.05499109625816345,-1.7050060033798218,0.07295098155736923,-0.9792618751525879,-0.18900814652442932,0.11097846925258636,-2.465348482131958,-0.20445498824119568
1.3610404064098551,0.427214059741458,0.2935307155128808,0.2794983685016632,-0.19097556173801422,-1.0404309034347534,0.08627393841743469,-0.9780817627906799,-0.18950749933719635,0.2193291187286377,-2.432318687438965,-0.25499632954597473
1.363249553750592,0.46596776048601535,0.25206891358234984,0.839972972869873,-0.1393195241689682,-0.32140421867370605,0.09258025139570236,-0.9785393476486206,-0.1840914636850357,0.31525668501853943,-2.334601402282715,-0.240453839302063
1.3724117888119172,0.48950990739966194,0.22732822921921134,1.2121726274490356,-0.0036799265071749687,0.25294429063796997,0.09266841411590576,-0.9803862571716309,-0.17394065856933594,0.3172284662723541,-2.149923801422119,-0.14483074843883514
1.3860302393866204,0.5024158784894892,0.21465039845865724,1.3854243755340576,0.09310697764158249,0.5868523716926575,0.08846772462129593,-0.9829792380332947,-0.16101330518722534,0.25229158997535706,-1.9417033195495605,-0.021283507347106934
1.4016407251992609,0.510216926666053,0.20809102508614247,1.4374479055404663,0.17606736719608307,0.6954137086868286,0.08221631497144699,-0.9857272505760193,-0.14690835773944855,0.1549205482006073,-1.767354965209961,0.03646518290042877
1.4176364756016135,0.5197928973882225,0.20061007411999135,1.456039309501648,0.26353269815444946,0.6534361839294434,0.07577729970216751,-0.9882939457893372,-0.132411390542984,0.056867390871047974,-1.6440454721450806,0.013682723045349121
1.4335603818748286,0.5380990393577857,0.18510178832546606,1.5160763263702393,0.318339467048645,0.5598021149635315,0.07011301070451736,-0.9905979037284851,-0.11747203022241592,0.006974413990974426,-1.544115662574768,-0.05486074835062027
1.4496960127762117,0.571467883182694,0.15459960716927007,1.6395806074142456,0.2989431917667389,0.4735325872898102,0.06533928215503693,-0.992676317691803,-0.10160975158214569,0.013380825519561768,-1.4290919303894043,-0.1509690284729004
1.466501317980211,0.6266904577312286,0.10197890485613774,1.791688084602356,0.29048311710357666,0.45163553953170776,0.06105496734380722,-0.9945662021636963,-0.08432330936193466,0.06449437141418457,-1.2939164638519287,-0.2497984766960144
1.4840612417274677,0.7119023274404335,0.019364864866092738,1.9226953983306885,0.3053807318210602,0.49471020698547363,0.056590400636196136,-0.9962408542633057,-0.06558606028556824,0.13162678480148315,-1.1689660549163818,-0.3241692781448364
1.5020166054045856,0.8449753203406353,-0.1108980016551307,2.0319197177886963,0.3337516486644745,0.5837705731391907,0.05140325799584389,-0.9976356029510498,-0.045616261661052704,0.1792333722114563,-1.0382530689239502,-0.364890992641449
1.5193626048333881,1.0727537836984289,-0.33564749238122765,2.139000177383423,0.3460147976875305,0.6839141845703125,0.04516511410474777,-0.9986775517463684,-0.0245591439306736,0.2151346206665039,-0.8807932138442993,-0.4179915189743042
1.5327613899220542,1.5083317924441848,-0.7681703813305404,2.2610080242156982,0.34350529313087463,0.7633165717124939,0.03795439749956131,-0.9992767572402954,-0.0023738921154290438,0.23752781748771667,-0.7003693580627441,-0.4756840467453003
1.534299295544139,2.1820592922271245,-1.4389461588833565,2.3678534030914307,0.332563191652298,0.8377025127410889,0.029882684350013733,-0.9993340373039246,0.020941797643899918,0.26394060254096985,-0.5128729343414307,-0.5120307207107544
1.5208793717991558,2.703697543369709,-1.9579077232156317,2.448378562927246,0.28155115246772766,0.8762192726135254,0.021158158779144287,-0.9987543821334839,0.045189306139945984,0.2791500985622406,-0.3182469606399536,-0.5159077644348145
1.4997609366669733,2.9676668267255044,-2.219988684346248,2.4737439155578613,0.18889397382736206,0.870194137096405,0.012282607145607471,-0.9974780678749084,0.06990627199411392,0.2564857602119446,-0.1041608452796936,-0.5142728090286255
1.476020696192669,3.10528107258974,-2.3562249661354793,2.4526314735412598,0.18862472474575043,0.8722301125526428,0.003435588674619794,-0.9955121278762817,0.09457254409790039,0.23389965295791626,0.09484684467315674,-0.4964890480041504
1.4515434326701495,-3.0946381298473096,-2.4377921494030867,2.4124138355255127,0.2460210621356964,0.8905872106552124,-0.005584130063652992,-0.9928978085517883,0.11883893609046936,0.23478642106056213,0.2591179609298706,-0.467181921005249
1.4268994171849783,-3.0381993152727467,-2.4919799744950932,2.3823258876800537,0.29113370180130005,0.886204719543457,-0.014800326898694038,-0.9896646738052368,0.14263539016246796,0.22645503282546997,0.4184061288833618,-0.4358483552932739
1.4022606728689946,-2.9987915816259396,-2.5287081907284463,2.354861259460449,0.3301675617694855,0.8426145315170288,-0.023871928453445435,-0.9858314394950867,0.16603124141693115,0.20551258325576782,0.579383134841919,-0.4133610725402832
1.3778404842745224,-2.97171946422355,-2.5526867775061244,2.314818859100342,0.36483848094940186,0.7618783712387085,-0.03241859748959541,-0.9814417362213135,0.18900075554847717,0.1812528669834137,0.7343255877494812,-0.38266539573669434
1.354037170354111,-2.9537806713373964,-2.567163344347876,2.2447469234466553,0.38098886609077454,0.6571884751319885,-0.04015502706170082,-0.9765995740890503,0.2112845927476883,0.1448150873184204,0.8853061199188232,-0.3357352912425995
1.3313057663238728,-2.942868862076381,-2.5744259794795923,2.139470338821411,0.38809046149253845,0.5304625034332275,-0.04682908207178116,-0.9714589715003967,0.23253889381885529,0.09559619426727295,1.037880539894104,-0.29485586285591125
1.310038329881714,-2.9378320979516412,-2.5755697802621262,1.9959014654159546,0.3877677917480469,0.3660287857055664,-0.052169423550367355,-0.9661948084831238,0.25247979164123535,0.02145352214574814,1.177147388458252,-0.27791628241539
1.2908573553090599,-2.938108908753141,-2.5714825274853914,1.7863540649414062,0.3368050158023834,0.19517342746257782,-0.05583469942212105,-0.9610723257064819,0.2705962657928467,-0.06501486897468567,1.303830623626709,-0.22317197918891907
1.274251989831933,-2.942149793866451,-2.564073995565964,1.5406922101974487,0.27615728974342346,0.06657645851373672,-0.0578949935734272,-0.9563519954681396,0.286424458026886,-0.12353196740150452,1.4047009944915771,-0.15699949860572815
1.260294991484293,-2.947406983468627,-2.555842868118687,1.2846641540527344,0.246265709400177,0.007667870260775089,-0.05895857512950897,-0.9521805047988892,0.29979366064071655,-0.14351025223731995,1.4766708612442017,-0.11951112747192383
1.2488486265010845,-2.951382964588406,-2.549042189676625,1.0401716232299805,0.24911054968833923,0.022239308804273605,-0.059822820127010345,-0.9486209154129028,0.310707688331604,-0.14063185453414917,1.5355961322784424,-0.09403303265571594
1.2395565716089687,-2.95280238968186,-2.5449425783824764,0.8335251808166504,0.2414686381816864,0.06829947978258133,-0.06103353202342987,-0.9456399083137512,0.3194374740123749,-0.14372414350509644,1.585974931716919,-0.08706140518188477
1.2320640678974173,-2.9521603375948633,-2.543295160157374,0.6589155197143555,0.19591563940048218,0.09942009299993515,-0.06257104873657227,-0.9431766867637634,0.3263477385044098,-0.15627047419548035,1.628906488418579,-0.09835085272789001
1.2261707439647151,-2.9508270055715538,-2.5429571211002466,0.5005306601524353,0.13127325475215912,0.09595505148172379,-0.06405900418758392,-0.9412019848823547,0.3317161500453949,-0.16396832466125488,1.6621949672698975,-0.1141258180141449
1.2219149775243394,-2.9496439360148092,-2.5431136839153052,0.32887768745422363,0.07866498827934265,0.07295286655426025,-0.0652148500084877,-0.9397556781768799,0.33556851744651794,-0.153245210647583,1.6724827289581299,-0.12746921181678772
1.2195465113165063,-2.94863626601707,-2.5435645328852687,0.1216142475605011,0.0427410788834095,0.04651753231883049,-0.06597963720560074,-0.9389434456825256,0.3376863896846771,-0.12615898251533508,1.6642088890075684,-0.130243182182312
1.2195026628101509,-2.9475901342810946,-2.5443230960585823,-0.12478265166282654,0.021715085953474045,0.003019314259290695,-0.066340871155262,-0.9389283061027527,0.3376579284667969,-0.09645510464906693,1.6461272239685059,-0.127986878156662
1.222129001391079,-2.9467590849900587,-2.545244275934772,-0.40302199125289917,-0.03545898571610451,-0.04587792232632637,-0.06614364683628082,-0.9398288726806641,0.3351813554763794,-0.08604747802019119,1.6267642974853516,-0.13732078671455383
1.2276347241162717,-2.946336270394688,-2.546447956883176,-0.6797432899475098,-0.1089816763997078,-0.09363242983818054,-0.06528042256832123,-0.9416956305503845,0.33007219433784485,-0.08088348060846329,1.6026606559753418,-0.15790727734565735
1.2357785135223314,-2.94649733147958,-2.5477765630939273,-0.9242275953292847,-0.164228156208992,-0.13755486905574799,-0.06373852491378784,-0.9444044232368469,0.3225489556789398,-0.07572676986455917,1.5662152767181396,-0.19228467345237732
1.2462294602398287,-2.947044661394845,-2.5491864464492258,-1.1291356086730957,-0.21099653840065002,-0.17437976598739624,-0.06165046617388725,-0.9477889537811279,0.312882661819458,-0.07400015741586685,1.5294080972671509,-0.22139093279838562
1.2585308505301824,-2.9482888178995004,-2.5504402497123837,-1.2888197898864746,-0.27980995178222656,-0.22215022146701813,-0.059016868472099304,-0.9516400098800659,0.3014940023422241,-0.0587962344288826,1.4956920146942139,-0.24703535437583923
1.2723369585292204,-2.951155484358521,-2.5507079472813055,-1.4144976139068604,-0.3385979235172272,-0.29169371724128723,-0.05565990135073662,-0.955790638923645,0.28873252868652344,-0.03754077106714249,1.463007926940918,-0.2643338143825531
1.2874223650008827,-2.956712296166326,-2.548601299434501,-1.5144505500793457,-0.3644404411315918,-0.3882378339767456,-0.051397912204265594,-0.9601175785064697,0.274831622838974,-0.03235753998160362,1.4263803958892822,-0.2742976248264313
1.3034592578888657,-2.966404047197534,-2.5423217846261883,-1.5633909702301025,-0.359596312046051,-0.5247818827629089,-0.046042103320360184,-0.9644777774810791,0.2601202726364136,-0.013253506273031235,1.3718111515045166,-0.290134459733963
1.3200740863699632,-2.983676031389757,-2.5283271351395844,-1.5842171907424927,-0.3950307369232178,-0.7464995980262756,-0.03901706263422966,-0.9687334895133972,0.24501657485961914,-0.0048213861882686615,1.3024280071258545,-0.30812692642211914
1.337157140626493,-3.0145163762257785,-2.5010223573882184,-1.5982033014297485,-0.46745651960372925,-1.0294784307479858,-0.02934141829609871,-0.9728302955627441,0.22965189814567566,-0.04986691102385521,1.2376161813735962,-0.29828599095344543
1.3542492572283318,-3.06234867446242,-2.4570884230973604,-1.587483525276184,-0.5311668515205383,-1.2542438507080078,-0.017008448019623756,-0.9766451716423035,0.2141844928264618,-0.04593402147293091,1.1366031169891357,-0.3102996349334717
1.3707580115059463,-3.1270174916718156,-2.3969398852811508,-1.5870097875595093,-0.6304391026496887,-1.3631775379180908,-0.0028960953932255507,-0.9800589680671692,0.1986866593360901,0.019863903522491455,0.9882070422172546,-0.3161488473415375
1.3864896633338455,3.077114495705465,-2.3231695320693455,-1.6177362203598022,-0.6763365864753723,-1.3489303588867188,0.011808451265096664,-0.9830635786056519,0.18288491666316986,0.09793281555175781,0.8336494565010071,-0.27915263175964355
1.4014899527990412,2.9885415735487695,-2.2397559287872806,-1.6803454160690308,-0.5949838757514954,-1.225929617881775,0.025688251480460167,-0.985701858997345,0.16652844846248627,0.18181604146957397,0.6671900153160095,-0.24752213060855865
1.4165767972468846,2.891824935032472,-2.1471089869453244,-1.8865909576416016,-0.45976078510284424,-1.0871672630310059,0.03796892985701561,-0.9881317019462585,0.14884260296821594,0.21341967582702637,0.5317718982696533,-0.1899498701095581
1.4333268081160782,2.777486581669318,-2.0360302682229765,-2.286156177520752,-0.4459768831729889,-0.9772921800613403,0.04880063235759735,-0.9905659556388855,0.1280527263879776,0.19958198070526123,0.4807698726654053,-0.0695505291223526
1.45235003324961,2.620577776545937,-1.8828358009372406,-2.8072659969329834,-0.5462571382522583,-0.9303299784660339,0.05881984159350395,-0.9929934144020081,0.10248962789773941,0.15332311391830444,0.4402591586112976,-0.034908540546894073
1.4716890753919065,2.3779688153672596,-1.6444636517053113,-3.3347535133361816,-0.5641903281211853,-0.8885455131530762,0.06842546164989471,-0.9950928688049316,0.07147212326526642,0.07433578372001648,0.32379770278930664,-0.139068603515625
1.4861282857588902,2.002374976149463,-1.2730089218718412,-3.796412467956543,-0.5661274790763855,-0.6992224454879761,0.07681220024824142,-0.9964178204536438,0.035374563187360764,0.06590326875448227,0.07283389568328857,-0.27521228790283203
1.4888738410118867,1.5127415328133014,-0.7875579868752416,-4.1138834953308105,-0.5874929428100586,-0.21828582882881165,0.08169146627187729,-0.9966462254524231,-0.004747916478663683,0.2080119252204895,-0.28690773248672485,-0.392941951751709
1.4775738339786166,1.0444628076917641,-0.32321119453699976,-4.15904426574707,-0.5264703631401062,0.42848625779151917,0.08048765361309052,-0.9956579208374023,-0.04676351696252823,0.4444452226161957,-0.7103813886642456,-0.5126695036888123
1.456400406420867,0.6985923197252358,0.019965998666679707,-3.882329225540161,-0.36044666171073914,0.8972097635269165,0.07341218739748001,-0.993463933467865,-0.0874074399471283,0.4924905598163605,-1.1061148643493652,-0.6363475322723389
1.4312740746607007,0.4722678031480578,0.24518265338650436,-3.3836116790771484,-0.2246619164943695,1.0379431247711182,0.06326417624950409,-0.9902825355529785,-0.12384776026010513,0.3980700969696045,-1.3835272789001465,-0.6704638004302979
1.4063158876664992,0.3340061351312791,0.3833759079042635,-2.8171279430389404,-0.10187344998121262,0.8051393628120422,0.05367902293801308,-0.986503541469574,-0.15469138324260712,0.2952437400817871,-1.5487899780273438,-0.6049827337265015
1.3834028149188446,0.2615459527898947,0.4565114124178597,-2.3064754009246826,0.003583730198442936,0.2605748772621155,0.04817204177379608,-0.9824931621551514,-0.17996293306350708,0.1658019721508026,-1.6387226581573486,-0.5220482349395752
1.3625817084940597,0.23993765270014095,0.4789727764589455,-1.9598915576934814,0.08591284602880478,-0.4414076507091522,0.04912373796105385,-0.9784015417098999,-0.2007913887500763,0.06283003091812134,-1.7093424797058105,-0.4708089828491211
1.3423719395081957,0.25422186250116646,0.4659634188177585,-1.836341381072998,0.2434670776128769,-1.0645782947540283,0.056948646903038025,-0.9740244150161743,-0.21916481852531433,0.04877954348921776,-1.7968647480010986,-0.38316071033477783
1.321162689247931,0.2877522396515342,0.4350917926740336,-1.8513169288635254,0.4789973497390747,-1.4311844110488892,0.07011182606220245,-0.9690030217170715,-0.23689109086990356,0.10072561353445053,-1.9139925241470337,-0.22218488156795502
1.2990925689672959,0.3265986523155639,0.4012256718465993,-1.7985461950302124,0.7213759422302246,-1.529680848121643,0.08610040694475174,-0.9633150696754456,-0.25418680906295776,0.13785287737846375,-2.0640439987182617,-0.09675014019012451
1.2781072290224165,0.3630316790726811,0.37130069211451766,-1.5479161739349365,0.8001598119735718,-1.4271471500396729,0.10245928913354874,-0.9574714303016663,-0.26972338557243347,0.12900133430957794,-2.203829288482666,-0.1038728654384613
1.260723995225688,0.3937376273498084,0.3476532835760344,-1.1397438049316406,0.8113794922828674,-1.126197099685669,0.11705990135669708,-0.9523115158081055,-0.28177952766418457,0.09247379750013351,-2.288517951965332,-0.16190031170845032
1.2487480782014282,0.4164374637184222,0.3320895561187827,-0.6707831621170044,0.7615219950675964,-0.6925856471061707,0.12802989780902863,-0.9485891461372375,-0.28945979475975037,0.06845754384994507,-2.3336219787597656,-0.1862482726573944
1.2427769500096981,0.4308513089018155,0.32435303446795544,-0.21969537436962128,0.6399231553077698,-0.2524799108505249,0.13455191254615784,-0.9466822743415833,-0.29272574186325073,-0.01205432415008545,-2.32100248336792,-0.18830758333206177
1.2423601512831468,0.43773151891284384,0.3229081927640194,0.17082513868808746,0.46295806765556335,0.12395083904266357,0.13672994077205658,-0.9465479254722595,-0.2921503782272339,-0.10667012631893158,-2.2788243293762207,-0.210245281457901
1.2466358462835345,0.4381986024249665,0.32651973690713093,0.4993681311607361,0.31831514835357666,0.43852636218070984,0.13514797389507294,-0.9479184746742249,-0.2884191870689392,-0.16058433055877686,-2.23042631149292,-0.26127874851226807
1.2550220523478468,0.4337505920651767,0.33396209083642936,0.8264549970626831,0.20827002823352814,0.6772892475128174,0.13051818311214447,-0.950556218624115,-0.2817942798137665,-0.16663570702075958,-2.1771292686462402,-0.2993367314338684
1.2674788842753222,0.42779177528509443,0.34196177991617477,1.2382346391677856,0.12068559229373932,0.7847017645835876,0.12391439825296402,-0.9543508887290955,-0.27177128195762634,-0.16659319400787354,-2.0950264930725098,-0.34866636991500854
1.2842406759996263,0.42493992346290604,0.3456983938709087,1.7149691581726074,0.021220017224550247,0.7840555310249329,0.11652713268995285,-0.9592230916023254,-0.2575123906135559,-0.14673949778079987,-1.9470269680023193,-0.43252065777778625
1.3051580041454336,0.42870090213468515,0.34157241996025683,2.163780927658081,-0.05608169361948967,0.7318910956382751,0.10912898182868958,-0.9649251103401184,-0.23876835405826569,-0.07972525805234909,-1.7477823495864868,-0.5174573063850403
1.3294159902918121,0.4422855185187409,0.32685032612337833,2.5123484134674072,-0.07197041809558868,0.636368453502655,0.10231202840805054,-0.9710089564323425,-0.21604157984256744,-0.004243761301040649,-1.5290977954864502,-0.5671768188476562
1.3556720663736574,0.46917336715847346,0.29857244636346425,2.7345824241638184,-0.055240172892808914,0.5233724117279053,0.09651975333690643,-0.9769498705863953,-0.19040189683437347,0.06401798129081726,-1.306894063949585,-0.5744907259941101
1.3827826627606346,0.5128114813700916,0.25366800670074885,2.867616653442383,-0.01342772040516138,0.4472377896308899,0.0917024090886116,-0.9823774099349976,-0.16286562383174896,0.14450368285179138,-1.091475009918213,-0.5738135576248169
1.40997839708679,0.5779384192910264,0.18766372348384155,2.943721294403076,0.04053857550024986,0.4203028380870819,0.0874762088060379,-0.9870966672897339,-0.13411948084831238,0.23045596480369568,-0.8797855973243713,-0.59378582239151
1.4366522854787773,0.6725697060843362,0.09270732692454263,2.9887137413024902,0.09608174115419388,0.4395364820957184,0.08332102000713348,-0.991016149520874,-0.10461612045764923,0.3102794885635376,-0.6751367449760437,-0.6232892274856567
1.4620918458602024,0.8125475650626066,-0.04725210349637451,3.019183874130249,0.10505020618438721,0.4963286519050598,0.0787680372595787,-0.9940974712371826,-0.07460308074951172,0.3707711696624756,-0.4754611849784851,-0.6426973342895508
1.4848528836466688,1.0290793036284411,-0.2637160542503787,3.042093276977539,0.10394525527954102,0.562283456325531,0.07354769855737686,-0.9963091611862183,-0.04425850510597229,0.3991391062736511,-0.26838505268096924,-0.6521068811416626
1.5016879752813668,1.3704562323894862,-0.6051005831298618,3.0390124320983887,0.08969255536794662,0.6166127324104309,0.06767191737890244,-0.9976129531860352,-0.013741739094257355,0.39703452587127686,-0.05530446767807007,-0.654867947101593
1.507282699772035,1.8341705644241768,-1.0690492763158965,2.994147300720215,0.06017380952835083,0.6595293283462524,0.06128230318427086,-0.9979836940765381,0.016524026170372963,0.38074958324432373,0.15340971946716309,-0.6360766887664795
1.4994136974344443,2.274105652340444,-1.5093115183325538,2.912104845046997,0.07310611754655838,0.7140676379203796,0.054398562759160995,-0.9974533319473267,0.04612787812948227,0.363188773393631,0.34716951847076416,-0.5902410745620728
1.4823671995255605,2.5816709562613265,-1.816797312987904,2.8180859088897705,0.14113840460777283,0.7741569876670837,0.04690580070018768,-0.996092677116394,0.07482893019914627,0.347732275724411,0.518523097038269,-0.5357969999313354
1.460919941961161,2.780233727263028,-2.014509806660523,2.7219316959381104,0.22446365654468536,0.8193553686141968,0.03876849636435509,-0.9939696788787842,0.10257434844970703,0.3159831166267395,0.6858793497085571,-0.49676990509033203
1.4375936107819316,2.9127021573078458,-2.1452088059239345,2.6377112865448,0.3190668523311615,0.8520606160163879,0.03013419732451439,-0.9911416172981262,0.1293461173772812,0.2604999840259552,0.8556740283966064,-0.4412510395050049
1.4135593392340313,3.00693982557754,-2.2369690194062746,2.544675350189209,0.3538599908351898,0.8864105939865112,0.02102159708738327,-0.9876636862754822,0.15517233312129974,0.22293594479560852,1.0060505867004395,-0.3783780336380005
1.389621797078022,3.0775715894040667,-2.3050754947070624,2.424884796142578,0.3408955931663513,0.9152712821960449,0.011527761816978455,-0.9836327433586121,0.17981594800949097,0.17574340105056763,1.1328637599945068,-0.31204867362976074
1.3663447899210936,3.13272772055828,-2.3579246127302356,2.281550168991089,0.313233345746994,0.9292792081832886,0.0017998239491134882,-0.9791724681854248,0.2030220329761505,0.09959486126899719,1.2467963695526123,-0.24506010115146637
1.3441673925561346,-3.1064095481956775,-2.3999217655243488,2.108846426010132,0.2823592722415924,0.9151796698570251,-0.007903791964054108,-0.9744293689727783,0.22455467283725739,0.00956705305725336,1.3602783679962158,-0.20209373533725739
1.3235614969659315,-3.070954522514887,-2.433832503059552,1.9050413370132446,0.20833857357501984,0.8851379156112671,-0.017272453755140305,-0.969592809677124,0.24411341547966003,-0.0661168098449707,1.468311071395874,-0.17747832834720612
1.3048494029394464,-3.0420268369268855,-2.4620253111130155,1.6877204179763794,0.1233983263373375,0.8559236526489258,-0.02612495794892311,-0.9648440480232239,0.26152122020721436,-0.1116313636302948,1.5601047277450562,-0.16624537110328674
1.2881869517222737,-3.017312247972436,-2.4866996259913625,1.4642257690429688,0.07494717091321945,0.8431811928749084,-0.03456798195838928,-0.9603310227394104,0.2767115533351898,-0.13176804780960083,1.6376991271972656,-0.15348172187805176
1.273631359782981,-2.9947101509753318,-2.509589500265217,1.2350815534591675,0.056630928069353104,0.8433380126953125,-0.0428541898727417,-0.9561704397201538,0.2896570861339569,-0.1281052529811859,1.6991209983825684,-0.13465839624404907
1.2612428233189548,-2.9729455734900894,-2.531873749499187,0.9930806159973145,0.03790384158492088,0.8552865386009216,-0.05113239213824272,-0.9524697065353394,0.30031177401542664,-0.10281351208686829,1.7401282787322998,-0.09662222862243652
1.2511997103054011,-2.951442638707726,-2.554214741305033,0.7295924425125122,0.016413740813732147,0.8543930649757385,-0.05938255414366722,-0.9493622183799744,0.30852019786834717,-0.0697983056306839,1.7673097848892212,-0.058367788791656494
1.2437663183260481,-2.9301531570648347,-2.5765358344119607,0.43427103757858276,0.007940626703202724,0.8220811486244202,-0.06741619110107422,-0.9470005631446838,0.3140781819820404,-0.0484437420964241,1.786447525024414,-0.036810725927352905
1.2393732083598195,-2.909114994186951,-2.598703859112441,0.0987854152917862,0.006775170564651489,0.7597305178642273,-0.074966199696064,-0.945580244064331,0.3166359066963196,-0.03375264257192612,1.789314866065979,-0.025894969701766968
1.238440147829369,-2.888261058580662,-2.6206525778961924,-0.2629221975803375,0.011997364461421967,0.6607309579849243,-0.08177365362644196,-0.9452762007713318,0.3158579468727112,-0.033659063279628754,1.76633620262146,-0.02241620421409607
1.2411486112217471,-2.8680847232732924,-2.6419566483006833,-0.6139596104621887,-0.009497200138866901,0.5262283086776733,-0.0874374583363533,-0.9461564421653748,0.3116772770881653,-0.04401698708534241,1.7367143630981445,-0.03769052028656006
1.2474698751659712,-2.8491845025226477,-2.662289572114452,-0.9471402168273926,-0.0675668939948082,0.36270588636398315,-0.09158632159233093,-0.9481837749481201,0.3042358160018921,-0.053814634680747986,1.7105433940887451,-0.07013559341430664
1.2571549608475845,-2.832485401221498,-2.6809372322059937,-1.237011194229126,-0.13127125799655914,0.17805907130241394,-0.09385575354099274,-0.9512163996696472,0.2939022481441498,-0.05876260995864868,1.6763293743133545,-0.10576152801513672
1.269847025015453,-2.818024290315173,-2.697714716104973,-1.4769610166549683,-0.1721140295267105,-0.003843617392703891,-0.09424957633018494,-0.9550555348396301,0.28104475140571594,-0.04797758162021637,1.6336596012115479,-0.13900065422058105
1.2851327970305033,-2.8059541099114558,-2.7122155752870345,-1.6707861423492432,-0.1921636015176773,-0.19415321946144104,-0.0928153321146965,-0.9594748616218567,0.2660706341266632,-0.026599936187267303,1.584230661392212,-0.16952833533287048
1.3026679136039048,-2.796968908755649,-2.7235787872655357,-1.828684687614441,-0.20176509022712708,-0.38620495796203613,-0.08950366079807281,-0.9642684459686279,0.24935010075569153,0.0050768256187438965,1.538487195968628,-0.19461679458618164
1.3221711524068414,-2.791703880467772,-2.7312168078469323,-1.9595459699630737,-0.2161569893360138,-0.5668830871582031,-0.0843515545129776,-0.9692516326904297,0.2311619222164154,0.04707438498735428,1.4862347841262817,-0.21602526307106018
1.3434160993172257,-2.7904125852221218,-2.7347178877205516,-2.0732388496398926,-0.201158344745636,-0.7294573187828064,-0.07754809409379959,-0.9742603302001953,0.21166814863681793,0.08418568968772888,1.4159107208251953,-0.23524296283721924
1.366357778006648,-2.7937632798390393,-2.7331917295602275,-2.2060985565185547,-0.1717115044593811,-0.9033425450325012,-0.06919993460178375,-0.9791751503944397,0.19085919857025146,0.08764786273241043,1.3370243310928345,-0.2382226288318634
1.3914821529016566,-2.804252138082053,-2.7244128594810753,-2.4076929092407227,-0.20868469774723053,-1.0910924673080444,-0.05903152748942375,-0.9839662313461304,0.16830210387706757,0.04922017455101013,1.273181438446045,-0.20062029361724854
1.419324894695013,-2.823429420328955,-2.7076920283131707,-2.67379093170166,-0.3340763747692108,-1.2014930248260498,-0.04720289632678032,-0.9885501265525818,0.14332044124603271,0.014533869922161102,1.22355055809021,-0.15590904653072357
1.4497106564494078,-2.8482003882861773,-2.686834468252329,-2.9214770793914795,-0.4845670759677887,-1.135583519935608,-0.03493277356028557,-0.9926781058311462,0.11562898010015488,0.03976982831954956,1.155977725982666,-0.16805827617645264
1.4813883060192456,-2.8695861780749254,-2.6709892174223717,-3.026599645614624,-0.6328782439231873,-0.9385684728622437,-0.02398914098739624,-0.9960057735443115,0.08600740134716034,0.10718008875846863,1.006335973739624,-0.2386869192123413
1.5127548204836778,-2.8777507935352133,-2.669391557701599,-2.980949640274048,-0.6583175659179688,-0.7427585124969482,-0.015129056759178638,-0.9983160495758057,0.0560046024620533,0.11443328857421875,0.7852574586868286,-0.3256884813308716
1.5425417634079275,-2.843307175440895,-2.7100217201583288,-2.8072590827941895,-0.5571581721305847,-0.5784063339233398,-0.008302908390760422,-0.999600887298584,0.02700495906174183,0.1126272976398468,0.5492529273033142,-0.4003112316131592
1.5677672487804541,-1.530596046981467,2.255269210764286,-2.615065336227417,-0.4796455204486847,-0.44988059997558594,-0.003081326140090823,-0.9999954104423523,-0.00012393694487400353,0.16355806589126587,0.28524309396743774,-0.46945005655288696
1.5448124015976712,0.02086049282111974,0.6989805216331897,-2.5640969276428223,-0.4763132333755493,-0.2783636450767517,0.0005419343942776322,-0.999662458896637,-0.025975216180086136,0.27495554089546204,0.017866194248199463,-0.48527055978775024
1.5183604240523085,0.039130247432416436,0.6763122676434032,-2.730219602584839,-0.3937051594257355,-0.056172389537096024,0.002050436334684491,-0.9986255764961243,-0.05237353965640068,0.39699745178222656,-0.2505963444709778,-0.4816078543663025
1.4893962353263326,0.017224997273236183,0.6950655262614702,-3.0563902854919434,-0.23405694961547852,0.1346820592880249,0.0014005106640979648,-0.9966888427734375,-0.081298828125,0.4281954765319824,-0.5274810791015625,-0.4769135117530823
1.4572208789694945,-0.0038241386040107164,0.7148647640161055,-3.3381083011627197,-0.030558684840798378,0.18168233335018158,-0.0004333940742071718,-0.9935572147369385,-0.11333061009645462,0.31865546107292175,-0.8072392344474792,-0.49332839250564575
1.4233542626604414,-0.01028853330698352,0.7219058725865595,-3.373586416244507,0.11706789582967758,0.023822853341698647,-0.0015114548150449991,-0.9891501069068909,-0.14690154790878296,0.11818018555641174,-1.0759897232055664,-0.528299868106842
1.3908036029854325,-0.0004740641462537542,0.7131798261833698,-3.074989080429077,0.106501005589962,-0.2833203077316284,-8.486843580612913e-05,-0.9838449954986572,-0.17902310192584991,-0.041785210371017456,-1.3152426481246948,-0.5550620555877686
1.3627091297593306,0.022176688680158648,0.6908745003641187,-2.491421699523926,0.0450766459107399,-0.6387027502059937,0.0045810844749212265,-0.9784278869628906,-0.20653821527957916,-0.06991919875144958,-1.5253257751464844,-0.6190690994262695
1.3407257872456149,0.055087116452168454,0.6574420115321085,-1.8345543146133423,0.020448531955480576,-0.9661384224891663,0.012556049041450024,-0.973650336265564,-0.2277001589536667,-0.023374497890472412,-1.699964165687561,-0.6585150957107544
1.3242805533911959,0.09538203506813468,0.616455765052819,-1.3127366304397583,0.07969348132610321,-1.1900538206100464,0.02324049361050129,-0.9697685241699219,-0.24291758239269257,0.04019033908843994,-1.8126716613769531,-0.575350284576416
1.3113405036525778,0.14003794734849476,0.571661827292235,-1.0136830806732178,0.17900142073631287,-1.3260045051574707,0.03581005707383156,-0.9665297269821167,-0.2540430426597595,0.06827017664909363,-1.8862686157226562,-0.41584837436676025
1.2996916675661645,0.18664709779490674,0.5257812350633178,-0.9016671180725098,0.2885841131210327,-1.4089701175689697,0.049693625420331955,-0.9634756445884705,-0.263144850730896,0.018314838409423828,-1.9497628211975098,-0.28162455558776855
1.2881494212692157,0.23273950372110502,0.48156397224903674,-0.846656858921051,0.4245888292789459,-1.4144047498703003,0.0643262267112732,-0.9603205919265747,-0.2713787257671356,-0.0510663166642189,-2.0138919353485107,-0.20382580161094666
1.276883607598606,0.2755652196910765,0.4418322572006145,-0.7445017099380493,0.5070961117744446,-1.3184641599655151,0.07882457226514816,-0.9571176767349243,-0.27876952290534973,-0.07993844151496887,-2.0642902851104736,-0.13701725006103516
1.2671704279234468,0.31273592700497344,0.4082926349349915,-0.518807053565979,0.5000401139259338,-1.1101382970809937,0.0919857770204544,-0.9542586803436279,-0.2844802439212799,-0.07968718558549881,-2.121974229812622,-0.10924234986305237
1.2606348885826277,0.34176583365746566,0.38275959517419866,-0.21352125704288483,0.4362931251525879,-0.7435559630393982,0.10229229182004929,-0.9522843360900879,-0.2875601053237915,-0.05236551910638809,-2.166581630706787,-0.10962620377540588
1.2584002949801205,0.3599792394875975,0.36804620223952167,0.09995277971029282,0.4132844805717468,-0.24092668294906616,0.10826180875301361,-0.9515998959541321,-0.2876403033733368,0.0022271275520324707,-2.146895408630371,-0.09514176845550537
1.2607208993244063,0.3658410968367906,0.3662427531426423,0.36087924242019653,0.4038146436214447,0.2979951798915863,0.10915584862232208,-0.9523105621337891,-0.2849380373954773,0.0415705144405365,-2.054220199584961,-0.08458411693572998
1.2668484607962895,0.35925481432519557,0.377080496799702,0.5397437810897827,0.3416348993778229,0.7244674563407898,0.10522318631410599,-0.9541623592376709,-0.28018248081207275,0.022141963243484497,-1.932983636856079,-0.08640998601913452
1.2756503001379005,0.3426812610174047,0.39773914298054497,0.68888258934021,0.29194286465644836,1.001988172531128,0.09773948788642883,-0.9567596912384033,-0.2739669382572174,-0.05202409625053406,-1.8238799571990967,-0.13701337575912476
1.286472603899231,0.31923207206145526,0.42497948929114593,0.8529778122901917,0.23164862394332886,1.151643991470337,0.08803403377532959,-0.9598515629768372,-0.2663360834121704,-0.0949004665017128,-1.7510401010513306,-0.22891846299171448
1.2992603088167416,0.29169590605372303,0.4555296722219386,1.0871747732162476,0.13007184863090515,1.2004332542419434,0.07713139057159424,-0.963360071182251,-0.256881445646286,-0.09873781353235245,-1.679034948348999,-0.30816683173179626
1.3146810213517652,0.2615500185409549,0.4874659787766736,1.4272379875183105,0.004273708909749985,1.2413843870162964,0.06550415605306625,-0.9673813581466675,-0.24470892548561096,-0.07647520303726196,-1.577845573425293,-0.3985101580619812
1.3336809293054614,0.22782269388980844,0.5218296956661147,1.843289852142334,-0.08116710931062698,1.2991141080856323,0.05305378884077072,-0.972019612789154,-0.22883018851280212,0.01010236144065857,-1.4542193412780762,-0.49056077003479004
1.3564847445313735,0.18842691363988753,0.561041658305546,2.232525587081909,-0.1508156955242157,1.3486993312835693,0.03983699157834053,-0.9771230220794678,-0.2089107483625412,0.09279245138168335,-1.2889292240142822,-0.5291874408721924
1.3824024753520407,0.13949697966726174,0.6091887049144677,2.5371694564819336,-0.1931276172399521,1.384837031364441,0.026040496304631233,-0.9823063015937805,-0.1854618489742279,0.1631227433681488,-1.1036311388015747,-0.520760715007782
1.4102915414147523,0.07445821364059706,0.6732035934012861,2.7397048473358154,-0.1995980441570282,1.4099128246307373,0.011888659559190273,-0.9871467351913452,-0.1593737006187439,0.23769938945770264,-0.9179588556289673,-0.5378309488296509
1.4388428390272028,-0.018465239073718057,0.7650694452054273,2.85917067527771,-0.2089938074350357,1.4123001098632812,-0.0024293356109410524,-0.9913067817687988,-0.1315476894378662,0.30325639247894287,-0.7584184408187866,-0.5768263936042786
1.4666316836878626,-0.16062735249073892,0.906008719742232,2.9349184036254883,-0.22568170726299286,1.383108377456665,-0.016629893332719803,-0.9945797920227051,-0.10263895243406296,0.3455941677093506,-0.6207767724990845,-0.6081765294075012
1.491663108395677,-0.39514009090377233,1.1391840942083662,2.996586561203003,-0.22643525898456573,1.3381808996200562,-0.030429720878601074,-0.9968705773353577,-0.07295960187911987,0.37666693329811096,-0.47801345586776733,-0.6458057165145874
1.5097077842244793,-0.7990452494405993,1.5418782651705678,3.059967041015625,-0.19936981797218323,1.3004889488220215,-0.043753091245889664,-0.9981346726417542,-0.042574893683195114,0.41004037857055664,-0.3302038311958313,-0.6930360794067383
1.5129337651370844,-1.3707522210986447,2.112665061475845,3.127413511276245,-0.17321817576885223,1.2698943614959717,-0.05667416378855705,-0.9983264207839966,-0.011491023935377598,0.43429872393608093,-0.1897227168083191,-0.712675929069519
1.4986198150883447,-1.855056843147743,2.5962778002838824,3.1874027252197266,-0.1549888253211975,1.2394901514053345,-0.06922072172164917,-0.9973964095115662,0.02022441290318966,0.44834062457084656,-0.04789173603057861,-0.7047489881515503
1.4738087289023878,-2.1427622547178626,2.883588993821609,3.228620767593384,-0.1174255833029747,1.219253659248352,-0.08142297714948654,-0.9953004121780396,0.05241568759083748,0.4587118327617645,0.10841381549835205,-0.6937426328659058
1.4443347828340207,-2.307433381941648,3.0483238858241473,3.2333736419677734,-0.06922157108783722,1.1984935998916626,-0.0934242531657219,-0.9920144081115723,0.0847303494811058,0.4755959212779999,0.26713043451309204,-0.6823256015777588
1.4129988621623817,-2.4088357301966057,-3.1327466216839706,3.2145488262176514,0.01149657741189003,1.1590901613235474,-0.10511600226163864,-0.9875757694244385,0.11680922657251358,0.475416362285614,0.4248470664024353,-0.6672548055648804
1.3812968384020021,-2.475811742249637,-3.064106553142974,3.132319450378418,0.11799532175064087,1.094777226448059,-0.11634945869445801,-0.9820986390113831,0.14813855290412903,0.4676525890827179,0.5804873108863831,-0.6288667917251587
1.3503613492764992,-2.522124492401469,-3.015078230728271,2.9883968830108643,0.21908943355083466,1.00460684299469,-0.1269509196281433,-0.9758024215698242,0.17802521586418152,0.4384286105632782,0.7289610505104065,-0.5581369400024414
