attitudeX,attitudeY,attitudeZ,gyroX,gyroY,gyroZ,gravityX,gravityY,gravityZ,accX,accY,accZ
1.2760142232528209,-0.287576566612919,0.1507045819576545,0.3847227096557617,-0.31485801935195923,-0.7258866429328918,-0.08240313082933426,-0.9568654894828796,-0.2786003053188324,-0.18494614958763123,-0.041196584701538086,-0.12842795252799988
1.2827365581719599,-0.26883245522172583,0.12736752107018062,0.5349082350730896,-0.40768542885780334,-0.9065099358558655,-0.07545661181211472,-0.9587968587875366,-0.27388814091682434,-0.11854364722967148,-0.07326173782348633,-0.11103007197380066
1.290821099893259,-0.24831803425861196,0.10088718138300122,0.6365252137184143,-0.5865892171859741,-0.9144142270088196,-0.06791514903306961,-0.9610623121261597,-0.2678559124469757,-0.027894794940948486,-0.08826935291290283,-0.06618958711624146
1.2992795270815887,-0.2316505416370946,0.07606025806287325,0.6757607460021973,-0.8602999448776245,-0.7763599157333374,-0.06157293543219566,-0.9633651971817017,-0.2610293924808502,0.060077548027038574,-0.06953275203704834,-0.006899714469909668
1.3073847910904106,-0.2239536212405203,0.057645067458762494,0.673079252243042,-1.1432652473449707,-0.5213624835014343,-0.057825908064842224,-0.9655073285102844,-0.2538735568523407,0.14704403281211853,-0.041023433208465576,0.039945244789123535
1.3146340291219825,-0.22886071689453674,0.04938174346824119,0.6442571878433228,-1.428082823753357,-0.21162757277488708,-0.05748153477907181,-0.9673694372177124,-0.24676336348056793,0.2129686176776886,-0.04447132349014282,0.05349546670913696
1.3210360091399447,-0.24800052452350257,0.05290631527210246,0.645948588848114,-1.6999664306640625,0.0765058770775795,-0.06067228317260742,-0.9689716696739197,-0.2396095246076584,0.22833585739135742,-0.08493757247924805,0.030380964279174805
1.3269669653361071,-0.2795256517614079,0.06699970320462549,0.6764732003211975,-1.8438184261322021,0.2603071331977844,-0.0666079968214035,-0.9704205989837646,-0.2320505976676941,0.15951871871948242,-0.1178058385848999,0.014978975057601929
1.3327140149590007,-0.3178314605144346,0.08702587219154649,0.6911750435829163,-1.9177279472351074,0.28830355405807495,-0.07370173931121826,-0.9717920422554016,-0.22402803599834442,0.049409739673137665,-0.11968457698822021,0.016935676336288452
1.3382633282515304,-0.35597417928533837,0.10589013058516789,0.638154149055481,-2.040881395339966,0.15585015714168549,-0.08031028509140015,-0.9730858206748962,-0.21599611639976501,-0.06382426619529724,-0.09667736291885376,0.03289055824279785
1.343663526571901,-0.3882738880832604,0.11692795805504674,0.5465941429138184,-2.2708754539489746,-0.08753277361392975,-0.08525301516056061,-0.9743160605430603,-0.20842291414737701,-0.13314607739448547,-0.07187223434448242,0.046847522258758545
1.349218406316754,-0.41151926166631286,0.11601993163136089,0.4607120156288147,-2.5347509384155273,-0.3862939178943634,-0.08790846168994904,-0.9755519032478333,-0.20142227411270142,-0.17646533250808716,-0.0696600079536438,0.05368658900260925
1.3555015182554775,-0.4233577593943874,0.10108329989734371,0.4307962954044342,-2.7203595638275146,-0.7094238996505737,-0.08776666224002838,-0.9769134521484375,-0.19477473199367523,-0.1814899444580078,-0.0708160400390625,0.049190640449523926
1.3632046610818038,-0.42380768602369323,0.07293517057568716,0.49911704659461975,-2.8568458557128906,-0.9830319881439209,-0.08475704491138458,-0.9785301089286804,-0.18786996603012085,-0.14500978589057922,-0.030136823654174805,0.036792635917663574
1.372749068051993,-0.4180938547892346,0.03663627631462582,0.640375018119812,-3.1321640014648438,-1.099574327468872,-0.07988624274730682,-0.9804526567459106,-0.17980724573135376,-0.07618068903684616,0.05786055326461792,0.005307689309120178
1.3836306214737992,-0.4121766243162382,-0.0024447386656973927,0.7373804450035095,-3.285139322280884,-1.1409345865249634,-0.07454248517751694,-0.9825356006622314,-0.17049136757850647,-0.02517375349998474,0.18857502937316895,0.024022221565246582
1.3953005477672016,-0.4046255482405707,-0.04309095217446304,0.8178157806396484,-3.154703140258789,-1.107514500617981,-0.06873401999473572,-0.9846401214599609,-0.16049738228321075,0.03070906549692154,0.2633267045021057,0.01958240568637848
1.407399362149824,-0.39896692747966994,-0.07953900987417983,0.9271137714385986,-2.878417730331421,-0.9525638222694397,-0.06319193542003632,-0.9866803884506226,-0.14989452064037323,0.10115580260753632,0.3235183358192444,-0.002479761838912964
1.4200005027484,-0.4007628003413663,-0.10567152695706049,1.0751062631607056,-2.629260540008545,-0.7762430906295776,-0.05860578268766403,-0.9886518120765686,-0.13832144439220428,0.17669352889060974,0.3963209390640259,-0.021667003631591797
1.4335166027386843,-0.4128390249213639,-0.11875057354527131,1.2541569471359253,-2.3326191902160645,-0.6434789299964905,-0.054905105382204056,-0.9905919432640076,-0.12535105645656586,0.23541653156280518,0.4658117890357971,-0.025375351309776306
1.4473934826877481,-0.4445896736652404,-0.1070453739618716,1.375523567199707,-1.709705114364624,-0.19404686987400055,-0.052939336746931076,-0.9923955202102661,-0.11112380027770996,0.4490879774093628,0.5621435046195984,0.040033042430877686
1.4597547574315093,-0.5146774797748278,-0.053466580329364244,1.3718117475509644,-1.7054362297058105,0.14398843050003052,-0.05454856529831886,-0.9938412308692932,-0.0964580699801445,0.6583845615386963,0.5776119828224182,0.1244884729385376
1.4697289955596191,-0.617394682482771,0.031644450554779,1.2587867975234985,-1.9035853147506714,0.28261691331863403,-0.05840977653861046,-0.9948970675468445,-0.08226924389600754,0.40882784128189087,0.733468234539032,0.11907339096069336
1.4771018081190745,-0.7363368328396809,0.13082529927264164,1.0870238542556763,-2.135568141937256,0.2866087257862091,-0.06283091753721237,-0.9956138730049133,-0.06931960582733154,0.2744702696800232,0.7992638349533081,0.16166573762893677
1.4821243082701083,-0.8569789055476394,0.22926681335995333,0.8831255435943604,-2.364081382751465,0.24737659096717834,-0.06693626940250397,-0.9960712194442749,-0.057979412376880646,0.2806966006755829,0.7981647849082947,0.17602133750915527
1.4851299601261778,-0.9659316043455363,0.31415124339766215,0.657363772392273,-2.4803478717803955,0.19650648534297943,-0.07038044184446335,-0.9963328838348389,-0.048654165118932724,0.28815382719039917,0.7965649366378784,0.16771841049194336
1.486614120866981,-1.0575226924355492,0.3813997188502275,0.4776681959629059,-2.3833043575286865,0.17131808400154114,-0.07324870675802231,-0.9964587688446045,-0.04128769785165787,0.25697973370552063,0.8353259563446045,0.13770794868469238
1.4868970032916815,-1.135238406777968,0.4368603148863725,0.38140156865119934,-2.0781590938568115,0.21215073764324188,-0.07597704976797104,-0.9964824914932251,-0.03535707667469978,0.26184433698654175,0.9055095911026001,0.07368713617324829
1.4860024482899374,-1.2028920047022384,0.48595244405755167,0.30783993005752563,-1.6362568140029907,0.27822285890579224,-0.0790259838104248,-0.996407151222229,-0.030460894107818604,0.28419560194015503,0.9797903299331665,0.05731630325317383
1.4837864872340936,-1.2585861310921282,0.5278058714133904,0.21489453315734863,-1.170728325843811,0.38326993584632874,-0.08269954472780228,-0.9962170124053955,-0.026692617684602737,0.2965361475944519,1.059861421585083,0.06351202726364136
1.47981475284063,-1.2987186651709968,0.5579916478820853,0.06023847311735153,-0.8558481335639954,0.5307432413101196,-0.08751227706670761,-0.9958640336990356,-0.024415595456957817,0.3168213367462158,1.1325218677520752,0.10720974206924438
1.4736711719784492,-1.318582609215995,0.5700834709943658,-0.16492806375026703,-0.7271279692649841,0.7144712805747986,-0.09390444308519363,-0.9952870607376099,-0.02419929765164852,0.34591853618621826,1.1774159669876099,0.164442777633667
1.4650510820054325,-1.3177395339044347,0.5617125112933897,-0.42784613370895386,-0.7943352460861206,0.9063547253608704,-0.1021856963634491,-0.9944141507148743,-0.026425279676914215,0.3734411597251892,1.2090139389038086,0.21719062328338623
1.4540200202460993,-1.3017392303891433,0.536048848342546,-0.6838299632072449,-1.1295816898345947,1.066790223121643,-0.11231958121061325,-0.9931893944740295,-0.03097136877477169,0.3731990456581116,1.2408242225646973,0.25907498598098755
1.4408884993817055,-1.2791250283718083,0.4993063414611532,-0.9019610285758972,-1.6473785638809204,1.194428563117981,-0.12407218664884567,-0.9915738105773926,-0.037250667810440063,0.3312254548072815,1.25565767288208,0.2785836458206177
1.4260219474898364,-1.2585090160373433,0.45843805714399144,-1.0249834060668945,-2.345299243927002,1.2994139194488525,-0.13729137182235718,-0.9895384907722473,-0.04432470723986626,0.2747577428817749,1.2596189975738525,0.2635018825531006
1.409861701239775,-1.250767406350862,0.422252028700254,-1.0027278661727905,-3.243988275527954,1.430474877357483,-0.15210503339767456,-0.9870779514312744,-0.05041087791323662,0.22144094109535217,1.274355173110962,0.20562326908111572
1.3924177429578966,-1.2630014851707847,0.3978126143006416,-0.836969792842865,-3.9506490230560303,1.6263642311096191,-0.16909503936767578,-0.984132707118988,-0.05375494062900543,0.1910218745470047,1.2639026641845703,0.10371214151382446
1.3736908305890156,-1.2936900058733931,0.38763486349683596,-0.6028904318809509,-4.068012714385986,1.83912992477417,-0.18836019933223724,-0.9806375503540039,-0.053574156016111374,0.18941304087638855,1.183076024055481,-0.040160588920116425
1.353498198170168,-1.331330882497215,0.38712240751815147,-0.46694618463516235,-3.439561605453491,2.049081563949585,-0.20944015681743622,-0.9764835238456726,-0.0511348582804203,0.17123211920261383,1.0752995014190674,-0.13955426216125488
1.3311503743047746,-1.359928853695567,0.38714582744010495,-0.5497914552688599,-2.1973421573638916,2.301668167114258,-0.232101708650589,-0.9714220762252808,-0.04968125373125076,0.19178791344165802,0.995195209980011,-0.08563370257616043
1.3058247840698651,-1.3684479477550981,0.38063915381269686,-0.816605269908905,-0.7717239260673523,2.572808265686035,-0.2565385401248932,-0.9650999307632446,-0.05263044312596321,0.2437211573123932,0.9537475109100342,0.029314998537302017
1.2771626595117604,-1.3561025052858575,0.3653005959138121,-1.200270175933838,0.2020391970872879,2.8471341133117676,-0.2827870547771454,-0.9571985006332397,-0.06166297569870949,0.236827552318573,0.9534754753112793,0.13940644264221191
1.244698968810723,-1.330701249450486,0.34199364178670133,-1.6370820999145508,0.3050745129585266,3.1399428844451904,-0.31115904450416565,-0.9472997784614563,-0.07617717236280441,0.19680964946746826,0.9267920851707458,0.20139074325561523
1.2083550074594556,-1.3055445247377848,0.31418111557189127,-1.9621152877807617,-0.6209691762924194,3.3927500247955322,-0.34215813875198364,-0.9350340366363525,-0.09294825792312622,0.10001632571220398,0.8355313539505005,0.20009541511535645
1.1696143700362012,-1.2943091160654085,0.2875101508981798,-1.968797206878662,-2.0971508026123047,3.4899823665618896,-0.3756754398345947,-0.9206000566482544,-0.10659974813461304,-0.08927515149116516,0.6838600039482117,0.13089174032211304
1.1313451457034358,-1.3035488188469158,0.26737243339060485,-1.6343879699707031,-3.3325467109680176,3.388453483581543,-0.41034048795700073,-0.9049853086471558,-0.11235002428293228,-0.34110918641090393,0.4670274257659912,-0.030823245644569397
1.0960300690716156,-1.3280185490141925,0.25498308507663014,-1.207823634147644,-3.6087777614593506,3.1351354122161865,-0.44372472167015076,-0.8893995881080627,-0.10989412665367126,-0.5888375639915466,0.15636742115020752,-0.21325653791427612
1.0644438872625357,-1.3527757268166207,0.24674453545225375,-1.026401400566101,-2.6401267051696777,2.8205244541168213,-0.47350966930389404,-0.8745193481445312,-0.10490226000547409,-0.781830906867981,-0.11815637350082397,-0.2372150421142578
1.035811554260229,-1.3635030147072325,0.23693283385610248,-1.1476082801818848,-1.2183643579483032,2.5705673694610596,-0.4989131987094879,-0.8602764010429382,-0.1049286350607872,-0.9143253564834595,-0.21728390455245972,-0.045309409499168396
1.0085693637836044,-1.359855803182517,0.2239013785084905,-1.280900001525879,-0.37572383880615234,2.4870259761810303,-0.5212557911872864,-0.8460700511932373,-0.11161435395479202,-1.0240323543548584,-0.17417824268341064,0.10963065177202225
0.980934553773247,-1.3526664852269301,0.21165591070530967,-1.1448817253112793,-0.3222030997276306,2.6444358825683594,-0.5430651307106018,-0.8310175538063049,-0.12037395685911179,-1.098399043083191,-0.17090493440628052,-0.025088123977184296
0.9512647200620339,-1.3532014077591326,0.20623103778267043,-0.7093040347099304,-0.6967800855636597,3.017483949661255,-0.5669617652893066,-0.8141505122184753,-0.1253526508808136,-1.0105071067810059,-0.3084843158721924,-0.3100416660308838
0.9187386772176352,-1.3652841987703328,0.21014330869712142,-0.21222150325775146,-1.0597572326660156,3.3979060649871826,-0.5940535068511963,-0.7948368787765503,-0.12383350729942322,-0.8688676357269287,-0.5668574571609497,-0.46153944730758667
0.884464659535474,-1.3844746231294416,0.22027446434759299,0.07017475366592407,-1.1387724876403809,3.497751235961914,-0.6227356791496277,-0.7735758423805237,-0.11739075928926468,-0.9277709126472473,-0.8401935696601868,-0.3688305616378784
0.8511765935179605,-1.4025898559638001,0.23040644722443637,-0.0016951784491539001,-0.9067848920822144,3.2289674282073975,-0.6497965455055237,-0.7520564198493958,-0.1103426069021225,-1.1929768323898315,-1.0597110986709595,-0.14089339971542358
0.8212075966481295,-1.4140974908685253,0.23531455706764348,-0.33713600039482117,-0.6852328777313232,2.764472246170044,-0.6729898452758789,-0.7319691181182861,-0.10632843524217606,-1.4382925033569336,-1.2456459999084473,0.06992090493440628
0.7955019550885709,-1.4195229666390148,0.23326987393636373,-0.7205790281295776,-0.7236154675483704,2.2585229873657227,-0.6919330954551697,-0.7142150402069092,-0.10547684133052826,-1.5762553215026855,-1.3970825672149658,0.17267656326293945
0.7742143495060645,-1.4223119437011837,0.22544003081367495,-0.9855109453201294,-0.9418405890464783,1.7835681438446045,-0.7071031332015991,-0.6991545557975769,-0.10577225685119629,-1.6218457221984863,-1.5349913835525513,0.1018507108092308
0.7569548486001573,-1.4249424420894363,0.21437751006969116,-1.072791576385498,-1.0860224962234497,1.403050184249878,-0.7192122340202332,-0.6867110133171082,-0.10565014183521271,-1.5384783744812012,-1.6602585315704346,-0.06750662624835968
0.7430108723579022,-1.4273290645034438,0.20255502696915426,-1.0219954252243042,-0.9541617631912231,1.1082947254180908,-0.7288691401481628,-0.6765083074569702,-0.10529226064682007,-1.3809025287628174,-1.7643486261367798,-0.22087961435317993
0.7318992000926811,-1.4273193944440699,0.19147075113133913,-0.9084526300430298,-0.49904540181159973,0.8523271083831787,-0.736262857913971,-0.6682836413383484,-0.10636761784553528,-1.2731518745422363,-1.8391015529632568,-0.3170485496520996
0.723502613206646,-1.4227328387785827,0.18154292105336348,-0.7968727350234985,0.09476222842931747,0.5885686874389648,-0.7412909865379333,-0.6620138883590698,-0.11056728661060333,-1.2313194274902344,-1.8880805969238281,-0.34422093629837036
0.7177495431535607,-1.4131997928650217,0.1724949954985776,-0.7164005041122437,0.5944865345954895,0.34388354420661926,-0.7439525127410889,-0.6576911211013794,-0.11822473257780075,-1.1929523944854736,-1.8969199657440186,-0.3312229514122009
0.7143900860729561,-1.3997771265203318,0.1637881717270854,-0.6895723938941956,0.9203038811683655,0.10271858423948288,-0.7444717884063721,-0.6551567316055298,-0.1285749226808548,-1.104283094406128,-1.8603613376617432,-0.2908281683921814
0.7134525308637202,-1.3839725269986005,0.15481201559947608,-0.6667845249176025,1.0222675800323486,-0.1668252795934677,-0.7429499626159668,-0.6544481515884399,-0.14043846726417542,-0.9794926643371582,-1.793381929397583,-0.24689064919948578
0.7154777798128348,-1.3685189657718781,0.14579611298932801,-0.5728671550750732,0.8535425066947937,-0.4985499382019043,-0.7393910884857178,-0.6559780836105347,-0.15163585543632507,-0.8705331683158875,-1.7168550491333008,-0.22942189872264862
0.7211129824635267,-1.3560190631584688,0.13761774883723987,-0.3846205174922943,0.5596853494644165,-0.8521447777748108,-0.7338147163391113,-0.6602209806442261,-0.16007570922374725,-0.7888293862342834,-1.6462516784667969,-0.24640314280986786
0.7305160691620477,-1.3477339577955039,0.13119357321204256,-0.1390014886856079,0.24108023941516876,-1.1831300258636475,-0.7263767123222351,-0.6672540903091431,-0.1647692173719406,-0.7151668667793274,-1.5796329975128174,-0.2748669981956482
0.7435116013795375,-1.3439361825031455,0.1269390181633855,0.10219515860080719,-0.04607827961444855,-1.4782330989837646,-0.7172355651855469,-0.676876962184906,-0.1655621975660324,-0.6873055100440979,-1.5110044479370117,-0.2750963568687439
0.759638328221799,-1.3435825982523557,0.12457116818950716,0.2762148380279541,-0.16883909702301025,-1.7232246398925781,-0.7064487934112549,-0.6886592507362366,-0.16333536803722382,-0.7010829448699951,-1.428222894668579,-0.2471565455198288
0.7781556995938622,-1.3438974461833877,0.12328880870271529,0.3682129383087158,-0.05056837573647499,-1.905979037284851,-0.6939545273780823,-0.7019670605659485,-0.16021646559238434,-0.7225799560546875,-1.3440533876419067,-0.18440330028533936
0.7984245301363068,-1.3426586329456378,0.12230659245004326,0.3992680013179779,0.1639976054430008,-2.0591344833374023,-0.6797546148300171,-0.7162575721740723,-0.1578252911567688,-0.7666565775871277,-1.2591910362243652,-0.1290094256401062
0.8200509948081812,-1.3388106401223614,0.12068451533914491,0.3579346835613251,0.36001822352409363,-2.184337615966797,-0.6639092564582825,-0.7311806082725525,-0.15684117376804352,-0.8246771097183228,-1.1751760244369507,-0.09006127715110779
0.8425199934713516,-1.3321270419653948,0.11748743020579283,0.2639161944389343,0.4961715340614319,-2.2665512561798096,-0.6467171907424927,-0.746322751045227,-0.15735065937042236,-0.8719596266746521,-1.0817410945892334,-0.06883037090301514
0.8653655251453056,-1.3224339224392934,0.11202379479188271,0.1386120617389679,0.6179983615875244,-2.3237712383270264,-0.628467857837677,-0.7613323330879211,-0.15937837958335876,-0.9160878658294678,-0.9699756503105164,-0.06690949201583862
0.8883530209092871,-1.309228900731993,0.1039433409469214,0.022955244407057762,0.781297504901886,-2.367975950241089,-0.6092386245727539,-0.7760340571403503,-0.16309355199337006,-0.9639272689819336,-0.8449376225471497,-0.08293914794921875
0.9113220575991918,-1.2922057493451642,0.09353252141251961,-0.037141650915145874,0.9888573288917542,-2.3879873752593994,-0.5890781879425049,-0.7903144359588623,-0.16849343478679657,-0.9957149028778076,-0.6953575015068054,-0.12392598390579224
0.9341975708053815,-1.2717381712987272,0.0816561668536584,-0.026959320530295372,1.2026118040084839,-2.388378858566284,-0.568078339099884,-0.8041223287582397,-0.17514115571975708,-0.9943606853485107,-0.5409857630729675,-0.1841270476579666
0.9569615846290688,-1.248686945450379,0.0692111370218513,0.03546304628252983,1.3678920269012451,-2.3739895820617676,-0.5463822484016418,-0.8174452185630798,-0.18234527111053467,-0.9649245738983154,-0.3929734230041504,-0.23334991931915283
0.979648588521835,-1.2245673162401542,0.05686627440914103,0.1342109739780426,1.390737771987915,-2.3587985038757324,-0.5242428779602051,-0.8303015828132629,-0.18912632763385773,-0.9023013710975647,-0.24716722965240479,-0.24750399589538574
1.0025208689853813,-1.201396063418567,0.045040234706561266,0.25423189997673035,1.2390353679656982,-2.36612868309021,-0.5018758177757263,-0.8428303599357605,-0.1943129450082779,-0.8240671157836914,-0.10889071226119995,-0.2361374944448471
1.025762238436196,-1.1806586385447317,0.03379759997430156,0.36042991280555725,0.9905339479446411,-2.377535581588745,-0.47948941588401794,-0.8551096320152283,-0.19717365503311157,-0.7391080260276794,0.015143871307373047,-0.21266216039657593
1.0493875956878327,-1.1626119567156212,0.02293671488956809,0.45751917362213135,0.7462877631187439,-2.388424873352051,-0.4571794867515564,-0.8671183586120605,-0.19771836698055267,-0.6599927544593811,0.1342540979385376,-0.19357797503471375
1.0733973420093235,-1.1470641780649296,0.012539326301879617,0.5536829233169556,0.5552770495414734,-2.4001893997192383,-0.43494343757629395,-0.8788265585899353,-0.19618405401706696,-0.5815209150314331,0.2535213232040405,-0.18954291939735413
1.0978890741560674,-1.1333923527551604,0.002790208591929013,0.6585350036621094,0.4646955132484436,-2.4164671897888184,-0.4125952124595642,-0.8902478814125061,-0.19293488562107086,-0.4903894364833832,0.3588758707046509,-0.17751799523830414
1.1229316369948872,-1.1205666435614348,-0.006239607540403095,0.7622829675674438,0.4920847415924072,-2.438382625579834,-0.3898879289627075,-0.9013738632202148,-0.18844780325889587,-0.39983072876930237,0.4423895478248596,-0.1511213183403015
1.1485069830103312,-1.1074832216577752,-0.014680843657841716,0.8439351916313171,0.5984391570091248,-2.4491124153137207,-0.36664196848869324,-0.9121530652046204,-0.1831677109003067,-0.31939318776130676,0.5243510007858276,-0.1297595351934433
1.1743714305323818,-1.0931948083110998,-0.023073150654461923,0.8969001173973083,0.710416316986084,-2.4429540634155273,-0.34291568398475647,-0.9224473237991333,-0.1774815320968628,-0.24523434042930603,0.6142656207084656,-0.11582295596599579
1.2001644974888006,-1.0777886712318776,-0.03174907712996794,0.928007960319519,0.7419409155845642,-2.4052093029022217,-0.31907063722610474,-0.9320986866950989,-0.17142315208911896,-0.17607706785202026,0.6843875646591187,-0.11036090552806854
1.2256181354087747,-1.062348020378913,-0.04077083702538358,0.957177996635437,0.6284308433532715,-2.347208023071289,-0.2955613434314728,-0.9410151839256287,-0.1647232174873352,-0.10164019465446472,0.7371883988380432,-0.10862277448177338
1.2506727746938953,-1.0486973967822915,-0.04986710875070174,0.9914581775665283,0.36417415738105774,-2.2914352416992188,-0.2727597653865814,-0.9491965174674988,-0.15693293511867523,-0.04657620191574097,0.7934349179267883,-0.11099611222743988
1.275401206072186,-1.0389213152007841,-0.058203080893174365,1.0538314580917358,-0.006183387711644173,-2.2182905673980713,-0.2509019672870636,-0.9566872119903564,-0.1476403772830963,-0.006101816892623901,0.8579018712043762,-0.11735902726650238
1.2996737355159493,-1.0353563587215324,-0.06390486076094817,1.1349211931228638,-0.3663210868835449,-2.107558012008667,-0.2303311824798584,-0.9634708762168884,-0.13664349913597107,0.04269379377365112,0.9058842062950134,-0.10995382070541382
1.3232779705675402,-1.0392600032796422,-0.06505733324259722,1.2061518430709839,-0.6176849603652954,-1.9713718891143799,-0.2111956626176834,-0.9695234298706055,-0.12417937815189362,0.08659237623214722,0.94758141040802,-0.09165625274181366
1.345986199822138,-1.050762051997639,-0.06035299001312579,1.2495944499969482,-0.752355694770813,-1.8363703489303589,-0.19345152378082275,-0.9748364686965942,-0.11077176779508591,0.11761529743671417,0.9954816102981567,-0.05441993474960327
1.3678145886935404,-1.0691145528852593,-0.049863621130839364,1.266417384147644,-0.86417156457901,-1.7448831796646118,-0.1767495572566986,-0.9794698357582092,-0.09694503992795944,0.13248376548290253,1.0346914529800415,0.011053331196308136
1.388927598599064,-1.094655442702531,-0.033266631773782196,1.2704209089279175,-0.9746517539024353,-1.6723639965057373,-0.16075001657009125,-0.9835073947906494,-0.08290129154920578,0.14825302362442017,1.069307565689087,0.0913851261138916
1.4092230259893748,-1.1277079661486802,-0.00987625648738471,1.2329858541488647,-1.004030466079712,-1.5985442399978638,-0.145335853099823,-0.9869754314422607,-0.06897041946649551,0.1827198565006256,1.1090762615203857,0.16984623670578003
1.4283494775383838,-1.1665920879019005,0.019789499066576625,1.146740198135376,-0.879409909248352,-1.5034432411193848,-0.1305249035358429,-0.989871621131897,-0.05583304911851883,0.22840997576713562,1.145862340927124,0.22847098112106323
1.4459031867862029,-1.2089626912720677,0.05500715051766303,1.0239965915679932,-0.5952832102775574,-1.3883458375930786,-0.11650362610816956,-0.9922109842300415,-0.04409635812044144,0.2744167745113373,1.1807026863098145,0.25729215145111084
1.4615513041542039,-1.252360575883933,0.09432867819135611,0.8795562386512756,-0.2750149071216583,-1.245664358139038,-0.10354744642972946,-0.9940387010574341,-0.03413485735654831,0.3021710515022278,1.214863896369934,0.24359220266342163
1.4750959370640424,-1.2959808701688296,0.13670016531848367,0.7352462410926819,-0.030234908685088158,-1.0809309482574463,-0.09196902066469193,-0.995424211025238,-0.025930609554052353,0.30263179540634155,1.2401752471923828,0.19035929441452026
1.486278227624122,-1.3401019229317068,0.18161150331443482,0.6061532497406006,0.1442902833223343,-0.8694670796394348,-0.08218002319335938,-0.9964304566383362,-0.019302111119031906,0.2949485182762146,1.2552502155303955,0.12393158674240112
1.494673957496339,-1.38702459747205,0.23090512780471142,0.512290894985199,0.2990456521511078,-0.5998783707618713,-0.0747687891125679,-0.9971041083335876,-0.013897188007831573,0.32003849744796753,1.2711825370788574,0.06609749794006348
1.4999426842198145,-1.4385177105945073,0.28650851649774467,0.4623802900314331,0.4974157512187958,-0.30768224596977234,-0.07017748802900314,-0.9974909424781799,-0.009337506256997585,0.3611014783382416,1.3006525039672852,0.02307039499282837
1.5020584223570725,-1.494804831019689,0.34895252898708334,0.45048707723617554,0.6965876817703247,-0.022970693185925484,-0.06848608702421188,-0.997638463973999,-0.005214401055127382,0.3895461857318878,1.331287145614624,-0.008610069751739502
1.5012028920833236,-1.5526833597595715,0.4147497420176957,0.44475167989730835,0.8333250284194946,0.2323066145181656,-0.06952615827322006,-0.9975793361663818,-0.0012594627914950252,0.4054788649082184,1.3439080715179443,-0.029166579246520996
1.497736693654171,-1.6029697315979718,0.4737916736000215,0.39093196392059326,0.8667706847190857,0.4479614198207855,-0.07295739650726318,-0.9973323345184326,0.00234809797257185,0.4243519902229309,1.3411433696746826,-0.02961564064025879
1.492237139576801,-1.6366534558282735,0.5157661113611953,0.2912359833717346,0.7444735765457153,0.6051629781723022,-0.07830804586410522,-0.9969158172607422,0.005164611618965864,0.43826282024383545,1.3249340057373047,0.0013508796691894531
1.4855217006650416,-1.6518736430662313,0.5374716081040329,0.15948744118213654,0.5292781591415405,0.6980084776878357,-0.0848911702632904,-0.9963663220405579,0.006897869054228067,0.4281681180000305,1.3030527830123901,0.042601585388183594
1.4781614422809781,-1.65174495079641,0.5415530722243692,0.035262417048215866,0.31544917821884155,0.7558512687683105,-0.09220044314861298,-0.9957124590873718,0.007479843683540821,0.4143591821193695,1.290664792060852,0.06225275993347168
1.4703618434868853,-1.6416665232796526,0.533849067084074,-0.05568423867225647,0.17984841763973236,0.8062816262245178,-0.10001425445079803,-0.9949606657028198,0.00709992041811347,0.40328264236450195,1.2839164733886719,0.05935215950012207
1.4619969025472652,-1.6271577210662929,0.5208233881981718,-0.09983652085065842,0.14299532771110535,0.8807116150856018,-0.10841196030378342,-0.9940871596336365,0.006116727367043495,0.39874088764190674,1.2805862426757812,0.04341328144073486
1.452758073927134,-1.6125302576706773,0.5076199150458061,-0.10121419280767441,0.1573980450630188,0.9744302034378052,-0.11766175925731659,-0.9930415749549866,0.004913340788334608,0.408890962600708,1.2760921716690063,0.0290679931640625
1.4425022567534285,-1.5999893122493045,0.49652964458307264,-0.09844290465116501,0.1396251767873764,1.0779321193695068,-0.12788748741149902,-0.9917815923690796,0.003734478261321783,0.42757004499435425,1.2632660865783691,0.033664822578430176
1.4312432189492448,-1.589329581527667,0.48685045478073447,-0.10814451426267624,0.06921722739934921,1.1718239784240723,-0.13907583057880402,-0.9902782440185547,0.0025778228882700205,0.4416576027870178,1.2517073154449463,0.050721049308776855
1.4190323879150284,-1.5797673148084763,0.47749987469232424,-0.1295858919620514,-0.006692178547382355,1.2685351371765137,-0.15117551386356354,-0.9885059595108032,0.001356230117380619,0.45195674896240234,1.2457997798919678,0.06263911724090576
1.4057100200353927,-1.5712600839177304,0.4684691096057789,-0.13952036201953888,-0.0789676383137703,1.3932029008865356,-0.164337158203125,-0.9864041805267334,7.621252734679729e-05,0.4780730903148651,1.241515874862671,0.069000244140625
1.3910164487051866,-1.565078438720313,0.4608435577424751,-0.1257009506225586,-0.19796672463417053,1.5374436378479004,-0.17881056666374207,-0.9838830828666687,-0.0010224299039691687,0.5064166784286499,1.236873745918274,0.06660467386245728
1.3747925935174836,-1.562810838353763,0.45550972037604526,-0.09527452290058136,-0.4029207229614258,1.6959668397903442,-0.1947450041770935,-0.9808526635169983,-0.0015551671385765076,0.5270508527755737,1.2155786752700806,0.06234616041183472
1.356993192192345,-1.5644011294179554,0.452018396738589,-0.075660340487957,-0.5875076055526733,1.8524364233016968,-0.21217362582683563,-0.9772310256958008,-0.0013569106813520193,0.5327149629592896,1.1775941848754883,0.06709170341491699
1.337725033397795,-1.5683485195782598,0.4495401732989782,-0.04839899763464928,-0.662810206413269,1.982832431793213,-0.23096629977226257,-0.9729616045951843,-0.0005653621046803892,0.5142914056777954,1.146484613418579,0.07992631196975708
1.3173373274035907,-1.5733406363001214,0.4479576015585842,-0.032804589718580246,-0.6279374361038208,2.079662799835205,-0.2507530748844147,-0.9680508375167847,0.0006379947881214321,0.4685112237930298,1.1189298629760742,0.09068584442138672
1.2960879392331004,-1.576599971797191,0.44535815807893653,-0.09499382972717285,-0.5110581517219543,2.1584701538085938,-0.27126118540763855,-0.9625043272972107,0.0015743211843073368,0.41928666830062866,1.0635634660720825,0.08965790271759033
1.2739195864268174,-1.5754903357245482,0.43949171697414474,-0.2125617414712906,-0.3994474411010742,2.266143321990967,-0.29253190755844116,-0.9562548398971558,0.0013731574872508645,0.3819636404514313,0.9823626279830933,0.09835827350616455
1.2504771110787034,-1.5703733939191915,0.4303636156862966,-0.3285554349422455,-0.30806779861450195,2.415527820587158,-0.31486964225769043,-0.9491349458694458,-0.00013316872355062515,0.37561482191085815,0.9156572222709656,0.09443247318267822
1.2252681405391144,-1.5624054412649668,0.419251334333058,-0.4092516005039215,-0.20299890637397766,2.615370035171509,-0.3386816084384918,-0.9408966898918152,-0.0028419054578989744,0.38609063625335693,0.8615358471870422,0.08584970235824585
1.1978009881137097,-1.5537047849595338,0.4082485452088404,-0.42259377241134644,-0.11217448115348816,2.8539791107177734,-0.36435359716415405,-0.9312400221824646,-0.00622797105461359,0.3874247968196869,0.8061331510543823,0.060991764068603516
1.1678378877452091,-1.5456673667418588,0.39919896598695026,-0.3810548484325409,0.04764954373240471,3.0996792316436768,-0.3920174241065979,-0.919904887676239,-0.009853064082562923,0.3695412278175354,0.7217086553573608,0.013026834465563297
1.1356819205910798,-1.5388737732950153,0.39277271683612464,-0.325385719537735,0.1158970296382904,3.2761337757110596,-0.4212990701198578,-0.9068218469619751,-0.013453512452542782,0.3212777078151703,0.5688703656196594,-0.008442876860499382
1.1028110295142242,-1.5334896824842041,0.38796181029873744,-0.3303051292896271,0.08547548949718475,3.2176730632781982,-0.4507751166820526,-0.892478883266449,-0.016824712976813316,0.1641845405101776,0.371833860874176,0.02591896243393421
1.0718835537953793,-1.528681059476303,0.3828002689105028,-0.39445972442626953,-0.0561317503452301,2.90008544921875,-0.47804686427116394,-0.8781033158302307,-0.020144982263445854,-0.17028391361236572,0.1713314652442932,0.10878324508666992
1.04489104521356,-1.525294031040403,0.37666857068864035,-0.43105795979499817,-0.34419870376586914,2.4421937465667725,-0.5014767646789551,-0.8648698329925537,-0.02283410355448723,-0.5154911279678345,0.030198752880096436,0.18741536140441895
1.0223781921330302,-1.5251464019823524,0.3706478065660588,-0.3710290491580963,-0.6504254341125488,2.0317773818969727,-0.5207948088645935,-0.8533502817153931,-0.023790771141648293,-0.7679014801979065,-0.05170947313308716,0.22679364681243896
1.0029893472753588,-1.5295146401020252,0.36680240430225014,-0.1872565597295761,-0.8434305787086487,1.8538793325424194,-0.5373262166976929,-0.8430823683738708,-0.02219434268772602,-0.9204068779945374,-0.11254501342773438,0.1702502965927124
0.9838390261578401,-1.53737815285331,0.3663819968840339,-0.01289338432252407,-0.7534733414649963,1.9921904802322388,-0.5535211563110352,-0.8326296806335449,-0.01850455440580845,-0.9631415009498596,-0.24789094924926758,0.001277327537536621
0.9624543947186524,-1.5442179264009182,0.3674676619651576,-0.02263735793530941,-0.41662582755088806,2.275599479675293,-0.5713059306144714,-0.8205967545509338,-0.015187975019216537,-0.9600051641464233,-0.45764732360839844,-0.10309821367263794
0.9385139738258503,-1.5456768499639,0.36619139842819814,-0.2753933072090149,-0.09967055171728134,2.4657771587371826,-0.5908011198043823,-0.8066807389259338,-0.01484373677521944,-1.0148355960845947,-0.6247462034225464,-0.01088261604309082
0.9136350506836696,-1.5400983749786512,0.35911024286972465,-0.7338186502456665,0.06653866171836853,2.4389283657073975,-0.6105839610099792,-0.7917295098304749,-0.018749568611383438,-1.131664514541626,-0.7105898261070251,0.15836751461029053
0.8895735294827004,-1.527714719480272,0.34426084090291215,-1.2750426530838013,0.061207860708236694,2.288496971130371,-0.629159152507782,-0.7768032550811768,-0.027121970430016518,-1.2551640272140503,-0.7907169461250305,0.28446143865585327
0.8663700763540202,-1.5110617802874038,0.3225181232829507,-1.7048062086105347,-0.0816933661699295,2.1959190368652344,-0.6464417576789856,-0.7619832158088684,-0.03866090252995491,-1.2688567638397217,-0.9031931161880493,0.2946881055831909
0.8435542292536748,-1.4931974445614624,0.29679684108011367,-1.939307451248169,-0.21759766340255737,2.1068789958953857,-0.6628113985061646,-0.7470107078552246,-0.051536910235881805,-1.2264097929000854,-1.0282273292541504,0.13980895280838013
0.8214316538681398,-1.475680172512884,0.2699590485450866,-2.0113325119018555,-0.2276761382818222,1.9715768098831177,-0.6780946850776672,-0.7321217656135559,-0.06469297409057617,-1.2260953187942505,-1.1743416786193848,-0.08494996279478073
0.8007542413962027,-1.458544070204913,0.24372126176569112,-1.9924732446670532,-0.13858051598072052,1.7443801164627075,-0.6917838454246521,-0.7178813815116882,-0.0779821127653122,-1.2518043518066406,-1.318617582321167,-0.2530420422554016
0.7826334397766095,-1.4412950552183725,0.21859430688773931,-1.9306799173355103,0.013423657976090908,1.406559705734253,-0.703121542930603,-0.7051491141319275,-0.09156758338212967,-1.311496376991272,-1.4337363243103027,-0.3347019553184509
0.7680005843007408,-1.4240109715948883,0.19476075486886743,-1.8269950151443481,0.1015671044588089,1.0136641263961792,-0.7115659713745117,-0.6946984529495239,-0.10520412772893906,-1.3835878372192383,-1.4992406368255615,-0.38078826665878296
0.7570067251277172,-1.4070363098588126,0.17225898984602517,-1.7138348817825317,0.18603484332561493,0.6558612585067749,-0.717170000076294,-0.686748743057251,-0.11850500106811523,-1.373100996017456,-1.5021092891693115,-0.40984582901000977
0.7491034410037648,-1.3901420759760976,0.15116557340542422,-1.5766420364379883,0.31108617782592773,0.38196897506713867,-0.7203823328018188,-0.6809824705123901,-0.1315746158361435,-1.255279779434204,-1.4795246124267578,-0.4330311119556427
0.7435776511354115,-1.373025760533096,0.1318132702785284,-1.3997931480407715,0.47869646549224854,0.16783882677555084,-0.7217037677764893,-0.6769255995750427,-0.14462225139141083,-1.1132419109344482,-1.448486328125,-0.47506773471832275
0.7402854622632444,-1.3560023091199584,0.1147645022554052,-1.1860482692718506,0.6041432023048401,-0.044378288090229034,-0.7213106751441956,-0.6744986772537231,-0.1573607176542282,-0.9963254332542419,-1.4196937084197998,-0.5331758260726929
0.7394361907018978,-1.3398258587565257,0.09986207134533501,-0.9953097105026245,0.5949625372886658,-0.27901315689086914,-0.7192283272743225,-0.6738714575767517,-0.16913896799087524,-0.8860268592834473,-1.3972954750061035,-0.545536994934082
0.7412657166920742,-1.3253928839682791,0.0865679767585665,-0.8223026990890503,0.494306355714798,-0.5361052751541138,-0.7155151963233948,-0.6752220392227173,-0.17920176684856415,-0.7988433241844177,-1.3557684421539307,-0.5200933218002319
0.7458928387569818,-1.3126944152929982,0.0745607905401924,-0.6521663665771484,0.4294426739215851,-0.7906467318534851,-0.7101534605026245,-0.6786278486251831,-0.18747352063655853,-0.7191678285598755,-1.3011542558670044,-0.4973866939544678
0.7531743204130233,-1.3009713120928905,0.06398538056954453,-0.4537424147129059,0.4821997582912445,-1.0078325271606445,-0.7031255960464478,-0.6839579343795776,-0.19446328282356262,-0.6435235738754272,-1.2454242706298828,-0.48435449600219727
0.7628456472938668,-1.2896888403541575,0.055297079825889474,-0.2279108613729477,0.5730234384536743,-1.1839162111282349,-0.6944990158081055,-0.6909812688827515,-0.20053920149803162,-0.590947151184082,-1.180142879486084,-0.467826247215271
0.7747225409023334,-1.2793861293229196,0.049031737087690146,0.035697855055332184,0.6011773347854614,-1.3430285453796387,-0.6844866275787354,-0.6995178461074829,-0.20531122386455536,-0.5631635189056396,-1.1118223667144775,-0.44204288721084595
0.7889337195154943,-1.2711274391786425,0.04549334990862621,0.31068119406700134,0.536636471748352,-1.515906572341919,-0.6732012629508972,-0.7096023559570312,-0.20800134539604187,-0.5617383718490601,-1.0491867065429688,-0.416769802570343
0.8056025060284193,-1.2656630678477656,0.04454947297906705,0.5486235618591309,0.4189874529838562,-1.6950668096542358,-0.6606799960136414,-0.7212480902671814,-0.20809419453144073,-0.5763500332832336,-1.0006299018859863,-0.38071197271347046
0.8245499664304448,-1.2626173092863267,0.04564881685444923,0.726521909236908,0.3582724332809448,-1.8556653261184692,-0.6469033360481262,-0.73424232006073,-0.20592281222343445,-0.6135794520378113,-0.955622673034668,-0.31968140602111816
0.8453104088360414,-1.2608228380408022,0.048026229588405626,0.8246907591819763,0.35634249448776245,-1.985008955001831,-0.631877601146698,-0.7481771111488342,-0.20238931477069855,-0.653461754322052,-0.9075387120246887,-0.24835529923439026
0.8672260773786137,-1.259118808984394,0.050720015799104144,0.8363381028175354,0.393997460603714,-2.0599217414855957,-0.6157748699188232,-0.7625373005867004,-0.1983892023563385,-0.6771023869514465,-0.8566337823867798,-0.1609400510787964
0.8895255698678475,-1.2564019879979287,0.052650307733656025,0.7619571089744568,0.43966349959373474,-2.0900135040283203,-0.5989112257957458,-0.7767730355262756,-0.1947537064552307,-0.6853905916213989,-0.8001464605331421,-0.07760041952133179
0.9117493959940945,-1.252309157602853,0.053025024255837674,0.6619352102279663,0.43216511607170105,-2.107217788696289,-0.5815680027008057,-0.7905762195587158,-0.19174952805042267,-0.6994379162788391,-0.7302824854850769,-0.018119871616363525
0.9337888850414259,-1.2469022334753177,0.05172315638438454,0.575761616230011,0.4448104798793793,-2.107125997543335,-0.5638652443885803,-0.8038793206214905,-0.18929901719093323,-0.7278828024864197,-0.675506055355072,-0.007798731327056885
0.9554585249109201,-1.2397381828868113,0.048919038008957624,0.5059886574745178,0.5419924259185791,-2.0847418308258057,-0.5458899736404419,-0.8165785074234009,-0.18762651085853577,-0.7545251250267029,-0.6356461644172668,-0.03248155117034912
0.9764962400371621,-1.2298951843115864,0.044834755484092624,0.4395078420639038,0.7600117325782776,-2.0244975090026855,-0.5277072787284851,-0.8285406231880188,-0.1872047334909439,-0.7567013502120972,-0.5752679705619812,-0.049169182777404785
0.996568961300025,-1.216392527215672,0.0394569901143084,0.3654373586177826,1.0414639711380005,-1.9347540140151978,-0.5094292759895325,-0.8396122455596924,-0.18850265443325043,-0.7323157787322998,-0.5063197612762451,-0.05955946445465088
1.015433947826395,-1.1985476159293322,0.03245335865878635,0.26785966753959656,1.3320066928863525,-1.8485723733901978,-0.4911407232284546,-0.8497094511985779,-0.19176708161830902,-0.7036224603652954,-0.43738460540771484,-0.06094901263713837
1.0332479690570249,-1.17631503002544,0.023354299336329678,0.18943756818771362,1.528924822807312,-1.8043255805969238,-0.472705602645874,-0.858966588973999,-0.19678881764411926,-0.692699670791626,-0.3655969500541687,-0.06558609008789062
1.0505431900011808,-1.1510113040189738,0.012105358213660029,0.13996683061122894,1.5574771165847778,-1.8177200555801392,-0.4539397954940796,-0.8676933646202087,-0.20260001718997955,-0.6914001703262329,-0.3059515357017517,-0.07999281585216522
1.0678794709301673,-1.1240574456520318,-0.0014120038041330152,0.11459969729185104,1.4588836431503296,-1.8798441886901855,-0.4346817433834076,-0.8761804103851318,-0.2082296460866928,-0.6951858401298523,-0.2581273913383484,-0.0976327657699585
1.0856923371642158,-1.0958864671926158,-0.017576105238832466,0.09874925762414932,1.317370891571045,-1.984441876411438,-0.4146965444087982,-0.8846264481544495,-0.21321959793567657,-0.6848670244216919,-0.1978471279144287,-0.12909606099128723
1.1042534093018848,-1.0664164367451878,-0.03668718333113877,0.10178845375776291,1.17448091506958,-2.106168508529663,-0.39378952980041504,-0.8931286334991455,-0.2173730880022049,-0.66233229637146,-0.11289852857589722,-0.1733892560005188
1.123790572014213,-1.035234147482741,-0.05911633290467818,0.12548395991325378,1.0254018306732178,-2.261730909347534,-0.371742308139801,-0.9017454385757446,-0.2205967903137207,-0.6392135620117188,-0.02820146083831787,-0.2163844108581543
1.1447044176242036,-1.0018183251514947,-0.08551605034352097,0.17331726849079132,0.8708106279373169,-2.461688756942749,-0.3481983244419098,-0.9105879664421082,-0.2226824313402176,-0.6424022912979126,0.07172077894210815,-0.2474408745765686
1.1673860149628303,-0.965426814921355,-0.1164839371571668,0.27130863070487976,0.7356183528900146,-2.6782100200653076,-0.3227967619895935,-0.919727623462677,-0.22339105606079102,-0.6499663591384888,0.206531822681427,-0.280820369720459
1.1919390655858473,-0.926272555501928,-0.15144927631651714,0.44552916288375854,0.6270479559898376,-2.832937479019165,-0.295660138130188,-0.9290878772735596,-0.22221790254116058,-0.6153048872947693,0.35258036851882935,-0.3048816919326782
1.2180287824787701,-0.8856763818968546,-0.18869801434515512,0.6793203353881836,0.5378074645996094,-2.888200521469116,-0.26753246784210205,-0.9384201169013977,-0.21861809492111206,-0.524581789970398,0.49481672048568726,-0.3109229505062103
1.2453933813777351,-0.8450044919435922,-0.22639825042684938,0.9583514332771301,0.48704442381858826,-2.876317262649536,-0.23912015557289124,-0.947521984577179,-0.21218745410442352,-0.41914403438568115,0.620327889919281,-0.3033154308795929
1.2739380166338599,-0.8052618614698949,-0.2632369573451434,1.2540438175201416,0.445096492767334,-2.827937364578247,-0.21090860664844513,-0.9562602043151855,-0.20269188284873962,-0.32441556453704834,0.7258830070495605,-0.293890118598938
1.3037352452155182,-0.7669031467870692,-0.29878210439391156,1.5471073389053345,0.39538460969924927,-2.769026279449463,-0.1831211894750595,-0.9645506143569946,-0.1900232881307602,-0.24613910913467407,0.8117338418960571,-0.2781774401664734
1.3348143412614824,-0.7294866473864783,-0.3337525594882767,1.8098605871200562,0.3066197633743286,-2.720508575439453,-0.15582329034805298,-0.9722852110862732,-0.17430025339126587,-0.1941523551940918,0.8912762999534607,-0.2531442642211914
1.3671050675838197,-0.6916736385228229,-0.37012063530563016,2.0315070152282715,0.14844532310962677,-2.676361083984375,-0.12902329862117767,-0.9793265461921692,-0.15579631924629211,-0.15475967526435852,0.9758018255233765,-0.21133016049861908
1.4002716944846334,-0.6513594395467733,-0.4106395176830272,2.2015957832336426,-0.04494577646255493,-2.6113812923431396,-0.10288333147764206,-0.9854958653450012,-0.13495521247386932,-0.10828311741352081,1.062430739402771,-0.15053677558898926
1.4337650567031552,-0.6037878897665605,-0.46002440377313863,2.3077566623687744,-0.1883266419172287,-2.5252156257629395,-0.07755843549966812,-0.9906259179115295,-0.11245045810937881,-0.04985252022743225,1.1410470008850098,-0.08577650785446167
1.46683891989896,-0.5380633179670741,-0.5283264146230663,2.347011089324951,-0.21978293359279633,-2.4085261821746826,-0.05317896977066994,-0.994601309299469,-0.08910683542490005,0.01507771760225296,1.2031738758087158,-0.03616785258054733
1.4986339874028316,-0.42829935558851107,-0.640537653925274,2.3382320404052734,-0.1798139363527298,-2.269470691680908,-0.0299445241689682,-0.9973974227905273,-0.06558665633201599,0.07334044575691223,1.2518377304077148,0.00014168769121170044
1.5276839634488644,-0.18890478357261045,-0.8817047961309585,2.296419382095337,-0.09022049605846405,-2.1078779697418213,-0.008092609234154224,-0.9990708231925964,-0.04232882708311081,0.12080922722816467,1.3005694150924683,0.029526658356189728
1.5477092481004624,0.5564873339097518,-1.6276711941475628,2.235869884490967,0.047842029482126236,-1.939376711845398,0.01219413336366415,-0.9997335076332092,-0.019602607935667038,0.1631903350353241,1.357140064239502,0.05369067192077637
1.539889140285615,1.6513457436429042,-2.7218967375546996,2.163078784942627,0.1251881718635559,-1.7673789262771606,0.03080574795603752,-0.9995223879814148,0.002486765617504716,0.2006700038909912,1.393366813659668,0.06506383419036865
1.5175512241183773,2.0340149605145226,-3.1036870207747285,2.0737853050231934,0.10271002352237701,-1.586842656135559,0.047610171139240265,-0.9985828399658203,0.02377956174314022,0.24465662240982056,1.4042835235595703,0.07402920722961426
1.4942006703862158,2.1849575487976014,3.0289259604902505,1.9783225059509277,0.023985832929611206,-1.4003719091415405,0.0625377893447876,-0.9970679879188538,0.04409732669591904,0.2972338795661926,1.4200263023376465,0.09080564975738525
1.4719195096918265,2.267294534521864,2.945983174684418,1.8768651485443115,-0.08387165516614914,-1.238874077796936,0.07572520524263382,-0.9951156973838806,0.06333049386739731,0.335834801197052,1.4525434970855713,0.1133509948849678
1.451125950399503,2.3196255909885886,2.8919157464318737,1.7415313720703125,-0.1984705626964569,-1.0926847457885742,0.08744774758815765,-0.9928480386734009,0.08127498626708984,0.37016329169273376,1.4775893688201904,0.13576602935791016
1.432261745916022,2.3548236755050542,2.8539087706245687,1.563417673110962,-0.303137868642807,-0.9423874616622925,0.09777971357107162,-0.9904194474220276,0.09751200675964355,0.4125809371471405,1.4700489044189453,0.15471577644348145
1.4156748898151499,2.3786303504244697,2.8262352356061826,1.3610613346099854,-0.40540236234664917,-0.7923895716667175,0.10676972568035126,-0.9879927635192871,0.11167146265506744,0.4243581295013428,1.4595046043395996,0.14276885986328125
1.4017068369213648,2.3957897086605686,2.804538190141054,1.147611141204834,-0.42849409580230713,-0.6004358530044556,0.11419165134429932,-0.9857383966445923,0.12361247837543488,0.4194386601448059,1.4653373956680298,0.10377395153045654
1.3906727901959766,2.411466009651455,2.7845996273730997,0.952806293964386,-0.34972643852233887,-0.3633981943130493,0.11948765814304352,-0.9838215708732605,0.13348403573036194,0.4356270432472229,1.4592547416687012,0.06858815252780914
1.3824734749428051,2.4303940116170986,2.7624055329461856,0.829828679561615,-0.23277103900909424,-0.09860804677009583,0.12220070511102676,-0.9823195934295654,0.1418275088071823,0.45275041460990906,1.4597060680389404,0.034487709403038025
1.3765315368248299,2.458298776273709,2.7321771334460867,0.8069415092468262,-0.1035044863820076,0.2146458923816681,0.12187907099723816,-0.9811898469924927,0.14970582723617554,0.4713367819786072,1.4604837894439697,-0.015977874398231506
1.372899663210194,2.494822605058595,2.694873757808177,0.6437451243400574,0.09028708934783936,0.4723421633243561,0.1184781938791275,-0.980482280254364,0.15689976513385773,0.4852967858314514,1.4469587802886963,-0.03730131685733795
1.3720642883787144,2.5360160116873605,2.6543083834685266,0.42947837710380554,0.17553532123565674,0.7204569578170776,0.11238233745098114,-0.9803177118301392,0.16231895983219147,0.4928574860095978,1.4212814569473267,-0.0028493404388427734
1.3740063901052644,2.5823889526222232,2.6087036680550106,0.2344721257686615,0.14524638652801514,0.9793529510498047,0.10372679680585861,-0.9806992411613464,0.16573990881443024,0.520998477935791,1.4148423671722412,0.007340535521507263
1.3782354523898108,2.63606001506617,2.5552374866003964,0.0937023013830185,0.10278834402561188,1.222532033920288,0.09267711639404297,-0.9815173745155334,0.16743585467338562,0.5439500212669373,1.3994097709655762,0.004133954644203186
1.383893474250414,2.7004575886556768,2.490472680670555,0.022118929773569107,0.05529167130589485,1.4547713994979858,0.07933702319860458,-0.9825844764709473,0.1680271476507187,0.5653009414672852,1.3724161386489868,-0.0023777633905410767
1.3900390441561605,2.7787166529877236,2.411237169422071,-0.019282817840576172,0.011935599148273468,1.680590271949768,0.06381375342607498,-0.983707845211029,0.16806809604167938,0.5860732793807983,1.3479349613189697,-0.0002825111150741577
1.396033475058566,2.8725580739132557,2.3157553598219063,-0.07510613650083542,-0.0400245375931263,1.8873307704925537,0.046215999871492386,-0.9847677946090698,0.16761989891529083,0.5927609801292419,1.3270682096481323,0.019651174545288086
1.4013919228240772,2.9826610190861613,2.203166111175428,-0.1559130847454071,-0.134603351354599,2.094259262084961,0.026682473719120026,-0.9856853485107422,0.16647052764892578,0.5952047109603882,1.3011608123779297,0.03322124481201172
1.4055002252052406,3.108790261843821,2.0729999039497313,-0.24597477912902832,-0.32029250264167786,2.280606985092163,0.005396504886448383,-0.9863696694374084,0.1644565761089325,0.5947926640510559,1.2587237358093262,0.04030109941959381
1.40773229254772,-3.0350618844197728,1.927466087664981,-0.3773125112056732,-0.5249319672584534,2.434022903442383,-0.01726178452372551,-0.9867345094680786,0.1614222377538681,0.5767405033111572,1.2155553102493286,0.0549778938293457
1.4076574759612464,-2.8860831859295026,1.7703457786688217,-0.525070309638977,-0.6794528365135193,2.5652198791503906,-0.04104877635836601,-0.9867223501205444,0.15714319050312042,0.5390803813934326,1.1963781118392944,0.0659555196762085
1.4047945719735062,-2.732390616174922,1.6070396737238504,-0.6747663617134094,-0.7873817086219788,2.6494178771972656,-0.06574582308530807,-0.9862533211708069,0.15159885585308075,0.4753679633140564,1.1979079246520996,0.048642173409461975
1.3990125636938664,-2.58085034072909,1.4452886725870204,-0.8341929912567139,-0.7714629769325256,2.6682755947113037,-0.09090856462717056,-0.9852814078330994,0.14476251602172852,0.3762631118297577,1.1791901588439941,0.0035681724548339844
1.3905029035087744,-2.436483664333416,1.2915608816778397,-0.9707186222076416,-0.6173838376998901,2.654021739959717,-0.11621900647878647,-0.9837911128997803,0.13655798137187958,0.2800678610801697,1.1202504634857178,-0.04553937911987305
1.3792968871078213,-2.302152194488907,1.1495175590261881,-1.080529808998108,-0.43146243691444397,2.6489906311035156,-0.1416574865579605,-0.981719970703125,0.1271180808544159,0.22449740767478943,1.0479278564453125,-0.09800435602664948
1.3653645129683625,-2.1790695316853896,1.020716809310029,-1.1653168201446533,-0.2030443549156189,2.669761896133423,-0.1674012541770935,-0.9789729714393616,0.1165701374411583,0.19366157054901123,0.9874416589736938,-0.141579270362854
1.3486452581225576,-2.0678036161377493,0.9055656289487247,-1.223012924194336,-0.07701078057289124,2.7226943969726562,-0.19367194175720215,-0.9754257798194885,0.10505210608243942,0.18224301934242249,0.9529190063476562,-0.12885580956935883
1.329043998803033,-1.9711765915251305,0.8050724081838171,-1.2201253175735474,-0.187704399228096,2.7872509956359863,-0.2204706072807312,-0.9709199666976929,0.09331231564283371,0.17502988874912262,0.9546846151351929,-0.07616150379180908
1.3068927231956666,-1.893520657748645,0.7210847783785161,-1.125455617904663,-0.5760785341262817,2.8141517639160156,-0.2473841905593872,-0.9653790593147278,0.08272914588451385,0.11266429722309113,0.9899764060974121,-0.02228916436433792
1.2827552667471585,-1.8376057065608358,0.6542459184180174,-0.938633382320404,-1.1092125177383423,2.847926378250122,-0.2740228474140167,-0.9588022232055664,0.07489760965108871,-0.045938730239868164,0.9925090074539185,-0.0017317607998847961
1.256665191357654,-1.803630471332017,0.604127549135552,-0.6406770348548889,-1.6629151105880737,2.922987461090088,-0.3006523847579956,-0.951065182685852,0.07129516452550888,-0.22426524758338928,0.8854525089263916,-0.03977061063051224
1.2289435676467089,-1.7885907063741715,0.5685253121058933,-0.36483997106552124,-1.9938430786132812,2.967740058898926,-0.3273138403892517,-0.9421351552009583,0.07243607938289642,-0.46281683444976807,0.6971400380134583,-0.09195208549499512
1.2000669813077212,-1.7823922041161644,0.5417061407938364,-0.25449907779693604,-1.6984455585479736,3.0677547454833984,-0.3542152941226959,-0.9320633411407471,0.07608947902917862,-0.7290366888046265,0.48759007453918457,-0.08179628849029541
1.1696770928431484,-1.7719188777733994,0.5164346527141955,-0.39367982745170593,-0.8240836262702942,3.26167368888855,-0.38257893919944763,-0.9206245541572571,0.07799980789422989,-0.8316392302513123,0.3769538998603821,0.04698491096496582
1.1374160266178714,-1.7476115254282893,0.48689283003563744,-0.7591965198516846,0.28246673941612244,3.5056936740875244,-0.41339391469955444,-0.9075514078140259,0.07386571168899536,-0.8504763841629028,0.36865663528442383,0.21937763690948486
1.1029165449637222,-1.708215651892627,0.4512636749200517,-1.2176092863082886,1.118561863899231,3.7744481563568115,-0.4467434883117676,-0.8925265073776245,0.061780571937561035,-0.8557621240615845,0.33408528566360474,0.25987470149993896
1.0653828487772672,-1.659492519259951,0.41106273334388577,-1.6562635898590088,1.4520056247711182,4.082581043243408,-0.4822659194469452,-0.8749743700027466,0.04288767650723457,-0.8830600380897522,0.23148077726364136,0.14148426055908203
1.0243315909516473,-1.608482898160914,0.3686732293194508,-2.061086416244507,1.358577013015747,4.337739944458008,-0.5193009972572327,-0.8543670177459717,0.019579945132136345,-0.9692701697349548,0.03948676586151123,-0.003985406830906868
0.980393082355673,-1.5600904732461849,0.3253888108092415,-2.468371868133545,0.9981352090835571,4.466127872467041,-0.5566639304161072,-0.8307162523269653,-0.005959790199995041,-1.1150126457214355,-0.19139355421066284,-0.03436923027038574
0.9343574442994752,-1.5155862939709335,0.2811081080514259,-2.9256539344787598,0.6763119697570801,4.533030033111572,-0.5934296250343323,-0.8042173385620117,-0.032796598970890045,-1.276153564453125,-0.3934449553489685,0.06871575117111206
0.8863638656216273,-1.4732730759571144,0.23492064610927915,-3.437708616256714,0.48988303542137146,4.561228275299072,-0.6292291283607483,-0.7747780084609985,-0.06155975162982941,-1.335141658782959,-0.5003378391265869,0.2767086625099182
0.8374310040738632,-1.434587135784136,0.18785879642367495,-3.6971435546875,0.04616560786962509,4.37147331237793,-0.6631736755371094,-0.7429259419441223,-0.09089316427707672,-1.3687629699707031,-0.5142303705215454,0.385677695274353
0.7909511275878607,-1.4073037528314638,0.14612941722590153,-3.2489547729492188,-0.6662079095840454,3.914762496948242,-0.693792462348938,-0.7110223770141602,-0.11445149034261703,-1.611627459526062,-0.5799473524093628,0.001032896339893341
0.7501315082414585,-1.396249844436703,0.11665855431983173,-2.2242915630340576,-1.1737422943115234,3.3968515396118164,-0.7204830050468445,-0.6817349791526794,-0.12705065310001373,-1.8224096298217773,-1.0021333694458008,-0.7527101039886475
0.7161823318353993,-1.3986779628777242,0.10232437451149765,-1.0470268726348877,-1.1601580381393433,2.9049532413482666,-0.743171751499176,-0.6565097570419312,-0.1291918009519577,-1.9090193510055542,-1.4884333610534668,-1.2639662027359009
0.6888078414086036,-1.4075559836066431,0.10075853905607558,-0.14970342814922333,-0.790103018283844,2.4355859756469727,-0.761741042137146,-0.6356172561645508,-0.12546327710151672,-1.8463215827941895,-1.7454098463058472,-1.2861425876617432
0.6669658819915324,-1.4171838583413572,0.10656880556869112,0.2983582317829132,-0.4236783981323242,2.018617868423462,-0.7764502167701721,-0.6186048984527588,-0.12021952122449875,-1.6748435497283936,-1.8004013299942017,-0.9826858043670654
0.6489331126578095,-1.4249517098196653,0.11415529099668303,0.29520541429519653,-0.2174028605222702,1.7327476739883423,-0.7882705926895142,-0.6043367385864258,-0.11578714102506638,-1.4709458351135254,-1.8777341842651367,-0.6579403281211853
0.6329935215167802,-1.4291794684924435,0.11856671281802197,-0.08873984217643738,-0.10589737445116043,1.5108214616775513,-0.7981889247894287,-0.591560959815979,-0.11379878222942352,-1.2963546514511108,-1.9919960498809814,-0.3710950016975403
0.6190338286676127,-1.4288356922034227,0.1166969029986822,-0.5924251675605774,-0.04737701639533043,1.1735824346542358,-0.8062466979026794,-0.5802485346794128,-0.11523040384054184,-1.2876406908035278,-2.0760319232940674,-0.12747591733932495
0.608954859177855,-1.4247503621895923,0.10935786437100087,-0.8319498896598816,0.029604051262140274,0.6236457228660583,-0.811514139175415,-0.5720105171203613,-0.11936826258897781,-1.4308412075042725,-2.1482958793640137,-0.10250979661941528
0.6046223620863515,-1.4185395482586194,0.10040101001461124,-0.7052565813064575,0.20040057599544525,0.015151751227676868,-0.8131989240646362,-0.5684514045715332,-0.12478076666593552,-1.4957761764526367,-2.2624351978302,-0.3239191770553589
0.6063765047413402,-1.411591844794418,0.09349359863648458,-0.3400479853153229,0.39673545956611633,-0.5277853012084961,-0.8113265633583069,-0.5698937177658081,-0.13026928901672363,-1.4268172979354858,-2.2810583114624023,-0.5207011699676514
0.6136248581986201,-1.405259519471557,0.09051021085204959,0.09060441702604294,0.5088310837745667,-0.9650520086288452,-0.8063899874687195,-0.5758348107337952,-0.13472002744674683,-1.3035954236984253,-2.1575942039489746,-0.5592496991157532
0.6252993315195966,-1.4005609461599309,0.09144374405805887,0.4268982708454132,0.5260992646217346,-1.2912238836288452,-0.799068033695221,-0.5853400230407715,-0.1373591125011444,-1.1526837348937988,-2.007448673248291,-0.482117235660553
0.6401845373076351,-1.3973871639595752,0.09475892139880929,0.5809310674667358,0.4881335496902466,-1.5341761112213135,-0.7899574637413025,-0.5973434448242188,-0.1383756697177887,-1.0290122032165527,-1.8685072660446167,-0.3561006784439087
0.6573323078011265,-1.3951136819851666,0.09837126727762534,0.5582531690597534,0.38921815156936646,-1.7334383726119995,-0.7794398069381714,-0.6110072135925293,-0.13836045563220978,-0.9675846695899963,-1.7357333898544312,-0.21674208343029022
0.6763217073888479,-1.3934215536566623,0.10054855951224201,0.4303649961948395,0.20546074211597443,-1.9296246767044067,-0.7676440477371216,-0.6259286403656006,-0.13760684430599213,-0.9623515605926514,-1.6122760772705078,-0.08723142743110657
0.6969427539928791,-1.3922730759780109,0.10025936776530434,0.2506852447986603,-0.01063507329672575,-2.12034010887146,-0.7546212673187256,-0.6418763399124146,-0.13616710901260376,-0.9882681369781494,-1.4918057918548584,0.0011726021766662598
0.7190145018377437,-1.3911372447045307,0.09710301803903776,0.06804215162992477,-0.15744991600513458,-2.2904772758483887,-0.7403439879417419,-0.6586434245109558,-0.13445930182933807,-1.0185060501098633,-1.3607808351516724,0.031782954931259155
0.7422194698207231,-1.3890749825376942,0.09131698107045685,-0.07362470030784607,-0.18880650401115417,-2.404895305633545,-0.7248353362083435,-0.6759252548217773,-0.13318735361099243,-1.0569792985916138,-1.2046594619750977,0.025887489318847656
0.7659843920661582,-1.38534761967411,0.08364669772870233,-0.145453542470932,-0.09902317821979523,-2.4481348991394043,-0.7083429098129272,-0.6932467818260193,-0.13288818299770355,-1.0734716653823853,-1.0174922943115234,-0.004318892955780029
0.7899090484201623,-1.3793376792641596,0.07513504812253216,-0.13809974491596222,0.1177259087562561,-2.457761287689209,-0.691047728061676,-0.7102892398834229,-0.13394775986671448,-1.0572738647460938,-0.8177105188369751,-0.04531244933605194
0.8137269078842633,-1.3710125199002239,0.06695728229491393,-0.043123580515384674,0.37191030383110046,-2.4120635986328125,-0.6731336116790771,-0.7268518209457397,-0.13629943132400513,-1.0143816471099854,-0.6186833381652832,-0.09468816220760345
0.8368914873305088,-1.3608914482485355,0.06017061720088243,0.083685502409935,0.6589682102203369,-2.28582501411438,-0.6550731062889099,-0.7425647377967834,-0.13955873250961304,-0.9435902237892151,-0.4365580677986145,-0.13973818719387054
0.8586886023320969,-1.348764632965407,0.05505350172408543,0.18152832984924316,1.0015994310379028,-2.096970796585083,-0.6373901963233948,-0.7569863200187683,-0.14389318227767944,-0.8738555312156677,-0.27075397968292236,-0.16860680282115936
0.8786742216166561,-1.33383859456617,0.051212699174950846,0.24190858006477356,1.3860386610031128,-1.9006860256195068,-0.6203397512435913,-0.7698934674263,-0.14980871975421906,-0.835638701915741,-0.11818325519561768,-0.18184107542037964
0.8971641614413414,-1.3160109425887057,0.04846118906122472,0.3244973123073578,1.7275116443634033,-1.7714667320251465,-0.6036900877952576,-0.7815609574317932,-0.15722841024398804,-0.8310939073562622,0.02278721332550049,-0.20426756143569946
0.9152527037498766,-1.296523120929886,0.047075330374277594,0.4641769230365753,1.9154582023620605,-1.7710237503051758,-0.5868051648139954,-0.7927166819572449,-0.1651059240102768,-0.8359396457672119,0.14586615562438965,-0.2318819761276245
0.9343445367066447,-1.2779430703111334,0.0477628079588603,0.6891129016876221,1.868550419807434,-1.8719885349273682,-0.5690409541130066,-0.8042096495628357,-0.1715788096189499,-0.810964047908783,0.2443494200706482,-0.24970115721225739
0.9555582814662078,-1.2631806012227902,0.051360028166933594,0.9675142168998718,1.6386477947235107,-2.0512259006500244,-0.5500603318214417,-0.8166360855102539,-0.17475448548793793,-0.7541999220848083,0.3500528931617737,-0.24661694467067719
0.9796680485319338,-1.2541950988730817,0.05825981128439082,1.251564621925354,1.2736239433288574,-2.288684368133545,-0.5295999050140381,-0.8303124308586121,-0.17350837588310242,-0.6853659152984619,0.47203612327575684,-0.22346429526805878
1.0070596236757723,-1.2519215731799402,0.068242364329457,1.4803428649902344,0.8478750586509705,-2.5626044273376465,-0.5074112415313721,-0.8452643156051636,-0.16751728951931,-0.5990951061248779,0.5866584181785583,-0.1806272715330124
1.0376625269533504,-1.255971766692179,0.08053019510399279,1.6253684759140015,0.4382903277873993,-2.829507350921631,-0.4832554757595062,-0.8612185716629028,-0.15737475454807281,-0.49498555064201355,0.6966373324394226,-0.12640821933746338
1.0708888597700228,-1.265417437368727,0.09436952272157065,1.684726357460022,0.08701538294553757,-3.052441358566284,-0.45716676115989685,-0.877626895904541,-0.14411711692810059,-0.3876361846923828,0.7897514700889587,-0.08333040773868561
1.1057763081414023,-1.2792139473744286,0.10920130312986871,1.66618013381958,-0.21002133190631866,-3.175065040588379,-0.4295121133327484,-0.8938125967979431,-0.12891243398189545,-0.281272828578949,0.8912643790245056,-0.059457361698150635
1.1409999577715555,-1.296880358422884,0.1253142427637893,1.626295566558838,-0.39982905983924866,-3.1629533767700195,-0.40115123987197876,-0.9090506434440613,-0.11271493136882782,-0.16433951258659363,0.9977194666862488,-0.05537593364715576
1.175265169743303,-1.3180966212460636,0.14367089809062134,1.5685960054397583,-0.4529193937778473,-3.0394022464752197,-0.37306177616119385,-0.9227920174598694,-0.0963318720459938,-0.06327858567237854,1.0820175409317017,-0.06089472770690918
1.2076076990814846,-1.3422703127744056,0.16530011751958615,1.5177825689315796,-0.34262537956237793,-2.838452100753784,-0.3460206389427185,-0.934768795967102,-0.08048062771558762,0.01736152172088623,1.1434632539749146,-0.06194496154785156
1.237503535965074,-1.3688538564859778,0.19110563318218604,1.4675445556640625,-0.1070653423666954,-2.6052610874176025,-0.32050836086273193,-0.9449701905250549,-0.06561867892742157,0.08263903856277466,1.1896907091140747,-0.06757533550262451
1.2647071736118367,-1.3972491686486153,0.22154491225623707,1.4148286581039429,0.21313850581645966,-2.364946126937866,-0.29680564999580383,-0.953519344329834,-0.05203321948647499,0.13442155718803406,1.233701229095459,-0.061934709548950195
1.2891010641732414,-1.4270336098431535,0.2566574081594689,1.3551075458526611,0.5425886511802673,-2.114717960357666,-0.275116890668869,-0.9605855345726013,-0.03982630372047424,0.18283170461654663,1.273116111755371,-0.051390767097473145
1.310591908391184,-1.4585657906369813,0.29642512923609377,1.2936320304870605,0.7962555289268494,-1.8629229068756104,-0.2556593418121338,-0.9663373827934265,-0.028813863173127174,0.2312299907207489,1.2959578037261963,-0.050898075103759766
1.329220888163998,-1.4924675882738698,0.34049574532008164,1.2291923761367798,0.9388576149940491,-1.6328184604644775,-0.2384989857673645,-0.9709622859954834,-0.0187196247279644,0.2697794437408447,1.300994634628296,-0.055087149143218994
1.3453629591742806,-1.5293050143533204,0.3882015037795829,1.1601881980895996,0.9573338031768799,-1.4561296701431274,-0.223335862159729,-0.9746973514556885,-0.009271819144487381,0.2978750467300415,1.297878623008728,-0.05220586061477661
1.3595931439121602,-1.5700838517040527,0.439532253404876,1.117919683456421,0.8948049545288086,-1.3390181064605713,-0.2096356749534607,-0.9777793884277344,-0.00014936021761968732,0.3364056944847107,1.2898523807525635,-0.039874494075775146
1.3723909289342473,-1.6162504828742106,0.4953059941072582,1.0888153314590454,0.7771822214126587,-1.2694326639175415,-0.19690248370170593,-0.9803821444511414,0.00895620509982109,0.38202208280563354,1.2817280292510986,-0.018157243728637695
1.3841753232094256,-1.668887871562738,0.5558749566104403,1.0450023412704468,0.5702512264251709,-1.243748426437378,-0.18464772403240204,-0.9826368093490601,0.01817069761455059,0.43797409534454346,1.27481210231781,0.014788269996643066
1.3951836876845358,-1.7282152134567377,0.6206069345690591,0.9752033352851868,0.2918025553226471,-1.2243711948394775,-0.17255094647407532,-0.984619677066803,0.027389395982027054,0.49286341667175293,1.2747350931167603,0.05365002155303955
1.4052735114742194,-1.7930749509897017,0.6879851244355544,0.8833613395690918,0.02325599640607834,-1.1756031513214111,-0.16071473062038422,-0.986332356929779,0.036323655396699905,0.5391784310340881,1.2922711372375488,0.0837935209274292
1.4140771195405013,-1.8611738000531899,0.7562140035527114,0.7812046408653259,-0.15415367484092712,-1.0695844888687134,-0.1495434194803238,-0.9877446889877319,0.04468715190887451,0.5718914270401001,1.3242926597595215,0.09755527973175049
1.4211474183332542,-1.9285316893605429,0.8224737610258137,0.6842895746231079,-0.20590835809707642,-0.9019968509674072,-0.13965223729610443,-0.9888234734535217,0.052204739302396774,0.6015357375144958,1.363472580909729,0.09820115566253662
1.4260918407523613,-1.9912543610367706,0.8838055848717841,0.6016668677330017,-0.194240540266037,-0.6817281246185303,-0.13164032995700836,-0.9895485639572144,0.05885929614305496,0.6353176832199097,1.385819435119629,0.08178102970123291
1.428638301658025,-2.0445377300324177,0.9359015965113163,0.5207723379135132,-0.150386244058609,-0.4175271689891815,-0.12607580423355103,-0.9899125695228577,0.06463675200939178,0.6779708862304688,1.3838945627212524,0.05499207228422165
1.4288586794704075,-2.0844437556073854,0.9749784648647366,0.42935243248939514,-0.09325718879699707,-0.14553798735141754,-0.12320633977651596,-0.9899437427520752,0.06950774043798447,0.7147132158279419,1.3716272115707397,0.03641878813505173
1.4271104304534072,-2.1079995708707764,0.9981331667046284,0.3135773241519928,-0.03699329122900963,0.11446826905012131,-0.12302303314208984,-0.9896949529647827,0.07327674329280853,0.7332372069358826,1.3637793064117432,0.02524925023317337
1.423845274073311,-2.114071452691693,1.0041443550695908,0.1687977910041809,0.00436533335596323,0.349714070558548,-0.12534098327159882,-0.9892221093177795,0.07569220662117004,0.7406058311462402,1.3557076454162598,0.021353721618652344
1.4194969468066758,-2.102448451957598,0.992532612675821,-0.009806470945477486,0.019915133714675903,0.5705126523971558,-0.129918172955513,-0.9885760545730591,0.07640986889600754,0.7468156814575195,1.3415577411651611,0.027883879840373993
1.4140947468327185,-2.074595994012875,0.9646113513369992,-0.1954527646303177,0.03432789444923401,0.7901355624198914,-0.13667044043540955,-0.9877474308013916,0.07533909380435944,0.7535069584846497,1.3321231603622437,0.02546047419309616
1.4074081247566654,-2.0323026525567687,0.9222751792385199,-0.369673490524292,0.06846635043621063,1.0150237083435059,-0.14564432203769684,-0.9866818189620972,0.072432741522789,0.7479544281959534,1.3278532028198242,0.006531469523906708
1.3990139257009455,-1.9794505655129442,0.8696886040542109,-0.5066995620727539,0.1335683912038803,1.2401611804962158,-0.1568627804517746,-0.9852816462516785,0.06792662292718887,0.7414116859436035,1.3137729167938232,-0.02070070058107376
1.3885062071204164,-1.9205501164207497,0.811748404533884,-0.5969717502593994,0.23509834706783295,1.453412413597107,-0.1703062802553177,-0.9834311008453369,0.06211913377046585,0.7354918122291565,1.2888816595077515,-0.04376281052827835
1.3758136944820645,-1.8611311181952717,0.7538504671189719,-0.6625850796699524,0.2632346451282501,1.624517560005188,-0.1856408715248108,-0.9810510277748108,0.055465299636125565,0.7129998207092285,1.2580437660217285,-0.05288660526275635
1.3612571980915225,-1.8041548999465564,0.6981252354187677,-0.7411766052246094,0.2029416561126709,1.7509591579437256,-0.2023715227842331,-0.9781268835067749,0.048101458698511124,0.6802003979682922,1.2189562320709229,-0.03539084643125534
1.3451931021516446,-1.7511875898816676,0.6454229067313845,-0.8206921815872192,0.09376217424869537,1.844840168952942,-0.2200649231672287,-0.9746593236923218,0.04013407230377197,0.6519038677215576,1.1769909858703613,-0.00026285648345947266
1.3279338709459187,-1.7032927638004582,0.5963944011294064,-0.8810026049613953,-0.05331646651029587,1.8992300033569336,-0.2383739948272705,-0.9706535935401917,0.031769830733537674,0.6233226656913757,1.145809292793274,0.020262595266103745
1.3099594581055682,-1.6612691116900002,0.551864121876613,-0.9127317667007446,-0.14839743077754974,1.8997149467468262,-0.25683385133743286,-0.9661744832992554,0.023300081491470337,0.5784586668014526,1.1217379570007324,0.0224456749856472
1.2918952401906976,-1.6247814834282561,0.5125073265122477,-0.9083933234214783,-0.10879519581794739,1.837282657623291,-0.27489835023880005,-0.9613585472106934,0.014854864217340946,0.5284078121185303,1.1053099632263184,0.03192853927612305
1.2740475058576484,-1.5921804613742812,0.4777128202387964,-0.9311846494674683,-0.050109513103961945,1.8002047538757324,-0.29234573245048523,-0.9562922120094299,0.006252513732761145,0.48367562890052795,1.0889674425125122,0.05237174034118652
1.2558672163759053,-1.561753292709543,0.445143497914416,-1.0129592418670654,-0.08691177517175674,1.8458930253982544,-0.3097360134124756,-0.9508183598518372,-0.002801029710099101,0.4777810275554657,1.0827155113220215,0.07807260751724243
1.2365070629901669,-1.5315509132295773,0.41202388051111494,-1.1967599391937256,-0.1470600664615631,1.9747709035873413,-0.32784464955329895,-0.9446437358856201,-0.012873007915914059,0.43540388345718384,1.0968961715698242,0.10514283180236816
1.214891060519877,-1.4993109668852083,0.3761522212309127,-1.4607491493225098,-0.14277611672878265,2.2049920558929443,-0.3475489020347595,-0.9373314380645752,-0.02488706447184086,0.37167301774024963,1.0889276266098022,0.1353302001953125
1.19004584400877,-1.4644811937216886,0.3377704534152508,-1.7203924655914307,-0.036179639399051666,2.487673044204712,-0.36951902508735657,-0.9283860325813293,-0.039434149861335754,0.3285033702850342,1.0467485189437866,0.14026421308517456
1.1614677769023676,-1.4274088548518395,0.29839226441879463,-1.9848384857177734,0.19145916402339935,2.7906391620635986,-0.393909215927124,-0.9173882603645325,-0.056871943175792694,0.24124497175216675,0.99598628282547,0.11479431390762329
1.1287754818124254,-1.3886801400142428,0.2594224168234007,-2.237029790878296,0.4478627145290375,3.121887683868408,-0.4206927418708801,-0.9038890600204468,-0.07747336477041245,0.14060238003730774,0.9343151450157166,0.11476583033800125
1.0917625308662167,-1.350109086857384,0.22221689871110753,-2.4601330757141113,0.5625677108764648,3.4391825199127197,-0.4497434198856354,-0.8874406814575195,-0.1008959487080574,0.0448056161403656,0.8876696228981018,0.1288958191871643
1.05112082154642,-1.3155629328948282,0.18824889246609874,-2.5819337368011475,0.32334497570991516,3.6554503440856934,-0.480510950088501,-0.8679803609848022,-0.1253768503665924,-0.0848425030708313,0.8478540778160095,0.1224014163017273
1.008456663772955,-1.2904766800710643,0.15944134961725132,-2.4870200157165527,-0.2853713631629944,3.746964693069458,-0.5123559832572937,-0.8460099697113037,-0.14750750362873077,-0.2835730314254761,0.766984760761261,0.03300553560256958
0.9659097604291609,-1.279539876463912,0.13844916584333686,-2.0835142135620117,-1.0242353677749634,3.728261947631836,-0.5447186827659607,-0.8225666284561157,-0.1632966697216034,-0.5684863328933716,0.5889697670936584,-0.1740752011537552
0.9253734870473047,-1.2834008034197917,0.12725549096838712,-1.4646464586257935,-1.4958775043487549,3.6294119358062744,-0.5768644213676453,-0.7988454699516296,-0.17050877213478088,-0.9176881909370422,0.2838614583015442,-0.427528977394104
0.8879365009868506,-1.2962389513971333,0.12485963106568101,-0.9233667254447937,-1.357999324798584,3.453350067138672,-0.6073797941207886,-0.7757713198661804,-0.17108115553855896,-1.272747278213501,-0.062165021896362305,-0.5467533469200134
0.8532219372810296,-1.307461160435782,0.12626674268958726,-0.8020868897438049,-0.595809280872345,3.273024559020996,-0.6348912119865417,-0.7534029483795166,-0.17116408050060272,-1.5334895849227905,-0.3299862742424011,-0.4126676917076111
0.81942247760453,-1.3069182810987285,0.12489116791929222,-1.1801891326904297,0.5167561173439026,3.205535650253296,-0.6590139865875244,-0.7307516932487488,-0.17805130779743195,-1.6204354763031006,-0.47550123929977417,-0.10518233478069305
0.7839822088396606,-1.2913963388531464,0.11673526593417503,-1.7996598482131958,1.3159343004226685,3.3172454833984375,-0.6806476712226868,-0.7061048150062561,-0.19528108835220337,-1.506669282913208,-0.5380510091781616,0.1884298324584961
0.7456774214289739,-1.2693147146329413,0.10387270441588539,-2.089970350265503,1.1961948871612549,3.453558921813965,-0.7014948725700378,-0.6784695982933044,-0.21813711524009705,-1.3477146625518799,-0.5083741545677185,0.24340565502643585
0.7066961900774316,-1.2537844122529471,0.09303614284018177,-1.7373871803283691,0.4071810841560364,3.437391757965088,-0.7226157784461975,-0.6493247151374817,-0.23707321286201477,-1.3152413368225098,-0.5945563912391663,-0.11567942798137665
0.670415548312582,-1.2526611292889247,0.0899468723285085,-0.9508470296859741,-0.5632277131080627,3.2617757320404053,-0.7442446351051331,-0.6213116645812988,-0.24509544670581818,-1.3259305953979492,-0.8861650824546814,-0.622397243976593
0.638946059061095,-1.2648745624776139,0.0950162200938312,-0.25946706533432007,-1.2008942365646362,2.936777114868164,-0.7654540538787842,-0.5963497757911682,-0.24175843596458435,-1.3953735828399658,-1.2269840240478516,-0.9003466963768005
0.6124772060480048,-1.2829812513695096,0.1035534273190527,-0.033367376774549484,-1.3527330160140991,2.5003414154052734,-0.7845697402954102,-0.5748961567878723,-0.23225997388362885,-1.5214757919311523,-1.4266754388809204,-0.7556092739105225
0.5901835620720488,-1.2987073570233587,0.1096024673425141,-0.2870885729789734,-1.0448710918426514,2.0463714599609375,-0.8002732992172241,-0.5565135478973389,-0.22328297793865204,-1.6494489908218384,-1.4525654315948486,-0.40621834993362427
0.5709613089295188,-1.305614431755419,0.10918307539750916,-0.815731406211853,-0.35072511434555054,1.6353150606155396,-0.811971127986908,-0.5404411554336548,-0.22051337361335754,-1.6870675086975098,-1.5140020847320557,-0.12592211365699768
0.5539456811147411,-1.3009993745033435,0.10102145354954527,-1.4012739658355713,0.3857663869857788,1.2819212675094604,-0.8196904063224792,-0.5260469317436218,-0.2266768217086792,-1.64927339553833,-1.6442716121673584,0.009330600500106812
0.5386951199197484,-1.2870571992777495,0.08620507037363773,-1.8201450109481812,0.7969845533370972,0.9494040012359619,-0.8240568041801453,-0.5130163431167603,-0.2403007447719574,-1.550668478012085,-1.7199089527130127,0.02229847013950348
0.5259559760708384,-1.269980204659198,0.06795165154365478,-1.8551510572433472,0.7087640762329102,0.5693448781967163,-0.8260084986686707,-0.5020400285720825,-0.256253182888031,-1.448603868484497,-1.6925551891326904,-0.10869130492210388
0.5172777087863828,-1.2556738908857588,0.05061814359551851,-1.4799317121505737,0.42162129282951355,0.17140711843967438,-0.8263694643974304,-0.4945158362388611,-0.2693839371204376,-1.3857125043869019,-1.6609711647033691,-0.402033269405365
0.513649334687902,-1.245973054063267,0.03756672545839684,-0.8872553706169128,0.25307080149650574,-0.19067353010177612,-0.825412392616272,-0.4913589358329773,-0.2779584228992462,-1.265270709991455,-1.685887098312378,-0.6759295463562012
0.5150834468491376,-1.2397125701461993,0.02973131597439977,-0.3264375925064087,0.23986153304576874,-0.5143879652023315,-0.822988748550415,-0.4926074743270874,-0.28289103507995605,-1.1283814907073975,-1.6580729484558105,-0.7592995166778564
0.5209687206618414,-1.2352665956601845,0.025790629398777312,0.03697658330202103,0.2534116208553314,-0.8152163028717041,-0.8189712166786194,-0.4977205693721771,-0.2855876684188843,-1.009657382965088,-1.5627193450927734,-0.6682850122451782
0.5303481800699574,-1.2317395802675062,0.023604196383421424,0.20209923386573792,0.2253115475177765,-1.0698953866958618,-0.8135203719139099,-0.5058337450027466,-0.2869090735912323,-0.9207935929298401,-1.4878642559051514,-0.5350666046142578
0.5423436645307826,-1.2285934102578437,0.02135770071008731,0.22256384789943695,0.17331534624099731,-1.311265230178833,-0.8068395256996155,-0.5161447525024414,-0.28741025924682617,-0.8752742409706116,-1.433028221130371,-0.4485059082508087
0.5566015931620533,-1.2252169614297423,0.01799473445457136,0.19887450337409973,0.15836995840072632,-1.5570694208145142,-0.7988587021827698,-0.5283038020133972,-0.28761059045791626,-0.8912352919578552,-1.3476574420928955,-0.40817490220069885
0.5731646243892943,-1.220880767830959,0.013529112555217467,0.23021234571933746,0.24443413317203522,-1.801024317741394,-0.7892749905586243,-0.5422936677932739,-0.28803232312202454,-0.929124116897583,-1.2348363399505615,-0.4181901812553406
0.5922317026398626,-1.2149214823727337,0.008853846028791591,0.36148837208747864,0.43602538108825684,-2.031491756439209,-0.7777097821235657,-0.5582140684127808,-0.2890751361846924,-0.9650728106498718,-1.1206188201904297,-0.4707515239715576
0.613935477444097,-1.20722915740372,0.0048113234684390655,0.5381356477737427,0.6386224031448364,-2.250999927520752,-0.7639579772949219,-0.5760887265205383,-0.2906714379787445,-1.0099372863769531,-1.0062780380249023,-0.5213402509689331
0.6381652550711382,-1.1980632840969683,0.001461018232425212,0.6894644498825073,0.7886712551116943,-2.4510140419006348,-0.7480396032333374,-0.5957227945327759,-0.29249149560928345,-1.041770577430725,-0.8936265707015991,-0.5392345786094666
0.6646520472340104,-1.187834055368528,-0.0015767079877462712,0.8043199777603149,0.8764867782592773,-2.6315226554870605,-0.7301130890846252,-0.6167852878570557,-0.2941272556781769,-1.0645036697387695,-0.7871147990226746,-0.532456636428833
0.6930590228034178,-1.1768549790927583,-0.004677794087050236,0.8937670588493347,0.9182217121124268,-2.787100315093994,-0.7103698253631592,-0.6388934850692749,-0.29527920484542847,-1.0829498767852783,-0.6805644631385803,-0.5278714299201965
0.7231273292105033,-1.1654732526069405,-0.00785471910940273,0.999222993850708,0.9388055205345154,-2.924511194229126,-0.6889922618865967,-0.6617326140403748,-0.2956342101097107,-1.1034882068634033,-0.5723371505737305,-0.5496569275856018
0.7549154635966113,-1.1537694878500848,-0.010926449191758328,1.1214690208435059,0.9884458184242249,-3.0637712478637695,-0.6659095883369446,-0.68522709608078,-0.2950054109096527,-1.1370537281036377,-0.4724266529083252,-0.5951923131942749
0.7884994404732564,-1.141507804639284,-0.013654316250612808,1.276727557182312,1.0820716619491577,-3.1990203857421875,-0.6409484148025513,-0.7092962861061096,-0.2934006452560425,-1.1621370315551758,-0.3616112470626831,-0.6255446672439575
0.8240141906678587,-1.128770656054896,-0.015554523673306665,1.4791616201400757,1.1812655925750732,-3.326904773712158,-0.6139931678771973,-0.733878493309021,-0.29057687520980835,-1.1633505821228027,-0.227760910987854,-0.6352349519729614
0.8614447870827467,-1.1161983973894238,-0.01596878873714469,1.7071171998977661,1.2584937810897827,-3.4158337116241455,-0.5851900577545166,-0.7587844133377075,-0.2860049307346344,-1.1204679012298584,-0.0978286862373352,-0.621648907661438
0.9003627077191585,-1.1045086632489998,-0.014462050139007221,1.9034723043441772,1.3005021810531616,-3.4438018798828125,-0.5549951791763306,-0.783552348613739,-0.2793315351009369,-1.0326666831970215,0.029966533184051514,-0.5675923228263855
0.940068721217405,-1.093973889645291,-0.01128136038871012,2.0240907669067383,1.2986094951629639,-3.4262471199035645,-0.5239524245262146,-0.8075986504554749,-0.27066266536712646,-0.9431496262550354,0.16514259576797485,-0.48109209537506104
0.9799236477368252,-1.0846784243859242,-0.007061778550413442,2.0794057846069336,1.234405755996704,-3.392847776412964,-0.4925493001937866,-0.8304548263549805,-0.260268896818161,-0.8791242837905884,0.290385365486145,-0.392227441072464
1.019794326723457,-1.0766886424887945,-0.0024856299478750936,2.094735622406006,1.1222693920135498,-3.3932998180389404,-0.4609214961528778,-0.85200035572052,-0.2482873946428299,-0.8337409496307373,0.40148472785949707,-0.3240545392036438
1.059888869985223,-1.0696575122159266,0.0018017202378673269,2.1008052825927734,1.019001841545105,-3.422607660293579,-0.4288434088230133,-0.8723011612892151,-0.23491273820400238,-0.7779742479324341,0.5174885988235474,-0.2670708894729614
1.1001870145060175,-1.0632683091689756,0.005688838115787079,2.104170560836792,0.9431277513504028,-3.4291486740112305,-0.3962739109992981,-0.891292154788971,-0.2203749716281891,-0.6709563136100769,0.648845374584198,-0.2215348333120346
1.14036739554248,-1.057722854428324,0.009644256888923244,2.10929799079895,0.86809903383255,-3.3864777088165283,-0.3635341227054596,-0.9087868332862854,-0.20481541752815247,-0.5354069471359253,0.7816964387893677,-0.18548917770385742
1.1800077571302445,-1.0538794581220914,0.014381636054553754,2.112877130508423,0.7572087645530701,-3.3034307956695557,-0.3311495780944824,-0.9246089458465576,-0.1882503181695938,-0.40058568120002747,0.8978756070137024,-0.15218853950500488
1.2188735030043572,-1.053097833469499,0.020707318408365722,2.119368076324463,0.562731146812439,-3.2023162841796875,-0.2995336949825287,-0.9387116432189941,-0.17058737576007843,-0.2828637957572937,0.9938263893127441,-0.12430399656295776
1.2569114087235858,-1.057452910374429,0.029883013547757648,2.142622470855713,0.2953779995441437,-3.09951114654541,-0.2689599394798279,-0.9511412382125854,-0.15162791311740875,-0.1793128252029419,1.079177737236023,-0.09670889377593994
1.2942273892304397,-1.0692429118385998,0.04384201090590351,2.18245792388916,0.023960359394550323,-3.0107004642486572,-0.23942624032497406,-0.9619979858398438,-0.1312824934720993,-0.08799690008163452,1.1585159301757812,-0.07571828365325928
1.3310854474674376,-1.0906935020986,0.0651284167595068,2.240199089050293,-0.1844288408756256,-2.958822250366211,-0.21058093011379242,-0.9714066386222839,-0.10965824127197266,-0.01936909556388855,1.2247329950332642,-0.06387998163700104
1.3676279965156037,-1.1252119677506491,0.09812844084965008,2.3067071437835693,-0.260644793510437,-2.9112930297851562,-0.18207205832004547,-0.979432225227356,-0.08696137368679047,0.05435594916343689,1.275895357131958,-0.05238192528486252
1.4034593463257787,-1.1804282363240408,0.15172542407223416,2.3908209800720215,-0.23913735151290894,-2.8048696517944336,-0.15402713418006897,-0.9860318303108215,-0.06337989866733551,0.1514025777578354,1.3222897052764893,-0.03241485357284546
1.437299161807987,-1.2728619607954388,0.24305911825439835,2.4456818103790283,-0.18187114596366882,-2.610163927078247,-0.12723690271377563,-0.9911024570465088,-0.03907119482755661,0.27782583236694336,1.3752578496932983,-0.00897878035902977
1.4670410227736022,-1.4297270979896521,0.3995461673308511,2.4288394451141357,-0.10687488317489624,-2.3529093265533447,-0.10253909230232239,-0.9946222305297852,-0.014561835676431656,0.39178466796875,1.4104397296905518,0.01976502127945423
1.4897655385054323,-1.6853774271497046,0.655693371420209,2.314854145050049,0.0008973861113190651,-2.0780389308929443,-0.08041088283061981,-0.9967188239097595,0.009254101663827896,0.47465217113494873,1.4291987419128418,0.0523914098739624
1.5020877539400248,-2.045563126917511,1.017675878552406,2.113154649734497,0.16803570091724396,-1.7972699403762817,-0.06106137856841087,-0.9976404905319214,0.03138416260480881,0.5366930365562439,1.4448299407958984,0.09146428108215332
1.5028673935442203,-2.424975979872471,1.4005201427157954,1.8648697137832642,0.33886414766311646,-1.5159873962402344,-0.04458530247211456,-0.9976937174797058,0.05118278041481972,0.5833120346069336,1.4528632164001465,0.12316418439149857
1.4958063256500165,-2.714901848977194,1.69523945383974,1.5602116584777832,0.46234330534935,-1.2487396001815796,-0.03100641816854477,-0.9971895813941956,0.0682026594877243,0.6089024543762207,1.4473237991333008,0.14479470252990723
1.4862223856008252,-2.9005696526626052,1.886548587640869,1.22393000125885,0.5362098217010498,-0.9969859719276428,-0.020163526758551598,-0.9964257478713989,0.08203183114528656,0.6140965819358826,1.434932827949524,0.16497743129730225
1.4774572832401878,-3.0134233680267606,2.005429913415162,0.8731279373168945,0.5651467442512512,-0.7531359791755676,-0.01191302202641964,-0.9956470727920532,0.09243804216384888,0.611674964427948,1.4304921627044678,0.17353785037994385
1.4711105860260294,-3.082233755017417,2.0799181349461917,0.5199823975563049,0.4799977242946625,-0.5613617300987244,-0.005903899669647217,-0.9950354695320129,0.09934423118829727,0.5962053537368774,1.4238533973693848,0.17835043370723724
1.4678281507295092,-3.127749534768491,2.129545114035784,0.17830802500247955,0.2702536880970001,-0.4241468906402588,-0.0014228153740987182,-0.994703471660614,0.10277485102415085,0.5617560148239136,1.4045242071151733,0.18279336392879486
1.4675259303749204,3.120611654734115,2.1657808525982976,-0.10864252597093582,-0.02929336205124855,-0.3224623501300812,0.0021627156529575586,-0.9946723580360413,0.10306460410356522,0.5327798128128052,1.376950740814209,0.1780174970626831
1.4696791745771187,3.0918369536384556,2.1929530370009336,-0.329319030046463,-0.3063771724700928,-0.2047729343175888,0.005020481534302235,-0.9948920011520386,0.10081936419010162,0.5224910974502563,1.3625221252441406,0.16305088996887207
1.4737314465041045,3.0732235993180814,2.207657997863885,-0.4818579852581024,-0.47080928087234497,-0.030259454622864723,0.006620778702199459,-0.9952929019927979,0.09668789058923721,0.5316329598426819,1.3688889741897583,0.1296762377023697
1.479093050509058,3.072895933601088,2.2032023551781568,-0.5669004321098328,-0.4539644122123718,0.1931736022233963,0.0062859877943992615,-0.9957982301712036,0.09135948121547699,0.5557714700698853,1.389078140258789,0.08294165879487991
1.4851136532900953,3.1010070644415717,2.171280370966271,-0.5899535417556763,-0.2690342366695404,0.4389905631542206,0.0034723333083093166,-0.996331512928009,0.08550883829593658,0.5796727538108826,1.4040768146514893,0.04120016098022461
1.490970548472231,-3.1155832580601914,2.102831901461482,-0.5582722425460815,-0.0601065456867218,0.70261549949646,-0.002073788782581687,-0.9968156218528748,0.07971431314945221,0.5934739112854004,1.4011430740356445,0.005795955657958984
1.4956008744268114,-3.0014038960816496,1.9884486671453545,-0.5058183073997498,0.07732641696929932,0.9795114994049072,-0.010497321374714375,-0.9971741437911987,0.07438873499631882,0.6082908511161804,1.3801087141036987,-0.018297433853149414
1.497956273905124,-2.8387457605568263,1.8263456820563893,-0.48082447052001953,0.10125486552715302,1.2463525533676147,-0.021705027669668198,-0.9973483085632324,0.06946535408496857,0.6213296055793762,1.3585543632507324,-0.015357725322246552
1.497077953736723,-2.640983740059942,1.6285799022307603,-0.49189841747283936,-0.014562017284333706,1.4689635038375854,-0.035350821912288666,-0.9972840547561646,0.06461569666862488,0.6296195387840271,1.3452301025390625,0.010777957737445831
1.492326121118319,-2.434885302196532,1.4206195625080598,-0.5219506621360779,-0.2531810998916626,1.6525194644927979,-0.05090019106864929,-0.9969227910041809,0.05961469188332558,0.6263548731803894,1.3293662071228027,0.04086446017026901
1.4835618135363655,-2.24575139351485,1.2267270513406914,-0.5621441602706909,-0.5735657811164856,1.822034478187561,-0.06802085041999817,-0.9961974620819092,0.05444056913256645,0.6247529983520508,1.2953460216522217,0.07026946544647217
1.4710130339150282,-2.0876197254663365,1.060340376435826,-0.5999997854232788,-0.9253761172294617,1.9777897596359253,-0.08660709112882614,-0.9950257539749146,0.049223270267248154,0.614072859287262,1.260925531387329,0.08619844913482666
1.4553075948025735,-1.9633937491633455,0.9243214862306984,-0.6432124972343445,-1.2715332508087158,2.10355281829834,-0.10646577924489975,-0.9933385848999023,0.04408688843250275,0.5810445547103882,1.2273015975952148,0.09826231002807617
1.437282454972856,-1.869633849667849,0.815195038405805,-0.6815860271453857,-1.6174274682998657,2.1850228309631348,-0.12721677124500275,-0.9911002516746521,0.039190780371427536,0.5299113988876343,1.1794853210449219,0.10701882839202881
1.4176032551991198,-1.8004514734902388,0.7275426103870922,-0.6999655365943909,-1.8721591234207153,2.246887683868408,-0.14858734607696533,-0.9882888793945312,0.034736696630716324,0.47337064146995544,1.1196213960647583,0.1133497953414917
1.3968343360975692,-1.750408284823019,0.6570125345681616,-0.6971451640129089,-2.0134849548339844,2.2648515701293945,-0.17030096054077148,-0.9849067330360413,0.030921319499611855,0.410520076751709,1.071042776107788,0.1220022439956665
1.3755292738092277,-1.7155759308600553,0.6006720052268858,-0.6425804495811462,-2.0721957683563232,2.258903741836548,-0.19199825823307037,-0.9809958934783936,0.027993297204375267,0.3216369152069092,1.0496604442596436,0.11141097545623779
1.3537390490194774,-1.6936083167949352,0.5571065768292295,-0.5290265083312988,-2.042471408843994,2.287708044052124,-0.2137349396944046,-0.976535439491272,0.02638198435306549,0.22823074460029602,1.0410343408584595,0.0533299446105957
1.3311459661100595,-1.6826817237911618,0.5254151905506238,-0.35758018493652344,-1.9158742427825928,2.355975389480591,-0.23587897419929504,-0.9714210033416748,0.02650209330022335,0.14241884648799896,1.0206458568572998,-0.029843807220458984
1.3075476968057929,-1.6803766847706114,0.5046019626008181,-0.14770855009555817,-1.6185442209243774,2.4338772296905518,-0.25865814089775085,-0.9655497074127197,0.028457848355174065,0.02294027805328369,0.96857088804245,-0.11537182331085205
1.2829801238497138,-1.6823751830900644,0.4925408713879053,0.02962682768702507,-1.0599863529205322,2.5081698894500732,-0.2820940315723419,-0.9588660597801208,0.0316070057451725,-0.12510210275650024,0.8768653273582458,-0.1687835454940796
1.2573590587912946,-1.6821759355023083,0.4851424818093172,0.08877258002758026,-0.29184070229530334,2.6196701526641846,-0.30641987919807434,-0.9512794017791748,0.0342707559466362,-0.22061875462532043,0.7686469554901123,-0.1308131217956543
1.2305431565364273,-1.6737596587834622,0.4773736984802186,-0.035459354519844055,0.485944539308548,2.750826358795166,-0.33195844292640686,-0.9426702260971069,0.03430084511637688,-0.23002281785011292,0.6957830190658569,-0.0010976791381835938
1.202552376684598,-1.6547616951594974,0.4649109186191299,-0.3119037449359894,0.8934119939804077,2.883608102798462,-0.3587093651294708,-0.9329609274864197,0.03019014745950699,-0.20014381408691406,0.675804615020752,0.17455220222473145
1.1734587595397472,-1.6305085477235648,0.44725872129940947,-0.5712019205093384,0.58473801612854,2.996260643005371,-0.38627490401268005,-0.9220945239067078,0.023092783987522125,-0.19455090165138245,0.7084258198738098,0.3231290578842163
1.1428224303834078,-1.6108252385383055,0.42759928235515504,-0.6748265624046326,-0.28908976912498474,3.200817823410034,-0.4146958589553833,-0.9098085165023804,0.016608696430921555,-0.2101668417453766,0.7316774129867554,0.32151079177856445
1.1092500017747642,-1.6015015655248392,0.40911102312233766,-0.6709338426589966,-1.1379646062850952,3.561000347137451,-0.4451230764389038,-0.8953649401664734,0.013671907596290112,-0.2530580461025238,0.6401312947273254,0.177703857421875
1.071865410550705,-1.5985414063728336,0.3913606614560874,-0.7763263583183289,-1.281463861465454,3.9223086833953857,-0.4783027768135071,-0.8780946135520935,0.013273955322802067,-0.4027855098247528,0.4420595169067383,0.04524350166320801
1.0316227679027465,-1.5884863849686044,0.36955405888061066,-1.2417196035385132,-0.372207373380661,4.141366481781006,-0.5133467316627502,-0.8581333160400391,0.00908208079636097,-0.800663948059082,0.19068336486816406,0.07389521598815918
0.9891315532614368,-1.5590426606911962,0.3386698331924781,-2.0331575870513916,1.0335767269134521,4.334222793579102,-0.5493780374526978,-0.8355491757392883,-0.006457502953708172,-1.2355189323425293,-0.007361650466918945,0.29924315214157104
0.9444924005562825,-1.509526811859404,0.29741283721406225,-2.9482955932617188,1.9470865726470947,4.355306625366211,-0.585054337978363,-0.810199499130249,-0.03589091822504997,-1.5195446014404297,-0.0457727313041687,0.5139792561531067
0.8987127238950356,-1.4522217811629536,0.24933157199459666,-3.589442253112793,1.7010618448257446,4.193658351898193,-0.6182460188865662,-0.7825260758399963,-0.07365375012159348,-1.7734624147415161,-0.08522593975067139,0.4019923806190491
0.8530636319409909,-1.4031065224012234,0.20111013772578165,-3.738598346710205,0.6519944667816162,3.9111263751983643,-0.6484530568122864,-0.753298819065094,-0.109769806265831,-1.761108160018921,-0.28760987520217896,-0.05508618801832199
0.8096429046244967,-1.3713636621639151,0.15875175997298607,-3.384624719619751,-0.5348911285400391,3.547741413116455,-0.6760854721069336,-0.7240409255027771,-0.13665002584457397,-1.613175392150879,-0.5275307297706604,-0.586830198764801
0.7703261309586376,-1.3575805170522048,0.12612289065342216,-2.670914649963379,-1.2653166055679321,3.1892805099487305,-0.7014320492744446,-0.6963693499565125,-0.15186470746994019,-1.5106956958770752,-0.7764546871185303,-1.0215667486190796
0.735853364924823,-1.35674322172898,0.10515245996801616,-1.751960277557373,-1.3422350883483887,2.882632255554199,-0.7243412137031555,-0.6712199449539185,-0.15745973587036133,-1.4280483722686768,-0.980742335319519,-1.2035937309265137
0.7060291763022344,-1.362082782302021,0.09600477397351252,-0.8499391078948975,-0.8886541128158569,2.654707670211792,-0.7444304823875427,-0.6488173007965088,-0.1576688140630722,-1.4090882539749146,-1.0513474941253662,-1.1535494327545166
0.6796848007599797,-1.3684979408844409,0.09662946402386317,-0.1646447330713272,-0.32234153151512146,2.5091419219970703,-0.761910080909729,-0.6285479068756104,-0.1562708020210266,-1.3711923360824585,-1.1259534358978271,-0.9741918444633484
0.655899893460161,-1.3736550136610377,0.10326325810724224,0.2003878355026245,0.08505873382091522,2.3278310298919678,-0.7771492004394531,-0.6098726391792297,-0.15522436797618866,-1.3071403503417969,-1.2813016176223755,-0.7479434013366699
0.6350302368784831,-1.3769969450032415,0.11172292545627907,0.2917015254497528,0.21505765616893768,1.9911028146743774,-0.7899828553199768,-0.5932018756866455,-0.15504412353038788,-1.325373649597168,-1.4589526653289795,-0.5567936897277832
0.6185359847759673,-1.380341775732456,0.11942133913414131,0.3067537248134613,-0.016356930136680603,1.447500228881836,-0.7999966740608215,-0.5798429846763611,-0.15423235297203064,-1.4096133708953857,-1.6316895484924316,-0.42962998151779175
0.6080536861367928,-1.3858067036503194,0.12614973464861928,0.39102545380592346,-0.28204166889190674,0.8137580752372742,-0.8067577481269836,-0.5712710618972778,-0.15096785128116608,-1.4505817890167236,-1.8002955913543701,-0.3878352642059326
0.6034763912357651,-1.3924114313630211,0.13265428758268638,0.4894782602787018,-0.2619025707244873,0.29903534054756165,-0.8103020191192627,-0.5675082206726074,-0.14609861373901367,-1.3522039651870728,-1.9127620458602905,-0.35460329055786133
0.6032025856926927,-1.3973434005060854,0.1386522167990723,0.4473031461238861,-0.03098929114639759,-0.05936230719089508,-0.8111659288406372,-0.5672827959060669,-0.14212730526924133,-1.1831883192062378,-1.951103925704956,-0.2521597743034363
0.6058300328380978,-1.3984986245313447,0.14229217821284226,0.21286986768245697,0.2052069902420044,-0.35111427307128906,-0.8098583221435547,-0.5694445967674255,-0.14093410968780518,-1.0637683868408203,-1.9599742889404297,-0.1020926833152771
0.6109816758379971,-1.3953369091732493,0.1418721347050733,-0.10215168446302414,0.36879175901412964,-0.6746196746826172,-0.8065093755722046,-0.573671817779541,-0.1429799497127533,-1.0095611810684204,-1.954770565032959,0.021672546863555908
0.6188569929504654,-1.388424232861781,0.13723191870960127,-0.3436005413532257,0.46972155570983887,-0.9976025223731995,-0.8010338544845581,-0.5801045298576355,-0.14772765338420868,-0.9879065752029419,-1.9264719486236572,0.05748720467090607
0.629278556375776,-1.3790085337371358,0.12981373963719667,-0.42857837677001953,0.5369793176651001,-1.2610578536987305,-0.7936293482780457,-0.5885616540908813,-0.15410250425338745,-0.9302018284797668,-1.8744356632232666,0.011783793568611145
0.6420086323346903,-1.3683426620426842,0.121469961834006,-0.36671286821365356,0.6054111123085022,-1.483669400215149,-0.7845371961593628,-0.5988053679466248,-0.16103865206241608,-0.8642969727516174,-1.8008832931518555,-0.05102799832820892
0.6569398902243965,-1.3571358648457208,0.113799586383527,-0.2021709829568863,0.7114564776420593,-1.6783201694488525,-0.7738587856292725,-0.6106964945793152,-0.16790585219860077,-0.825491189956665,-1.71217942237854,-0.10486030578613281
0.6740342383448115,-1.345574951006916,0.1075979860506395,-0.007521868217736483,0.8236083388328552,-1.8589069843292236,-0.7615777850151062,-0.6241430640220642,-0.17448383569717407,-0.8113744258880615,-1.6215996742248535,-0.138550266623497
0.6932641871483698,-1.333872407429554,0.10274678063261027,0.1464788168668747,0.8897234797477722,-2.041369915008545,-0.7476771473884583,-0.6390512585639954,-0.1805332601070404,-0.8228641748428345,-1.5268573760986328,-0.1416713446378708
0.7145438296673127,-1.3221213859733676,0.09837678964734549,0.21844515204429626,0.8725876212120056,-2.238184690475464,-0.7321557402610779,-0.655272901058197,-0.18591700494289398,-0.8713750839233398,-1.4250949621200562,-0.11968603730201721
0.7380089064695,-1.310705429951115,0.09348555273550806,0.2532319724559784,0.7437888383865356,-2.4762887954711914,-0.7149271965026855,-0.6728162169456482,-0.19025561213493347,-0.953758716583252,-1.3006792068481445,-0.10043951869010925
0.7639417875017238,-1.3001263384240713,0.08759642755655984,0.28050756454467773,0.5650941729545593,-2.7381865978240967,-0.6958240866661072,-0.6917732357978821,-0.1930769681930542,-1.0278087854385376,-1.1620780229568481,-0.1196671724319458
0.7922169358551668,-1.2903377114921208,0.08080712802969385,0.32661712169647217,0.4474125802516937,-2.935833692550659,-0.6748301982879639,-0.7119119167327881,-0.19438546895980835,-1.0465137958526611,-1.002687692642212,-0.17203909158706665
0.8219371892533964,-1.280995551100575,0.07363117605514981,0.391444593667984,0.3884142339229584,-3.0094385147094727,-0.6524145603179932,-0.7324660420417786,-0.19454729557037354,-1.0002496242523193,-0.8207564949989319,-0.22685466706752777
0.8518714358183613,-1.2720636935462148,0.06682194167300863,0.46936455368995667,0.39978688955307007,-2.951932668685913,-0.6294078826904297,-0.7525141835212708,-0.19382499158382416,-0.9444599151611328,-0.628085732460022,-0.26117682456970215
0.8809378149305032,-1.2630659331905991,0.061083660132176816,0.553205132484436,0.539507269859314,-2.7911088466644287,-0.6065309047698975,-0.7713360786437988,-0.1927718073129654,-0.8979857563972473,-0.44518613815307617,-0.2882157564163208
0.9084384560730171,-1.2529415238122195,0.056829047332717535,0.6249678730964661,0.8379166722297668,-2.591498374938965,-0.5841725468635559,-0.7885443568229675,-0.19219878315925598,-0.8336436748504639,-0.3120110034942627,-0.3051919937133789
0.934476701180212,-1.2400480979102328,0.053832787939325256,0.6878852844238281,1.2727131843566895,-2.4553186893463135,-0.5620312690734863,-0.8042882084846497,-0.19297966361045837,-0.8053851127624512,-0.21142816543579102,-0.3106824457645416
0.9598782379042873,-1.223179759437291,0.05189827234355351,0.7929362654685974,1.7849973440170288,-2.404952049255371,-0.5393097996711731,-0.8191217184066772,-0.19540801644325256,-0.8552061915397644,-0.11828655004501343,-0.34124359488487244
0.9855222649551078,-1.2024802141270639,0.051665985754117155,0.983191192150116,2.302313804626465,-2.39227557182312,-0.5153792500495911,-0.8335607051849365,-0.19889889657497406,-0.9193589091300964,-0.0268365740776062,-0.40194642543792725
1.011916656868509,-1.1792471513171634,0.05433165835756846,1.241703987121582,2.763073682785034,-2.388368844985962,-0.49010759592056274,-0.8478496670722961,-0.20234926044940948,-0.9111527800559998,0.07818126678466797,-0.4540075361728668
1.0393732292460316,-1.1555493967822885,0.06112906915803963,1.5582307577133179,3.0983898639678955,-2.3692922592163086,-0.46369433403015137,-0.8620867729187012,-0.20443522930145264,-0.8675587177276611,0.19514048099517822,-0.4900990426540375
1.0681109228447592,-1.1344232530708096,0.07347320435620891,1.9205105304718018,3.2155771255493164,-2.3482487201690674,-0.4366331100463867,-0.8762919306755066,-0.20362703502178192,-0.8004427552223206,0.32194018363952637,-0.5069594979286194
1.0985112231706944,-1.1197701067386998,0.09255408766615258,2.289961576461792,3.0317893028259277,-2.365586757659912,-0.40943023562431335,-0.890531063079834,-0.19829580187797546,-0.725457489490509,0.44056469202041626,-0.4931104779243469
1.1309604705133758,-1.1152693358236008,0.11914200946931292,2.636474847793579,2.5997419357299805,-2.4287874698638916,-0.38237264752388,-0.9048215746879578,-0.1873205602169037,-0.6605808734893799,0.5522521138191223,-0.4513055682182312
1.165561492669628,-1.124187661116201,0.15399737381355305,2.928149461746216,1.9291541576385498,-2.5432851314544678,-0.35556671023368835,-0.9190098643302917,-0.17027351260185242,-0.5929653644561768,0.6661718487739563,-0.39961183071136475
1.2024153447877657,-1.1498891608965076,0.19783964006376545,3.1446762084960938,1.0191833972930908,-2.7403011322021484,-0.3286748230457306,-0.9329115748405457,-0.147134929895401,-0.5286555290222168,0.7653396725654602,-0.3243159055709839
1.241313110583795,-1.1960163623121807,0.2526068223820292,3.2945780754089355,0.05419500172138214,-2.948870897293091,-0.3010959327220917,-0.9462096691131592,-0.11844285577535629,-0.4703274667263031,0.8668181300163269,-0.24143578112125397
1.2810310880517213,-1.2668075497706024,0.32306070554597366,3.3657872676849365,-0.7544693946838379,-3.076460599899292,-0.2726267874240875,-0.9583109617233276,-0.08552633225917816,-0.37483417987823486,0.9723033308982849,-0.17600929737091064
1.3196226475805235,-1.3668391972297205,0.41607355003431956,3.349935293197632,-1.26984703540802,-3.1081035137176514,-0.24338966608047485,-0.9686213731765747,-0.05034103989601135,-0.2658724784851074,1.0741969347000122,-0.12768328189849854
1.354976816019135,-1.5005895639288613,0.5393596442290982,3.22568941116333,-1.4341075420379639,-3.0797462463378906,-0.21362070739269257,-0.9768012166023254,-0.015022308565676212,-0.1843286007642746,1.1721289157867432,-0.08983612060546875
1.3851743839386212,-1.6703413576727468,0.6984245448784663,2.987283229827881,-1.2953611612319946,-3.0079658031463623,-0.1836438626050949,-0.9828216433525085,0.018341457471251488,-0.13848446309566498,1.2489044666290283,-0.05030858516693115
1.4086321666479746,-1.8743339890081534,0.8939183146461888,2.6660990715026855,-0.966044008731842,-2.8939902782440186,-0.15407317876815796,-0.9868801832199097,0.04825828969478607,-0.10561619699001312,1.3118925094604492,-0.017939094454050064
1.4245199171017717,-2.1032403954191654,1.1177470768591764,2.3032584190368652,-0.5660247206687927,-2.7581684589385986,-0.12557774782180786,-0.989320695400238,0.07399102300405502,-0.07762359082698822,1.3804187774658203,0.005919210612773895
1.4331141217972576,-2.3396952033562695,1.352939350969397,1.9331320524215698,-0.15685757994651794,-2.602327346801758,-0.09863558411598206,-0.9905367493629456,0.0954332947731018,-0.04378996789455414,1.4501011371612549,0.027125224471092224
1.4355438439896286,-2.5632154036101027,1.5787923030841557,1.5966925621032715,0.1932559609413147,-2.415231466293335,-0.073713019490242,-0.9908673167228699,0.11290930211544037,0.009397178888320923,1.5067975521087646,0.04112815856933594
1.4331871587246083,-2.75985397027484,1.7803426686684196,1.3495060205459595,0.3947763442993164,-2.2085137367248535,-0.051102422177791595,-0.9905467629432678,0.1273009032011032,0.08415290713310242,1.5539623498916626,0.03255009651184082
1.4273178706538643,-2.9255152451405055,1.9520935481891264,1.1818221807479858,0.4693581759929657,-2.032426118850708,-0.030656253919005394,-0.9897246360778809,0.13966131210327148,0.15103277564048767,1.6035857200622559,0.02237163484096527
1.41920341615574,-3.0629953592394115,2.095756347428315,1.0251306295394897,0.4402580261230469,-1.898431658744812,-0.011856995522975922,-0.988531768321991,0.15054677426815033,0.21185389161109924,1.6485049724578857,0.041393399238586426
1.4103257100188897,3.1046980491921254,2.2166312074229415,0.8071284890174866,0.3255426287651062,-1.810798168182373,0.005893794819712639,-0.9871522188186646,0.15967431664466858,0.29830536246299744,1.6664429903030396,0.10042703151702881
1.4021807253609768,3.003964026106365,2.3211423750498255,0.5004172921180725,0.14366021752357483,-1.724591612815857,0.02302376553416252,-0.9858180284500122,0.16623149812221527,0.3873613178730011,1.6724176406860352,0.16970600187778473
1.3959631253781561,2.913477525704276,2.4134302909841003,0.1428794115781784,-0.05374927073717117,-1.5792481899261475,0.039335962384939194,-0.9847555756568909,0.16943760216236115,0.46980398893356323,1.677901268005371,0.21612143516540527
1.3924117465009334,2.8316607719875404,2.495002654039575,-0.21412993967533112,-0.24811221659183502,-1.3489630222320557,0.05411815270781517,-0.9841316342353821,0.16898593306541443,0.5379380583763123,1.6706244945526123,0.21393334865570068
1.3918779982470506,2.758384882076746,2.5661722831381746,-0.5347351431846619,-0.386474072933197,-1.0525017976760864,0.06654080003499985,-0.9840367436408997,0.16505753993988037,0.5675228238105774,1.659711241722107,0.16994915902614594
1.3944355140430487,2.693269450687437,2.628140112082475,-0.8050310611724854,-0.4165882170200348,-0.7371529936790466,0.076048843562603,-0.9844887256622314,0.15810942649841309,0.5580605864524841,1.6478798389434814,0.10711884498596191
1.399901183123742,2.6358720543013234,2.6826019361994673,-1.016518473625183,-0.3186989426612854,-0.43184930086135864,0.08238571137189865,-0.9854329228401184,0.1487767994403839,0.532512903213501,1.6306049823760986,0.045223355293273926
1.4079486781909714,2.585381146091585,2.7314017213243136,-1.178665280342102,-0.1489643156528473,-0.1512300670146942,0.08559929579496384,-0.9867696166038513,0.13768930733203888,0.5012536644935608,1.615736961364746,-0.005899205803871155
1.4183068686982683,2.5413329506360287,2.7754404892665243,-1.300302505493164,0.034835875034332275,0.12571151554584503,0.08580100536346436,-0.9883959889411926,0.1253451108932495,0.47343355417251587,1.60883367061615,-0.040796175599098206
1.4307812998594025,2.5036566316415696,2.814674079202045,-1.3808469772338867,0.1879265308380127,0.39005163311958313,0.08311149477958679,-0.9902138710021973,0.1121097281575203,0.45724791288375854,1.6035258769989014,-0.06369366496801376
1.4451501474962658,2.4725688141573743,2.84854775371643,-1.4339762926101685,0.29968100786209106,0.6378307938575745,0.07772333174943924,-0.9921168684959412,0.09830102324485779,0.4535723924636841,1.594228744506836,-0.07225430756807327
1.461193865696482,2.448472536284755,2.8760549987633417,-1.452860951423645,0.3294922709465027,0.8748665452003479,0.06988907605409622,-0.9939996600151062,0.08414337038993835,0.4513053297996521,1.5820276737213135,-0.06830477714538574
1.4787545203235144,2.4340602216946468,2.8936214680448,-1.4457238912582397,0.2726958394050598,1.110068678855896,0.05973910167813301,-0.9957671165466309,0.06985010206699371,0.4505147635936737,1.5680174827575684,-0.06696629524230957
1.49763340362363,2.4371134414622055,2.8927274102570433,-1.403342604637146,0.1503942310810089,1.3436602354049683,0.0473405197262764,-0.9973247647285461,0.055696405470371246,0.4548261761665344,1.549235224723816,-0.06425666809082031
1.5175432656832104,2.479762755931571,2.850622379874496,-1.3360042572021484,-0.03102722018957138,1.5730384588241577,0.03271007165312767,-0.9985823631286621,0.04198760539293289,0.45201581716537476,1.5323960781097412,-0.06109166517853737
1.5377420612050008,2.6387740407385754,2.6901224524382856,-1.2549861669540405,-0.2360139638185501,1.780264139175415,0.015925224870443344,-0.9994537830352783,0.028956640511751175,0.42563357949256897,1.5073578357696533,-0.06058812141418457
1.5537767731442205,-2.9851583474843046,2.0273671143379293,-1.1630432605743408,-0.4226464331150055,1.9301433563232422,-0.0026517498772591352,-0.9998551607131958,0.016812702640891075,0.3690152168273926,1.4719774723052979,-0.06322991847991943
1.5477946570258725,-1.8205256326625723,0.8576816633961301,-1.0701760053634644,-0.5305246114730835,1.9791921377182007,-0.022278299555182457,-0.9997354745864868,0.00568216061219573,0.2733768820762634,1.4216105937957764,-0.06854844093322754
1.5287185175847364,-1.4613330954820418,0.4931028799800437,-1.0195056200027466,-0.49315619468688965,1.8994145393371582,-0.04181160032749176,-0.9991148710250854,-0.004595200996845961,0.10174804925918579,1.3504791259765625,-0.09222185611724854
1.5092034707831148,-1.3311635993101156,0.35833441335673,-1.0362826585769653,-0.37579745054244995,1.661442518234253,-0.05979292467236519,-0.9981037378311157,-0.014609054662287235,-0.102606400847435,1.2590444087982178,-0.09624606370925903
1.4917866997615723,-1.2442843882775074,0.26880517935174786,-1.144806981086731,-0.0788632407784462,1.3162175416946411,-0.07475574314594269,-0.9968803524971008,-0.025314703583717346,-0.3038453459739685,1.1312952041625977,-0.10517847537994385
1.476546715597182,-1.1580127416450947,0.1834556843685929,-1.3281601667404175,0.3151191473007202,1.0016076564788818,-0.08620492368936539,-0.9955617785453796,-0.03775298222899437,-0.381415992975235,0.9916556477546692,-0.08639252185821533
1.4618242763662663,-1.0713997662464751,0.10028614318194454,-1.464203119277954,0.4007672071456909,0.9338763356208801,-0.0954747125506401,-0.994068443775177,-0.05208329111337662,-0.24085956811904907,0.9421122074127197,-0.05289721488952637
1.44496716977881,-1.0061758393074927,0.0370390992768465,-1.491213321685791,0.02381131798028946,1.2671139240264893,-0.1060183122754097,-0.9920939803123474,-0.06715252250432968,0.06430073827505112,0.9187756180763245,-0.07832477986812592
1.4235292771356485,-0.9864234848683409,0.013626873257506819,-1.3396997451782227,-0.7505326271057129,2.0180177688598633,-0.12238483875989914,-0.9891757965087891,-0.08094977587461472,0.40099504590034485,0.8379918932914734,-0.13088802993297577
1.3957880687279773,-1.017880750564202,0.0339856368379067,-1.0912514925003052,-1.4651849269866943,3.0047829151153564,-0.1481720507144928,-0.9847251176834106,-0.09144052118062973,0.6009308099746704,0.7225029468536377,-0.18692559003829956
1.360323007855272,-1.078386305820002,0.07960699002857526,-0.9552170038223267,-1.5808955430984497,3.9706573486328125,-0.1841016709804535,-0.9779321551322937,-0.09876830130815506,0.5539136528968811,0.5736353397369385,-0.19072145223617554
1.3169027303760765,-1.1355665629372833,0.12425013545717456,-1.1242938041687012,-1.117652177810669,4.633307933807373,-0.22775809466838837,-0.9679417610168457,-0.10589978098869324,0.28076714277267456,0.43452519178390503,-0.10200123488903046
1.2676017347397233,-1.1697511339718136,0.15090736826530304,-1.5471441745758057,-0.6105623245239258,4.898069858551025,-0.2748796045780182,-0.9543875455856323,-0.11655603349208832,-0.1134260892868042,0.30273061990737915,0.04281027615070343
1.2155394840238,-1.1820679406112644,0.1585824605510468,-1.9673943519592285,-0.447559654712677,4.834621906280518,-0.32187986373901367,-0.9375571608543396,-0.131832093000412,-0.49605226516723633,0.12485891580581665,0.0937919169664383
1.1641519671340532,-1.183445283670665,0.154574321905516,-2.1406376361846924,-0.5843119025230408,4.508302688598633,-0.3662257790565491,-0.9184532165527344,-0.14940610527992249,-0.8561558723449707,-0.10589969158172607,-0.03920780122280121
1.1165919247639167,-1.1838510844891237,0.14734735095450932,-1.959012746810913,-0.813350260257721,4.033008575439453,-0.4063092768192291,-0.8986103534698486,-0.1655663400888443,-1.1675738096237183,-0.3374888300895691,-0.2883979082107544
1.074789833756637,-1.1894309300216896,0.14275428819808914,-1.541045904159546,-1.117773413658142,3.5446243286132812,-0.4417257010936737,-0.8794901371002197,-0.1771305948495865,-1.3053293228149414,-0.5044055581092834,-0.4512264132499695
1.038542625677042,-1.201883899909927,0.14268965328819783,-1.1306180953979492,-1.3595669269561768,3.1988186836242676,-0.4733336269855499,-0.8616655468940735,-0.1829966902732849,-1.263437032699585,-0.5987531542778015,-0.4877491593360901
1.006096370159115,-1.2185437984435221,0.14546430231194937,-0.9037836790084839,-1.480741262435913,2.9534645080566406,-0.5023022294044495,-0.8447492122650146,-0.1846379041671753,-1.1082630157470703,-0.6933213472366333,-0.3881770968437195
0.9764215738504872,-1.2356188262410188,0.14796091721016297,-0.852984607219696,-1.4949644804000854,2.729597330093384,-0.5288282632827759,-0.8284987807273865,-0.18420153856277466,-1.0696672201156616,-0.7489699125289917,-0.24836985766887665
0.9481160250463299,-1.2507045272604345,0.1483995671377152,-0.9173401594161987,-1.4411731958389282,2.6467881202697754,-0.5535908937454224,-0.8123182058334351,-0.18351055681705475,-1.0841654539108276,-0.9267106056213379,-0.20578692853450775
0.9198808854595577,-1.2639078872584268,0.14691544790529001,-0.9878875613212585,-1.4308805465698242,2.653698444366455,-0.5776052474975586,-0.7955294251441956,-0.18304313719272614,-1.126999855041504,-1.1801478862762451,-0.26167428493499756
0.8915148157913172,-1.2754798661741567,0.14371807334311926,-1.0641765594482422,-1.3658064603805542,2.6193840503692627,-0.6010379195213318,-0.7780243158340454,-0.1828428953886032,-1.1516019105911255,-1.33254075050354,-0.3154786229133606
0.8637773082904994,-1.2838860238544836,0.13846542512017895,-1.1684318780899048,-1.0810209512710571,2.4752163887023926,-0.6230175495147705,-0.7603015899658203,-0.18382197618484497,-1.171065092086792,-1.4496744871139526,-0.3118598461151123
0.8374878448642794,-1.2860068161430318,0.13032820517027996,-1.3469281196594238,-0.5355085730552673,2.244051456451416,-0.6423710584640503,-0.7429640293121338,-0.188052237033844,-1.2324763536453247,-1.5848557949066162,-0.2819489538669586
0.8129506430482839,-1.2793861360354744,0.11841535184247158,-1.5856757164001465,0.10505572706460953,1.9897122383117676,-0.658379077911377,-0.7263184785842896,-0.19748027622699738,-1.2494425773620605,-1.6844022274017334,-0.21349996328353882
0.7900777037229677,-1.2649940992202025,0.10315286706635222,-1.7589915990829468,0.5428495407104492,1.7434488534927368,-0.671138346195221,-0.7104079723358154,-0.2118818610906601,-1.2334332466125488,-1.7499496936798096,-0.2120988368988037
0.7692266968459917,-1.2469501636524931,0.08641360086750535,-1.75407874584198,0.668662428855896,1.4690492153167725,-0.6811026334762573,-0.6955798864364624,-0.228621244430542,-1.1956672668457031,-1.811072826385498,-0.3222668170928955
0.7513734579229253,-1.2301631819901724,0.07087361535178927,-1.4950556755065918,0.5194404721260071,1.1598045825958252,-0.6887655258178711,-0.6826430559158325,-0.24413251876831055,-1.117463231086731,-1.8711594343185425,-0.520927906036377
0.7377176291369931,-1.2182834445784059,0.05928316276765867,-0.9889631867408752,0.27480238676071167,0.8188793063163757,-0.6945012807846069,-0.6726006865501404,-0.25549232959747314,-0.9966760873794556,-1.9432439804077148,-0.7443398237228394
0.7293787692460307,-1.213023503257525,0.05407609560081304,-0.2908051311969757,0.10216562449932098,0.4761973023414612,-0.698377251625061,-0.6664065718650818,-0.26109689474105835,-0.8549370169639587,-2.015829086303711,-0.9167138338088989
0.726654326139365,-1.2135956576863542,0.056737649042510524,0.46828776597976685,0.171342670917511,0.17885418236255646,-0.7002249360084534,-0.6643728017807007,-0.26133114099502563,-0.7176980972290039,-2.0537362098693848,-0.9704956412315369
0.7287153958780284,-1.2175351847821607,0.06712593543874328,1.0985565185546875,0.43267756700515747,-0.009350333362817764,-0.6999626755714417,-0.665911853313446,-0.25809624791145325,-0.6438025832176208,-2.000195264816284,-0.8830627799034119
0.73373338753972,-1.2227506562174701,0.08346575635763007,1.493065357208252,0.6943587064743042,-0.08099700510501862,-0.6981492042541504,-0.6696469783782959,-0.2532992362976074,-0.6259016990661621,-1.873611569404602,-0.7025265693664551
0.7399521286049832,-1.2282638279543046,0.1035773045100621,1.7017275094985962,0.9031819701194763,-0.08072882890701294,-0.6955991983413696,-0.6742525696754456,-0.24804289638996124,-0.6530336141586304,-1.7506741285324097,-0.5032235980033875
0.7468746687753784,-1.232966873545084,0.12560903275417257,1.7996796369552612,1.133544921875,-0.1607714593410492,-0.6923377513885498,-0.6793486475944519,-0.2432158887386322,-0.7583611607551575,-1.6594727039337158,-0.3264404535293579
0.755647963814426,-1.2360419007122943,0.14802696746292485,1.8578484058380127,1.2855125665664673,-0.4373750686645508,-0.6874263286590576,-0.6857604384422302,-0.23911835253238678,-0.9053318500518799,-1.577301025390625,-0.19313260912895203
0.7679767863428538,-1.2381437575772822,0.16975868021682997,1.9108812808990479,1.2489899396896362,-0.8688469529151917,-0.6798840761184692,-0.6946813464164734,-0.2348940670490265,-1.0392014980316162,-1.4873864650726318,-0.133926123380661
0.7849704546440559,-1.2416296145744543,0.1903414757042669,1.9597814083099365,0.8922253847122192,-1.3907312154769897,-0.6694296598434448,-0.7068042755126953,-0.22867320477962494,-1.0901222229003906,-1.3955057859420776,-0.09823110699653625
0.8069534488125315,-1.2488723802745891,0.2095573758485205,1.974373698234558,0.4032837450504303,-1.893323540687561,-0.6561681032180786,-0.7221832275390625,-0.21884912252426147,-1.109823226928711,-1.28826904296875,-0.060386717319488525
