attitudeX,attitudeY,attitudeZ,gyroX,gyroY,gyroZ,gravityX,gravityY,gravityZ,accX,accY,accZ
1.354388555766643,0.8455017631268439,2.505176377888863,-0.07141131907701492,-0.7560874819755554,-0.04894835501909256,0.1606779545545578,-0.9766750931739807,-0.1424376368522644,0.2151765525341034,-0.29403114318847656,-0.01254582405090332
1.3543470886224405,0.8332381281963587,2.507454398870759,-0.00044061196967959404,-1.2370823621749878,0.09848576039075851,0.15894892811775208,-0.9766661524772644,-0.1444244682788849,0.21946905553340912,-0.3177216053009033,0.0033112317323684692
1.3557123076820439,0.81671714436582,2.5097271376455623,0.12020058184862137,-1.6011890172958374,0.15991556644439697,0.1555691808462143,-0.9769584536552429,-0.14611756801605225,0.1901339590549469,-0.3558356761932373,-0.01759392023086548
1.3582561143359706,0.8006137154433407,2.5083896796601906,0.2759248912334442,-1.8483147621154785,0.15748447179794312,0.15141190588474274,-0.9774982333183289,-0.14687299728393555,0.12857156991958618,-0.39063531160354614,-0.08580821752548218
1.3616603420112856,0.7897565074225816,2.4999709903162564,0.45363977551460266,-1.928299903869629,0.06965634226799011,0.1474444419145584,-0.9782106876373291,-0.14616478979587555,0.042573243379592896,-0.4133908748626709,-0.15023714303970337
1.3653260104268148,0.789190474437222,2.4813968751132505,0.5964263677597046,-1.7918708324432373,-0.09731802344322205,0.14481520652770996,-0.978965163230896,-0.14372098445892334,-0.04139116406440735,-0.440834641456604,-0.20140224695205688
1.3683340235357944,0.801705569689429,2.451370240716199,0.6853716969490051,-1.574550747871399,-0.3274742662906647,0.1444859653711319,-0.97957444190979,-0.13984879851341248,-0.0892643928527832,-0.45607924461364746,-0.21687114238739014
1.3699773141710692,0.826883664785884,2.4102595833189664,0.7265278697013855,-1.462393045425415,-0.5512357950210571,0.1467759758234024,-0.979903519153595,-0.13507646322250366,-0.1044328361749649,-0.434692919254303,-0.18967626988887787
1.3702111104817065,0.8591923389881426,2.3619271156207065,0.7416519522666931,-1.5641443729400635,-0.674081027507782,0.1508893370628357,-0.9799501299858093,-0.13011512160301208,-0.067103311419487,-0.3878628611564636,-0.12328754365444183
1.3699295654154537,0.8933082829229889,2.3099956077426493,0.8169945478439331,-1.79072105884552,-0.679305911064148,0.15545472502708435,-0.9798939824104309,-0.12506568431854248,0.015260562300682068,-0.32369476556777954,-0.08008860051631927
1.3704059814701082,0.9278146045826364,2.2550257710560238,0.9769456386566162,-2.073198080062866,-0.5728558897972107,0.15930388867855072,-0.9799889326095581,-0.1193486824631691,0.07470488548278809,-0.2365790605545044,-0.09290099143981934
1.3727395924251804,0.9633982256766226,2.1959920911870685,1.1868761777877808,-2.367941379547119,-0.4074653089046478,0.161570206284523,-0.9804508090019226,-0.1122998520731926,0.1243794709444046,-0.1492488980293274,-0.11028002947568893
1.3771902132757534,1.0016086537982083,2.131449988571185,1.3899377584457397,-2.622847080230713,-0.24886074662208557,0.16206486523151398,-0.9813168048858643,-0.10369284451007843,0.1446063071489334,-0.08940762281417847,-0.10576450079679489
1.383391917791806,1.0465633458231458,2.058075869041968,1.6207376718521118,-2.7719168663024902,-0.1432812660932541,0.16128934919834137,-0.982491135597229,-0.0932568907737732,0.16805632412433624,-0.07317286729812622,-0.12138842791318893
1.390728433512096,1.1036496320362437,1.971142303463974,1.8571422100067139,-2.891331911087036,-0.07896965742111206,0.15990684926509857,-0.983831524848938,-0.08065406233072281,0.16600562632083893,-0.05997633934020996,-0.12053298205137253
1.3985715828209293,1.1759621643940934,1.8674732152414162,2.0818355083465576,-3.0442962646484375,-0.023057671263813972,0.15818974375724792,-0.9852059483528137,-0.0659203827381134,0.17393308877944946,-0.004906415939331055,-0.08344787359237671
1.405971179215772,1.2662073579993864,1.7440340388035114,2.297180652618408,-3.2329609394073486,-0.013135000132024288,0.1565275937318802,-0.9864470362663269,-0.049207817763090134,0.1702089011669159,0.04974055290222168,-0.060609638690948486
1.4116371880797831,1.3761132952021895,1.5985202965117649,2.511427640914917,-3.4993042945861816,-0.05689127743244171,0.15549416840076447,-0.9873608946800232,-0.030660416930913925,0.12227687239646912,0.1232098937034607,-0.03515064716339111
1.4139239207856977,1.5039626571374456,1.4320605226404293,2.7179269790649414,-3.7793688774108887,-0.1895715594291687,0.15588122606277466,-0.9877207279205322,-0.010433653369545937,0.10243484377861023,0.21219277381896973,-0.0055574774742126465
1.41070303638501,1.6414565658714553,1.2529329072181394,2.9121596813201904,-4.0957770347595215,-0.4583929777145386,0.15901289880275726,-0.9872124195098877,0.011254627257585526,0.04910174012184143,0.2798454761505127,0.012015104293823242
1.4000787335620557,1.7716358104501833,1.0769174300131874,3.0797126293182373,-4.5694050788879395,-0.863246738910675,0.16647504270076752,-0.9854630827903748,0.03389168158173561,-0.014665290713310242,0.3407028913497925,-0.002351757138967514
1.3817222114869974,1.8738375785824333,0.9244085478092934,3.0696239471435547,-4.986850261688232,-1.3112279176712036,0.1793857216835022,-0.9821786880493164,0.05608883127570152,-0.0470004677772522,0.4301156997680664,0.039446473121643066
1.3574786233416023,1.9360986099597375,0.8076769997081105,2.8781697750091553,-5.362864971160889,-1.7092416286468506,0.19773471355438232,-0.9773339033126831,0.07562730461359024,-0.030040591955184937,0.5139855146408081,0.09850609302520752
1.3303395153026383,1.9608960053912887,0.7270512833291695,2.4411253929138184,-5.31540060043335,-1.9462727308273315,0.2202543467283249,-0.9712293148040771,0.09056229889392853,0.0494600385427475,0.5574873089790344,0.0792069360613823
1.3042536284641233,1.9560408345949198,0.678049089719278,1.7668088674545288,-5.115100383758545,-1.9066312313079834,0.24409283697605133,-0.9646872878074646,0.09898128360509872,0.21942347288131714,0.6127127408981323,0.06794990599155426
1.2825496820433067,1.9272664433159452,0.655529002776823,0.9369867444038391,-4.947699546813965,-1.6563568115234375,0.26640111207962036,-0.9587437510490417,0.09920196235179901,0.349809855222702,0.697604775428772,0.058085694909095764
1.266996208566699,1.877597845592554,0.6559757634689789,0.04953174293041229,-4.888382911682129,-1.2660574913024902,0.28517937660217285,-0.9542065858840942,0.0903460830450058,0.32804086804389954,0.795759379863739,0.09480404108762741
1.2578379121131373,1.8080352377162836,0.677805864840344,-0.8238586783409119,-4.801543712615967,-0.8538045287132263,0.2992511987686157,-0.9514269232749939,0.07235661894083023,0.2264903485774994,0.8733019828796387,0.13298094272613525
1.2533992529130118,1.7200742746261113,0.7213473765475681,-1.6303311586380005,-4.461031913757324,-0.5407075881958008,0.30862370133399963,-0.9500510096549988,0.04641599953174591,0.11270201206207275,0.9386985898017883,0.17733895778656006
1.2513112978756478,1.6160658761993594,0.7854919588922584,-2.2867209911346436,-4.167495250701904,-0.25016289949417114,0.3137552738189697,-0.9493972659111023,0.01421326957643032,-0.019321680068969727,0.9874987602233887,0.19742608070373535
1.250410523409489,1.4975124717415695,0.8656131704698988,-2.704815149307251,-4.375935077667236,0.16082972288131714,0.3140871226787567,-0.9491139650344849,-0.023058807477355003,-0.12146013975143433,0.9906943440437317,0.18149083852767944
1.2505960452577192,1.3639317363110592,0.9565789369407126,-2.91054630279541,-5.111473560333252,0.6834525465965271,0.30804550647735596,-0.9491723775863647,-0.06464851647615433,-0.15248215198516846,0.9728847146034241,0.16550910472869873
1.251439992899147,1.2138930368245322,1.0546274990577864,-2.9239885807037354,-6.267892360687256,1.1560025215148926,0.2941710650920868,-0.94943767786026,-0.10968800634145737,-0.1363493800163269,0.9977317452430725,0.13056206703186035
1.2506764326769186,1.0502291815723166,1.155155066666188,-2.8381924629211426,-7.2716240882873535,1.3345879316329956,0.27299705147743225,-0.9491977095603943,-0.15651333332061768,-0.1516438126564026,1.092081069946289,0.11873257160186768
1.2449646376131929,0.8843007317705859,1.250831449745589,-2.782392740249634,-7.61456298828125,1.1211696863174438,0.24758607149124146,-0.9473848342895508,-0.20288726687431335,-0.22634577751159668,1.2433443069458008,0.16817355155944824
1.2316195938913017,0.7357470593862228,1.3299596739097546,-2.794938325881958,-6.934465408325195,0.4584531784057617,0.22329594194889069,-0.9430288672447205,-0.2466484010219574,-0.3257891535758972,1.4052023887634277,0.32809978723526
1.2095946672144715,0.6239329962243131,1.3829556960604714,-2.9026246070861816,-5.397614479064941,-0.3826811909675598,0.20646651089191437,-0.935472846031189,-0.28681349754333496,-0.3600462079048157,1.5070672035217285,0.507821798324585
1.1813952878600897,0.5505629319781848,1.4102259995310418,-2.8537240028381348,-4.280531883239746,-1.0310219526290894,0.19861215353012085,-0.9251366257667542,-0.3235357999801636,-0.23251713812351227,1.4299126863479614,0.5350531339645386
1.1515796626983081,0.5027012495240729,1.4172957502256416,-2.532198905944824,-4.055019378662109,-1.465664267539978,0.19611208140850067,-0.913408100605011,-0.3566873371601105,-0.11147154867649078,1.1950089931488037,0.3860299587249756
1.1234848509311302,0.47057147336704747,1.407179022681538,-2.0022077560424805,-4.159306049346924,-1.9132871627807617,0.19611328840255737,-0.9016132354736328,-0.38552990555763245,-0.1766887903213501,1.0166034698486328,0.21438729763031006
1.100121568005985,0.45611466546439583,1.3802465723587716,-1.0280267000198364,-3.4252514839172363,-2.27347993850708,0.19974464178085327,-0.8912624716758728,-0.40712785720825195,-0.313559889793396,0.9116941094398499,0.03952839970588684
1.0852866742826504,0.46150692728813414,1.338799699048164,0.035039663314819336,-2.912137269973755,-2.4209935665130615,0.20780226588249207,-0.8844372034072876,-0.41783830523490906,-0.2599110007286072,0.8254010677337646,-0.22222211956977844
1.0789101322865042,0.47750841730157373,1.2883697876128415,0.9459353089332581,-2.805286407470703,-2.344656229019165,0.21704895794391632,-0.8814436197280884,-0.41946038603782654,-0.23627498745918274,0.8427625894546509,-0.01794809103012085
1.0797930234200406,0.49794560358382584,1.232742581053295,1.6276440620422363,-2.915315628051758,-2.2038280963897705,0.2252037525177002,-0.8818602561950684,-0.4142531752586365,-0.2399589568376541,0.8812347054481506,0.20040127635002136
1.0857622878624065,0.5208297740775795,1.1732072104631188,2.1084489822387695,-2.9759159088134766,-2.0696160793304443,0.23200030624866486,-0.8846590518951416,-0.40441834926605225,-0.3011835813522339,0.9001162648200989,0.32749879360198975
1.095553439623326,0.5467393993270658,1.1108677734304668,2.4778976440429688,-2.865007162094116,-1.8741992712020874,0.23788471519947052,-0.8891816139221191,-0.3908541202545166,-0.27268996834754944,0.8667512536048889,0.2547762393951416
1.1082273545712682,0.5757667682176004,1.0470602850346296,2.698086977005005,-2.7028002738952637,-1.6477668285369873,0.2429724484682083,-0.8949090242385864,-0.3743019700050354,-0.21057800948619843,0.8190272450447083,0.1538277566432953
1.1222411635368745,0.6066099902032244,0.9830337651319365,2.729672431945801,-2.6226232051849365,-1.4693541526794434,0.2472255527973175,-0.9010745882987976,-0.3562919497489929,-0.15959428250789642,0.7355168461799622,0.15327373147010803
1.1358484800402249,0.6380441366909937,0.919637147295691,2.607358694076538,-2.5288660526275635,-1.3384259939193726,0.2509746253490448,-0.9068920016288757,-0.3384650945663452,-0.15191450715065002,0.6039135456085205,0.17350232601165771
1.1481549763636594,0.6683170770283605,0.8590002538946125,2.3810219764709473,-2.438722610473633,-1.1463086605072021,0.25416886806488037,-0.9120087027549744,-0.3219289481639862,-0.18672499060630798,0.5020966529846191,0.1655111014842987
1.159512832395021,0.692865623659082,0.8053360012995437,2.1044740676879883,-2.473435163497925,-0.7724988460540771,0.25536125898361206,-0.916608452796936,-0.3076029419898987,-0.19206774234771729,0.4485451579093933,0.1968851089477539
1.171298643316224,0.7060119482636166,0.7632439176538018,1.8329559564590454,-2.6206116676330566,-0.23139594495296478,0.25235608220100403,-0.9212564826011658,-0.295977920293808,-0.15059515833854675,0.43114423751831055,0.2743409276008606
1.1850125035095838,0.7046955113638019,0.7355391250343731,1.6340798139572144,-2.7382256984710693,0.4036436080932617,0.24375855922698975,-0.9265037775039673,-0.2866577208042145,-0.11361625790596008,0.40475994348526,0.3685210645198822
1.2019139742199205,0.6889040152155816,0.722869646354182,1.5684269666671753,-2.7318055629730225,1.0384974479675293,0.22921358048915863,-0.9327309131622314,-0.2783423364162445,-0.10636499524116516,0.3036872148513794,0.43274596333503723
1.222580364830171,0.6618511138067176,0.7234277562927007,1.64332115650177,-2.534545660018921,1.539867639541626,0.2097071260213852,-0.9399829506874084,-0.26917439699172974,-0.1595514416694641,0.12748301029205322,0.41657429933547974
1.2469185165553838,0.6294402090306617,0.73292170028594,1.8834434747695923,-2.0924344062805176,1.8569413423538208,0.1873486191034317,-0.9480084776878357,-0.2572559416294098,-0.26739615201950073,-0.05936163663864136,0.3449176251888275
1.2753984544484975,0.5987635207320675,0.7459728630688975,2.3082306385040283,-1.5790140628814697,2.0501925945281982,0.1640816628932953,-0.9566863775253296,-0.24047501385211945,-0.3144569993019104,-0.18911123275756836,0.22301895916461945
1.3081685081816115,0.5714188064277657,0.759730957279647,2.714459180831909,-1.2394357919692993,2.1784212589263916,0.14040891826152802,-0.9657110571861267,-0.2183748334646225,-0.30703485012054443,-0.24556207656860352,0.2257601022720337
1.3446389372323029,0.5453905473485782,0.7755589857511108,3.0333662033081055,-0.8811641335487366,2.3226823806762695,0.1163223534822464,-0.9745352268218994,-0.19170404970645905,-0.28822779655456543,-0.28109532594680786,0.30316945910453796
1.3839899518342864,0.5147794740608964,0.7995660226255276,3.2259280681610107,-0.5513601899147034,2.492056369781494,0.09143909066915512,-0.9826023578643799,-0.16165299713611603,-0.23320844769477844,-0.3391597867012024,0.33592361211776733
1.425200783329289,0.4667239875302595,0.8435215766873861,3.3292367458343506,-0.4101516902446747,2.6554551124572754,0.06528154015541077,-0.98941969871521,-0.1295650601387024,-0.216068834066391,-0.38130784034729004,0.3294551968574524
1.4671919546845138,0.3733489661386008,0.9331944696057246,3.395916700363159,-0.4839790463447571,2.7780072689056396,0.03772100806236267,-0.9946378469467163,-0.09629560261964798,-0.2321026623249054,-0.4041353464126587,0.2975742816925049
1.5078256254000886,0.14589121489847448,1.1558698414570103,3.43198299407959,-0.6032987236976624,2.840130567550659,0.009148571640253067,-0.9980180263519287,-0.0622626431286335,-0.250054270029068,-0.46891629695892334,0.2625495195388794
1.5366575057798988,-0.6094115799496475,1.905729598811998,3.388324499130249,-0.6118718981742859,2.8182315826416016,-0.01953737810254097,-0.9994173049926758,-0.027988774701952934,-0.24373771250247955,-0.6333951950073242,0.2510417103767395
1.5231874757634836,-1.6825671344256012,2.9737867121530863,3.1983485221862793,-0.5455397367477417,2.691178560256958,-0.04729244112968445,-0.9988669157028198,0.00530803669244051,-0.2543127238750458,-0.8644600510597229,0.33848774433135986
1.489143292177913,-2.030203771647319,-2.9662747075470164,2.8998515605926514,-0.4868064224720001,2.483264446258545,-0.0731067806482315,-0.9966682195663452,0.0361667275428772,-0.2937602400779724,-1.0772607326507568,0.4569668769836426
1.4546310752634,-2.1557740039944284,-2.8449773014150663,2.5995852947235107,-0.48260024189949036,2.2807457447052,-0.09663297981023788,-0.993260383605957,0.06400061398744583,-0.29148954153060913,-1.242167592048645,0.45595788955688477
1.422588628672579,-2.217840109043686,-2.787139303329137,2.3335063457489014,-0.45109066367149353,2.0421252250671387,-0.11781872063875198,-0.9890373349189758,0.08901795744895935,-0.24756821990013123,-1.386847734451294,0.36137568950653076
1.3939153438363878,-2.257177551854158,-2.7515772128311133,2.111339807510376,-0.3943547010421753,1.7338895797729492,-0.13611304759979248,-0.984397292137146,0.11151338368654251,-0.27048784494400024,-1.508049488067627,0.2647988796234131
1.368669225935898,-2.2892623123148677,-2.7224077656174135,1.989841341972351,-0.2783862352371216,1.4031511545181274,-0.15113042294979095,-0.9796417951583862,0.13214202225208282,-0.3030626177787781,-1.6096221208572388,0.1666707992553711
1.3460176236543022,-2.319911470892508,-2.6928543752401866,1.9743475914001465,-0.07036086916923523,1.1234792470932007,-0.16322064399719238,-0.974843442440033,0.15178623795509338,-0.28821057081222534,-1.7227883338928223,0.05597744882106781
1.324806835798802,-2.349926881940059,-2.6616123146817063,1.9987361431121826,0.14300133287906647,0.9300704598426819,-0.1732674390077591,-0.9698968529701233,0.17110899090766907,-0.22527681291103363,-1.8215306997299194,-0.024395838379859924
1.304487336586249,-2.3769652261285628,-2.6310833772468705,1.9527480602264404,0.3468053340911865,0.8173370361328125,-0.18218587338924408,-0.9647488594055176,0.18991580605506897,-0.13223667442798615,-1.91438627243042,-0.04836010932922363
1.285585905153612,-2.3980795760724773,-2.604701741204271,1.7512483596801758,0.5031061172485352,0.7073603272438049,-0.19044645130634308,-0.9596024751663208,0.2071077972650528,-0.043363943696022034,-2.0268173217773438,-0.023590296506881714
1.2695893365466653,-2.4119602881709143,-2.5842608535131966,1.397373080253601,0.6161282658576965,0.5335570573806763,-0.19776122272014618,-0.9549791216850281,0.22114618122577667,-0.021614372730255127,-2.1577529907226562,0.025802046060562134
1.2579833596372259,-2.419759463294401,-2.569230828586087,0.9300772547721863,0.6780374646186829,0.3160402774810791,-0.20334014296531677,-0.9514716863632202,0.23098526895046234,-0.02369530498981476,-2.2621207237243652,0.06799528002738953
1.2514994579878103,-2.422467089950704,-2.5593883804321083,0.44780808687210083,0.6383891105651855,0.071673683822155,-0.20677341520786285,-0.9494563937187195,0.23617158830165863,-0.011488199234008789,-2.321585178375244,0.1269112229347229
1.2502506837915652,-2.4227153261030474,-2.552764824795339,0.024155402556061745,0.5668693780899048,-0.23271781206130981,-0.20749610662460327,-0.9490636587142944,0.2371157556772232,0.009940579533576965,-2.34356951713562,0.16557899117469788
1.25431518840351,-2.4237851876648757,-2.545711714379876,-0.3370424509048462,0.5668565630912781,-0.6450063586235046,-0.20470325648784637,-0.9503364562988281,0.23442985117435455,-0.00321294367313385,-2.3221092224121094,0.18726205825805664
1.263801357514928,-2.4283856950060936,-2.5346374053240495,-0.6334737539291382,0.6147379875183105,-1.1043130159378052,-0.19771546125411987,-0.953245997428894,0.22854098677635193,-0.06249265372753143,-2.252732515335083,0.20068863034248352
1.2779728960938213,-2.4384543573566697,-2.5177350966921397,-0.8580788969993591,0.5855391025543213,-1.470755696296692,-0.18664996325969696,-0.9574326872825623,0.22019246220588684,-0.09546974301338196,-2.1326706409454346,0.19019272923469543
1.2954541096741923,-2.4536937340827296,-2.49614225694364,-1.0403919219970703,0.5067169666290283,-1.6681045293807983,-0.17261844873428345,-0.9623321890830994,0.2100466936826706,-0.09242665767669678,-1.9735503196716309,0.1917325258255005
1.314939851081999,-2.471828216108357,-2.4723567488178757,-1.1962871551513672,0.45939841866493225,-1.7271252870559692,-0.157108873128891,-0.9674469232559204,0.19840213656425476,-0.10306869447231293,-1.8065705299377441,0.21613338589668274
1.335528216375104,-2.490782467032578,-2.4480969756906665,-1.3223601579666138,0.46053391695022583,-1.714642882347107,-0.14122167229652405,-0.9724518656730652,0.18545596301555634,-0.15116718411445618,-1.6466124057769775,0.23596131801605225
1.3569172413177035,-2.509289869911874,-2.424024733210724,-1.4644017219543457,0.5402716398239136,-1.6909141540527344,-0.12544196844100952,-0.9772149324417114,0.17121733725070953,-0.2132267951965332,-1.482883334159851,0.26063692569732666
1.3794193331007198,-2.525191422915064,-2.4015543778690156,-1.6513081789016724,0.6807938814163208,-1.6637578010559082,-0.10996156930923462,-0.9817432761192322,0.15520553290843964,-0.2756584882736206,-1.3073192834854126,0.30663228034973145
1.4032647824690343,-2.5375456101767555,-2.381489079198897,-1.8306161165237427,0.7892186045646667,-1.6462379693984985,-0.09470982849597931,-0.9859994053840637,0.13724181056022644,-0.3410811424255371,-1.115959882736206,0.33964109420776367
1.4283148949717694,-2.5482141009906982,-2.3623281523006017,-1.957288384437561,0.8504994511604309,-1.6666275262832642,-0.07940144836902618,-0.9898666739463806,0.11772596836090088,-0.39795446395874023,-0.9217086434364319,0.3527330160140991
1.4544011630829938,-2.563854218179387,-2.3376622304417722,-2.0224084854125977,0.9092248678207397,-1.745113730430603,-0.06342311203479767,-0.9932337403297424,0.09728353470563889,-0.44826504588127136,-0.7354190945625305,0.3570469617843628
1.481434457118778,-2.5983926947378393,-2.293315201170007,-2.056149959564209,1.00676429271698,-1.8924356698989868,-0.04612763226032257,-0.996009886264801,0.07639709860086441,-0.5021358728408813,-0.5520095229148865,0.352222204208374
1.5091076839500401,-2.6883286832991593,-2.192606775834335,-2.0561182498931885,1.0784660577774048,-2.0732831954956055,-0.02699609100818634,-0.998097836971283,0.0554235465824604,-0.5603604316711426,-0.37003564834594727,0.3492394685745239
1.535434865315516,-2.9795571434565127,-1.8904307227686816,-1.9998401403427124,1.010993480682373,-2.2686610221862793,-0.005702731665223837,-0.9993748664855957,0.03488577529788017,-0.5905038714408875,-0.19300776720046997,0.34150266647338867
1.5473723472473369,2.285257597224575,-0.8625892249738185,-1.9007289409637451,0.8066582083702087,-2.4386472702026367,0.017690280452370644,-0.9997256994247437,0.015343060716986656,-0.56686931848526,-0.024581432342529297,0.3507610559463501
1.5278537495513915,1.5051302404015414,-0.07487520576522796,-1.7610937356948853,0.651466965675354,-2.5852644443511963,0.04283503070473671,-0.999078094959259,-0.0028168587014079094,-0.513782262802124,0.11872237920761108,0.3703247904777527
1.4986456313424192,1.2997388847535827,0.13720669878908415,-1.5928069353103638,0.6355945467948914,-2.7126553058624268,0.0694543644785881,-0.9973982572555542,-0.019301151856780052,-0.4847375154495239,0.22904205322265625,0.3690173029899597
1.467637736241238,1.2375291714256096,0.2063197159537522,-1.3970768451690674,0.6916509866714478,-2.8202669620513916,0.09731008857488632,-0.9946838617324829,-0.03368675336241722,-0.47847458720207214,0.3217865228652954,0.3439589738845825
1.4362260269041525,1.222692432288726,0.2285501510502138,-1.1909688711166382,0.7511007785797119,-2.897463798522949,0.12611745297908783,-0.9909590482711792,-0.045765653252601624,-0.48064011335372925,0.414878785610199,0.31425923109054565
1.4049147145707745,1.2277915185905055,0.23129874305922654,-1.0040245056152344,0.8146024346351624,-2.943626880645752,0.15550298988819122,-0.9862731695175171,-0.055533427745103836,-0.48858702182769775,0.5028290152549744,0.28430843353271484
1.3738089887444875,1.2421543147188752,0.2255008000556184,-0.850193440914154,0.91810142993927,-2.9772567749023438,0.18524041771888733,-0.9806606769561768,-0.06316851079463959,-0.49877801537513733,0.5698790550231934,0.2562074363231659
1.3428025772818921,1.260291640560942,0.21689648463991462,-0.7568629384040833,1.0066649913787842,-3.0023601055145264,0.21521474421024323,-0.9741218090057373,-0.06905898451805115,-0.506596565246582,0.6115578413009644,0.23898082971572876
1.3119120556051338,1.2777056798064872,0.20918427807775403,-0.7276639938354492,0.9557072520256042,-2.976263999938965,0.24508492648601532,-0.9666762351989746,-0.07396215945482254,-0.48019230365753174,0.6487136483192444,0.24122899770736694
1.281725656170206,1.2903760215169477,0.20516685793543166,-0.7736791968345642,0.7900547981262207,-2.8439767360687256,0.2739267945289612,-0.9585092067718506,-0.0788934975862503,-0.3967905044555664,0.6916330456733704,0.2661188244819641
1.253040306696882,1.2958765988160004,0.20673564325081184,-0.8921877145767212,0.6047698855400085,-2.6226823329925537,0.3007028102874756,-0.9499388933181763,-0.0848168209195137,-0.3011452853679657,0.729541003704071,0.3057335615158081
1.22634203136592,1.2935696026375925,0.21464622258396734,-1.0532115697860718,0.4258170425891876,-2.3554279804229736,0.32478973269462585,-0.9412598609924316,-0.09242025017738342,-0.24750390648841858,0.7533631920814514,0.33224260807037354
1.2018216666743045,1.2842130207788478,0.22839085995006467,-1.2243659496307373,0.28218263387680054,-2.076505184173584,0.34594976902008057,-0.9326976537704468,-0.10194987803697586,-0.23195132613182068,0.770512044429779,0.32832926511764526
1.1792857209404295,1.2693879832736925,0.24689437138870268,-1.3872196674346924,0.19234676659107208,-1.8298590183258057,0.3643829822540283,-0.9243336915969849,-0.11327938735485077,-0.24696654081344604,0.7890645861625671,0.3047618865966797
1.158330959642873,1.2506838056686986,0.26901728426201027,-1.5318628549575806,0.14231610298156738,-1.6265002489089966,0.38050514459609985,-0.916135311126709,-0.12614288926124573,-0.2772640585899353,0.8122686743736267,0.28242337703704834
1.138538442403345,1.2296446324661572,0.29356150859559327,-1.640389084815979,0.12837369740009308,-1.459226131439209,0.3947795629501343,-0.9080221652984619,-0.14015986025333405,-0.2987559735774994,0.8418143391609192,0.25382256507873535
1.119755710448834,1.2077316781354075,0.319301376625813,-1.7029798030853271,0.14462164044380188,-1.3046057224273682,0.4074871838092804,-0.8999939560890198,-0.1548067331314087,-0.305466890335083,0.8754884004592896,0.21765762567520142
1.102016405658131,1.1862085471495867,0.3451482795067727,-1.7133574485778809,0.18133427202701569,-1.1526936292648315,0.4187959134578705,-0.8921201825141907,-0.16950437426567078,-0.2967102825641632,0.9060667157173157,0.1782781481742859
1.085441561262429,1.165714903843697,0.370497748636343,-1.6970053911209106,0.21980470418930054,-1.005908727645874,0.42876672744750977,-0.8845095038414001,-0.183853417634964,-0.28542560338974,0.9350008368492126,0.16130095720291138
1.0700859520195933,1.1463655439832316,0.39501956787745174,-1.6486139297485352,0.22300611436367035,-0.8603952527046204,0.43745553493499756,-0.8772417902946472,-0.19768506288528442,-0.27882516384124756,0.9654377102851868,0.15933969616889954
1.0562850138605109,1.1280585618799308,0.41838999632842916,-1.5598907470703125,0.1985604166984558,-0.6790862083435059,0.4446612298488617,-0.870533287525177,-0.21082696318626404,-0.2704211175441742,0.9984020590782166,0.14799131453037262
1.0444701181119425,1.110866110047996,0.4404511030920782,-1.4321036338806152,0.18925540149211884,-0.48901310563087463,0.4501567482948303,-0.8646584749221802,-0.222990483045578,-0.25501200556755066,1.0269355773925781,0.1215347945690155
1.0347234894245683,1.0953250387670164,0.4606363301917273,-1.2629694938659668,0.18152131140232086,-0.33032599091529846,0.4541083574295044,-0.8597211837768555,-0.23380593955516815,-0.24634462594985962,1.0366315841674805,0.09470677375793457
1.026938761415085,1.081876947992918,0.47844171986893885,-1.0717668533325195,0.18588295578956604,-0.20682112872600555,0.4568178653717041,-0.8557189702987671,-0.24302750825881958,-0.2497408390045166,1.0416169166564941,0.07869036495685577
1.0208954262990462,1.071175535176965,0.49341090359318474,-0.8632344007492065,0.23383024334907532,-0.12289000302553177,0.45872220396995544,-0.8525763154029846,-0.25037527084350586,-0.26759055256843567,1.0446081161499023,0.06903982162475586
1.0164712350444063,1.0637219145901193,0.505216563186269,-0.638343334197998,0.27977079153060913,-0.05396028235554695,0.4601359963417053,-0.8502559065818787,-0.25561660528182983,-0.27905988693237305,1.0426387786865234,0.05375802516937256
1.0138181593156104,1.0594766153361046,0.513606039072784,-0.38943472504615784,0.28513041138648987,0.023936912417411804,0.4610121548175812,-0.8488563895225525,-0.25867050886154175,-0.26592856645584106,1.0413765907287598,0.029651373624801636
1.013207964351876,1.0579929050302235,0.518615348704955,-0.13033048808574677,0.26845768094062805,0.12741079926490784,0.46107912063598633,-0.8485336899757385,-0.25960832834243774,-0.23283815383911133,1.0385363101959229,0.0019026100635528564
1.0147660677465522,1.059160419680579,0.520456769168619,0.10844320058822632,0.28187257051467896,0.23489996790885925,0.46022889018058777,-0.8493571281433105,-0.2584224045276642,-0.20876389741897583,1.0412057638168335,-0.005996972322463989
1.0182773596255101,1.063044793241452,0.5194700535912484,0.3147129416465759,0.3308815658092499,0.32585757970809937,0.45862019062042236,-0.8512051701545715,-0.25518107414245605,-0.20111283659934998,1.0431302785873413,-0.0024178624153137207
1.0234144040452262,1.0694145250679588,0.5163485713747117,0.4567715525627136,0.4153634309768677,0.410311222076416,0.45639568567276,-0.853890061378479,-0.25014957785606384,-0.20273351669311523,1.0411001443862915,0.01037299633026123
1.0298126362707023,1.0777581798128333,0.5120526241177892,0.5345262289047241,0.5175509452819824,0.4960422217845917,0.4536450505256653,-0.8572025299072266,-0.24374212324619293,-0.20085257291793823,1.0453280210494995,0.03010377287864685
1.0372412997651597,1.0873227830237873,0.507520157713504,0.5695507526397705,0.6087958812713623,0.5944902300834656,0.45030489563941956,-0.8610044121742249,-0.23642532527446747,-0.18605312705039978,1.0542570352554321,0.04259294271469116
1.0458289575598898,1.0970357478023858,0.5033656017057161,0.611603856086731,0.6169766783714294,0.7188826203346252,0.4459836781024933,-0.8653402924537659,-0.22865846753120422,-0.1560361683368683,1.0549614429473877,0.027700215578079224
1.0558147028013762,1.1068358533262763,0.49896028000120773,0.6828929781913757,0.5734166502952576,0.8592546582221985,0.4404534101486206,-0.8703017830848694,-0.22039897739887238,-0.12133103609085083,1.0446791648864746,-0.0038442015647888184
1.0674160439832887,1.1166299336506633,0.4939720491609417,0.7791026830673218,0.5129322409629822,0.9989591240882874,0.4334881901741028,-0.8759569525718689,-0.2116306871175766,-0.09625363349914551,1.0323748588562012,-0.03855240345001221
1.0806744598131033,1.1268722171510865,0.48787033196347995,0.8896845579147339,0.45916059613227844,1.1292537450790405,0.4251067340373993,-0.8822755217552185,-0.20217365026474,-0.07908317446708679,1.0231447219848633,-0.06866984069347382
1.0954465214863143,1.137830590281565,0.4804234348276526,0.9815883040428162,0.41109123826026917,1.2426646947860718,0.4154202938079834,-0.8891326785087585,-0.192013680934906,-0.06855741143226624,1.0218383073806763,-0.08890065550804138
1.1113475730557163,1.1493146365493898,0.4719450234066505,1.0204073190689087,0.37108123302459717,1.325564980506897,0.4046446681022644,-0.8962970972061157,-0.18142279982566833,-0.07162156701087952,1.0286519527435303,-0.08328662812709808
1.1278832515141701,1.1607513320551004,0.46306752399422757,1.010454535484314,0.31325751543045044,1.3761301040649414,0.3930456340312958,-0.9035070538520813,-0.17085091769695282,-0.09589594602584839,1.044925570487976,-0.04651050269603729
1.1445912234074591,1.1713449230815132,0.454325628655774,0.9789485335350037,0.2049289047718048,1.393993854522705,0.3808717131614685,-0.9105411767959595,-0.16078373789787292,-0.14252936840057373,1.0644872188568115,0.0061359405517578125
1.1613094525914218,1.1808359462844749,0.44533573698949486,0.9768856763839722,0.04303467273712158,1.4046738147735596,0.36824831366539,-0.9173252582550049,-0.15135322511196136,-0.18653133511543274,1.0733921527862549,0.044053420424461365
1.1782557004039562,1.1894424603578382,0.4354878552503953,1.0060474872589111,-0.13345007598400116,1.4428222179412842,0.3550563454627991,-0.9239401817321777,-0.14237169921398163,-0.2113642692565918,1.0772604942321777,0.06787824630737305
1.1958508192336634,1.1978616273773965,0.42425143437578977,1.0664323568344116,-0.25418195128440857,1.5121983289718628,0.3410484492778778,-0.9305275678634644,-0.13343289494514465,-0.22318950295448303,1.0719614028930664,0.07996612787246704
1.214378841636808,1.2073440577821153,0.4112019518367163,1.1300203800201416,-0.2784138023853302,1.59870183467865,0.3261256217956543,-0.9371528625488281,-0.12404168397188187,-0.2420802116394043,1.0400888919830322,0.06599726527929306
1.233795003047357,1.2186014046250693,0.39620373244668616,1.1696734428405762,-0.2885858714580536,1.6661429405212402,0.31036174297332764,-0.9437504410743713,-0.11406349390745163,-0.27165016531944275,0.9949743151664734,0.04352213442325592
1.2536518406217783,1.2311898005654984,0.37969450154792067,1.1592566967010498,-0.3194577693939209,1.6937822103500366,0.29404348134994507,-0.9501298069953918,-0.10388386249542236,-0.3105534315109253,0.9732010960578918,0.03399860858917236
1.2734040980707553,1.244177058003872,0.36249010149795563,1.1043691635131836,-0.3621584177017212,1.6795798540115356,0.2775367796421051,-0.9561038613319397,-0.09401610493659973,-0.3474524915218353,0.9839205741882324,0.042532965540885925
1.2924463998575075,1.256721904538222,0.3452777796416515,1.0172598361968994,-0.4443363845348358,1.6137393712997437,0.26132896542549133,-0.9615101218223572,-0.08488642424345016,-0.38967058062553406,1.0124591588974,0.08642756193876266
1.3104316848205082,1.2681618893866988,0.3276851318470231,0.9716015458106995,-0.6722776293754578,1.5170843601226807,0.24573397636413574,-0.9662961959838867,-0.07672432065010071,-0.43416470289230347,1.0284605026245117,0.14853215217590332
1.3273697894665832,1.2803055714065905,0.3066480448665783,1.0252692699432373,-0.9671273827552795,1.4057573080062866,0.23093123733997345,-0.9705177545547485,-0.06903627514839172,-0.448567271232605,1.007383108139038,0.17134642601013184
1.3432935199184446,1.2974542203205153,0.2776368011131128,1.1621061563491821,-1.2280200719833374,1.26957368850708,0.21717195212841034,-0.9742326736450195,-0.060886234045028687,-0.44985318183898926,0.9474077820777893,0.1794927716255188
1.3581836250309933,1.3245629814461786,0.23603624339471987,1.3521727323532104,-1.4554582834243774,1.1351234912872314,0.2046501785516739,-0.9774829149246216,-0.0514354482293129,-0.4258109927177429,0.8607988953590393,0.2031230926513672
1.3719347145523955,1.3655305773604673,0.1782957542400535,1.5496524572372437,-1.6371315717697144,1.0068013668060303,0.1934056580066681,-0.9802920818328857,-0.04026668518781662,-0.3797154426574707,0.7568120360374451,0.23809689283370972
1.3839406820141058,1.4227717386342398,0.10282386918602528,1.6986643075942993,-1.7028307914733887,0.8289796710014343,0.18373845517635345,-0.9825932383537292,-0.027398211881518364,-0.3781353831291199,0.656116247177124,0.29779917001724243
1.3930006577819953,1.4966523072128304,0.010565908155428912,1.8174763917922974,-1.64650559425354,0.589458167552948,0.17637448012828827,-0.984235942363739,-0.013101128861308098,-0.4596233367919922,0.5364667773246765,0.38262319564819336
1.398356044985665,1.5872738974657004,-0.09745932700589853,1.9627212285995483,-1.4723409414291382,0.37236762046813965,0.17156405746936798,-0.985168993473053,0.00282721477560699,-0.5112398862838745,0.3768468499183655,0.41187620162963867
1.3999887891918752,1.6930419624166708,-0.21830635937136642,2.120448350906372,-1.1749812364578247,0.2563459277153015,0.1687091439962387,-0.9854478240013123,0.020727310329675674,-0.4796374440193176,0.1970263123512268,0.41236281394958496
1.3988444102355082,1.811682174821409,-0.3495998618264841,2.3104248046875,-0.9898829460144043,0.35275980830192566,0.16616636514663696,-0.9852526783943176,0.04081973060965538,-0.3580150604248047,0.010414302349090576,0.44422662258148193
1.3963127551416668,1.9422133731536986,-0.4918932532333279,2.5027923583984375,-0.93699049949646,0.6604063510894775,0.16176214814186096,-0.984816312789917,0.06300543248653412,-0.17543397843837738,-0.19162094593048096,0.5045909881591797
1.3930202760524473,2.0862702873221286,-0.6474227900517453,2.677590847015381,-0.8703616857528687,1.0822391510009766,0.15386156737804413,-0.984239399433136,0.0871729701757431,-0.05309249460697174,-0.4054698944091797,0.5558475255966187
1.388505707045083,2.24334062880218,-0.8154302034489977,2.7774038314819336,-0.7680893540382385,1.5338835716247559,0.14180590212345123,-0.9834310412406921,0.11293476074934006,-0.06355880200862885,-0.6190010905265808,0.6176866292953491
1.3822839539249825,2.410201417915991,-0.9924749239400109,2.7902567386627197,-0.6668751239776611,2.0339794158935547,0.12516380846500397,-0.9822841286659241,0.13946975767612457,-0.10406085848808289,-0.8157657384872437,0.6748002767562866
1.373805248019318,2.5840916800936324,-1.1762375799478038,2.7664926052093506,-0.6334952712059021,2.5543107986450195,0.10354916751384735,-0.9806599020957947,0.16608427464962006,-0.12103567272424698,-0.9914776682853699,0.6847305297851562
1.3616490163888426,2.760168281969054,-1.3623982326306083,2.776993989944458,-0.6139764189720154,3.0084400177001953,0.07728753238916397,-0.9782083034515381,0.19270561635494232,-0.1813676655292511,-1.1935293674468994,0.6749091148376465
1.3440398880833242,2.9300396927056953,-1.542125014849824,2.831399440765381,-0.4978335499763489,3.3536720275878906,0.047207143157720566,-0.9744007587432861,0.21980682015419006,-0.2034418284893036,-1.397501826286316,0.635570764541626
1.3202826162291064,3.0821152806278596,-1.702908003320951,2.8651177883148193,-0.33606916666030884,3.4747462272644043,0.014735806733369827,-0.9687852263450623,0.24746261537075043,-0.15223270654678345,-1.554575800895691,0.5828137993812561
1.2917570576647595,-3.077041038759964,-1.8341842990857598,2.7733800411224365,-0.2126547396183014,3.356961250305176,-0.01776724122464657,-0.9613205194473267,0.2748584449291229,-0.1390167623758316,-1.6685469150543213,0.5318584442138672
1.2617145933754677,-2.9825298612060567,-1.9347800757473694,2.501966714859009,-0.14894738793373108,3.066509246826172,-0.048180654644966125,-0.9526132941246033,0.30034443736076355,-0.1330174207687378,-1.738671064376831,0.5085239410400391
1.233413264025717,-2.912916669223044,-2.0096370171898292,2.1061604022979736,-0.1316085308790207,2.6578633785247803,-0.07503809034824371,-0.9436241388320923,0.3224017024040222,-0.1401718258857727,-1.7760566473007202,0.48161447048187256
1.208869387572483,-2.8627805571881404,-2.064612754136203,1.6838029623031616,-0.1742963343858719,2.204429864883423,-0.09744687378406525,-0.9352162480354309,0.34040361642837524,-0.14887569844722748,-1.7962138652801514,0.4134567975997925
1.1888485328362937,-2.8266143287741543,-2.1052645304000777,1.2792658805847168,-0.1484001874923706,1.7910127639770508,-0.11546984314918518,-0.9279403686523438,0.3543917238712311,-0.14193062484264374,-1.8335191011428833,0.34780243039131165
1.1731030384173506,-2.798525279207297,-2.1367144095906685,0.9333286881446838,-0.05855551362037659,1.4945869445800781,-0.1302766054868698,-0.9219568371772766,0.36472445726394653,-0.0920439213514328,-1.8556770086288452,0.28684118390083313
1.160636717283835,-2.7745762015278896,-2.163160660111075,0.6829158663749695,-0.015115170739591122,1.3255548477172852,-0.1430864781141281,-0.91705721616745,0.3721996545791626,-0.0176800936460495,-1.8434562683105469,0.2055133879184723
1.1504337847741475,-2.752613968764486,-2.1869952484867934,0.5105158686637878,0.05832922086119652,1.20147705078125,-0.15476608276367188,-0.912941038608551,0.3776057958602905,0.04154592752456665,-1.8058700561523438,0.13981974124908447
1.1418129973010145,-2.7323496429998197,-2.2078477946584054,0.42213886976242065,0.18739265203475952,1.029111623764038,-0.16551126539707184,-0.909389078617096,0.38159841299057007,0.047591403126716614,-1.7703287601470947,0.07067212462425232
1.1343936782554127,-2.7154538334081546,-2.2237927082587507,0.39495226740837097,0.2942432165145874,0.7732658386230469,-0.17471890151500702,-0.9062780737876892,0.38488075137138367,0.03114902973175049,-1.7426323890686035,-0.010964184999465942
1.1284209555641507,-2.7034405710481773,-2.233374696871197,0.34125277400016785,0.36213594675064087,0.4594452381134033,-0.18162333965301514,-0.9037373661994934,0.38764917850494385,0.05048936605453491,-1.7394206523895264,-0.0341184139251709
1.1245932396910996,-2.6963971920148455,-2.237015449946781,0.2058936059474945,0.38334083557128906,0.15382486581802368,-0.18583731353282928,-0.9020921587944031,0.3894791901111603,0.10070858895778656,-1.7398297786712646,-0.006926208734512329
1.123597519856584,-2.6929679388752543,-2.236533740460792,-0.017563872039318085,0.3870352506637573,-0.09644593298435211,-0.18756140768527985,-0.9016619920730591,0.3896489441394806,0.16262862086296082,-1.7228343486785889,0.01592966914176941
1.1259190709551836,-2.691271611326795,-2.233974522816213,-0.30988067388534546,0.41861823201179504,-0.293722003698349,-0.18731056153774261,-0.9026634693145752,0.38744470477104187,0.1955198347568512,-1.6871345043182373,0.021033048629760742
1.1318317199718926,-2.689519089162214,-2.2309235316385467,-0.6401920318603516,0.48657503724098206,-0.4497082829475403,-0.18565450608730316,-0.9051921963691711,0.3823079764842987,0.21174709498882294,-1.6304675340652466,0.02316376566886902
1.141280046604657,-2.6867866976200476,-2.22814952983013,-0.9413985013961792,0.5555277466773987,-0.5827861428260803,-0.18293315172195435,-0.9091672897338867,0.3740992546081543,0.19523179531097412,-1.5848970413208008,0.05056798458099365
1.1536201437935643,-2.6833282750968133,-2.2254327118625294,-1.158698320388794,0.6271836161613464,-0.7006407380104065,-0.17924891412258148,-0.9142367243766785,0.36337506771087646,0.14865508675575256,-1.5510497093200684,0.06878438591957092
1.1680510291276502,-2.6798844065088274,-2.2219608464381086,-1.2855862379074097,0.6922385096549988,-0.8273350596427917,-0.17460325360298157,-0.9199884533882141,0.3509061932563782,0.09743958711624146,-1.5015509128570557,0.09097304940223694
1.183856364690554,-2.677737736100764,-2.2163752114381965,-1.3377777338027954,0.7656016945838928,-0.9594918489456177,-0.1688288450241089,-0.926068127155304,0.3374827802181244,0.027563050389289856,-1.4592009782791138,0.12835285067558289
1.2005144767568654,-2.677623988837986,-2.2079891696343434,-1.3568017482757568,0.8066120147705078,-1.075744390487671,-0.1619405895471573,-0.9322254061698914,0.32362139225006104,-0.02706994116306305,-1.4167582988739014,0.17157194018363953
1.2179986669800145,-2.6799700347019075,-2.1967759835675245,-1.4146182537078857,0.8135851621627808,-1.189469814300537,-0.1538969874382019,-0.9384097456932068,0.30935850739479065,-0.07663272321224213,-1.3724117279052734,0.2296580970287323
1.236822338965697,-2.684765766033227,-2.1829816227609053,-1.5491611957550049,0.8220881223678589,-1.3056509494781494,-0.1445932239294052,-0.9447471499443054,0.2941858768463135,-0.13964742422103882,-1.3130500316619873,0.29722949862480164
1.2576935734309713,-2.6916798913829876,-2.1669928895011807,-1.7558152675628662,0.8178076148033142,-1.428743600845337,-0.1339503973722458,-0.9513824582099915,0.2773601710796356,-0.20445898175239563,-1.2359955310821533,0.358198881149292
1.2811816356302717,-2.7011893844899433,-2.148438801861766,-1.9973207712173462,0.8193954229354858,-1.580556869506836,-0.12174521386623383,-0.9583539962768555,0.2583325207233429,-0.2888839840888977,-1.1586198806762695,0.4204394519329071
1.3073681005918019,-2.7149163617528282,-2.1255661771348366,-2.211785316467285,0.8368461728096008,-1.7448965311050415,-0.10776247084140778,-0.9655029773712158,0.2370467334985733,-0.36234548687934875,-1.0665709972381592,0.4702744483947754
1.3357952447663872,-2.735951340481891,-2.0948643165193053,-2.3469138145446777,0.9043335914611816,-1.9332655668258667,-0.09188224375247955,-0.9725140929222107,0.21394886076450348,-0.40210574865341187,-0.9326220154762268,0.4853614568710327
1.3655690600822934,-2.770953547134064,-2.0494848958036296,-2.3878087997436523,0.9414892196655273,-2.141129493713379,-0.07381507754325867,-0.9790146946907043,0.18995200097560883,-0.44824907183647156,-0.7918136715888977,0.47505655884742737
1.3955252634626434,-2.8295801223879797,-1.980248877448334,-2.355210781097412,0.919705867767334,-2.309485912322998,-0.0535287968814373,-0.9846792817115784,0.1659560650587082,-0.4555196166038513,-0.6565255522727966,0.46162259578704834
1.424251854242572,-2.92424638192996,-1.8751947586649698,-2.285677433013916,0.8866682052612305,-2.4183735847473145,-0.03148762136697769,-0.9892815351486206,0.14258460700511932,-0.41596105694770813,-0.5169744491577148,0.43482327461242676
1.450256241423158,-3.0714697895531913,-1.7177107402647,-2.2347631454467773,0.8840510845184326,-2.4419453144073486,-0.008425194770097733,-0.9927438497543335,0.11995204538106918,-0.3834204375743866,-0.38748979568481445,0.42028534412384033
1.471773685264695,2.993768387276693,-1.4897049309599169,-2.2209324836730957,0.8413828611373901,-2.3414905071258545,0.01456090435385704,-0.995101273059845,0.0977829173207283,-0.35292449593544006,-0.28657597303390503,0.4251967668533325
1.486787534722706,2.6946233176296475,-1.181246800528274,-2.251373529434204,0.7602694034576416,-2.13269305229187,0.036268506199121475,-0.9964733123779297,0.0756661593914032,-0.3124525249004364,-0.20408815145492554,0.4305441379547119
1.4935452301284202,2.3339003536660914,-0.8120734198168462,-2.275634527206421,0.6967197060585022,-1.854735016822815,0.05577331781387329,-0.9970176219940186,0.05334032326936722,-0.304476261138916,-0.12845534086227417,0.4487501382827759
1.491727078061941,1.9757944837416086,-0.44602539244228545,-2.2494635581970215,0.6721581816673279,-1.5724977254867554,0.07259605079889297,-0.9968756437301636,0.031121734529733658,-0.31234210729599,-0.050380706787109375,0.4297698736190796
1.4829723378176856,1.680343331235128,-0.14275123047694563,-2.158682107925415,0.6806380152702332,-1.3872736692428589,0.08718536794185638,-0.9961459636688232,0.009589285589754581,-0.3640713095664978,0.024176359176635742,0.4023369550704956
1.4695241162326236,1.4656495910854739,0.07995508854250102,-2.0145697593688965,0.7271088361740112,-1.2999389171600342,0.1005423441529274,-0.9948763251304626,-0.010610831901431084,-0.4382650554180145,0.10010087490081787,0.36574387550354004
1.4532228983601856,1.3209949794402744,0.23320081438037252,-1.8381117582321167,0.8074789643287659,-1.3109716176986694,0.11366211622953415,-0.9930962324142456,-0.02899865433573723,-0.49369746446609497,0.1781090497970581,0.32192158699035645
1.4352616760055648,1.2285316169069045,0.3351032913161914,-1.6616120338439941,0.9186555743217468,-1.3639028072357178,0.12728279829025269,-0.9908292293548584,-0.045349206775426865,-0.5253540277481079,0.2606046199798584,0.2833099961280823
1.4165658159878514,1.1717395526445673,0.4023078628192651,-1.4986296892166138,1.0199253559112549,-1.398285150527954,0.1415497213602066,-0.9881300330162048,-0.05968894436955452,-0.5041442513465881,0.3401198387145996,0.24349629878997803
1.398030368683152,1.1364117482222635,0.4488899845812165,-1.3882699012756348,1.0896761417388916,-1.355600357055664,0.15594208240509033,-0.9851130247116089,-0.07234754413366318,-0.43494898080825806,0.41100120544433594,0.2231806516647339
1.3804363519207723,1.1107993670002918,0.48592356228822836,-1.338700532913208,1.0566589832305908,-1.2223567962646484,0.1695442795753479,-0.9819362163543701,-0.08399985730648041,-0.3436317443847656,0.4717739224433899,0.2311861515045166
1.3641560670717567,1.087222433691399,0.5203952662539164,-1.3493212461471558,0.9821659326553345,-1.052754521369934,0.18164774775505066,-0.978725790977478,-0.09539447724819183,-0.28542274236679077,0.523525595664978,0.256924033164978
1.3490773033257564,1.0630128174329343,0.5548920951237994,-1.3630831241607666,0.9125483632087708,-0.9030919075012207,0.19216004014015198,-0.9755208492279053,-0.10692790150642395,-0.2795470654964447,0.570644199848175,0.28379249572753906
1.3348593183800983,1.0392691039338475,0.5882896875451123,-1.3500964641571045,0.8378235101699829,-0.8213925361633301,0.2015037089586258,-0.9722957611083984,-0.1184782087802887,-0.3059501051902771,0.610662579536438,0.2731717824935913
1.3210043539180172,1.0181947114274714,0.6183941136574338,-1.3081374168395996,0.7883691191673279,-0.8061464428901672,0.21040908992290497,-0.9689638614654541,-0.12975728511810303,-0.3460596799850464,0.6407169103622437,0.250271201133728
1.3073365742375853,1.0013565415027008,0.6435834624782498,-1.2106525897979736,0.7071509957313538,-0.8277955055236816,0.21932852268218994,-0.9654947519302368,-0.14040939509868622,-0.35467392206192017,0.6765543818473816,0.22907818853855133
1.2939372835179743,0.9904130278065243,0.6618777776747483,-1.0567148923873901,0.6308969259262085,-0.8895924687385559,0.22857744991779327,-0.9619187116622925,-0.1498819887638092,-0.3323676884174347,0.7410478591918945,0.1830698400735855
1.2807758357987937,0.986024048544634,0.6728823180052746,-0.9003431797027588,0.6093743443489075,-0.9595305323600769,0.23845426738262177,-0.9582380056381226,-0.15785926580429077,-0.3223775625228882,0.7972730994224548,0.16852515935897827
1.2680362910252512,0.9868499892420579,0.6784701344899924,-0.7771584987640381,0.6222703456878662,-0.9691039323806763,0.2487492859363556,-0.9545171856880188,-0.16437934339046478,-0.2906956672668457,0.8401984572410583,0.18020273745059967
1.256191006429328,0.9898803354712523,0.6818310554046658,-0.6954875588417053,0.6123005747795105,-0.8813823461532593,0.2586806118488312,-0.9509185552597046,-0.1698182374238968,-0.2324354350566864,0.8729919791221619,0.1893342137336731
1.2457207127284147,0.9923551204821157,0.6853551017997378,-0.6360955834388733,0.540540337562561,-0.7440305352210999,0.26742255687713623,-0.9476265907287598,-0.1746116429567337,-0.18352970480918884,0.8938698768615723,0.1905723214149475
1.2365571147942562,0.9929418939864876,0.6900565916113778,-0.6241757869720459,0.4646524488925934,-0.6261105537414551,0.274787038564682,-0.9446601867675781,-0.17919033765792847,-0.1676245629787445,0.9086342453956604,0.18990202248096466
1.2280770088926758,0.991331377036599,0.6964496937634996,-0.6603788733482361,0.41906583309173584,-0.565353512763977,0.281191349029541,-0.9418443441390991,-0.1840127408504486,-0.18753284215927124,0.9162553548812866,0.20059901475906372
1.2197393239375303,0.9877871784565144,0.7045298362760701,-0.7114380598068237,0.3925367593765259,-0.5216912627220154,0.2870831787586212,-0.9390097260475159,-0.1893249750137329,-0.21226927638053894,0.9250174760818481,0.1908355951309204
1.2114876364816245,0.982378102297031,0.7144190442451945,-0.7696300745010376,0.3823182284832001,-0.46829769015312195,0.2924903929233551,-0.9361401200294495,-0.19516924023628235,-0.18334424495697021,0.9488660097122192,0.15342117846012115
1.2033315061786758,0.9750639118422028,0.726388554474218,-0.837883472442627,0.39107203483581543,-0.4111633002758026,0.29736557602882385,-0.9332411289215088,-0.20158115029335022,-0.1479972004890442,0.9846783876419067,0.13570889830589294
1.195257141420659,0.966256713438488,0.7400680219641302,-0.8847101926803589,0.3919132649898529,-0.3571365773677826,0.30176860094070435,-0.9303100109100342,-0.20846837759017944,-0.14492344856262207,1.0142638683319092,0.13589751720428467
1.1874648382967015,0.9565250500665845,0.754617286133267,-0.8754434585571289,0.3594173789024353,-0.29847991466522217,0.3056403696537018,-0.9274237751960754,-0.21556682884693146,-0.1473303735256195,1.0314735174179077,0.13274216651916504
1.1804613089793632,0.9467688894909873,0.7688438483443034,-0.7996160984039307,0.3238334357738495,-0.2169812172651291,0.3087862730026245,-0.9247816205024719,-0.22232818603515625,-0.13007530570030212,1.0362472534179688,0.11713410913944244
1.174658637680855,0.9379856452313471,0.781706568934209,-0.6721997857093811,0.29496049880981445,-0.14520743489265442,0.3111437261104584,-0.9225581884384155,-0.22820165753364563,-0.1145189106464386,1.0322993993759155,0.09693032503128052
1.1701321710190673,0.9310360874837429,0.7924255204832582,-0.5314606428146362,0.2978319823741913,-0.09279873967170715,0.31289732456207275,-0.9208021759986877,-0.23284916579723358,-0.10934501886367798,1.024348258972168,0.08975225687026978
1.166791797379856,0.9262718306793424,0.8009448830478578,-0.4025338292121887,0.31069397926330566,-0.04592391103506088,0.31424155831336975,-0.9194941520690918,-0.2361840307712555,-0.1014118492603302,1.0159296989440918,0.08887562155723572
1.1644373172432638,0.9228365582221475,0.8077767081634638,-0.31207168102264404,0.24182641506195068,-0.00441938079893589,0.31515321135520935,-0.9185660481452942,-0.23856784403324127,-0.07484251260757446,1.0124077796936035,0.09325841069221497
1.1627475117414579,0.9194239321825257,0.8134836642493284,-0.2576731741428375,0.12538236379623413,0.0011221244931221008,0.31557169556617737,-0.9178968667984009,-0.24058307707309723,-0.047947704792022705,1.0139355659484863,0.10777059197425842
1.1611391097495996,0.9159074469794163,0.8182403363186878,-0.24052216112613678,0.04861423000693321,-0.029829557985067368,0.31589391827583313,-0.9172574281692505,-0.24258992075920105,-0.05443453788757324,1.01955246925354,0.13223834335803986
1.1592448024528592,0.9125226865623685,0.8222344669984935,-0.24337974190711975,0.010896677151322365,-0.0712805986404419,0.316444993019104,-0.9165012836456299,-0.24472033977508545,-0.06887108087539673,1.0264561176300049,0.14443957805633545
1.1571909892501722,0.9095287245517734,0.8255978518850093,-0.21515709161758423,0.007707126438617706,-0.08443747460842133,0.31719592213630676,-0.9156777262687683,-0.24682220816612244,-0.0607566237449646,1.043836236000061,0.12176117300987244
1.155448732390809,0.9074125508454057,0.8280012865631584,-0.1395864337682724,0.012039290741086006,-0.06665527820587158,0.31792908906936646,-0.9149761199951172,-0.24847467243671417,-0.04218748211860657,1.0576001405715942,0.07833917438983917
1.1546333192563805,0.9065321115427918,0.829135612269334,-0.0021820105612277985,0.03328360244631767,-0.0025911207776516676,0.31829774379730225,-0.9146468043327332,-0.2492145150899887,-0.01715022325515747,1.062535047531128,0.0436939001083374
1.1556153624536596,0.9076893973482697,0.8283903541538794,0.17883411049842834,0.06473100185394287,0.12814930081367493,0.31787773966789246,-0.9150433540344238,-0.24829280376434326,0.03466135263442993,1.0640301704406738,0.005235567688941956
1.1589580205447751,0.9105773120394663,0.8262251493090533,0.3684554696083069,0.11733414977788925,0.2906883656978607,0.3161759078502655,-0.9163864850997925,-0.24549666047096252,0.082154780626297,1.062504768371582,-0.02202044427394867
1.164656068048205,0.9150513206914983,0.8229327668708607,0.5298177599906921,0.17521926760673523,0.4448885917663574,0.3131273090839386,-0.9186525344848633,-0.24089176952838898,0.08608844876289368,1.0616426467895508,-0.023070037364959717
1.1723008081180966,0.920749017877561,0.8188426087214158,0.6451267600059509,0.20884594321250916,0.568793773651123,0.3088950216770172,-0.9216458201408386,-0.23484642803668976,0.061664700508117676,1.0633084774017334,-0.0052658915519714355
1.1813177010537383,0.9269549956289368,0.814587889992861,0.6922125220298767,0.2469688355922699,0.6663174033164978,0.303687185049057,-0.9251071810722351,-0.22792686522006989,0.02692502737045288,1.0701267719268799,0.02017846703529358
1.1911566433763077,0.9329278318311844,0.8110565172324424,0.6870363354682922,0.2918066382408142,0.7486355900764465,0.2977162003517151,-0.9287981986999512,-0.2206779569387436,-0.0113392174243927,1.0725057125091553,0.0607658326625824
1.2014930669054378,0.9378972728217206,0.808952601687653,0.6576235890388489,0.3023144006729126,0.8196300864219666,0.29105257987976074,-0.9325791001319885,-0.2135058045387268,-0.049490660429000854,1.0656967163085938,0.1040392518043518
1.2121946324734711,0.9411948844017379,0.8085621469867252,0.6270155906677246,0.2809150218963623,0.8858619928359985,0.28367167711257935,-0.9363884925842285,-0.2066560983657837,-0.08776405453681946,1.048540711402893,0.12967552244663239
1.2232451492137877,0.9426131206501085,0.8098067220023643,0.5989099144935608,0.2337038367986679,0.9459591507911682,0.27557551860809326,-0.9402095675468445,-0.20016035437583923,-0.1183793842792511,1.0293055772781372,0.14214643836021423
1.2345153210206385,0.9419904739185666,0.8126914385493259,0.5641952753067017,0.17959557473659515,0.9818979501724243,0.2668639123439789,-0.9439883828163147,-0.19408674538135529,-0.1530485451221466,1.0214877128601074,0.1558176875114441
1.2456932704778936,0.9393542475813382,0.8171261176429355,0.5143739581108093,0.13846011459827423,0.9819717407226562,0.2578177750110626,-0.9476178288459778,-0.18854878842830658,-0.20432043075561523,1.0170605182647705,0.17275595664978027
1.2563258123839942,0.9353027337406495,0.8230736899884527,0.4368418753147125,0.1919384002685547,0.9464862942695618,0.2489287555217743,-0.9509602785110474,-0.1836005598306656,-0.2699553370475769,1.0060597658157349,0.1895972490310669
1.266003135873675,0.9300448380784151,0.8313467869169362,0.29884299635887146,0.34639641642570496,0.9013350605964661,0.2405710518360138,-0.9539090394973755,-0.179396852850914,-0.337708443403244,0.9897366762161255,0.2089073657989502
1.2741288550089462,0.9224584211599921,0.8444061211525599,0.048800092190504074,0.6371004581451416,0.8645894527435303,0.23301686346530914,-0.9563159942626953,-0.17653009295463562,-0.44148239493370056,0.9383106231689453,0.226456880569458
1.280570891429342,0.909510526632119,0.8659088091377598,-0.25423887372016907,0.8694791197776794,0.9234498739242554,0.2258450835943222,-0.9581794142723083,-0.17574524879455566,-0.5024411082267761,0.8371161818504333,0.18419861793518066
1.2860007991410345,0.886074064913579,0.899421622777587,-0.5416802763938904,0.7967312932014465,1.1219491958618164,0.21763083338737488,-0.9597191214561462,-0.17769594490528107,-0.4383492171764374,0.7836633324623108,0.07862068712711334
1.2917633336993704,0.8464832471198336,0.9464901369426828,-0.6772735118865967,0.30451518297195435,1.4544751644134521,0.20628152787685394,-0.9613222479820251,-0.18250301480293274,-0.32307225465774536,0.8277927041053772,0.08156611025333405
1.2991709053011757,0.791160497254613,1.0049182233758749,-0.5967841744422913,-0.10200200229883194,1.7692713737487793,0.19080516695976257,-0.9633360505104065,-0.18861877918243408,-0.2317444384098053,0.9160033464431763,0.14088928699493408
1.3089371936854592,0.72864917324705,1.0673907205462847,-0.2095901072025299,-0.32211703062057495,1.9276896715164185,0.17237621545791626,-0.9659103751182556,-0.19314126670360565,-0.29208138585090637,0.9308761954307556,0.18908244371414185
1.3223894189911491,0.6715264798346904,1.1227452447242723,0.5006803274154663,-0.3731802999973297,1.9089537858963013,0.15296988189220428,-0.9693053364753723,-0.19247746467590332,-0.4148869216442108,0.8638517260551453,0.10490724444389343
1.3410929870222434,0.6315200408433502,1.1608469227615825,1.3807146549224854,-0.18135522305965424,1.7650853395462036,0.13442116975784302,-0.9737339615821838,-0.1837746948003769,-0.5236880779266357,0.7347966432571411,-0.02449256181716919
1.3654276688066138,0.6174974959895608,1.1752862303860316,2.168825149536133,0.18728941679000854,1.5835951566696167,0.11807398498058319,-0.9789858460426331,-0.16626912355422974,-0.5975813865661621,0.547146737575531,-0.06580181419849396
1.394391802724706,0.6304820713597034,1.1654425302943905,2.696845531463623,0.45332881808280945,1.5056287050247192,0.10345853120088577,-0.9844810366630554,-0.14175249636173248,-0.5404701828956604,0.31167513132095337,-0.005540564656257629
1.4259794795585794,0.6644209688193411,1.1358269657035098,2.849175214767456,0.4268404245376587,1.5574675798416138,0.08898334950208664,-0.9895323514938354,-0.11361318081617355,-0.4004151523113251,0.1107785701751709,0.08454518020153046
1.4579042564119584,0.704875870132419,1.097456960162842,2.6643054485321045,0.02922676131129265,1.7182095050811768,0.07299187779426575,-0.9936344623565674,-0.08580638468265533,-0.30268236994743347,-0.07115435600280762,0.24661874771118164
1.4885833047639114,0.72951186827127,1.0709817873412162,2.270608425140381,-0.3401269316673279,1.9173564910888672,0.05473405122756958,-0.9966223835945129,-0.06122111156582832,-0.2704932689666748,-0.2542473077774048,0.39499181509017944
1.5176070419955587,0.705841337316713,1.0905759911624586,1.9417145252227783,-0.45699015259742737,2.080202579498291,0.0344853512942791,-0.9985857605934143,-0.040460411459207535,-0.3194889724254608,-0.43052178621292114,0.43021565675735474
1.545592916844102,0.534365415210514,1.2576888619165558,1.8537101745605469,-0.42302176356315613,2.220245599746704,0.012835762463510036,-0.9996824264526367,-0.02168950065970421,-0.40681764483451843,-0.5738802552223206,0.2925787568092346
1.559702529371106,-1.3352732799123477,3.1235592088580804,1.9748049974441528,-0.36303725838661194,2.502413749694824,-0.010790880769491196,-0.9999384880065918,-0.0025895610451698303,-0.41160285472869873,-0.6817174553871155,0.17397624254226685
1.5287082801160468,-2.0272341351140697,-2.4713766374839934,2.2314183712005615,-0.4260314702987671,2.8950741291046143,-0.03777074068784714,-0.999114453792572,0.01854618638753891,-0.30343097448349,-0.762345016002655,0.1495598554611206
1.4898319939107005,-2.1268239186510765,-2.376668597051548,2.537534475326538,-0.5810753703117371,3.308760643005371,-0.06869428604841232,-0.9967241883277893,0.04268864914774895,-0.2227637767791748,-0.8676710724830627,0.16950011253356934
1.4460087819272138,-2.164791439666988,-2.3448906283310937,2.733731269836426,-0.6768053770065308,3.651130437850952,-0.10314484685659409,-0.9922241568565369,0.06965962797403336,-0.15439292788505554,-1.004296898841858,0.18893098831176758
1.3994602791945812,-2.1801374728171554,-2.3365030733302015,2.68984055519104,-0.7210026979446411,3.830972194671631,-0.13981379568576813,-0.9853578805923462,0.09758144617080688,-0.1318383663892746,-1.1436705589294434,0.24777066707611084
1.3532921146858325,-2.1828945932802513,-2.3408997250283785,2.4302618503570557,-0.6831731796264648,3.7757341861724854,-0.17661525309085846,-0.9764390587806702,0.12399215996265411,-0.18491117656230927,-1.2474074363708496,0.30372703075408936
1.3102059037240474,-2.179361389384244,-2.3512460547178633,2.0948119163513184,-0.6035462617874146,3.5265941619873047,-0.21139447391033173,-0.9662380218505859,0.14729651808738708,-0.3003089129924774,-1.3396395444869995,0.304226279258728
1.271342110003767,-2.1735684373727695,-2.3628471821881587,1.8026986122131348,-0.4682195782661438,3.203190565109253,-0.2430102825164795,-0.9554976224899292,0.1672431081533432,-0.37626761198043823,-1.4505997896194458,0.2492760419845581
1.2366548699453137,-2.168171665291071,-2.373027302606037,1.589146375656128,-0.3874741196632385,2.860389232635498,-0.27116093039512634,-0.9446921944618225,0.18446822464466095,-0.38751518726348877,-1.5825142860412598,0.20920850336551666
1.2057484832566658,-2.1644976106762344,-2.3808152565104854,1.4310659170150757,-0.34312450885772705,2.5400400161743164,-0.2959035038948059,-0.934106707572937,0.1997140347957611,-0.35730990767478943,-1.698064923286438,0.1987844556570053
1.1782882850973293,-2.162821006522997,-2.3864361780336156,1.2796956300735474,-0.37470799684524536,2.230285882949829,-0.31740862131118774,-0.9239526391029358,0.21345475316047668,-0.2975357174873352,-1.7600376605987549,0.18714936077594757
1.1544308625288162,-2.163230666670747,-2.3904429979624786,1.1112858057022095,-0.4362008571624756,1.888106346130371,-0.3355162441730499,-0.9145649075508118,0.22583164274692535,-0.2551361620426178,-1.797929048538208,0.19354093074798584
1.1345062341102352,-2.164811959552773,-2.393262595843529,0.912746787071228,-0.37445709109306335,1.5335280895233154,-0.35019174218177795,-0.90632563829422,0.23651503026485443,-0.2507755756378174,-1.8430333137512207,0.186397522687912
1.1186198133227017,-2.1653990122782902,-2.3958152681317784,0.6704658269882202,-0.19471459090709686,1.2232037782669067,-0.36193567514419556,-0.8994982838630676,0.24475625157356262,-0.27794161438941956,-1.9106061458587646,0.17486047744750977
1.1063704207111187,-2.162431399193331,-2.4002068313116,0.37084656953811646,0.0033556148409843445,1.0321251153945923,-0.3717781603336334,-0.8940788507461548,0.24980753660202026,-0.2578146457672119,-1.9623510837554932,0.18235181272029877
1.0969624088504968,-2.153750790252938,-2.4088124395365744,0.03185052424669266,0.1907653659582138,0.9720928072929382,-0.38093864917755127,-0.8898254036903381,0.2511906921863556,-0.18304145336151123,-1.9700379371643066,0.21141007542610168
1.0895829698719566,-2.1385187289319045,-2.4227804237719943,-0.29915642738342285,0.36854255199432373,0.9605253338813782,-0.39024633169174194,-0.8864339590072632,0.2488834708929062,-0.12028223276138306,-1.9448497295379639,0.2351711094379425
1.083825450316683,-2.1171408230598696,-2.441978335430539,-0.5980949401855469,0.4950825273990631,0.9498835206031799,-0.39983096718788147,-0.8837543725967407,0.24313195049762726,-0.07912701368331909,-1.8936350345611572,0.22621306777000427
1.0796606801998039,-2.0911453321072546,-2.4654228616986975,-0.8647871017456055,0.5563510060310364,0.8680807948112488,-0.40920552611351013,-0.8817978501319885,0.23448513448238373,-0.07542881369590759,-1.8196486234664917,0.20748566091060638
1.0776793816559,-2.0625177028015447,-2.4912841055689703,-1.0627564191818237,0.614454448223114,0.641762912273407,-0.4172888994216919,-0.8808616399765015,0.22350047528743744,-0.12954020500183105,-1.7352728843688965,0.19282028079032898
1.0786199183943481,-2.0330273438946644,-2.5170722452914616,-1.1741724014282227,0.7362983226776123,0.29691100120544434,-0.42295628786087036,-0.8813064694404602,0.21072973310947418,-0.18553370237350464,-1.6458542346954346,0.14612749218940735
1.0830422630110614,-2.0038577865105935,-2.541258164347368,-1.2501105070114136,0.8109968304634094,-0.11198429763317108,-0.4253806173801422,-0.8833876252174377,0.1966669112443924,-0.21464931964874268,-1.547184944152832,0.09369257092475891
1.0911997566317466,-1.9756882578223816,-2.563883801483866,-1.3307543992996216,0.8061965107917786,-0.5195068120956421,-0.42411279678344727,-0.8871811628341675,0.1817626953125,-0.23659265041351318,-1.4503278732299805,0.0846099704504013
1.1030870456769795,-1.9479097038026616,-2.5860225961041334,-1.4357550144195557,0.8074859976768494,-0.8982069492340088,-0.41916245222091675,-0.8926033973693848,0.16601742804050446,-0.2567559778690338,-1.3555959463119507,0.09458741545677185
1.1184063182802235,-1.9191615048958068,-2.6090173793578373,-1.5505201816558838,0.8182951807975769,-1.2309728860855103,-0.41085976362228394,-0.8994049429893494,0.14921478927135468,-0.2849867343902588,-1.2698607444763184,0.0999460220336914
1.1367652760413356,-1.888033462169463,-2.6342111744788532,-1.6794371604919434,0.8553525805473328,-1.5190708637237549,-0.3995474576950073,-0.9072779417037964,0.13118179142475128,-0.3248482346534729,-1.1882878541946411,0.11187541484832764
1.1576560821906654,-1.8529058485975989,-2.662776965290951,-1.7864371538162231,0.9695297479629517,-1.7654638290405273,-0.38561704754829407,-0.9158645868301392,0.11176712065935135,-0.38110655546188354,-1.0944809913635254,0.12170769274234772
1.180427095111128,-1.812083068691383,-2.6958184437613455,-1.8698139190673828,1.0976765155792236,-1.9406764507293701,-0.3695064187049866,-0.9247686266899109,0.09092848747968674,-0.44444310665130615,-1.0072686672210693,0.1273179054260254
1.2039596836951183,-1.7648306122428354,-2.734454152309779,-1.9185428619384766,1.1624935865402222,-2.0157854557037354,-0.3519333600997925,-0.9334666132926941,0.06915723532438278,-0.47231578826904297,-0.9365894198417664,0.13315904140472412
1.2271958947883987,-1.710651040986449,-2.7795908390363975,-1.9282400608062744,1.2022719383239746,-2.022763729095459,-0.33358973264694214,-0.9415478706359863,0.04696067050099373,-0.4664132297039032,-0.8435167670249939,0.14183640480041504
1.2493344592187066,-1.649748151856416,-2.831047360892988,-1.8720704317092896,1.2449605464935303,-1.9968576431274414,-0.31496933102607727,-0.9487745761871338,0.02491920255124569,-0.46051275730133057,-0.7521683573722839,0.14687955379486084
1.2701051684085791,-1.5832257413737052,-2.887480587456529,-1.7525919675827026,1.3108603954315186,-1.9805006980895996,-0.29615771770477295,-0.955132007598877,0.0036812566686421633,-0.4576874375343323,-0.673163890838623,0.13329684734344482
1.2893970706170623,-1.511705175909212,-2.947849212846032,-1.6086894273757935,1.4270237684249878,-1.939902424812317,-0.27721551060676575,-0.9606677889823914,-0.01640007644891739,-0.432150274515152,-0.6088970303535461,0.1270262598991394
1.3067389711654058,-1.436600133023495,-3.009623182500716,-1.3444887399673462,1.688308596611023,-1.8063290119171143,-0.25865277647972107,-0.965338945388794,-0.034920092672109604,-0.33782845735549927,-0.5537192225456238,0.0952533483505249
1.3220866854972089,-1.3619818529600807,-3.0685840057756857,-1.0858412981033325,1.8009346723556519,-1.7397187948226929,-0.2408059686422348,-0.9692308306694031,-0.05102759599685669,-0.26432090997695923,-0.4822003245353699,0.06184608116745949
1.3368422783712066,-1.2862783564233353,-3.1278187422274786,-0.9516702890396118,1.819512128829956,-1.80650794506073,-0.22250568866729736,-0.9727573394775391,-0.06507229804992676,-0.39314061403274536,-0.42633628845214844,0.16887784004211426
1.3512909499848402,-1.2032242300190832,3.0889170252752134,-0.9606789946556091,1.8326966762542725,-1.871901035308838,-0.20320259034633636,-0.9760052561759949,-0.07824775576591492,-0.42933523654937744,-0.3708423972129822,0.2475593090057373
1.364538289974916,-1.1060292742178943,3.0084830940135388,-1.080967903137207,1.8715612888336182,-1.9078212976455688,-0.1830752193927765,-0.9788041114807129,-0.09179393202066422,-0.37763944268226624,-0.30079805850982666,0.288021981716156
1.3752424356216357,-0.9900561316775979,2.9094370571318673,-1.2765333652496338,1.892994999885559,-1.8971465826034546,-0.1624535173177719,-0.9809402227401733,-0.1066063642501831,-0.3419867157936096,-0.2162642478942871,0.306755930185318
1.3817586438963787,-0.8559515375713996,2.792197946370677,-1.5037704706192017,1.895216941833496,-1.8258376121520996,-0.14191186428070068,-0.9821855425834656,-0.12317780405282974,-0.29699188470840454,-0.12071973085403442,0.32639431953430176
1.3826271941704706,-0.7114119801370721,2.6640358092335923,-1.7533806562423706,1.811557412147522,-1.6768912076950073,-0.12213268876075745,-0.9823483824729919,-0.14168742299079895,-0.23095563054084778,-0.030499517917633057,0.35279279947280884
1.3767242804294608,-0.5706212470888123,2.5385707785212572,-2.0354409217834473,1.6973189115524292,-1.422603726387024,-0.10417237132787704,-0.9812270402908325,-0.16230134665966034,-0.13545159995555878,0.03968346118927002,0.41964083909988403
1.3638354242066402,-0.4458834261870158,2.4282752956395512,-2.3409488201141357,1.631268858909607,-1.1605148315429688,-0.08861719071865082,-0.9786599278450012,-0.18539628386497498,-0.06058318912982941,0.08457118272781372,0.5131703615188599
1.3446655735485926,-0.3417255000986856,2.338432959472016,-2.662621021270752,1.655671238899231,-0.930194616317749,-0.0751352459192276,-0.974541187286377,-0.21124425530433655,-0.06600850820541382,0.13161522150039673,0.5744491815567017
1.3199855261502325,-0.25774708888351067,2.269841643531586,-2.984184503555298,1.8127868175506592,-0.7067508697509766,-0.06326422095298767,-0.9687114953994751,-0.23999114334583282,-0.052870385348796844,0.21930652856826782,0.6034554243087769
1.2908087558442456,-0.19033956917377864,2.2201301557947226,-3.2505385875701904,2.0554373264312744,-0.5454328656196594,-0.0522821806371212,-0.9610588550567627,-0.2713533043861389,-0.026514142751693726,0.3447563648223877,0.5807710289955139
1.2585647860114242,-0.13408726664817294,2.184063342369287,-3.4197349548339844,2.27801251411438,-0.5045728087425232,-0.041065994650125504,-0.9516504406929016,-0.30442550778388977,-0.05153953656554222,0.48738664388656616,0.5191929340362549
1.2245662840151113,-0.08357899634710396,2.1558889632462543,-3.5033304691314697,2.467827558517456,-0.5745247006416321,-0.028329873457551003,-0.9406587481498718,-0.3381696045398712,-0.14572706818580627,0.5994569063186646,0.4807325005531311
1.1896946796689307,-0.03614878765411954,2.132420372347844,-3.527804374694824,2.6095142364501953,-0.6665936708450317,-0.013442366383969784,-0.9282554388046265,-0.3717001676559448,-0.21797236800193787,0.6685051321983337,0.4665640890598297
1.1560401349243021,0.011548028840488589,2.1125303686181702,-3.161149740219116,3.192699432373047,-0.7589110136032104,0.004653367213904858,-0.9152145981788635,-0.4029397964477539,-0.27905213832855225,0.7501145601272583,0.3448801338672638
1.125259027360022,0.057417182126682176,2.0973456309491865,-2.9399452209472656,3.2343785762786865,-0.7009364366531372,0.024729933589696884,-0.9023792743682861,-0.4302327334880829,-0.2887069284915924,0.8523151278495789,0.19153952598571777
1.0968276491355171,0.0995413507399876,2.0879978284039984,-2.641606330871582,3.4709746837615967,-0.5631904006004333,0.045357778668403625,-0.8897638916969299,-0.45416170358657837,-0.19532111287117004,0.8223658204078674,0.42813026905059814
1.0716251977194529,0.13957998927659013,2.083021416213625,-2.284885883331299,3.628033399581909,-0.5038309693336487,0.06659991294145584,-0.8779796361923218,-0.47404244542121887,-0.15220168232917786,0.7799419164657593,0.43571239709854126
1.0503512618494344,0.1785994169240879,2.0800380204689217,-1.8527560234069824,3.596165657043457,-0.43798285722732544,0.08834006637334824,-0.8675979375839233,-0.48935645818710327,-0.18741533160209656,0.7058089971542358,0.47611188888549805
1.0338203881729522,0.2140640290288149,2.0793637657809017,-1.368641972541809,3.360945701599121,-0.2610243260860443,0.10866791009902954,-0.8592595458030701,-0.4998643398284912,-0.15133145451545715,0.7612065672874451,0.5344102382659912
1.022419240115913,0.24610286867260833,2.0814306878760362,-0.9013853669166565,3.4426181316375732,-0.04452786222100258,0.12700305879116058,-0.8533716797828674,-0.505595862865448,-0.09344890713691711,0.8688287734985352,0.5824391841888428
1.0158847491924148,0.2789117655317977,2.0862113406141467,-0.49450331926345825,3.9381580352783203,0.20036311447620392,0.14505191147327423,-0.8499470353126526,-0.5065077543258667,-0.02333250641822815,0.9447498321533203,0.5456618666648865
1.0138428515976725,0.3137552881653022,2.0946411755943193,-0.1647624373435974,4.418425559997559,0.5410817861557007,0.1631440818309784,-0.8488694429397583,-0.5027968883514404,0.045001089572906494,0.9714585542678833,0.45071864128112793
1.0160322013927414,0.34894007791258325,2.1079639270283668,0.11437651515007019,4.857358932495117,0.9271320104598999,0.18009436130523682,-0.8500247001647949,-0.49499890208244324,0.03755702078342438,0.9875369668006897,0.375003844499588
1.022220682902297,0.3849500622546053,2.1258429685604145,0.36308005452156067,5.369911193847656,1.2529906034469604,0.19581955671310425,-0.8532681465148926,-0.48330947756767273,-0.061099663376808167,1.0068020820617676,0.27641561627388
1.0320798626911225,0.4235474871940312,2.1468394234204715,0.5879946947097778,5.911643028259277,1.5023258924484253,0.21085570752620697,-0.8583678603172302,-0.46770116686820984,-0.1733037531375885,1.0117645263671875,0.17676186561584473
1.045259663575242,0.46664789653983324,2.1690847115509544,0.8117125630378723,6.496767997741699,1.6478281021118164,0.22570210695266724,-0.8650548458099365,-0.4480385482311249,-0.21961386501789093,0.9981573224067688,0.06498196721076965
1.061271050620706,0.5158311421054496,2.1903876355573875,1.0044559240341187,6.976202487945557,1.6976089477539062,0.24059303104877472,-0.8729761838912964,-0.4242967963218689,-0.25055697560310364,0.9631249904632568,-0.033573687076568604
1.0793107645410398,0.5710090516104406,2.20889256391799,1.1523712873458862,7.240348815917969,1.6683849096298218,0.25507262349128723,-0.8816327452659607,-0.39706626534461975,-0.28479674458503723,0.9451703429222107,-0.048612385988235474
1.0982734622398918,0.6308685489899419,2.223375546199594,1.1284019947052002,7.095851421356201,1.5488896369934082,0.26845914125442505,-0.8904228806495667,-0.3675277829170227,-0.31722623109817505,0.9369469881057739,-0.03141316771507263
1.108835812268446,0.6709094725928845,2.2414777991331984,-0.5737552642822266,3.8712286949157715,0.9372069835662842,0.2770935595035553,-0.8951804041862488,-0.34910058975219727,-0.3380065858364105,0.9305197596549988,0.15003448724746704
1.101364588419512,0.6719952544516088,2.2681622422318837,-1.9553308486938477,1.35923171043396,-0.010870068334043026,0.281628280878067,-0.8918254971504211,-0.35402366518974304,-0.3335234224796295,0.8394116163253784,0.4275100529193878
1.0810177398120333,0.6607531322760581,2.29112993874408,-2.444462537765503,0.6574639081954956,-0.787512481212616,0.2887086570262909,-0.8824370503425598,-0.37141910195350647,-0.3384828567504883,0.7333281636238098,0.3900807201862335
1.0556776169278448,0.6559922466619195,2.305914036070922,-2.396174192428589,1.014741063117981,-1.126654028892517,0.30048251152038574,-0.8702342510223389,-0.390387624502182,-0.20876193046569824,0.5441692471504211,0.2935859262943268
1.0301398811859424,0.657322529917709,2.3164282945347185,-2.2772607803344727,0.9536082148551941,-1.09833824634552,0.3144807517528534,-0.8573709726333618,-0.4074515998363495,-0.1020021140575409,0.4182841181755066,0.19355395436286926
1.0069400986268413,0.654913966597215,2.3277025583406314,-2.112513542175293,0.5682903528213501,-0.7546644806861877,0.3255282938480377,-0.8452004194259644,-0.4238719344139099,0.10650905966758728,0.31088346242904663,0.049787551164627075
0.9875528852379859,0.6489455113358071,2.3433827496002175,-1.9677103757858276,0.8195319771766663,-0.22757627069950104,0.33283424377441406,-0.8346807956695557,-0.43878164887428284,0.29079246520996094,0.35538697242736816,-0.06747442483901978
0.9734052703647279,0.6407994834295989,2.3643987894764433,-1.678696870803833,1.1041771173477173,0.41321542859077454,0.3362754285335541,-0.8268059492111206,-0.45089995861053467,0.2979408800601959,0.48371201753616333,-0.013196051120758057
0.9657005267027251,0.6324890866741265,2.3909002391972214,-1.3268777132034302,1.5668781995773315,1.0703579187393188,0.336272656917572,-0.8224475979804993,-0.4588034749031067,0.3211980164051056,0.5261066555976868,-0.09150469303131104
0.9645931329058125,0.6238213242759428,2.4217719781909786,-0.8947561979293823,1.7314602136611938,1.6174359321594238,0.3328150510787964,-0.82181715965271,-0.4624398350715637,0.3283330202102661,0.45821553468704224,-0.20731410384178162
0.9693148407360612,0.6150230404507809,2.4551065426910768,-0.5558551549911499,2.0050129890441895,1.9694015979766846,0.32649102807044983,-0.824498176574707,-0.4621756076812744,0.33039984107017517,0.37576770782470703,-0.2983376383781433
0.9782902726693535,0.6075135054768122,2.487587910475986,-0.05214224010705948,1.8557547330856323,2.015627861022949,0.31877392530441284,-0.8295438289642334,-0.4585196077823639,0.25227102637290955,0.2976834774017334,-0.27857133746147156
0.9908704730856526,0.6024201905116356,2.514821832760873,0.38227683305740356,1.6314581632614136,1.8577122688293457,0.31049618124961853,-0.836503267288208,-0.45150235295295715,0.14282715320587158,0.2452404499053955,-0.20197051763534546
1.0048478886194334,0.6004239729907729,2.5350504459547176,0.6598753929138184,1.3652722835540771,1.5093481540679932,0.30295825004577637,-0.84408038854599,-0.4424302279949188,-0.019022703170776367,0.17415857315063477,-0.0749036967754364
1.0183229988661886,0.6026019608320653,2.547393364049667,0.7984978556632996,1.1557084321975708,1.0840986967086792,0.2974471151828766,-0.8512291312217712,-0.43235892057418823,-0.16828149557113647,0.10150372982025146,0.025452852249145508
1.0298457906081258,0.6089978916730093,2.5522385181167824,0.800849437713623,0.9467260241508484,0.6490926146507263,0.29457566142082214,-0.8572195768356323,-0.4223741292953491,-0.23341840505599976,0.07351279258728027,0.11289536952972412
1.0394479160518388,0.6192499259521432,2.5508121354651356,0.8648948669433594,0.8829860091209412,0.3689414858818054,0.29409903287887573,-0.8621246218681335,-0.4126100242137909,-0.16581836342811584,0.05633842945098877,0.08695697784423828
1.0490697895621781,0.6333982291313268,2.545390290294655,1.014554500579834,1.0205965042114258,0.35178008675575256,0.2949834167957306,-0.8669599890708923,-0.4017028212547302,-0.025589466094970703,0.04680013656616211,-0.0299530029296875
1.060478949227604,0.6500314263752063,2.5392271995286437,1.1702220439910889,1.2278192043304443,0.5467369556427002,0.29561811685562134,-0.8725895285606384,-0.38884127140045166,0.10082048177719116,0.08134502172470093,-0.07922202348709106
1.0743718050141062,0.6671344445225265,2.5348911193655224,1.2653968334197998,1.4167160987854004,0.8230772018432617,0.2946951985359192,-0.8792911171913147,-0.374168336391449,0.1815774142742157,0.1332584023475647,-0.07025909423828125
1.090240022401085,0.6826442143852818,2.5339458905779417,1.244462251663208,1.490237832069397,1.0799673795700073,0.2916232645511627,-0.8867378830909729,-0.35868072509765625,0.21577727794647217,0.1487160325050354,-0.0032882094383239746
1.1068350721350757,0.6938663936676153,2.5376437069107007,1.0834137201309204,1.381361484527588,1.2686086893081665,0.2861788868904114,-0.8942868709564209,-0.344024121761322,0.20814484357833862,0.1262509822845459,0.1032252311706543
1.1224591206256613,0.6987934622718046,2.546582710393256,0.7902900576591492,1.1834779977798462,1.3149809837341309,0.27884724736213684,-0.9011691212654114,-0.3318709433078766,0.17063087224960327,0.04943883419036865,0.19791415333747864
1.1352951886254496,0.6967730403399934,2.5605427464892356,0.4016290605068207,0.9332703351974487,1.2311878204345703,0.2707301676273346,-0.9066587686538696,-0.32353535294532776,0.0673588216304779,-0.036746442317962646,0.2744479179382324
1.144315314055517,0.6892045070621111,2.5784652549806246,0.042676541954278946,0.8193680644035339,1.0664513111114502,0.26306217908859253,-0.9104270935058594,-0.31925034523010254,-0.01931825280189514,-0.07326126098632812,0.31218552589416504
1.1498958377753625,0.6788522040904954,2.5984972959332784,-0.2043745219707489,0.7510835528373718,0.920632004737854,0.25654903054237366,-0.9127213954925537,-0.3179973363876343,-0.04294124245643616,-0.10870194435119629,0.2646983861923218
1.153119766533505,0.6664596713077825,2.61976746787689,-0.3544895052909851,0.6439807415008545,0.8454749584197998,0.2507683038711548,-0.9140338897705078,-0.31883764266967773,-0.029668420553207397,-0.12934696674346924,0.17511513829231262
1.155406836291306,0.6525089312623723,2.6416051781499186,-0.3412328362464905,0.5601468086242676,0.8382740616798401,0.24502600729465485,-0.914959192276001,-0.32064297795295715,0.026290535926818848,-0.10237479209899902,0.08405554294586182
1.1584388303122226,0.6388581446397605,2.6628443018021235,-0.18558281660079956,0.6244340538978577,0.896989107131958,0.2389710694551468,-0.9161785840988159,-0.3217293620109558,0.0699583888053894,-0.06064331531524658,-0.040331125259399414
1.1633193499777836,0.6272233302563206,2.6832087216489393,0.012140917591750622,0.7723093032836914,0.9866524338722229,0.23258453607559204,-0.9181236028671265,-0.3208635449409485,0.07704676687717438,-0.01778942346572876,-0.14774903655052185
1.170046938960787,0.6173208255457503,2.703121556500729,0.15708085894584656,0.8983577489852905,1.0623462200164795,0.2258152812719345,-0.9207689166069031,-0.318107008934021,0.05250503122806549,-0.0009229779243469238,-0.15201625227928162
1.1776592463061675,0.60749533113477,2.7233958854109472,0.16886986792087555,0.8345920443534851,1.0830661058425903,0.21867148578166962,-0.9237118363380432,-0.31454598903656006,0.022676780819892883,-0.012796342372894287,-0.08939984440803528
1.1845309957303451,0.5945204786687149,2.7447024740688275,0.043235477060079575,0.48688414692878723,1.0156391859054565,0.21101152896881104,-0.9263224601745605,-0.3120906352996826,0.014376014471054077,-0.0697253942489624,0.04811367392539978
1.1894753082423652,0.5780839582825678,2.7663030456853885,-0.11669160425662994,0.26713553071022034,0.8638451099395752,0.20334862172603607,-0.928173840045929,-0.3116772174835205,-0.0004525184631347656,-0.14366453886032104,0.08491641283035278
1.1918726034381804,0.5615744353881137,2.786670861328354,-0.29680827260017395,0.21757516264915466,0.6618977189064026,0.19699005782604218,-0.9290633201599121,-0.31310755014419556,-0.06957918405532837,-0.1591172218322754,0.08443939685821533
1.1915467850175978,0.5463042314620864,2.805315290912694,-0.47726619243621826,0.193229079246521,0.4846302568912506,0.19234317541122437,-0.9289427399635315,-0.3163374364376068,-0.10947272181510925,-0.14309394359588623,0.08377829194068909
1.1890194972650547,0.5320217547387548,2.8227699190522184,-0.6085530519485474,0.19205866754055023,0.3796021342277527,0.18899604678153992,-0.9280040860176086,-0.32107454538345337,-0.08564832806587219,-0.13010132312774658,0.06314000487327576
1.1853619349194002,0.5181867497930659,2.839782197159605,-0.6483436226844788,0.1904437243938446,0.36383089423179626,0.18621590733528137,-0.926635205745697,-0.32660484313964844,-0.027265116572380066,-0.0944371223449707,0.020528823137283325
1.1816907260373462,0.5042292669319574,2.8567863176619452,-0.6102209091186523,0.16218917071819305,0.4020331799983978,0.18328173458576202,-0.9252487421035767,-0.3321484327316284,0.03243175148963928,-0.06687778234481812,-0.030064642429351807
1.1786501849027822,0.4899278946295486,2.8739461184739628,-0.5422847270965576,0.15238367021083832,0.4568450450897217,0.17983603477478027,-0.9240909814834595,-0.33721646666526794,0.06120702624320984,-0.05997884273529053,-0.06869775056838989
1.176396993169405,0.47534393880597364,2.8913226016122837,-0.4703242778778076,0.13157376646995544,0.5097026228904724,0.17585155367851257,-0.9232275485992432,-0.34165364503860474,0.05043628811836243,-0.05563908815383911,-0.08379185199737549
1.1748967498504628,0.46059630047694505,2.9084396005790722,-0.3848608136177063,0.07129018753767014,0.5256136655807495,0.17140944302082062,-0.9226500391960144,-0.3454500734806061,0.03067794442176819,-0.06116044521331787,-0.08895236253738403
1.1740820836876649,0.4463391772590841,2.924164046136895,-0.29130682349205017,-0.023164868354797363,0.48815521597862244,0.1667914241552353,-0.9223355650901794,-0.3485364615917206,0.013414844870567322,-0.06794452667236328,-0.09755417704582214
1.1736517122020282,0.4335250402266165,2.9373251543968095,-0.2217317372560501,-0.10568743944168091,0.38880786299705505,0.16247835755348206,-0.9221691489219666,-0.3510052263736725,-0.01402561366558075,-0.0788683295249939,-0.09377315640449524
1.1731434405476586,0.4231466799115412,2.947200065200059,-0.1922343224287033,-0.14425918459892273,0.25916287302970886,0.15901930630207062,-0.9219724535942078,-0.3530999422073364,-0.04232005774974823,-0.09018880128860474,-0.08375909924507141
1.1721805106795713,0.4153672732496819,2.953989240025846,-0.19814707338809967,-0.15837019681930542,0.14508315920829773,0.15662580728530884,-0.9215991497039795,-0.35513851046562195,-0.05498701333999634,-0.08772397041320801,-0.06693482398986816
1.1708171125325113,0.4094947601958908,2.95857337811619,-0.1887718141078949,-0.17048045992851257,0.08025240898132324,0.15503764152526855,-0.9210690855979919,-0.3572043776512146,-0.04700544476509094,-0.06838709115982056,-0.06416702270507812
1.1695906121956277,0.4045822662054198,2.962021074201762,-0.1373847872018814,-0.17831628024578094,0.07557457685470581,0.1537255346775055,-0.9205908179283142,-0.35899975895881653,-0.02034848928451538,-0.04600757360458374,-0.08693826198577881
1.169012811820929,0.39980192614905335,2.9651609177206923,-0.0642785057425499,-0.1993153691291809,0.10973938554525375,0.15221469104290009,-0.9203649759292603,-0.3602205216884613,0.007987305521965027,-0.02950984239578247,-0.10944494605064392
1.1691541947837145,0.39458244630930656,2.9686899929853756,-0.02189776301383972,-0.1833566427230835,0.1540093868970871,0.15028242766857147,-0.9204202890396118,-0.36088991165161133,0.01689283549785614,-0.015492737293243408,-0.10038319230079651
1.1697145331904002,0.38900996598275517,2.9728941805722973,-0.004517748951911926,-0.15601220726966858,0.1915149986743927,0.14807352423667908,-0.920639157295227,-0.36124473810195923,0.014493614435195923,-0.0030363798141479492,-0.079001784324646
1.1704981563384702,0.3828827335093027,2.9778778728052067,0.0015931404195725918,-0.1545107066631317,0.22578614950180054,0.1455877721309662,-0.92094486951828,-0.36147597432136536,0.011058956384658813,0.004959702491760254,-0.06543433666229248
1.1712528936053788,0.37611437740793074,2.9835608994988188,-0.031178347766399384,-0.1392819583415985,0.23081612586975098,0.14288246631622314,-0.9212387204170227,-0.36180636286735535,0.0036476850509643555,0.0013015270233154297,-0.049005985260009766
1.1712616004669227,0.36972277176211626,2.9893799902032687,-0.13957352936267853,-0.05986889451742172,0.1856025755405426,0.14056411385536194,-0.9212420582771301,-0.36270469427108765,-0.01757827401161194,-0.019630074501037598,-0.019024372100830078
1.1697044291025043,0.3642936204661791,2.9951296669034457,-0.3093659281730652,0.034754082560539246,0.12035036832094193,0.13910384476184845,-0.9206352233886719,-0.3648024797439575,-0.048588693141937256,-0.026432037353515625,0.023051440715789795
1.1663685536970063,0.3598020609547622,3.0009424877469915,-0.4625205993652344,0.13101324439048767,0.07708998024463654,0.1385444551706314,-0.9193277359008789,-0.3682960271835327,-0.05987018346786499,-0.010741233825683594,0.04613727331161499
1.1619402475039076,0.35531032332664647,3.007452562800134,-0.5336056351661682,0.15024800598621368,0.09930736571550369,0.13830365240573883,-0.9175761938095093,-0.37272772192955017,-0.028669282793998718,-0.014049112796783447,0.027741819620132446
1.1572109657601977,0.3499163484007738,3.014838077949172,-0.5504714250564575,0.12726466357707977,0.12229124456644058,0.13777725398540497,-0.915685772895813,-0.3775405287742615,-0.009649202227592468,-0.021737873554229736,0.005027800798416138
1.1525032868834162,0.34469974708168616,3.022028573543816,-0.5256355404853821,0.151481032371521,0.10073088109493256,0.13726112246513367,-0.9137836694717407,-0.382307231426239,-0.030678480863571167,-0.015247702598571777,-0.01802229881286621
1.14810854779569,0.34112936075018524,3.0280220954795807,-0.45841869711875916,0.2327769547700882,0.06614041328430176,0.13723742961883545,-0.911989688873291,-0.38657552003860474,-0.06066882610321045,-0.018826961517333984,-0.05461704730987549
1.1444496380571907,0.33982921080651624,3.0325528492818927,-0.34570080041885376,0.3277232348918915,0.04855910688638687,0.1378461718559265,-0.91048264503479,-0.3898973762989044,-0.07258431613445282,-0.02607142925262451,-0.0802716612815857
1.1420166716523017,0.3402057949963945,3.0358712838150548,-0.20010177791118622,0.3318341076374054,0.05190430209040642,0.13873165845870972,-0.9094737768173218,-0.39193227887153625,-0.05917234718799591,-0.027278482913970947,-0.08650699257850647
1.1409453630805182,0.34124459415572184,3.038047277414755,-0.06592624634504318,0.26998263597488403,0.04444022476673126,0.13946464657783508,-0.9090278744697571,-0.3927057087421417,-0.03285151720046997,-0.02317720651626587,-0.07769215106964111
1.1408754682286941,0.3429858192975434,3.0389877731610504,0.022655818611383438,0.25339460372924805,0.026689723134040833,0.14016970992088318,-0.9089987277984619,-0.392522394657135,-0.01858767867088318,-0.016324758529663086,-0.06324231624603271
1.1414183244868794,0.34526251451326484,3.0393657104826146,0.06620601564645767,0.2681606113910675,0.04644472897052765,0.14089585840702057,-0.9092248678207397,-0.39173758029937744,-0.0070915669202804565,-0.009842395782470703,-0.04603701829910278
1.1423201944708505,0.34689333818255463,3.040318588667543,0.07268175482749939,0.21866735816001892,0.08557348698377609,0.141255721449852,-0.9095999598503113,-0.39073607325553894,0.009485870599746704,-0.006476700305938721,-0.030284404754638672
1.1431382006663093,0.3473864931875087,3.0417950226632966,0.034453924745321274,0.15203110873699188,0.07640151679515839,0.14119505882263184,-0.9099395275115967,-0.3899666368961334,-0.003591299057006836,-0.02496647834777832,0.00010466575622558594
1.143324766783206,0.3477603755471539,3.0428268613287313,-0.027640338987112045,0.11583155393600464,0.01252240315079689,0.1412830352783203,-0.9100168943405151,-0.38975435495376587,-0.0354786217212677,-0.04661768674850464,0.023879170417785645
1.1427110016127608,0.3490056618976759,3.0428341863470734,-0.08312373608350754,0.14328201115131378,-0.05141591653227806,0.14195920526981354,-0.9097622632980347,-0.3901027739048004,-0.05239012837409973,-0.04719269275665283,0.020534992218017578
1.1415619960716892,0.3513009731179961,3.042135902962499,-0.10902857035398483,0.18529124557971954,-0.07251907140016556,0.1432138830423355,-0.9092846512794495,-0.39075717329978943,-0.050867676734924316,-0.03766047954559326,0.005777955055236816
1.1403184102725468,0.353805962921411,3.041532831322172,-0.10123772919178009,0.20838801562786102,-0.05366331711411476,0.14458388090133667,-0.9087663888931274,-0.3914574980735779,-0.027213290333747864,-0.03360104560852051,-0.01587575674057007
1.139484219279697,0.3564370005598171,3.0412538821644803,-0.03909046947956085,0.269527792930603,-0.02542848326265812,0.14587785303592682,-0.9084179997444153,-0.3917861580848694,-0.001773834228515625,-0.03176754713058472,-0.04557645320892334
1.1395553715397095,0.3596263097966991,3.040769933893036,0.07841245830059052,0.26347336173057556,-0.009766966104507446,0.14710384607315063,-0.9084477424621582,-0.3912582993507385,0.008123800158500671,-0.01931709051132202,-0.07509595155715942
1.1411391380571123,0.3634086397269302,3.03913855810479,0.2723417282104492,0.19107107818126678,-0.005812171846628189,0.14807100594043732,-0.909108579158783,-0.3893537223339081,0.016433969140052795,-0.01400226354598999,-0.11771100759506226
1.1447037194281333,0.36799860364967957,3.035846644907118,0.48121026158332825,0.12835071980953217,0.008939884603023529,0.1486898809671402,-0.9105876684188843,-0.3856440782546997,0.007926329970359802,-0.0020557045936584473,-0.1388309895992279
1.1500350574897966,0.3727947689666397,3.0316664063665053,0.6274321675300598,0.06640665978193283,0.06409181654453278,0.1487674117088318,-0.9127782583236694,-0.3803996741771698,-0.0034122318029403687,0.034177303314208984,-0.11042970418930054
1.1567127989671062,0.3764402596527019,3.0280788107041454,0.70735764503479,0.005244364030659199,0.15486928820610046,0.14790920913219452,-0.9154854416847229,-0.37417811155319214,0.014795243740081787,0.056385159492492676,-0.07041716575622559
1.1640544779934985,0.37796992824872544,3.0261862390282213,0.6944980621337891,-0.04296524450182915,0.23957166075706482,0.14599700272083282,-0.9184146523475647,-0.3676944375038147,0.03227140009403229,0.05437052249908447,-0.02924761176109314
1.1710397590120145,0.3772616001753598,3.0264693934184934,0.5790451765060425,-0.037683628499507904,0.2888174057006836,0.14336973428726196,-0.9211557507514954,-0.361824631690979,0.04417602717876434,0.03947246074676514,0.012276381254196167
1.1766901554078864,0.3750473894520832,3.028835844961971,0.40067222714424133,0.04109533503651619,0.2898203432559967,0.1406593769788742,-0.9233401417732239,-0.3572924733161926,0.0374411940574646,0.017013847827911377,0.0433276891708374
1.180575473068967,0.37244620554388325,3.0327065556184976,0.21620862185955048,0.1575356423854828,0.2638145685195923,0.13842302560806274,-0.9248250722885132,-0.3543130159378052,0.006993234157562256,0.006245970726013184,0.055011868476867676
1.1828200838105758,0.37020695030941636,3.0375076445558986,0.07750613987445831,0.2815087139606476,0.23967675864696503,0.1368779093027115,-0.9256765842437744,-0.3526860773563385,-0.014593973755836487,0.009050488471984863,0.039194315671920776
1.184075531523186,0.36886167462539576,3.042549668234771,0.03232087567448616,0.3753359019756317,0.20594334602355957,0.13598409295082092,-0.9261507987976074,-0.3517853319644928,-0.021558448672294617,0.010043680667877197,-0.0016081631183624268
1.185223133804041,0.3689569308564978,3.0466768115249407,0.08019918203353882,0.3928765654563904,0.1661890149116516,0.13563428819179535,-0.9265829920768738,-0.35078105330467224,-0.02207837998867035,0.012947678565979004,-0.03886732459068298
1.1870025915336968,0.3703657715739249,3.0490495474122046,0.19298291206359863,0.3144850730895996,0.13339340686798096,0.13553133606910706,-0.9272508025169373,-0.3490520715713501,-0.012087762355804443,0.02135169506072998,-0.05602294206619263
1.189906711691526,0.3722799011844089,3.049675471812175,0.3316957652568817,0.17696848511695862,0.1254393458366394,0.13521906733512878,-0.9283342957496643,-0.3462819457054138,0.004215702414512634,0.03191101551055908,-0.0639963448047638
1.1941157824314002,0.37383940963887335,3.049244360924803,0.45890432596206665,0.05887730047106743,0.1568600833415985,0.1343308687210083,-0.9298907518386841,-0.3424302637577057,0.0205305814743042,0.03976929187774658,-0.06253796815872192
1.1995337062373375,0.3744972495740734,3.048642045191731,0.5543938279151917,-0.034780219197273254,0.19881099462509155,0.13271117210388184,-0.9318700432777405,-0.3376478850841522,0.028299570083618164,0.0456852912902832,-0.04916238784790039
1.2057150296630383,0.37427757659907096,3.048207970370005,0.6014561653137207,-0.07612729072570801,0.22127015888690948,0.13052842020988464,-0.9340947270393372,-0.3323088586330414,0.032603293657302856,0.040707945823669434,-0.04353034496307373
1.2121567111652842,0.37446856088429537,3.047596335454911,0.6041539311408997,0.013618042692542076,0.20666511356830597,0.12838831543922424,-0.9363752007484436,-0.3266770839691162,0.019270941615104675,0.018894731998443604,-0.048399120569229126
1.2177864461853485,0.3758915536854935,3.04736665350144,0.41126471757888794,0.1879730373620987,0.19311212003231049,0.12691588699817657,-0.9383363723754883,-0.32158559560775757,-0.010125130414962769,0.01893329620361328,0.028052330017089844
1.221145446927585,0.3739504194563856,3.050273930566776,0.15261587500572205,-0.027610652148723602,0.24616041779518127,0.12513932585716248,-0.9394923448562622,-0.31889545917510986,0.035734087228775024,0.016686558723449707,0.17012226581573486
1.222914477194038,0.36792735864444515,3.056710930157391,0.03545840457081795,0.07099089026451111,0.2811172604560852,0.12261828035116196,-0.940096914768219,-0.3180919289588928,0.06771983951330185,-0.017285287380218506,0.06832090020179749
1.2240352220631958,0.3633804848015183,3.063312498924371,0.026292605325579643,0.2484935075044632,0.21008305251598358,0.1207960918545723,-0.9404783844947815,-0.3176610767841339,-0.025230295956134796,0.0032988786697387695,-0.007412046194076538
1.2252365771200453,0.3631991483634789,3.0668758300596237,0.1289132833480835,0.3753992021083832,0.10154783725738525,0.12033695727586746,-0.9408860206604004,-0.31662648916244507,-0.09203193336725235,0.029081881046295166,-0.07640931010246277
1.2273983738597345,0.36806194041527124,3.065901315915074,0.30031245946884155,0.3914932310581207,-0.006250002421438694,0.12114318460226059,-0.9416160583496094,-0.31413933634757996,-0.11154544353485107,0.013088226318359375,-0.11966800689697266
1.2307220739591147,0.3766736506475973,3.0603843162718007,0.44498369097709656,0.2812497913837433,-0.08878260105848312,0.12269207090139389,-0.9427298903465271,-0.310172438621521,-0.10113141685724258,0.018032073974609375,-0.09987691044807434
1.2349185584583335,0.3868531245044302,3.051933382270609,0.5274156928062439,0.16642172634601593,-0.10983702540397644,0.12434941530227661,-0.9441213607788086,-0.30524101853370667,-0.06201726198196411,0.033537864685058594,-0.05794864892959595
1.2394147505103918,0.3963900102986161,3.0432963396637507,0.5013687014579773,0.10625636577606201,-0.059139933437108994,0.12561453878879547,-0.9455937743186951,-0.30012238025665283,-0.02527274191379547,0.04521840810775757,-0.009417325258255005
1.243470899863888,0.40262692521295756,3.0376180131944954,0.37937408685684204,0.07136522233486176,0.041827693581581116,0.12598004937171936,-0.9469056129455566,-0.2958019971847534,0.01081499457359314,0.04445505142211914,0.04172796010971069
1.2466411380474165,0.40435948982524256,3.036622567365636,0.23181654512882233,0.09519139677286148,0.14599034190177917,0.12531065940856934,-0.9479201436042786,-0.2928219139575958,0.029276132583618164,0.036207497119903564,0.07011991739273071
1.2489265284399247,0.40235849965185716,3.0401474713141687,0.10469907522201538,0.17502310872077942,0.2334621399641037,0.12387582659721375,-0.9486455917358398,-0.29107797145843506,0.031748563051223755,0.026709556579589844,0.06279128789901733
1.2504778519936464,0.39779604801036367,3.047243358097924,0.011597506701946259,0.25786134600639343,0.293728232383728,0.12197627127170563,-0.9491351842880249,-0.29028305411338806,0.02342471480369568,0.025902152061462402,0.03955066204071045
1.2514883261145162,0.39172950962632713,3.0566527154079046,-0.0484626330435276,0.3168325126171112,0.3240847885608673,0.11984670907258987,-0.9494528770446777,-0.2901308834552765,0.012141786515712738,0.02962261438369751,0.018127769231796265
1.252147316515237,0.3850965793200863,3.0671616977636846,-0.07770343869924545,0.3424011170864105,0.3316226303577423,0.11768469959497452,-0.949659526348114,-0.29033973813056946,0.001196533441543579,0.02503788471221924,0.008998274803161621
1.2525518964075129,0.37821408885990654,3.0779141570214983,-0.09517990052700043,0.3139660060405731,0.3171747028827667,0.11554175615310669,-0.9497861862182617,-0.29078567028045654,-0.00898963212966919,0.01863384246826172,0.021101832389831543
1.2526906912396483,0.3714736506430529,3.0880465915518953,-0.10775461792945862,0.25821030139923096,0.27745020389556885,0.1135312095284462,-0.949829638004303,-0.2914348542690277,-0.025884754955768585,0.02514702081680298,0.03919193148612976
1.2526503618310265,0.3654191013970276,3.0968471443044683,-0.09288139641284943,0.20430469512939453,0.23345717787742615,0.11177834868431091,-0.9498170018196106,-0.2921527326107025,-0.030449002981185913,0.02574479579925537,0.0429004430770874
1.2526958357858966,0.36023269059153823,3.1041655944317785,-0.05929377302527428,0.1465567946434021,0.19724780321121216,0.1102464497089386,-0.9498312473297119,-0.292688250541687,-0.011415302753448486,0.01577967405319214,0.029596269130706787
1.2528803091606222,0.35561542867504325,3.110194804166715,-0.038042012602090836,0.07711964845657349,0.17202527821063995,0.10883280634880066,-0.9498888850212097,-0.2930297553539276,-2.24187970161438e-05,0.006682157516479492,0.021896392107009888
1.2531986301213276,0.3511510047380148,3.1155097704456054,-0.016530752182006836,0.04243376851081848,0.16508685052394867,0.10741941630840302,-0.9499883651733398,-0.2932285666465759,0.0005059763789176941,0.006293356418609619,0.03100636601448059
1.2537655845408526,0.3466160194949286,3.1206781262078658,0.013627150095999241,0.03730132430791855,0.176642045378685,0.10590557008981705,-0.9501652717590332,-0.2932061553001404,0.00015824288129806519,0.013062059879302979,0.027367621660232544
1.2547143673362902,0.3418754096246037,3.1261468263288146,0.049844250082969666,0.059258200228214264,0.2089712917804718,0.1042122021317482,-0.9504606127738953,-0.2928556501865387,-0.0007729008793830872,0.021520793437957764,0.011712521314620972
1.2560670966204228,0.336775100072981,3.1325017955732783,0.07403454184532166,0.13179658353328705,0.2535898983478546,0.10229217261075974,-0.950880229473114,-0.29216939210891724,0.008807048201560974,0.02557206153869629,0.006479173898696899
1.2577718158882978,0.3313314126845047,3.1401214710015024,0.09051509946584702,0.22507160902023315,0.3036958575248718,0.1001727283000946,-0.9514065384864807,-0.29118865728378296,0.0331738144159317,0.021887004375457764,0.009130030870437622
1.2596993950650446,0.3251977875028773,-3.134034453073438,0.09485285729169846,0.2530611455440521,0.34256017208099365,0.09779878705739975,-0.9519983530044556,-0.29005950689315796,0.031046412885189056,0.013750731945037842,0.026387661695480347
1.2617553768313408,0.31807200841379796,-3.1239669408667803,0.10301024466753006,0.23082369565963745,0.3689541518688202,0.09511718153953552,-0.9526256918907166,-0.2888895273208618,0.03172913193702698,0.010120749473571777,0.037180542945861816
1.2639984937664075,0.309719043854495,-3.113078531078594,0.11832315474748611,0.16452564299106598,0.39598551392555237,0.09204923361539841,-0.9533055424690247,-0.2876378893852234,0.038916945457458496,0.003628969192504883,0.043909311294555664
1.2664832734128804,0.29961512471274426,-3.101294722712142,0.14415858685970306,0.056821878999471664,0.42891815304756165,0.08843882381916046,-0.9540529847145081,-0.28628891706466675,0.039323002099990845,0.000973820686340332,0.04826712608337402
1.2692976440616885,0.28715691300576646,-3.088288654154797,0.1678047925233841,-0.062328483909368515,0.4761301577091217,0.08410461992025375,-0.9548925161361694,-0.28479230403900146,0.04214658588171005,0.001370847225189209,0.04645004868507385
1.2723427852182203,0.27184830666561166,-3.0733783472046414,0.17540860176086426,-0.14310359954833984,0.5373318195343018,0.07895397394895554,-0.9557923674583435,-0.28324392437934875,0.04671740531921387,-0.0014067292213439941,0.04789245128631592
1.2754629226019896,0.2537752818044421,-3.056232274017777,0.1608927845954895,-0.1838422417640686,0.5888935327529907,0.07307328283786774,-0.9567051529884338,-0.28173673152923584,0.04463300108909607,-0.009008347988128662,0.045973241329193115
1.2782869245104787,0.23368011732685925,-3.0372225261100825,0.11763759702444077,-0.18960711359977722,0.6100026369094849,0.06677143275737762,-0.9575232863426208,-0.2805185317993164,0.02925211191177368,-0.01945120096206665,0.04509073495864868
1.280574383588099,0.21264984344224716,-3.0170800771311197,0.07384191453456879,-0.15355350077152252,0.6169196367263794,0.06039535999298096,-0.9581803679466248,-0.27971920371055603,0.017302393913269043,-0.019282400608062744,0.04749572277069092
1.2823381436854469,0.1912223631695822,-2.9960477801913403,0.036029696464538574,-0.10793216526508331,0.6275851726531982,0.0540669746696949,-0.9586836099624634,-0.27928927540779114,0.017542511224746704,-0.01606309413909912,0.031745970249176025
1.2836762365424934,0.16924787936822783,-2.974180889272394,0.0031210153829306364,-0.0898282527923584,0.6360902786254883,0.047701023519039154,-0.9590634107589722,-0.27914491295814514,0.01167091354727745,-0.017453253269195557,0.023987561464309692
1.2845315454306625,0.14746265361096839,-2.9521404721409317,-0.026311665773391724,-0.0386030487716198,0.6158197522163391,0.04148843511939049,-0.9593052864074707,-0.27930647134780884,-0.003829747438430786,-0.022262096405029297,0.023141980171203613
1.2850218161183105,0.12720165150100707,-2.9311201147934565,-0.03472725674510002,0.017846912145614624,0.5667025446891785,0.035761598497629166,-0.9594436287879944,-0.27962303161621094,-0.019007444381713867,-0.029203832149505615,-0.0003909468650817871
1.2853301155499903,0.10930285889803734,-2.9119341660120135,-0.031895946711301804,0.08381630480289459,0.5125936269760132,0.030718980357050896,-0.9595304727554321,-0.27992451190948486,-0.035937488079071045,-0.03412187099456787,-0.021802783012390137
1.2855723125480627,0.09380050443984947,-2.8945192457186906,-0.017830995842814445,0.1527746021747589,0.466045618057251,0.026354173198342323,-0.9595986604690552,-0.2801353335380554,-0.046144817024469376,-0.03417569398880005,-0.03260871767997742
1.2858466835630806,0.08051715116294242,-2.8787887138582975,-0.006106938701122999,0.20456266403198242,0.41564053297042847,0.022609669715166092,-0.9596757888793945,-0.2801985442638397,-0.04858013987541199,-0.03777599334716797,-0.02809000015258789
1.2861795243409322,0.06932314205094725,-2.864872080391758,0.01740770787000656,0.2220018357038498,0.3689124286174774,0.019449656829237938,-0.9597693085670471,-0.2801155745983124,-0.04630514979362488,-0.048287391662597656,-0.022923976182937622
1.2867747027594534,0.05966765655646284,-2.8526849297420696,0.061829932034015656,0.17606598138809204,0.32299497723579407,0.016710059717297554,-0.959936261177063,-0.2797197997570038,-0.0358445942401886,-0.05422389507293701,-0.019169330596923828
1.2878083806090381,0.050842615047684135,-2.842149289169541,0.11024565994739532,0.07862889766693115,0.274135023355484,0.014190463349223137,-0.9602254033088684,-0.27886515855789185,-0.030029088258743286,-0.05387371778488159,-0.01866587996482849
1.289225501053184,0.04269868689415145,-2.833377354341684,0.14598529040813446,-0.019805150106549263,0.22586725652217865,0.011860857717692852,-0.9606201648712158,-0.27761155366897583,-0.02879813313484192,-0.05129694938659668,-0.016989827156066895
1.2908413235798197,0.03537662420660198,-2.8264036917178657,0.15979166328907013,-0.10326755046844482,0.17371830344200134,0.009772966615855694,-0.9610678553581238,-0.27613967657089233,-0.028327643871307373,-0.05306178331375122,-0.007643222808837891
1.292492085668508,0.02886462563798867,-2.8211595493549235,0.1616262048482895,-0.1867247074842453,0.12878888845443726,0.007928743027150631,-0.9615226984024048,-0.2746109068393707,-0.0208987295627594,-0.05916815996170044,-0.004579097032546997
1.2940984480924747,0.022919856632192294,-2.817246892064123,0.15402500331401825,-0.24473874270915985,0.0939808338880539,0.006260714493691921,-0.9619627594947815,-0.27310895919799805,-0.013096660375595093,-0.0652894377708435,-0.010506153106689453
1.2955943068142124,0.01778552480615113,-2.8145330991707627,0.14124126732349396,-0.2546323537826538,0.05967181921005249,0.004832807462662458,-0.9623703360557556,-0.27169835567474365,-0.009578287601470947,-0.07167202234268188,-0.017379343509674072
1.2969222284415731,0.013673502019361485,-2.812830920465805,0.12371128797531128,-0.2334061563014984,0.03910902142524719,0.003698066109791398,-0.962730348110199,-0.2704380750656128,-0.011098593473434448,-0.0708085298538208,-0.024025917053222656
1.298136823888231,0.010275726420278226,-2.8115594815545344,0.1208384558558464,-0.1948002725839615,0.03588873893022537,0.002767140045762062,-0.9630581140518188,-0.26927950978279114,-0.0008445382118225098,-0.06854283809661865,-0.0357130765914917
1.299371350234557,0.007076446514527783,-2.8100591275324938,0.12799543142318726,-0.15261925756931305,0.05178355053067207,0.0018972110701724887,-0.9633898138999939,-0.26809775829315186,0.014719605445861816,-0.07402467727661133,-0.052550435066223145
