attitudeX,attitudeY,attitudeZ,gyroX,gyroY,gyroZ,gravityX,gravityY,gravityZ,accX,accY,accZ
1.5130069825559416,-2.7889129749464185,2.2991474740308355,0.47209805250167847,-0.14260947704315186,-0.343968003988266,-0.01995161920785904,-0.9983306527137756,0.05420630797743797,-0.07787246257066727,-0.009298980236053467,-0.05132221430540085
1.509306878603311,-2.8689373392296695,2.377327597961896,0.5228357911109924,-0.2500714659690857,-0.3064797520637512,-0.016549209132790565,-0.9981101155281067,0.05918486416339874,-0.04331101477146149,-0.0008830428123474121,-0.016185276210308075
1.5046554448561937,-2.9310345059346035,2.4363639250046747,0.5565017461776733,-0.4034767150878906,-0.20552584528923035,-0.013814077712595463,-0.9978134632110596,0.06463451683521271,-0.006861566565930843,0.018229663372039795,-0.007566340267658234
1.49937351632281,-2.9727922425203146,2.473401185924417,0.5707044005393982,-0.541754424571991,-0.09093508124351501,-0.011988995596766472,-0.9974504709243774,0.0703488141298294,0.022944817319512367,0.03353750705718994,0.01839648187160492
1.4937287591359518,-2.994789334579093,2.489606685294888,0.5780788660049438,-0.6136110424995422,0.027119921520352364,-0.011262211948633194,-0.9970317482948303,0.07616442441940308,0.058320313692092896,0.03171491622924805,0.03328704833984375
1.4879286833739265,-3.00260829924858,2.4911549683773426,0.569846510887146,-0.6252748966217041,0.10579928755760193,-0.01146743819117546,-0.9965684413909912,0.08197689056396484,0.06293533742427826,0.02598726749420166,0.03298306465148926
1.482175166135635,-3.003153732569197,2.485687907626826,0.5519713759422302,-0.5595438480377197,0.13983280956745148,-0.012213639914989471,-0.9960756897926331,0.08765969425439835,0.03903859853744507,0.01650714874267578,0.018526427447795868
1.4766721562232774,-3.0015209505329756,2.478876164679318,0.5151845812797546,-0.4732363522052765,0.1315666288137436,-0.013121899217367172,-0.9955735802650452,0.09306640177965164,0.005843460559844971,0.007551610469818115,0.006466865539550781
1.471573363631423,-3.002050402425639,2.4749801395023017,0.47950252890586853,-0.40296006202697754,0.08004333078861237,-0.013778719119727612,-0.9950814247131348,0.09810053557157516,-0.029800374060869217,-0.0020349621772766113,0.01861419528722763
1.4669256219103743,-3.0073538910182798,2.476655641871105,0.44481325149536133,-0.3201770484447479,0.010025369003415108,-0.013876831158995628,-0.9946103096008301,0.10275255888700485,-0.040734365582466125,-0.011249184608459473,0.029373526573181152
1.4625885483506547,-3.0178847249367404,2.484346153808331,0.4339563548564911,-0.25571098923683167,-0.059306301176548004,-0.013326114974915981,-0.99415123462677,0.10717232525348663,-0.04360441863536835,-0.025181710720062256,0.021947741508483887
1.458329251172509,-3.0323340641409637,2.4964933062179315,0.4422113597393036,-0.2280639111995697,-0.10403089970350266,-0.012237919494509697,-0.9936822652816772,0.11156271398067474,-0.038848504424095154,-0.029374003410339355,0.013757959008216858
1.45396230210003,-3.0481811068058717,2.509804259570804,0.45427805185317993,-0.3068348467350006,-0.10396506637334824,-0.01087316032499075,-0.9931826591491699,0.11606184393167496,-0.006765991449356079,-0.02074873447418213,0.02294600009918213
1.44936966869558,-3.062076135458936,2.5198773524113856,0.48116612434387207,-0.4816218316555023,-0.04567832499742508,-0.009621676057577133,-0.9926368594169617,0.12074708938598633,0.04245859384536743,-0.005227029323577881,0.04145407676696777
1.4442269777320424,-3.070220872766712,2.5222258005527864,0.5460817813873291,-0.666689395904541,0.0689530074596405,-0.009001785889267921,-0.9920007586479187,0.12591104209423065,0.07125765085220337,0.006771266460418701,0.04340074956417084
1.4383367510837404,-3.070456706448274,2.5149880516726646,0.6102988719940186,-0.8078329563140869,0.19854508340358734,-0.009387225843966007,-0.9912400245666504,0.13173910975456238,0.07225345075130463,0.006269991397857666,0.03661142289638519
1.4318154763550923,-3.0645042833954976,2.5002060705901905,0.6507260203361511,-0.9167424440383911,0.2897120416164398,-0.010668840259313583,-0.9903576970100403,0.1381232738494873,0.06682120263576508,0.013230562210083008,0.0322413295507431
1.4249928685272557,-3.0549573193433845,2.4812881767091506,0.6554347276687622,-0.8981344103813171,0.3511753976345062,-0.012571322731673717,-0.9893894791603088,0.144742950797081,0.04473686218261719,0.03563886880874634,0.03810332715511322
1.4182719985064711,-3.0436132080655387,2.46080671718965,0.616584062576294,-0.9295466542243958,0.3807705342769623,-0.014862666837871075,-0.9883906841278076,0.15120595693588257,0.028778687119483948,0.033159852027893066,0.03240323066711426
1.4122612011992715,-3.033286165014988,2.4399722606897694,0.49964144825935364,-1.0760788917541504,0.36585283279418945,-0.01706518977880478,-0.9874595999717712,0.1569472998380661,-0.01671774499118328,0.01895374059677124,0.06694506108760834
1.4076630170164728,-3.027103274650767,2.4233042912795333,0.35541433095932007,-0.9466491341590881,0.2580725848674774,-0.01855376362800598,-0.9867232441902161,0.16134795546531677,-0.049302056431770325,0.028425514698028564,0.11863575875759125
1.4044734626878579,-3.025784660751156,2.413420906587568,0.24216023087501526,-0.730949878692627,0.13837842643260956,-0.01913016475737095,-0.986200213432312,0.16444949805736542,-0.041279375553131104,0.0015197992324829102,0.07241286337375641
1.4024680596142254,-3.028531548470648,2.409940230072579,0.14554999768733978,-0.49603569507598877,0.02197488769888878,-0.018901441246271133,-0.9858661890029907,0.16646604239940643,-0.06726492941379547,0.003489971160888672,0.03070831298828125
1.4014073002984946,-3.0351709385180623,2.41303186817903,0.07777387648820877,-0.2124553918838501,-0.10680359601974487,-0.01790689490735531,-0.9856879711151123,0.16762784123420715,-0.09725117683410645,0.0377202033996582,0.00453735888004303
1.4010187978787012,-3.0459474946153327,2.4234053807896223,0.03731031343340874,0.09260781109333038,-0.22688648104667664,-0.01613606885075569,-0.9856224060058594,0.16819287836551666,-0.10776527225971222,0.07493185997009277,-0.015436872839927673
1.4010709986522283,-3.0591594302652467,2.4387902578708345,0.0010710828937590122,0.2787041664123535,-0.2813428044319153,-0.013908267952501774,-0.9856312274932861,0.16833928227424622,-0.0779954046010971,0.11400330066680908,-0.03206288814544678
1.4014589791832064,-3.0725086024700903,2.455644460803248,-0.03249745070934296,0.36412379145622253,-0.28461986780166626,-0.011633504182100296,-0.9856966733932495,0.16812840104103088,-0.02643716335296631,0.15772414207458496,-0.008154988288879395
1.4020790384102912,-3.0844049914889813,2.4716093938308243,-0.05578812211751938,0.3985805809497833,-0.2533607482910156,-0.00959761068224907,-0.9858009815216064,0.16764360666275024,0.029815509915351868,0.19518208503723145,0.010991320013999939
1.402858523075254,-3.0935063164144885,2.484901137667178,-0.0722603127360344,0.3956705629825592,-0.19997823238372803,-0.00803457759320736,-0.9859315752983093,0.16695767641067505,0.0738305002450943,0.22322088479995728,0.014683246612548828
1.4037406596149946,-3.1001171756182204,2.4953430503789833,-0.08886831998825073,0.3300611972808838,-0.16013015806674957,-0.006894632708281279,-0.9860786199569702,0.16613861918449402,0.10139231383800507,0.2530308961868286,0.02635122835636139
1.4047320671934547,-3.1063997667907386,2.5045965584305248,-0.09590813517570496,0.23292763531208038,-0.15888576209545135,-0.005816278047859669,-0.9862430095672607,0.165200337767601,0.11345179378986359,0.29236477613449097,0.0395270437002182
1.4056729442737985,-3.1147093895807423,2.5149492377381266,-0.07935738563537598,0.14586542546749115,-0.18935978412628174,-0.0044184233993291855,-0.9863981008529663,0.164316326379776,0.10553842782974243,0.337990939617157,0.03876316547393799
1.406424933251569,-3.1260607762587447,2.52752583417266,-0.060149550437927246,0.06652989238500595,-0.22364579141139984,-0.0025414356496185064,-0.9865214228630066,0.1636139154434204,0.097496896982193,0.38747638463974,0.035254016518592834
1.4069978892944193,-3.1395486529394123,2.5415648213167152,-0.05547996237874031,0.011343338526785374,-0.2339192032814026,-0.0003333125205244869,-0.986615002155304,0.1630684733390808,0.09422065317630768,0.43803077936172485,0.03805781900882721
1.4075947904367285,3.1297315766405815,2.5557790421984583,-0.07013404369354248,0.02191612496972084,-0.22279617190361023,0.00192713038995862,-0.9867121577262878,0.16246753931045532,0.10254980623722076,0.48312628269195557,0.03313516080379486
1.408463279801363,3.1175334919577504,2.5686151636781998,-0.11562056839466095,0.07523660361766815,-0.1867729276418686,0.0038881103973835707,-0.9868528842926025,0.161575049161911,0.1047239601612091,0.5223600268363953,0.01843307912349701
1.4098686318601155,3.10859287206403,2.578893115989208,-0.17734315991401672,0.17265738546848297,-0.1363202929496765,0.005286746192723513,-0.9870790839195251,0.16014733910560608,0.08464857935905457,0.5570558309555054,0.0076536983251571655
1.412000147621845,3.1040053460405783,2.585932010873288,-0.2576853930950165,0.29714471101760864,-0.07543722540140152,0.005942319054156542,-0.9874183535575867,0.1580193191766739,0.06458382308483124,0.5908575654029846,0.0006722211837768555
1.414876254501253,3.103831684236243,2.5897370196641094,-0.32037675380706787,0.4219370484352112,-0.024229999631643295,0.005862495396286249,-0.9878690838813782,0.1551789790391922,0.05019831657409668,0.6229703426361084,-0.011517301201820374
1.4182855054604195,3.108135444958441,2.590416938039647,-0.35718268156051636,0.5684279203414917,0.025432094931602478,0.005081919953227043,-0.9883927702903748,0.15183645486831665,0.035689592361450195,0.6495407223701477,-0.036662936210632324
1.4220896388210162,3.116685547987757,2.587900673637953,-0.40360331535339355,0.6211127042770386,0.06577775627374649,0.003689858363941312,-0.9889635443687439,0.1481141746044159,0.01611606776714325,0.6829484105110168,-0.05288386344909668
1.4266051826448947,3.1269819018767704,2.583385533701504,-0.5038819909095764,0.5317474007606506,0.08014044910669327,0.0020993822254240513,-0.9896224737167358,0.1436772644519806,-0.0034726711455732584,0.7168868184089661,-0.010818734765052795
1.4322925017562818,3.135963044410739,2.578897078182107,-0.63018798828125,0.3645462095737457,0.05736789107322693,0.0007772318203933537,-0.9904236793518066,0.13805995881557465,0.00032141798874363303,0.7405914664268494,0.06469903886318207
1.439374261013466,-3.1404427766920504,2.574759563183303,-0.7802152633666992,0.16081279516220093,0.06399410218000412,-0.00015068550419528037,-0.991376519203186,0.13104484975337982,0.02436639368534088,0.7570472359657288,0.11297391355037689
1.4478017143550586,-3.132742932692671,2.567516633929476,-0.8946179151535034,-0.05656058341264725,0.11662078648805618,-0.0010857249144464731,-0.992445707321167,0.12268145382404327,0.05725333094596863,0.7943102121353149,0.10301148891448975
1.4569508343035023,-3.1193418961235926,2.5527005509276806,-0.9208737015724182,-0.18978014588356018,0.20806920528411865,-0.0025275079533457756,-0.9935265779495239,0.11357325315475464,0.07518987357616425,0.8360557556152344,0.04653739929199219
1.4657593569291352,-3.0942968865007474,2.5255760742351705,-0.8362622857093811,-0.17319533228874207,0.31967243552207947,-0.004956899676471949,-0.9944887161254883,0.10472825169563293,0.0837075263261795,0.8615998029708862,-0.057730913162231445
1.4735575139750994,-3.048665139128288,2.4788212977290285,-0.8044627904891968,0.020343780517578125,0.5250197649002075,-0.009009077213704586,-0.9952760338783264,0.09666813910007477,0.06302520632743835,0.8960327506065369,-0.18367362022399902
1.4815485131261759,-2.964011443014955,2.3955140696413815,-1.006446123123169,0.317106157541275,0.7917245626449585,-0.015744879841804504,-0.9960200786590576,0.08772902190685272,0.0770546942949295,0.9304224252700806,-0.1887267827987671
1.4908392048011552,-2.822940254096452,2.258413986103124,-1.3715500831604004,0.5569230318069458,0.9750211834907532,-0.0250236839056015,-0.9968051314353943,0.07585360109806061,0.0795280933380127,0.9182679653167725,-0.09161567687988281
1.5014007492240684,-2.603735359925177,2.0447338770248793,-1.8495413064956665,0.638700008392334,1.0248010158538818,-0.03552493080496788,-0.997593104839325,0.05955355241894722,0.04132327064871788,0.8611945509910583,-0.00036441534757614136
1.5108546134453336,-2.270305928775513,1.7164595845045834,-2.279937744140625,0.5006438493728638,0.9681745171546936,-0.04583769664168358,-0.9982040524482727,0.03857014700770378,-0.016097716987133026,0.7870529294013977,0.07767152041196823
1.5137687887127378,-1.8192764266831258,1.268619838239929,-2.5604751110076904,0.2860495448112488,0.8929858207702637,-0.05524782836437225,-0.998374342918396,0.014017675071954727,-0.07376523315906525,0.7152932286262512,0.08151781558990479
1.5056515899681435,-1.381408588537361,0.83201175301745,-2.6405677795410156,0.1336783915758133,0.8459245562553406,-0.0639362707734108,-0.9978788495063782,-0.012255623936653137,-0.08408922702074051,0.6514889597892761,-0.014904855750501156
1.488607220156593,-1.0786868849944429,0.5296369767634698,-2.6474688053131104,0.11208996176719666,0.8506158590316772,-0.07235509902238846,-0.9966243505477905,-0.03878962621092796,-0.08137719333171844,0.5943721532821655,-0.15463054180145264
1.4663590045592956,-0.8892931077898761,0.34105214135596634,-2.7217578887939453,0.2249712496995926,0.8925747275352478,-0.08096174895763397,-0.9945513606071472,-0.06567217409610748,-0.08749526739120483,0.5380083918571472,-0.2238020896911621
1.4404257321711087,-0.763304553145687,0.21735649838534687,-2.9061384201049805,0.39501434564590454,0.9484651684761047,-0.0898723378777504,-0.9915137887001038,-0.09393394738435745,-0.09225655347108841,0.4689306616783142,-0.20701497793197632
1.4111221693449911,-0.673482452169637,0.13095014859102783,-3.1207942962646484,0.4406082034111023,1.0165809392929077,-0.0991683155298233,-0.9872791171073914,-0.12428070604801178,-0.0718674436211586,0.3764849901199341,-0.1515217423439026
1.379096118101561,-0.6092175170346784,0.06958840463696454,-3.253237247467041,0.300777792930603,1.0838593244552612,-0.10902576148509979,-0.9816817045211792,-0.15625226497650146,-0.051893450319767,0.2659984827041626,-0.13012446463108063
1.3458572371342483,-0.5655857694525066,0.026663233405143396,-3.2239227294921875,0.009187769144773483,1.1088752746582031,-0.1195337176322937,-0.9748076796531677,-0.18831375241279602,-0.06167967617511749,0.11869782209396362,-0.17133572697639465
1.3129392651125316,-0.5383397865164036,-0.0032260083064632747,-3.103860378265381,-0.3673194944858551,1.1228443384170532,-0.13074631989002228,-0.9669386744499207,-0.218941330909729,-0.07796341180801392,-0.05034971237182617,-0.24497145414352417
1.2810472788711909,-0.5241023346388202,-0.023525452933266272,-2.9279422760009766,-0.6690245270729065,1.15379798412323,-0.14298059046268463,-0.9583156108856201,-0.2473619133234024,-0.08231543004512787,-0.19534051418304443,-0.31242185831069946
1.2505700645842408,-0.519049577335977,-0.03670653140195785,-2.7387173175811768,-0.8119984865188599,1.18804931640625,-0.15614895522594452,-0.9491642117500305,-0.2733219265937805,-0.10498996078968048,-0.35617947578430176,-0.39594361186027527
1.2214720867184903,-0.5198245287305598,-0.04489071070562375,-2.5653793811798096,-0.8849334120750427,1.2307155132293701,-0.17001168429851532,-0.9396042227745056,-0.29705244302749634,-0.13446220755577087,-0.5387589931488037,-0.46361327171325684
1.1935408495173108,-0.5251847965487849,-0.04901518668268771,-2.405097723007202,-0.9451607465744019,1.2920504808425903,-0.18469113111495972,-0.9296791553497314,-0.31872591376304626,-0.14418157935142517,-0.7232293486595154,-0.489989697933197
1.1666389737533367,-0.533366731592065,-0.0504513582600357,-2.2845773696899414,-0.9424275755882263,1.309714913368225,-0.19993935525417328,-0.9194340705871582,-0.3386228680610657,-0.17078819870948792,-0.9228817224502563,-0.522857666015625
1.14071804982532,-0.5416300288541659,-0.05155707449630364,-2.2030935287475586,-0.9016715884208679,1.246922254562378,-0.21494770050048828,-0.9089331030845642,-0.3572651743888855,-0.2262602150440216,-1.1197535991668701,-0.5345345735549927
1.1159736460316951,-0.5478080941061665,-0.05431456595140697,-2.1350061893463135,-0.8224947452545166,1.0954536199569702,-0.22879666090011597,-0.8983389139175415,-0.3750190734863281,-0.30487948656082153,-1.3180460929870605,-0.5308340787887573
1.0929045073596246,-0.5502364463264477,-0.060116721886382334,-2.0527727603912354,-0.6856021881103516,0.8507633209228516,-0.24048089981079102,-0.8879664540290833,-0.39202627539634705,-0.37812569737434387,-1.5217320919036865,-0.5421624183654785
1.0721138728472515,-0.547929855875832,-0.06935199595812126,-1.9244600534439087,-0.4694429636001587,0.5754526257514954,-0.24914059042930603,-0.8782134652137756,-0.4082528352737427,-0.43051645159721375,-1.7016665935516357,-0.5776631832122803
1.054082618463898,-0.541617985090486,-0.08068910187234225,-1.6996811628341675,-0.24870525300502777,0.3587571680545807,-0.2546817362308502,-0.8694474101066589,-0.4233187437057495,-0.45472991466522217,-1.845045566558838,-0.6111660003662109
1.0395336663560713,-0.5340930697506172,-0.09116183652964611,-1.3003660440444946,-0.06988943368196487,0.24355493485927582,-0.2579016387462616,-0.8621680736541748,-0.4360656440258026,-0.4187188744544983,-1.9446558952331543,-0.6534727811813354
1.0296198300721942,-0.5287419848047038,-0.09749947249294894,-0.7074921131134033,0.03861308842897415,0.20040187239646912,-0.2598634660243988,-0.8571032285690308,-0.4447977840900421,-0.3708738088607788,-2.0125105381011963,-0.7316241264343262
1.025748618924689,-0.5278037627268489,-0.09803261113241034,0.021437980234622955,0.04270743206143379,0.13487638533115387,-0.26111528277397156,-0.8551025390625,-0.4479047358036041,-0.36440351605415344,-2.0528564453125,-0.7904831767082214
1.0287474346417207,-0.5322609365932518,-0.09268169995096602,0.7692369222640991,-0.023667646571993828,0.03584792837500572,-0.26180654764175415,-0.8566534519195557,-0.444524884223938,-0.38135141134262085,-2.0760860443115234,-0.795175313949585
1.0383136914789999,-0.542004858969874,-0.08203073880549128,1.404411792755127,-0.09226694703102112,-0.07771911472082138,-0.2618858814239502,-0.8615493774414062,-0.43491214513778687,-0.4017798602581024,-2.0702590942382812,-0.7446531057357788
1.0531105222873383,-0.5559986946278526,-0.0672464303493081,1.8595460653305054,-0.14458657801151276,-0.20003147423267365,-0.26118865609169006,-0.8689667582511902,-0.42033007740974426,-0.4259299039840698,-2.007986545562744,-0.636157751083374
1.0715255661005652,-0.572916249516311,-0.04986583591032687,2.122596502304077,-0.19757415354251862,-0.3436536192893982,-0.2595425248146057,-0.8779319524765015,-0.40233495831489563,-0.4382724463939667,-1.9246041774749756,-0.5081415772438049
1.0923646994652954,-0.5906422426327135,-0.03209919608519128,2.2512385845184326,-0.1981017142534256,-0.5610422492027283,-0.25638726353645325,-0.8877180814743042,-0.3823900520801544,-0.47020575404167175,-1.8337633609771729,-0.41459155082702637
1.1152962720148487,-0.6061751617113096,-0.016491139303230942,2.3116424083709717,-0.11504438519477844,-0.8636252880096436,-0.2506300210952759,-0.8980411887168884,-0.36153385043144226,-0.5490983724594116,-1.729278326034546,-0.3930436074733734
1.1402174754339534,-0.6173811173472384,-0.004776108170868485,2.327563524246216,-0.0063344938680529594,-1.1647074222564697,-0.2416318655014038,-0.908724308013916,-0.3403444290161133,-0.6037966012954712,-1.5925880670547485,-0.40985381603240967
1.166569110427728,-0.6239075014963195,0.0028698214842950167,2.304309844970703,0.09136436879634857,-1.3790236711502075,-0.2297752946615219,-0.9194065928459167,-0.31921014189720154,-0.5865699052810669,-1.43272066116333,-0.4184300899505615
1.1936900769539545,-0.6266875690103664,0.007025817632749253,2.2591750621795654,0.11362555623054504,-1.520972728729248,-0.21595513820648193,-0.9297341108322144,-0.298258513212204,-0.5268121957778931,-1.2559196949005127,-0.4157611131668091
1.2211212658783495,-0.6268875115720721,0.008382293723649717,2.229506015777588,0.09109308570623398,-1.6048189401626587,-0.2009742110967636,-0.9394840598106384,-0.27745136618614197,-0.4581902325153351,-1.0784146785736084,-0.4198446273803711
1.2487766289874351,-0.6261015370702174,0.008042917189418002,2.2277779579162598,-0.00832435954362154,-1.6418324708938599,-0.185456320643425,-0.9485981464385986,-0.25645244121551514,-0.3973531723022461,-0.8952741622924805,-0.4378375709056854
1.2767875195980003,-0.6261034644593599,0.00717472749907327,2.279966115951538,-0.16076822578907013,-1.675138235092163,-0.16981558501720428,-0.9570898413658142,-0.23482318222522736,-0.3361963927745819,-0.7174860835075378,-0.4565829038619995
1.3060237702737765,-0.6278643052585611,0.006672428150464697,2.4329590797424316,-0.2718193531036377,-1.7744395732879639,-0.15372177958488464,-0.9651520252227783,-0.21178209781646729,-0.30541521310806274,-0.5721864700317383,-0.5228826999664307
1.3373378629335009,-0.6299802043852508,0.00611050273077183,2.590182304382324,-0.2465808391571045,-1.924546241760254,-0.13629156351089478,-0.9728721380233765,-0.18693523108959198,-0.3341521620750427,-0.44305211305618286,-0.64349365234375
1.3703809396674642,-0.6282989474873394,0.002160516362722939,2.613029718399048,-0.18797749280929565,-2.0869557857513428,-0.11701160669326782,-0.9799839854240417,-0.16105929017066956,-0.3578571677207947,-0.2984127998352051,-0.672970712184906
1.4037884287185465,-0.6167044085228541,-0.011268796473067806,2.5007359981536865,-0.13461175560951233,-2.1817290782928467,-0.09614101052284241,-0.9860865473747253,-0.13561129570007324,-0.3331650197505951,-0.1710943579673767,-0.5988550186157227
1.4363176071404546,-0.589408155659219,-0.039980811779819665,2.3509387969970703,-0.08410245925188065,-2.199012517929077,-0.07452811300754547,-0.9909713268280029,-0.11145243793725967,-0.26111945509910583,-0.07215440273284912,-0.5200476050376892
1.4676141738423596,-0.5357585353902885,-0.09469632789864504,2.236138105392456,-0.0599965937435627,-2.22562575340271,-0.052580662071704865,-0.9946814179420471,-0.08856754004955292,-0.22061268985271454,0.020636558532714844,-0.5012760162353516
1.4974549197733398,-0.4254956536962642,-0.2059734131501737,2.123427391052246,-0.06166638806462288,-2.2527711391448975,-0.030246760696172714,-0.9973117113113403,-0.06674329936504364,-0.2154960185289383,0.13581568002700806,-0.48467862606048584
1.5240565723219996,-0.16675129919067322,-0.4658761802301499,2.003262996673584,-0.08159242570400238,-2.233874559402466,-0.007755097467452288,-0.9989079236984253,-0.046075109392404556,-0.1885034292936325,0.254050076007843,-0.44881296157836914
1.5407886058390163,0.4933513933895319,-1.1273160143670544,1.9236156940460205,-0.0996321588754654,-2.149984121322632,0.014210955239832401,-0.9995498061180115,-0.02642911486327648,-0.14063000679016113,0.3664777874946594,-0.42372018098831177
1.5348914669100424,1.3689387390237542,-2.004359197632321,1.93083655834198,-0.10354115068912506,-2.0339272022247314,0.035174157470464706,-0.9993554949760437,-0.0071982042863965034,-0.09601092338562012,0.4799613356590271,-0.43638986349105835
1.5142942868141802,1.7997332366498546,-2.4365877383350765,2.0897228717803955,-0.09733355045318604,-1.9267876148223877,0.05500131845474243,-0.9984042048454285,0.012816531583666801,-0.08138374984264374,0.5897126793861389,-0.48571670055389404
1.488932176493686,2.013935947838881,-2.6522617831473516,2.377190589904785,-0.09568291902542114,-1.8391586542129517,0.07387465238571167,-0.9966509938240051,0.0350625105202198,-0.08899608999490738,0.6852496266365051,-0.536038875579834
1.460663499900938,2.1535210605329556,-2.7933297025150288,2.726910352706909,-0.07369722425937653,-1.733522653579712,0.09177278727293015,-0.9939414858818054,0.060484666377305984,-0.10629913210868835,0.7595511078834534,-0.5614916086196899
1.4300761116035097,2.257860176212038,-2.8991933179357883,2.9956583976745605,-0.06578576564788818,-1.59938383102417,0.10843481868505478,-0.990115225315094,0.08896120637655258,-0.1187954992055893,0.8445920348167419,-0.5347617864608765
1.3982936745256453,2.338557574085387,-2.98141380599835,3.098017454147339,-0.03288962319493294,-1.42139732837677,0.12349580973386765,-0.9851582646369934,0.11921469867229462,-0.11086151748895645,0.9235279560089111,-0.443204402923584
1.3669547842974106,2.4015273226689735,-3.045685954471361,3.030198812484741,-0.00931478850543499,-1.216387152671814,0.13650797307491302,-0.9792961478233337,0.14948157966136932,-0.08079811930656433,0.9707053899765015,-0.3119112253189087
1.3370746433087166,2.4506377235461936,-3.096357975945356,2.896674633026123,-0.06882499158382416,-1.0406639575958252,0.14759241044521332,-0.972811222076416,0.17847959697246552,-0.06278403103351593,0.9928306937217712,-0.18908430635929108
1.3091368682481501,2.4880567012488592,-3.13598606896459,2.6505918502807617,-0.11719651520252228,-0.9174914956092834,0.15727995336055756,-0.9659620523452759,0.20538023114204407,-0.07646937668323517,1.0139660835266113,-0.13074891269207
1.2838783014841622,2.51543081284182,3.117948883042982,2.324247360229492,-0.017467455938458443,-0.8272684812545776,0.16584794223308563,-0.9591206312179565,0.22930847108364105,-0.10508739948272705,1.0205371379852295,-0.09533609449863434
1.2615886808764647,2.535378357713686,3.097693463143296,1.9862843751907349,0.1260462999343872,-0.7816218733787537,0.17338083684444427,-0.9525749683380127,0.25008100271224976,-0.13761422038078308,1.0413810014724731,-0.08810877799987793
1.2421625564329095,2.548393783827623,3.085747217472954,1.6311559677124023,0.19521765410900116,-0.7898027896881104,0.1804230958223343,-0.9464841485023499,0.26761120557785034,-0.1679108440876007,1.074779987335205,-0.09323346614837646
1.2255230478371406,2.555105793713222,3.0808305894711534,1.3097238540649414,0.21306748688220978,-0.7802217602729797,0.1873135268688202,-0.94098299741745,0.28189513087272644,-0.1687893122434616,1.0771067142486572,-0.08488872647285461
1.2115950489126313,2.557448247148857,3.080314016711362,1.0311591625213623,0.14451129734516144,-0.7184545993804932,0.1938624382019043,-0.9361779093742371,0.29323866963386536,-0.12840214371681213,1.0618796348571777,-0.07992050051689148
1.2001907340656945,2.557019407279617,3.081703723434021,0.8218305110931396,0.030852369964122772,-0.6179170608520508,0.19986695051193237,-0.9321081638336182,0.3020395338535309,-0.09087337553501129,1.0524694919586182,-0.08435741066932678
1.190831659372444,2.5557190884546332,3.0830404980985344,0.6850972771644592,-0.03246214985847473,-0.4898916184902191,0.2050742357969284,-0.9286777377128601,0.30903488397598267,-0.07075108587741852,1.0631533861160278,-0.11450028419494629
1.183195998814454,2.555669145179529,3.08273017363176,0.599031925201416,-0.027059925720095634,-0.33119437098503113,0.20900483429431915,-0.9258187413215637,0.3149239122867584,-0.06084194779396057,1.082587480545044,-0.14906060695648193
1.177005336036226,2.558482894368668,3.0797345902369178,0.5614174008369446,0.039406418800354004,-0.1593247652053833,0.21126987040042877,-0.9234611392021179,0.3202892243862152,-0.0542416125535965,1.0866079330444336,-0.17279741168022156
1.1718322326667365,2.565175518076205,3.0733530163440963,0.5768642425537109,0.12048875540494919,0.0034026200883090496,0.21172219514846802,-0.9214639067649841,0.32569658756256104,-0.046026989817619324,1.0752724409103394,-0.19921627640724182
1.1671892063785252,2.5758789557458592,3.0632814267548443,0.6274141073226929,0.16133980453014374,0.1517147570848465,0.21051529049873352,-0.9196503162384033,0.3315526247024536,-0.052251070737838745,1.0591002702713013,-0.21874403953552246
1.16274179612904,2.5895496256658976,3.0502953018800203,0.662070095539093,0.18295349180698395,0.23774337768554688,0.2081059068441391,-0.9178945422172546,0.3378782868385315,-0.0720280110836029,1.0516531467437744,-0.21098592877388
1.1584872531586716,2.604336135334799,3.0363649756710926,0.6322397589683533,0.22114908695220947,0.26532137393951416,0.2050842046737671,-0.9161979556083679,0.3442705571651459,-0.0881865918636322,1.0343618392944336,-0.16882479190826416
1.1548396568714283,2.618842085487434,3.023095743592325,0.5244347453117371,0.24797964096069336,0.2822742760181427,0.20173576474189758,-0.9147301912307739,0.3501020669937134,-0.0866997241973877,1.020000696182251,-0.106312096118927
1.1524133325819257,2.6321523921828796,3.011374345740695,0.3611478805541992,0.271427184343338,0.30241894721984863,0.19814009964466095,-0.9137470722198486,0.35469308495521545,-0.07156841456890106,1.0115864276885986,-0.046465277671813965
1.1513967666548806,2.644641739596536,3.0011032565813713,0.22368724644184113,0.3592158854007721,0.3280750513076782,0.19413745403289795,-0.9133335947990417,0.35795605182647705,-0.04725635051727295,0.999103307723999,-0.014190584421157837
1.151361836933862,2.6578731985518584,2.991267821305644,0.1692836433649063,0.488240122795105,0.3791242241859436,0.18939942121505737,-0.9133194088935852,0.3605221211910248,-0.02802237868309021,0.9969983696937561,-0.02818545699119568
1.1518241359057035,2.673386812202037,2.9800330711319587,0.17487148940563202,0.5361549258232117,0.4790627956390381,0.18359306454658508,-0.9135075807571411,0.36303961277008057,0.003281340003013611,1.015695571899414,-0.04608383774757385
1.1525656769135015,2.691332354136157,2.9658299868882403,0.2014159858226776,0.4417698383331299,0.6233183145523071,0.17675408720970154,-0.9138090014457703,0.3656657040119171,0.04494088888168335,1.0403958559036255,-0.037479549646377563
1.1537388107399664,2.7113529707175488,2.9479450040726056,0.19333036243915558,0.29380860924720764,0.7829817533493042,0.16895122826099396,-0.9142848253250122,0.3681567311286926,0.07628808915615082,1.0503015518188477,-0.018547028303146362
1.155805764041938,2.73283176638507,2.9271266387602957,0.10180369019508362,0.19969943165779114,0.9118822813034058,0.16025356948375702,-0.9151201248168945,0.36996492743492126,0.08284945785999298,1.0509538650512695,0.002380192279815674
1.1594075541280005,2.7549924307393585,2.9048445464578108,-0.08062604069709778,0.15289998054504395,1.0081275701522827,0.15077246725559235,-0.9165663719177246,0.37036988139152527,0.06936609745025635,1.049607753753662,0.02268141508102417
1.1650406930967347,2.777390420791549,2.8820852240806913,-0.30945390462875366,0.1540137082338333,1.080409049987793,0.14059878885746002,-0.918804407119751,0.3688242435455322,0.03824955224990845,1.0554466247558594,0.018825620412826538
1.1729662320058942,2.8001210210436196,2.859270296605579,-0.5609023571014404,0.19846560060977936,1.133828043937683,0.12973669171333313,-0.9219038486480713,0.3650507926940918,0.007226228713989258,1.0538464784622192,-0.006560564041137695
1.1832033961042048,2.823685848786493,2.8363861209021572,-0.8086820840835571,0.28079909086227417,1.1828813552856445,0.11814291030168533,-0.9258215427398682,0.359022855758667,-0.012750416994094849,1.0462589263916016,-0.03701624274253845
1.19585411926142,2.8479347249745754,2.8132348117667894,-1.0760334730148315,0.2551027834415436,1.2020100355148315,0.10600435733795166,-0.9305287599563599,0.3505425453186035,-0.02162320166826248,1.0469377040863037,-0.05323997139930725
1.2106572231639858,2.8711691970939417,2.790639015697389,-1.3033775091171265,0.17175382375717163,1.1829239130020142,0.0941411629319191,-0.935847818851471,0.33959734439849854,-0.0471440851688385,1.0162922143936157,-0.05593627691268921
1.2271310203426118,2.8941399182086096,2.7675779024863516,-1.449180006980896,0.09310241788625717,1.1910507678985596,0.08252856135368347,-0.9415259957313538,0.3266771733760834,-0.07001634687185287,1.006070613861084,-0.08728185296058655
1.2444205945482907,2.9192712191661303,2.7416325676806546,-1.504072904586792,0.037557706236839294,1.2802634239196777,0.07069326937198639,-0.9472105503082275,0.3127215504646301,-0.06314016133546829,1.0027525424957275,-0.16410067677497864
1.262208111585404,2.9511982964075014,2.708447822745579,-1.548516035079956,0.050487883388996124,1.470751166343689,0.05747673287987709,-0.9527633190155029,0.29822593927383423,-0.02863759547472,0.9966170787811279,-0.22203853726387024
1.2807828928038973,2.993391451880626,2.6651565769321466,-1.6891056299209595,0.11456163972616196,1.652405023574829,0.04222546145319939,-0.9582400321960449,0.2828308045864105,0.01578846201300621,0.9534945487976074,-0.23261383175849915
1.3008712444185104,3.0460726986417077,2.6119870371381846,-1.9443835020065308,0.2013508677482605,1.7261375188827515,0.025432614609599113,-0.9637908935546875,0.26544418931007385,0.022647857666015625,0.850784182548523,-0.18715107440948486
1.3233100613134354,3.107813464122067,2.5505748613420853,-2.303162097930908,0.2697030305862427,1.65774405002594,0.008273264393210411,-0.969531238079071,0.24482876062393188,-0.03125298023223877,0.7488890886306763,-0.11070370674133301
1.3485484408682562,-3.106418497128779,2.4826535719282448,-2.7572171688079834,0.30740994215011597,1.4962046146392822,-0.007751604076474905,-0.9754044413566589,0.22028692066669464,-0.13490279018878937,0.6775986552238464,-0.03679969906806946
1.3784605516673536,-3.023249757852216,2.4012614697538583,-3.463249444961548,0.4116614758968353,1.3815902471542358,-0.022568799555301666,-0.9815604090690613,0.1898157298564911,-0.19276320934295654,0.606270432472229,0.028263092041015625
1.413782057956354,-2.90529851142847,2.2866275199360153,-4.125358581542969,0.591639518737793,1.2828924655914307,-0.03660665079951286,-0.9876985549926758,0.1520257443189621,-0.18640053272247314,0.5178498029708862,0.10188078880310059
1.4508655124081193,-2.712015943451983,2.0980259809097097,-4.479169845581055,0.678238034248352,1.2125486135482788,-0.04983006790280342,-0.9928169250488281,0.10877343267202377,-0.17532861232757568,0.4353675842285156,0.0259009450674057
1.4815742788261015,-2.363942026930792,1.7549851075314837,-4.483217239379883,0.675182044506073,1.226144552230835,-0.06251636147499084,-0.9960223436355591,0.06349263340234756,-0.16877636313438416,0.3937884569168091,-0.16522276401519775
1.4930097144320635,-1.820082398623752,1.2155308156755709,-4.272753715515137,0.5305229425430298,1.2747633457183838,-0.07530783861875534,-0.9969761371612549,0.01917198859155178,-0.14544105529785156,0.30172455310821533,-0.34505367279052734
1.4798182389534682,-1.3251695100487766,0.7225236408586647,-3.911421537399292,0.1569722294807434,1.2755953073501587,-0.08812865614891052,-0.9958643317222595,-0.02209286391735077,-0.12651672959327698,0.14776533842086792,-0.4203355312347412
1.453929946077069,-1.0405070649990165,0.43527788527158157,-3.503284215927124,-0.38639944791793823,1.2008075714111328,-0.10058802366256714,-0.9931789040565491,-0.058975327759981155,-0.11521703004837036,-0.013382554054260254,-0.4226376414299011
1.425209237136588,-0.8891982163743077,0.27581738403894096,-3.1765239238739014,-0.9548975229263306,1.1312018632888794,-0.11265939474105835,-0.9894208908081055,-0.09140146523714066,-0.13018423318862915,-0.1535540223121643,-0.39106595516204834
1.3963845264627264,-0.8061639684470205,0.1797133188125375,-2.9114811420440674,-1.3945521116256714,1.17502760887146,-0.1252254992723465,-0.984828770160675,-0.12012976408004761,-0.1316257119178772,-0.2914928197860718,-0.36242926120758057
1.3677249876521116,-0.7661336689119528,0.122892112686726,-2.616948127746582,-1.747320294380188,1.3779979944229126,-0.1398354321718216,-0.9794517755508423,-0.14532966911792755,-0.1034507006406784,-0.41286712884902954,-0.39641815423965454
1.339587404701079,-0.757856483044143,0.09511234473531573,-2.255751371383667,-1.9938693046569824,1.6272835731506348,-0.15751312673091888,-0.9733901023864746,-0.1664375364780426,-0.09759856760501862,-0.5404496788978577,-0.4978841543197632
1.3129094148513378,-0.7720122133609141,0.08832775082698394,-1.7943450212478638,-2.1387624740600586,1.8029296398162842,-0.17790962755680084,-0.9669310450553894,-0.1827375292778015,-0.12722039222717285,-0.6901431679725647,-0.5970779657363892
1.2890504250020272,-0.8013860880958731,0.09586280794743064,-1.2910747528076172,-2.2571990489959717,1.831249713897705,-0.1997171938419342,-0.9605714678764343,-0.19343101978302002,-0.1945851743221283,-0.821273684501648,-0.6479079127311707
1.268150208456086,-0.8382390714854516,0.11073260870414543,-0.9594414830207825,-2.2406954765319824,1.793904185295105,-0.22158806025981903,-0.9545511603355408,-0.19932585954666138,-0.2819519639015198,-1.0079731941223145,-0.6156001091003418
1.2487943516765485,-0.8757482466613344,0.12707326262415256,-0.8269001841545105,-2.123950242996216,1.7851496934890747,-0.24305355548858643,-0.9486037492752075,-0.20267225801944733,-0.2886847257614136,-1.1936540603637695,-0.45717865228652954
1.2295856112814756,-0.911248450468719,0.14283268869530963,-0.7759302258491516,-1.98812997341156,1.8473001718521118,-0.26444658637046814,-0.9423502087593079,-0.20504677295684814,-0.28743329644203186,-1.3607351779937744,-0.32891911268234253
1.2099898678662406,-0.9455190999647111,0.1588232036915792,-0.6756121516227722,-1.8471025228500366,1.9342221021652222,-0.2862362265586853,-0.9356124401092529,-0.20663566887378693,-0.2733187973499298,-1.5505632162094116,-0.28030264377593994
1.1904706898765898,-0.9795287018923831,0.17622970108790229,-0.5175756216049194,-1.700329065322876,1.9627046585083008,-0.30820202827453613,-0.9285438060760498,-0.20692472159862518,-0.3026072382926941,-1.7335655689239502,-0.2859645187854767
1.1716545794013173,-1.011364566635637,0.1933466737127248,-0.45943504571914673,-1.4630759954452515,1.8718072175979614,-0.32938438653945923,-0.9213948845863342,-0.2062467485666275,-0.39139503240585327,-1.924033761024475,-0.2914489507675171
1.1540144311933136,-1.035047097248156,0.20561819647508378,-0.5494295954704285,-0.9794398546218872,1.6064658164978027,-0.34809935092926025,-0.9143964052200317,-0.20665480196475983,-0.5170587301254272,-2.106233596801758,-0.21721892058849335
1.1391422286996207,-1.0455652198082235,0.20999417256869424,-0.6326643228530884,-0.30690810084342957,1.10801362991333,-0.3619806468486786,-0.9082749485969543,-0.20977820456027985,-0.7232397198677063,-2.2239577770233154,-0.16078126430511475
1.1288701810901076,-1.0422044385604115,0.2066369239687874,-0.6244372725486755,0.35549676418304443,0.527687132358551,-0.3693108856678009,-0.903929591178894,-0.215687558054924,-0.8830084800720215,-2.312394380569458,-0.19188982248306274
1.1235209512049393,-1.0294400181732333,0.199070517445374,-0.44856661558151245,0.7885816097259521,0.08860253542661667,-0.37066617608070374,-0.901628851890564,-0.22287221252918243,-0.8848727941513062,-2.3153512477874756,-0.20943962037563324
1.122550598596464,-1.0160092907096512,0.19371972796357778,-0.01394536904990673,0.8868381381034851,-0.14395587146282196,-0.36838310956954956,-0.901208758354187,-0.2282911092042923,-0.7601264119148254,-2.2224180698394775,-0.21697545051574707
1.1259167722511794,-1.0105926371903695,0.19683318760095492,0.6032252311706543,0.7291398048400879,-0.2772040367126465,-0.3645690679550171,-0.9026625156402588,-0.22866986691951752,-0.6091400384902954,-2.0940418243408203,-0.26667600870132446
1.1337059551941882,-1.0170206826979755,0.21049915373531478,1.1917566061019897,0.445567786693573,-0.4324721693992615,-0.3600403070449829,-0.9059871435165405,-0.22261731326580048,-0.5303710699081421,-1.949054479598999,-0.2544791102409363
1.1457891818018797,-1.0345851767850096,0.23311982692854816,1.6444534063339233,0.1577559858560562,-0.659647524356842,-0.3544577658176422,-0.9110357761383057,-0.21065106987953186,-0.5176125764846802,-1.815481185913086,-0.1686822474002838
1.161687910406728,-1.0597662476448542,0.26138402873287425,1.8913882970809937,-0.010850604623556137,-0.9479680061340332,-0.34697067737579346,-0.9174758791923523,-0.19455057382583618,-0.5413503050804138,-1.6744128465652466,-0.07818487286567688
1.1807037588008156,-1.087580668764941,0.29122846348226444,1.9177942276000977,-0.03208665922284126,-1.2793315649032593,-0.33673498034477234,-0.9248738884925842,-0.17668649554252625,-0.5543325543403625,-1.5363231897354126,-0.020365357398986816
1.2018467600281757,-1.1114299762860078,0.3173321859584849,1.68159019947052,0.12837013602256775,-1.597777247428894,-0.323250412940979,-0.9327067136764526,-0.15989899635314941,-0.5758126974105835,-1.416963815689087,0.01417773962020874
1.2240482653306324,-1.1245197640093507,0.33391186236584985,1.2863446474075317,0.3609711527824402,-1.870375633239746,-0.30655747652053833,-0.9404828548431396,-0.1466788649559021,-0.5881263017654419,-1.2735522985458374,0.06310667097568512
1.246721895386148,-1.123259423829485,0.3376505728627859,0.8975237607955933,0.5890002846717834,-2.0962839126586914,-0.28707125782966614,-0.9479458332061768,-0.1378001868724823,-0.5692367553710938,-1.1235415935516357,0.04337896406650543
1.269642461624154,-1.1071910628092148,0.3280557554283893,0.6031519770622253,0.7902061343193054,-2.253887176513672,-0.2653128206729889,-0.9549948573112488,-0.13264235854148865,-0.5284188985824585,-0.962668776512146,-0.044969722628593445
1.2925085667373157,-1.0787580190629047,0.3074640842377353,0.47337639331817627,0.9285341501235962,-2.317629814147949,-0.24212171137332916,-0.9615272283554077,-0.12977947294712067,-0.46516895294189453,-0.7783868312835693,-0.158367320895195
1.3151431427049565,-1.0437018908956168,0.28077459113588776,0.5180506706237793,0.9038967490196228,-2.2978527545928955,-0.21855543553829193,-0.9674983024597168,-0.12720376253128052,-0.39126208424568176,-0.6054693460464478,-0.29857730865478516
1.3377860645687705,-1.008709937935796,0.2531706085004918,0.6973613500595093,0.7142103910446167,-2.25184965133667,-0.1953815370798111,-0.9729757308959961,-0.12306298315525055,-0.3203350007534027,-0.44291794300079346,-0.4016713500022888
1.361119623092775,-0.9796998641105842,0.22940749554843712,0.9752083420753479,0.44414836168289185,-2.218909740447998,-0.17282845079898834,-0.9780982732772827,-0.11599291861057281,-0.27245354652404785,-0.30833983421325684,-0.4721263647079468
1.3860005141204204,-0.9607450919621788,0.2135453104101195,1.3194431066513062,0.248264878988266,-2.2272469997406006,-0.15060268342494965,-0.9829738140106201,-0.10527054220438004,-0.26788488030433655,-0.19790416955947876,-0.5584255456924438
1.413029768432382,-0.9540869235392841,0.20886781252516498,1.644300103187561,0.16769222915172577,-2.270897388458252,-0.12817099690437317,-0.9875806570053101,-0.09086719900369644,-0.30888649821281433,-0.07604861259460449,-0.6388384103775024
1.4420351147444979,-0.9606682894272027,0.21699767274110954,1.855703353881836,0.12886974215507507,-2.322838068008423,-0.10523904860019684,-0.9917217493057251,-0.07357361167669296,-0.33071982860565186,0.04651588201522827,-0.6451609134674072
1.4722341576047213,-0.9815595924653194,0.23936303308308118,1.941002607345581,0.14599867165088654,-2.3600969314575195,-0.08180984854698181,-0.9951466917991638,-0.05468585714697838,-0.3130112886428833,0.13323861360549927,-0.6042647957801819
1.5027622774826714,-1.0216381042002596,0.28152984341978615,1.9132871627807617,0.2554420828819275,-2.3841261863708496,-0.05798693746328354,-0.9976865649223328,-0.03548496961593628,-0.30140331387519836,0.2025357484817505,-0.5629797577857971
1.5327874413823068,-1.1064809728651508,0.36996073039751876,1.796803593635559,0.437517374753952,-2.3858449459075928,-0.033978767693042755,-0.9992777705192566,-0.017017753794789314,-0.29199472069740295,0.29368072748184204,-0.5101579427719116
1.560676947654611,-1.581323634429779,0.8501053974974218,1.635419249534607,0.6074107885360718,-2.3487601280212402,-0.010127697139978409,-0.9999487996101379,0.00010662132262950763,-0.245045006275177,0.38752198219299316,-0.44241297245025635
1.5505506287447721,2.4765118038557876,3.082692949895215,1.5334314107894897,0.813033401966095,-2.1599104404449463,0.012494715861976147,-0.9997950792312622,0.01593147963285446,-0.18298113346099854,0.46509653329849243,-0.40683090686798096
1.5253486551402187,2.341784103549257,-3.0569061615069026,1.590969204902649,0.920396625995636,-1.8851773738861084,0.03258712217211723,-0.9989674091339111,0.03166121616959572,-0.11606793105602264,0.5693255662918091,-0.4321432113647461
1.5009777681393894,2.347446358286139,-3.0537326854234994,1.7862378358840942,0.8132702112197876,-1.6204044818878174,0.049760330468416214,-0.9975636601448059,0.048897240310907364,-0.06306596100330353,0.6687061190605164,-0.46321892738342285
1.476641150385369,2.3839724717220663,-3.083564350980535,2.0146265029907227,0.5244123339653015,-1.4406757354736328,0.06460928171873093,-0.9955706596374512,0.06830224394798279,-0.048724837601184845,0.7194015979766846,-0.4466742277145386
1.4514946650755418,2.4226168280921696,-3.118939113827573,2.186307191848755,0.1718212217092514,-1.3930339813232422,0.07838842272758484,-0.9928919672966003,0.08956041187047958,-0.08560580015182495,0.7389245629310608,-0.3746248483657837
1.4251103044273485,2.4510282869732993,3.136074166180932,2.2946224212646484,-0.053575143218040466,-1.4579423666000366,0.09247057139873505,-0.9894065260887146,0.11191118508577347,-0.15786971151828766,0.7473105192184448,-0.30122673511505127
1.3974725361331433,2.4676921493338377,3.118241019072275,2.318537473678589,-0.12191051244735718,-1.5793901681900024,0.10762069374322891,-0.9850170016288757,0.1347578912973404,-0.23463481664657593,0.7625437378883362,-0.2772136926651001
1.369322094188477,2.473493212971904,3.1110804163346923,2.2288248538970947,-0.11221634596586227,-1.696138858795166,0.12396960705518723,-0.9797726273536682,0.15708951652050018,-0.26740220189094543,0.797430157661438,-0.23481765389442444
1.3418276031766259,2.47254683755392,3.1115655814806624,2.0494983196258545,0.033809810876846313,-1.6974495649337769,0.14077815413475037,-0.9739009737968445,0.17804192006587982,-0.24614004790782928,0.8279656767845154,-0.18229888379573822
1.3164138943690118,2.4704543908291345,3.1150506323807083,1.8180439472198486,0.21706725656986237,-1.5666286945343018,0.15649458765983582,-0.9678189158439636,0.19706951081752777,-0.17140237987041473,0.8625178933143616,-0.1480731964111328
1.2939427672192516,2.469860159259797,3.1186136889265885,1.5760432481765747,0.34212422370910645,-1.3601642847061157,0.17010587453842163,-0.9619202017784119,0.21394868195056915,-0.09997645020484924,0.9174407124519348,-0.12163269519805908
1.274670378314478,2.4715456606696398,3.1208046791008,1.363534927368164,0.40659162402153015,-1.126049280166626,0.18122531473636627,-0.9564741849899292,0.22872434556484222,-0.06164214015007019,0.9603040814399719,-0.10663856565952301
1.258255969662781,2.475611786639645,3.1209656009599285,1.205928087234497,0.4291760325431824,-0.9122384786605835,0.18996930122375488,-0.9515555500984192,0.241773322224617,-0.05480685830116272,0.9789143204689026,-0.10300955176353455
1.243942588255447,2.4816526042784623,3.119183828428545,1.1143523454666138,0.43611302971839905,-0.7636886835098267,0.19683559238910675,-0.9470571875572205,0.2536512315273285,-0.07099631428718567,0.9915669560432434,-0.11510121822357178
1.2309871439212237,2.4883652488157835,3.116685745020323,1.0290182828903198,0.4273741841316223,-0.6915130019187927,0.20256873965263367,-0.942818284034729,0.2646886706352234,-0.09352937340736389,0.9914326071739197,-0.11675450205802917
1.219023051227294,2.4938816654027987,3.1151311810309568,0.9295920729637146,0.3703010380268097,-0.6748426556587219,0.2078970968723297,-0.9387632012367249,0.2747785151004791,-0.11446744203567505,0.9831202626228333,-0.08935341238975525
1.2080005331798964,2.496755831637567,3.1155970986490535,0.8018215894699097,0.2928919494152069,-0.6712732315063477,0.21331286430358887,-0.9349082708358765,0.28362709283828735,-0.11800643801689148,0.9905112981796265,-0.054210931062698364
1.1982411731604226,2.49726853927924,3.117969521159631,0.6466343998908997,0.25618213415145874,-0.6301311254501343,0.2186376452445984,-0.9314002990722656,0.2910175919532776,-0.10225886106491089,1.0085334777832031,-0.023729145526885986
1.1901438458143383,2.4963330562591386,3.1216457155297856,0.4817705452442169,0.2419356107711792,-0.5509462952613831,0.223438560962677,-0.9284223914146423,0.2968292236328125,-0.07617592811584473,1.0368359088897705,-0.01155063509941101
1.1838851860348085,2.4950241540266282,3.125695680495157,0.33420559763908386,0.24830323457717896,-0.43357229232788086,0.22732293605804443,-0.9260789752006531,0.3011682331562042,-0.05088551342487335,1.0696946382522583,-0.008290767669677734
1.1795010554459078,2.49493431655898,3.1286363021897188,0.23480618000030518,0.2780051827430725,-0.2651197612285614,0.22979424893856049,-0.9244158267974854,0.3043854832649231,-0.02158801257610321,1.0950393676757812,-0.02536293864250183
1.1768795353085837,2.497679063758385,3.1290068136208213,0.16935181617736816,0.33646315336227417,-0.07247067987918854,0.23041215538978577,-0.9234128594398499,0.3069523572921753,0.0037798285484313965,1.111797571182251,-0.060583651065826416
1.1758580288369436,2.5038005736691242,3.1261792999415694,0.12426786124706268,0.356120765209198,0.12082792818546295,0.22909007966518402,-0.9230203032493591,0.30911433696746826,0.01820915937423706,1.1188668012619019,-0.07495272159576416
1.1762883541418465,2.5128463535538574,3.120203422036483,0.08149483799934387,0.3453133702278137,0.2989169955253601,0.2260509729385376,-0.9231857657432556,0.3108527660369873,0.029350697994232178,1.1155074834823608,-0.0572667121887207
1.177962287694324,2.524504686672523,3.1112375096195293,0.05018298327922821,0.3288252353668213,0.450381875038147,0.2215169221162796,-0.9238278865814209,0.31220588088035583,0.03412884473800659,1.106567144393921,-0.03863087296485901
1.1806752743525843,2.538689296954124,3.0993467589176036,0.023805705830454826,0.30964672565460205,0.5988163352012634,0.2156442552804947,-0.9248630404472351,0.313250869512558,0.038963913917541504,1.0996677875518799,-0.022326618432998657
1.184371214775817,2.5555764600134667,3.0844102313193575,-0.0052880775183439255,0.30515608191490173,0.746709406375885,0.20843233168125153,-0.9262622594833374,0.31399813294410706,0.04971592128276825,1.0971299409866333,0.0014928877353668213
1.189102839191384,2.5753952350643012,3.0661964166483027,-0.04769332334399223,0.27454009652137756,0.9065118432044983,0.19981516897678375,-0.9280351400375366,0.3143642544746399,0.06245294213294983,1.0973007678985596,0.026837706565856934
1.1950024289720989,2.5977382218237883,3.044635646115824,-0.12323324382305145,0.17753902077674866,1.0633481740951538,0.18990613520145416,-0.9302165508270264,0.31405994296073914,0.0690203309059143,1.0979256629943848,0.05921617150306702
1.2024603371706,2.6215323728792135,3.020323642252506,-0.2712402939796448,0.053255949169397354,1.2097493410110474,0.17892765998840332,-0.9329277873039246,0.3124599754810333,0.06441956758499146,1.0865225791931152,0.09473636746406555
1.21189560825926,2.646358097198114,2.9939421816695475,-0.46152418851852417,-0.014445068314671516,1.327594518661499,0.1669253706932068,-0.936283528804779,0.3090461790561676,0.034795865416526794,1.0735666751861572,0.12077891826629639
1.2232159317441889,2.671376576344893,2.967081118257562,-0.6921800374984741,-0.010673766024410725,1.3549073934555054,0.15432970225811005,-0.940199613571167,0.30365651845932007,-0.015505224466323853,1.0556323528289795,0.10921606421470642
1.2369736288562005,2.695094926961308,2.942143228172208,-1.045516848564148,0.06041031330823898,1.342108964920044,0.14148558676242828,-0.9447967410087585,0.2955356538295746,-0.0744994580745697,1.0155210494995117,0.09878218173980713
1.2539778512937765,2.716003171700092,2.92129511809204,-1.47331964969635,0.17647778987884521,1.288763165473938,0.12862412631511688,-0.9502314329147339,0.2837545871734619,-0.1160966008901596,0.9813591241836548,0.11355403065681458
1.2746420673104912,2.7330382154302546,2.905937171299263,-1.918470859527588,0.2948102355003357,1.2230364084243774,0.11594495177268982,-0.9564658999443054,0.2678246796131134,-0.13605602085590363,0.9488059282302856,0.11181426048278809
1.2991015120520317,2.745486787402736,2.896332989142303,-2.3459367752075195,0.3406403064727783,1.1832096576690674,0.1035430058836937,-0.9633174538612366,0.24758584797382355,-0.1322447657585144,0.9205774664878845,0.10081827640533447
1.3270898620735392,2.753570689617882,2.8913561777451413,-2.695213794708252,0.3027997314929962,1.1905958652496338,0.09129863232374191,-0.9704502820968628,0.22336356341838837,-0.10704568028450012,0.8851840496063232,0.07732629776000977
1.3577531800625517,2.7590514704161855,2.888293335863275,-2.928525924682617,0.18940606713294983,1.252503752708435,0.07892448455095291,-0.9773920178413391,0.19615279138088226,-0.08603505045175552,0.8483484387397766,0.020979970693588257
1.391614450708448,2.76556699491565,2.8833375519443707,-3.2776083946228027,0.1611885279417038,1.4296661615371704,0.06544890999794006,-0.9839898347854614,0.16577249765396118,-0.09001553803682327,0.8137780427932739,-0.03930748999118805
1.4293742917327668,2.776754575359624,2.873857753804724,-3.634875535964966,0.18766914308071136,1.5622953176498413,0.05029138922691345,-0.9900165796279907,0.13167473673820496,-0.08086997270584106,0.759944498538971,-0.045309796929359436
1.4703772953697358,2.7898155304602676,2.862106441310459,-3.89933443069458,0.07896265387535095,1.5507853031158447,0.034543655812740326,-0.994962215423584,0.09411319345235825,-0.13148272037506104,0.6793950796127319,-0.08260786533355713
1.5126703639787706,2.797877355354804,2.8541038017089995,-3.9605517387390137,-0.05809107422828674,1.4397287368774414,0.019578011706471443,-0.9983111619949341,0.05469901114702225,-0.2438516765832901,0.57915198802948,-0.15333151817321777
1.5542430239134457,2.7968475413504055,2.853877261905882,-3.814150810241699,-0.202580064535141,1.3712998628616333,0.005598282441496849,-0.9998629689216614,0.015590420924127102,-0.284712016582489,0.4259187579154968,-0.27349424362182617
1.5480327811472576,-0.37009784943944873,-0.2656203763438039,-3.5105762481689453,-0.4563806354999542,1.3972758054733276,-0.008236143738031387,-0.9997408986091614,-0.021228501573204994,-0.22943472862243652,0.24378979206085205,-0.40446096658706665
1.5117744289261503,-0.3994131229386465,-0.2422223007249911,-3.1118574142456055,-0.7218844890594482,1.4971250295639038,-0.022939760237932205,-0.9982587099075317,-0.054346535354852676,-0.1695498377084732,0.08096122741699219,-0.5080464482307434
1.4787161273847922,-0.43889247012309834,-0.21110493057502508,-2.7296271324157715,-0.9602019786834717,1.6107944250106812,-0.03907386213541031,-0.9957635998725891,-0.08323713392019272,-0.1617928147315979,-0.05211859941482544,-0.5715325474739075
1.4480357627194484,-0.48089823785625857,-0.17960613556254987,-2.467160940170288,-1.169131875038147,1.7033793926239014,-0.05664435029029846,-0.992474377155304,-0.10856543481349945,-0.20652398467063904,-0.17650169134140015,-0.542252242565155
1.4187248797641743,-0.5204774807579788,-0.15254474704926915,-2.3090312480926514,-1.3773763179779053,1.7368580102920532,-0.07533400505781174,-0.9884594082832336,-0.13142798840999603,-0.24661117792129517,-0.31966155767440796,-0.46810483932495117
1.390480141729563,-0.5547491299692164,-0.13259693364975325,-2.1949777603149414,-1.5177240371704102,1.7026845216751099,-0.09446448087692261,-0.9837870597839355,-0.152445986866951,-0.2966030240058899,-0.4623801112174988,-0.4117780327796936
1.3631643962349624,-0.5822824147081636,-0.12028882578830133,-2.1560401916503906,-1.5462899208068848,1.6239981651306152,-0.11336525529623032,-0.9785218238830566,-0.17217367887496948,-0.3424452841281891,-0.5976198315620422,-0.3851839303970337
1.336017219282408,-0.6013629958322273,-0.11615831469345066,-2.2496635913848877,-1.4408372640609741,1.549209475517273,-0.13161365687847137,-0.972565770149231,-0.19181759655475616,-0.3659602105617523,-0.7412863373756409,-0.3402409553527832
1.308200217258352,-0.6115659093642156,-0.11952461681362843,-2.4012227058410645,-1.2384434938430786,1.4766430854797363,-0.14904315769672394,-0.9657193422317505,-0.21253858506679535,-0.36514750123023987,-0.8671208024024963,-0.2823648452758789
1.2796499299588548,-0.6141788533952994,-0.12848413074135917,-2.5174734592437744,-0.9905623197555542,1.396849513053894,-0.16542401909828186,-0.9579154253005981,-0.23459166288375854,-0.35157424211502075,-0.9598093628883362,-0.25469648838043213
1.251185954551167,-0.6117739338035008,-0.13985127798174157,-2.4941811561584473,-0.6879755854606628,1.3104920387268066,-0.18044982850551605,-0.9493579268455505,-0.257211297750473,-0.34423887729644775,-1.0297987461090088,-0.29201340675354004
1.2240211958425071,-0.6068636924331833,-0.15108738376502523,-2.355797529220581,-0.47153058648109436,1.1856306791305542,-0.19382399320602417,-0.9404736161231995,-0.2791804075241089,-0.33477097749710083,-1.1048145294189453,-0.3544558584690094
1.1988668305494565,-0.6016841772459864,-0.16128669964940698,-2.1738274097442627,-0.41615572571754456,1.0823763608932495,-0.20570383965969086,-0.9316278696060181,-0.2995924949645996,-0.29731738567352295,-1.218625545501709,-0.36956629157066345
1.17560258900791,-0.5986594027837693,-0.16918671967400925,-1.987073302268982,-0.44892993569374084,1.0568656921386719,-0.21695400774478912,-0.9229220151901245,-0.3180348575115204,-0.21171113848686218,-1.3574278354644775,-0.3555794954299927
1.15404653602051,-0.5986398060500838,-0.17427631924434514,-1.7867677211761475,-0.4767138957977295,1.0312665700912476,-0.2281075417995453,-0.9144093990325928,-0.3343989849090576,-0.1375083327293396,-1.4791913032531738,-0.35299405455589294
1.1345170448999446,-0.6005803421466421,-0.17738560412251414,-1.5696475505828857,-0.4649035930633545,0.94686359167099,-0.23880352079868317,-0.9063301682472229,-0.3486238121986389,-0.12849079072475433,-1.6084556579589844,-0.38271448016166687
1.1176204572054809,-0.6027703968090645,-0.17940851690909118,-1.2926182746887207,-0.31594178080558777,0.8094050884246826,-0.24821369349956512,-0.8990611433982849,-0.3606647849082947,-0.17575176060199738,-1.7434561252593994,-0.44562476873397827
1.1044282397338903,-0.6039834330556241,-0.18014226309616246,-0.8936038613319397,-0.04887174814939499,0.6279205679893494,-0.2553650736808777,-0.8932072520256042,-0.37009397149086,-0.24297168850898743,-1.8455166816711426,-0.5522843599319458
1.0960644992352726,-0.6042587687664925,-0.1788185193013209,-0.4014626741409302,0.22825174033641815,0.4130977988243103,-0.25970250368118286,-0.8894153237342834,-0.3761584758758545,-0.30523890256881714,-1.9162487983703613,-0.662507176399231
1.0932533347974105,-0.6040411644640965,-0.17526868534274603,0.1236221119761467,0.4317915439605713,0.16845200955867767,-0.2610396146774292,-0.8881268501281738,-0.3782711923122406,-0.3411789834499359,-1.9614521265029907,-0.7141969203948975
1.0960221223723101,-0.6039926809632332,-0.1699051901456394,0.6009799242019653,0.5096527338027954,-0.07414624840021133,-0.2596237361431122,-0.8893959522247314,-0.3762584924697876,-0.3686569035053253,-1.967690348625183,-0.6918718218803406
1.1036888772468252,-0.6047910078986765,-0.16322758695753697,0.9819576144218445,0.5166417360305786,-0.29494452476501465,-0.25603944063186646,-0.892874538898468,-0.37043097615242004,-0.37622374296188354,-1.9389889240264893,-0.6290042996406555
1.115235340466731,-0.6055491892978168,-0.15637950059551492,1.2430726289749146,0.5602350234985352,-0.5189695954322815,-0.25043484568595886,-0.8980143666267395,-0.3617357313632965,-0.39478304982185364,-1.8620718717575073,-0.5497021079063416
1.1299826481790234,-0.6044497121546196,-0.15111463714668044,1.425676941871643,0.5975652933120728,-0.7784057259559631,-0.24248379468917847,-0.9044047594070435,-0.351075142621994,-0.44245272874832153,-1.758589744567871,-0.47611892223358154
1.1474135609913512,-0.6007566044204644,-0.1487302000936028,1.5430883169174194,0.5616285800933838,-1.02096426486969,-0.23223821818828583,-0.9117043614387512,-0.33891114592552185,-0.4745641350746155,-1.634957194328308,-0.4303147792816162
1.1668324767484934,-0.5944524869853388,-0.14978526674646353,1.6050125360488892,0.5018347501754761,-1.2209464311599731,-0.22013886272907257,-0.9195101857185364,-0.3256378769874573,-0.46920743584632874,-1.487182378768921,-0.4033200442790985
1.1874891012804583,-0.5850500817393784,-0.1549937380964685,1.5793828964233398,0.4122966527938843,-1.3987140655517578,-0.206532821059227,-0.9274328351020813,-0.311789870262146,-0.4538828432559967,-1.317379355430603,-0.39424943923950195
1.208150611562238,-0.5701871479730996,-0.16667167086958856,1.3812806606292725,0.4044816493988037,-1.5575240850448608,-0.19148996472358704,-0.9349615573883057,-0.29862791299819946,-0.44820424914360046,-1.1607874631881714,-0.4020707905292511
1.227118553793335,-0.5446835408961386,-0.18844572170093363,1.0225353240966797,0.6346341371536255,-1.7183010578155518,-0.17459101974964142,-0.9415218234062195,-0.2881924510002136,-0.4648743271827698,-1.0251989364624023,-0.41192638874053955
1.2434006585741881,-0.5034296008926079,-0.22325780662280997,0.6517788767814636,1.042677879333496,-1.8812130689620972,-0.15513989329338074,-0.9468830227851868,-0.28168123960494995,-0.49403002858161926,-0.8563855290412903,-0.4442097246646881
1.2571445517160549,-0.4457350507364024,-0.27095468767939146,0.4417848587036133,1.4160232543945312,-2.0270373821258545,-0.13301582634449005,-0.9512132406234741,-0.27838894724845886,-0.48745232820510864,-0.6634871959686279,-0.5136336088180542
1.269497164580639,-0.3765296150386041,-0.3273720828111267,0.48547276854515076,1.6379235982894897,-2.063364028930664,-0.10911779850721359,-0.9549517631530762,-0.2759721279144287,-0.4225289225578308,-0.4620863199234009,-0.626401960849762
1.2822039289430338,-0.3038471538334873,-0.3861241719766804,0.7942466139793396,1.6084325313568115,-1.9777963161468506,-0.08515141159296036,-0.9586454033851624,-0.27156633138656616,-0.30797600746154785,-0.2502932548522949,-0.732995867729187
1.297418542224067,-0.23455342403837964,-0.44270095016101746,1.3156837224960327,1.3495069742202759,-1.8420573472976685,-0.0627470463514328,-0.9628644585609436,-0.262593150138855,-0.1917237639427185,-0.04009592533111572,-0.7973889708518982
1.3168920133875162,-0.170407925431569,-0.4972892988657725,1.915711760520935,0.9221625924110413,-1.7145041227340698,-0.042597077786922455,-0.9679390788078308,-0.24754691123962402,-0.12054987251758575,0.14137041568756104,-0.8128167390823364
1.3411149074140176,-0.10905809011707171,-0.5534163732622019,2.480494499206543,0.43982577323913574,-1.6122181415557861,-0.024779876694083214,-0.973738968372345,-0.2263156920671463,-0.08560217916965485,0.29525673389434814,-0.7545038461685181
1.3694262300973574,-0.0444045827512614,-0.6175982960097627,2.9213709831237793,-0.045847974717617035,-1.551032304763794,-0.008878561668097973,-0.9797934889793396,-0.1998155415058136,-0.06416523456573486,0.410197913646698,-0.6675395965576172
1.4005351184736285,0.03415992405295922,-0.6998694998628535,3.2414562702178955,-0.3831642270088196,-1.5098681449890137,0.0057869283482432365,-0.9855405688285828,-0.169341042637825,-0.06093217432498932,0.484594464302063,-0.5821083784103394
1.4326570691984872,0.1450987751454329,-0.8166315583458718,3.4292259216308594,-0.4719944894313812,-1.479196310043335,0.019910188391804695,-0.9904739260673523,-0.13625383377075195,-0.07447560131549835,0.5571241974830627,-0.5259315967559814
1.4632513693362788,0.3223094482004817,-0.9993762258067022,3.4982733726501465,-0.3473188877105713,-1.4541327953338623,0.0340002104640007,-0.9942226409912109,-0.10181091725826263,-0.09601190686225891,0.6306208968162537,-0.47437602281570435
1.4882247727276772,0.624406859343857,-1.305370009123195,3.5071706771850586,-0.16459646821022034,-1.443029522895813,0.04821859300136566,-0.9965928792953491,-0.0669160932302475,-0.10603411495685577,0.6898148059844971,-0.4098597764968872
1.500374856352888,1.098223264500251,-1.7813378416243517,3.470996856689453,0.0015152422711253166,-1.448072075843811,0.06265327334403992,-0.9975214600563049,-0.03202879801392555,-0.09469670057296753,0.7260979413986206,-0.3252403140068054
1.493706517631367,1.602777116769472,-2.286554653052604,3.4079172611236572,0.11516270786523819,-1.4059234857559204,0.07697579264640808,-0.9970300793647766,0.002462586387991905,-0.0824384018778801,0.7484490275382996,-0.22025108337402344
1.4730703402780732,1.9490092365194684,-2.632816677816652,3.272014617919922,0.12250051647424698,-1.3397592306137085,0.09067589789628983,-0.9952285885810852,0.03602934256196022,-0.061485789716243744,0.7993972301483154,-0.11401677131652832
1.446833292898956,2.1486372266282108,-2.8326250921198746,3.010981798171997,0.07668162882328033,-1.252888560295105,0.10357137024402618,-0.9923264384269714,0.06753753870725632,-0.04773943871259689,0.8417373895645142,-0.0020313337445259094
1.4203149002507605,2.2643083062374947,-2.948952998565427,2.666905641555786,0.0013195350766181946,-1.1029419898986816,0.11528497189283371,-0.9886990189552307,0.0958315059542656,-0.022725149989128113,0.8537045121192932,0.10941468179225922
1.3961858928365036,2.3359576472620827,-3.0220251455822673,2.287351608276367,-0.09275928884744644,-0.9088654518127441,0.12530286610126495,-0.9847943186759949,0.12033133208751678,0.007326558232307434,0.8625712990760803,0.1774594783782959
1.3755372832600317,2.3825415068993006,-3.0706376020270096,1.8817740678787231,-0.1310179978609085,-0.7375732064247131,0.1335316300392151,-0.9809974431991577,0.14076006412506104,0.0129832923412323,0.8745216131210327,0.20390556752681732
1.3584928887363532,2.4122034978226177,-3.101556079133951,1.4644474983215332,0.03506524860858917,-0.6536508798599243,0.1404220014810562,-0.9775481224060059,0.1571035534143448,-0.015238851308822632,0.8699278235435486,0.20565901696681976
1.3446114500884723,2.43027839777837,-3.118348011053405,1.1117846965789795,0.2985953986644745,-0.6322101950645447,0.14640460908412933,-0.9745290875434875,0.16987909376621246,-0.05743059515953064,0.8545796871185303,0.17992888391017914
1.332900443791082,2.4406006686523383,-3.1248676940501463,0.8716022968292236,0.47698885202407837,-0.6559118032455444,0.15199430286884308,-0.9718359708786011,0.18009111285209656,-0.09956507384777069,0.8688238263130188,0.15006349980831146
1.3225681067349513,2.445312612079085,-3.124487081944314,0.6999543905258179,0.5228381156921387,-0.6829035878181458,0.15757593512535095,-0.9693492650985718,0.18849942088127136,-0.12325888872146606,0.8980143666267395,0.1360095590353012
1.3132614420927284,2.4452919166020477,-3.1193119123049997,0.5642107129096985,0.4582846760749817,-0.7083730101585388,0.16335931420326233,-0.9670207500457764,0.19540955126285553,-0.11886464059352875,0.9101511240005493,0.14914941787719727
1.3046021669057348,2.4410069774094536,-3.1107498589577554,0.4827919602394104,0.3337360918521881,-0.7411586046218872,0.16958767175674438,-0.9647790789604187,0.20110242068767548,-0.10820148885250092,0.9143789410591125,0.1628658026456833
1.296127231332202,2.4340044237405523,-3.100738579352515,0.4672585129737854,0.18980902433395386,-0.7498937845230103,0.17629952728748322,-0.9625149965286255,0.20611539483070374,-0.10716192424297333,0.9240933060646057,0.146698459982872
1.2876469902587564,2.426913032742129,-3.092247649921346,0.5181705355644226,0.016158387064933777,-0.6991661190986633,0.1830996870994568,-0.9601803421974182,0.2110176533460617,-0.0882052332162857,0.9482021927833557,0.12134954333305359
1.2790452873011506,2.422003262176266,-3.0879941895087017,0.6246892809867859,-0.18151341378688812,-0.6050736904144287,0.18956995010375977,-0.9577416777610779,0.21631968021392822,-0.05742880702018738,0.9737328886985779,0.09488354623317719
1.270190232717369,2.4208914054370085,-3.0896818927083176,0.7733572721481323,-0.35471078753471375,-0.4839535355567932,0.19539955258369446,-0.9551572203636169,0.22247236967086792,-0.030482515692710876,0.9890774488449097,0.05862532556056976
1.2610888987394753,2.424456128531693,-3.0977931439541293,0.9064767360687256,-0.4648743271827698,-0.3422650992870331,0.20031055808067322,-0.9524227976799011,0.2297101616859436,-0.00847703218460083,1.0006252527236938,0.02733956277370453
1.2521832128111734,2.432589983123321,-3.111326160869086,0.9702535271644592,-0.4676032066345215,-0.18848136067390442,0.20395001769065857,-0.9496707916259766,0.2377605140209198,0.002181008458137512,1.014230728149414,0.02221892774105072
1.2440320547395574,2.444330805867789,-3.1282817049287246,0.9518561363220215,-0.3934597373008728,-0.04984917864203453,0.20610885322093964,-0.9470859169960022,0.24606533348560333,-0.0012747794389724731,1.0238983631134033,0.038297802209854126
1.2370487173863156,2.4577837568160583,3.137071080805526,0.8455750346183777,-0.2818211019039154,0.04793259873986244,0.2069527506828308,-0.944821298122406,0.2539358139038086,-0.013745933771133423,1.0245027542114258,0.06778070330619812
1.2317121986814492,2.4710310933847643,3.1208121385956664,0.6429497599601746,-0.13542874157428741,0.12101959437131882,0.2067011147737503,-0.9430596828460693,0.2606017291545868,-0.02388554811477661,1.0166985988616943,0.10870692133903503
1.2287984560581615,2.482928208676137,3.107586910469333,0.3464389443397522,0.020876169204711914,0.21196424961090088,0.20526716113090515,-0.9420865178108215,0.26521432399749756,-0.012243449687957764,1.0139248371124268,0.15435680747032166
1.2288970004970974,2.492878290242966,3.098036440536969,0.027819180861115456,0.17007949948310852,0.30742552876472473,0.20256201922893524,-0.9421195387840271,0.2671695649623871,0.008772239089012146,1.0212669372558594,0.19979533553123474
1.2319610614885557,2.5016507682181133,3.091403863144778,-0.24505339562892914,0.33026599884033203,0.4122771918773651,0.19848625361919403,-0.9431424736976624,0.26662006974220276,0.027847453951835632,1.0266687870025635,0.21185007691383362
1.2376657713301278,2.5108280063923223,3.0859242385489902,-0.4489034414291382,0.46147966384887695,0.5596780776977539,0.1928546130657196,-0.9450232982635498,0.2640807628631592,0.06265383958816528,1.0328068733215332,0.18587064743041992
1.2457441487807697,2.522553779548488,3.0787953594778403,-0.5838333368301392,0.5182609558105469,0.7587727308273315,0.18530841171741486,-0.9476340413093567,0.260096937417984,0.11594587564468384,1.043703556060791,0.15950459241867065
1.2558668575180252,2.5380716616996595,3.067701051808094,-0.6685160398483276,0.46241897344589233,0.9682338237762451,0.17579685151576996,-0.9508182406425476,0.2550300061702728,0.15408295392990112,1.0590335130691528,0.1491449773311615
1.2678420686905454,2.5575776198519664,3.0514130610666004,-0.7597153782844543,0.3288513123989105,1.180192470550537,0.16449911892414093,-0.9544592499732971,0.2488933652639389,0.16899700462818146,1.0766515731811523,0.1490713357925415
1.2815365491486121,2.5805735162875374,3.029984142800061,-0.8639110326766968,0.17218713462352753,1.3350355625152588,0.151763454079628,-0.9584552645683289,0.24151918292045593,0.1694035679101944,1.0824177265167236,0.1539735496044159
1.2966022688796268,2.6057613535767405,3.0049952332870085,-0.9810052514076233,0.07996665686368942,1.4020404815673828,0.13824403285980225,-0.9626437425613403,0.23282140493392944,0.11952272057533264,1.0799227952957153,0.13920339941978455
1.312854096866077,2.632165293045516,2.978529141570945,-1.1365272998809814,0.10283495485782623,1.4096214771270752,0.12440269440412521,-0.9669169187545776,0.22270157933235168,0.04541240632534027,1.068845510482788,0.1049048900604248
1.330416232279113,2.658452485502012,2.9525429830816763,-1.3363789319992065,0.10509279370307922,1.3805854320526123,0.11059945821762085,-0.9712475538253784,0.21082279086112976,0.012386411428451538,1.0722911357879639,0.09255266189575195
1.3494593081399775,2.6831709382438507,2.927887724693192,-1.5231724977493286,0.032635368406772614,1.3495292663574219,0.09715143591165543,-0.975604772567749,0.19686822593212128,0.01754888892173767,1.071429967880249,0.08273407816886902
1.3694749625222429,2.708796361386902,2.901697594791143,-1.5732190608978271,-0.029497258365154266,1.3566279411315918,0.08386727422475815,-0.979803204536438,0.1815270334482193,0.04812128096818924,1.054540753364563,0.02081988751888275
1.3893720642631082,2.7419525464802654,2.8672189919163373,-1.534804344177246,-0.10892923176288605,1.4601655006408691,0.07020329684019089,-0.9835876822471619,0.16621316969394684,0.0674615129828453,1.0182557106018066,-0.09602250158786774
1.409247300096697,2.7909998614592095,2.8159304231021713,-1.5133814811706543,-0.18909570574760437,1.6105360984802246,0.05524395406246185,-0.9869793057441711,0.15106341242790222,0.09531453996896744,1.0027415752410889,-0.15422166883945465
1.4290170299669238,2.8632718537236177,2.7408248306079512,-1.545668363571167,-0.18755240738391876,1.7614699602127075,0.0388227142393589,-0.9899661540985107,0.1358686238527298,0.09302851557731628,0.9843354225158691,-0.17056690156459808
1.4492847874283172,2.9722769227062344,2.6294989524481758,-1.7649176120758057,-0.07377229630947113,1.9831269979476929,0.02042553946375847,-0.9926265478134155,0.11948081105947495,0.06509999930858612,0.9586756229400635,-0.17094850540161133
1.4705612482846513,-3.1355038990314323,2.4530141635504936,-2.1377370357513428,0.06886980682611465,2.230832576751709,-0.0006092828116379678,-0.9949806928634644,0.1000656709074974,0.06799212098121643,0.9224556684494019,-0.13326860964298248
1.4901753773208788,-2.8400534658839165,2.157782384875306,-2.486358404159546,0.21464885771274567,2.3993821144104004,-0.023918326944112778,-0.9967519044876099,0.07690198719501495,0.03697986900806427,0.8646411895751953,-0.11784100532531738
1.5003731010577672,-2.377938054853149,1.6976910366980131,-2.678025007247925,0.4549141824245453,2.498167037963867,-0.048663392663002014,-0.9975212812423706,0.050827011466026306,-0.04855033755302429,0.7682578563690186,-0.2183377742767334
1.4930570853114182,-1.881133151236499,1.2057238415019422,-2.6408467292785645,0.7657516598701477,2.4934329986572266,-0.07395265996456146,-0.996979832649231,0.02371653914451599,-0.15805721282958984,0.6444253921508789,-0.3969463109970093
1.4722558247028592,-1.5432661237981986,0.8754580765528597,-2.4905054569244385,0.9674056768417358,2.353074073791504,-0.09834440797567368,-0.9951488375663757,-0.002708125626668334,-0.28368985652923584,0.5131694078445435,-0.5516892671585083
1.4468035909296937,-1.3424239160187168,0.6828046712706023,-2.395343780517578,0.8547342419624329,2.1036436557769775,-0.12046469748020172,-0.9923227429389954,-0.027999272570014,-0.3872714936733246,0.3638741970062256,-0.5673068761825562
1.4206542450236703,-1.2085812886347458,0.5548220056372799,-2.4743847846984863,0.5424807667732239,1.8699105978012085,-0.13987362384796143,-0.9887498617172241,-0.053002845495939255,-0.4167211949825287,0.16637730598449707,-0.46059250831604004
1.393440651288568,-1.1051622721724497,0.4538579235047068,-2.7186577320098877,0.2135627716779709,1.7946641445159912,-0.15764497220516205,-0.9843136668205261,-0.07921431213617325,-0.34623077511787415,-0.08291667699813843,-0.34772640466690063
1.3634730359941687,-1.021672347892307,0.36928995262404973,-2.987135887145996,-0.117527537047863,1.8690544366836548,-0.1755792498588562,-0.978585422039032,-0.10743703693151474,-0.20915587246418,-0.29833120107650757,-0.2840575575828552
1.3303509842067718,-0.9590463548377156,0.3024577592229246,-3.070239782333374,-0.37441015243530273,2.039518356323242,-0.1949480026960373,-0.971231997013092,-0.13676126301288605,-0.1527998000383377,-0.43221038579940796,-0.3413422107696533
1.295403545005032,-0.9205999409076686,0.258057977335385,-2.817817449569702,-0.5078968405723572,2.2457492351531982,-0.21644327044487,-0.962318480014801,-0.1646082103252411,-0.17424276471138,-0.5379105806350708,-0.5074954628944397
1.261558411382939,-0.9056020578534385,0.23647598649443966,-2.253668785095215,-0.6311841607093811,2.3086435794830322,-0.2394484579563141,-0.9525657892227173,-0.1878381371498108,-0.2470322847366333,-0.695108950138092,-0.7083561420440674
1.232040096178905,-0.9091814692514069,0.23277533914432025,-1.556912899017334,-0.7758752703666687,2.159379005432129,-0.2621963918209076,-0.9431686997413635,-0.20417121052742004,-0.39820396900177,-0.9035415053367615,-0.8596713542938232
1.2082218990276197,-0.9237278039364318,0.2396161183233469,-0.9959086179733276,-0.8337401747703552,1.8876311779022217,-0.2829853594303131,-0.9349868297576904,-0.21382063627243042,-0.5504802465438843,-1.1350359916687012,-0.8869482278823853
1.1890900288499742,-0.941731060020624,0.2499533072421485,-0.7128941416740417,-0.8338371515274048,1.6313221454620361,-0.30119937658309937,-0.9280303716659546,-0.2191779911518097,-0.6171814203262329,-1.3460482358932495,-0.7480764389038086
1.1724288073636642,-0.9586421853793419,0.25906269540839566,-0.6845963597297668,-0.8607537150382996,1.485837459564209,-0.31747376918792725,-0.9216954708099365,-0.2229079008102417,-0.5993963479995728,-1.5183528661727905,-0.528587281703949
1.156219570178252,-0.9722184867158791,0.26442777246767346,-0.8232727646827698,-0.8553352952003479,1.4177724123001099,-0.33277079463005066,-0.9152868986129761,-0.22696666419506073,-0.5558248162269592,-1.665416955947876,-0.34433746337890625
1.1394351774461469,-0.9798723856713543,0.26407458048817045,-1.0896016359329224,-0.7030234932899475,1.3285253047943115,-0.34720805287361145,-0.9083974957466125,-0.23294001817703247,-0.5589657425880432,-1.8103222846984863,-0.23301725089550018
1.1220380233006195,-0.9771784881437181,0.2554029699295395,-1.464862585067749,-0.2899189591407776,1.1231335401535034,-0.3596259355545044,-0.9009864926338196,-0.24267849326133728,-0.6393059492111206,-1.9372247457504272,-0.1762208342552185
1.104775401297768,-0.9605095359873936,0.23696934369531597,-1.8014754056930542,0.32451221346855164,0.7786916494369507,-0.3682229816913605,-0.8933632969856262,-0.25751519203186035,-0.7503530979156494,-2.030693769454956,-0.13164478540420532
1.0890674537569351,-0.9313048449445579,0.21092451221633945,-1.9124221801757812,0.8552823066711426,0.3755955994129181,-0.3717615306377411,-0.8861952424049377,-0.27649903297424316,-0.847980260848999,-2.0719194412231445,-0.14716112613677979
1.0763799134618335,-0.8959288955253835,0.1823534695004965,-1.7142126560211182,1.136102318763733,0.0032690451480448246,-0.37049901485443115,-0.8802458047866821,-0.2964760661125183,-0.8679500818252563,-2.094897747039795,-0.24275410175323486
1.0680216820248232,-0.8613524266568773,0.1563580388590347,-1.2256834506988525,1.1828045845031738,-0.2891013026237488,-0.3655981123447418,-0.8762489557266235,-0.3138887286186218,-0.7870050668716431,-2.0901360511779785,-0.33921778202056885
1.0651040421915725,-0.8333318304788265,0.13733218977986808,-0.5102395415306091,1.0650025606155396,-0.4723268747329712,-0.35855111479759216,-0.8748393058776855,-0.32572606205940247,-0.6928710341453552,-2.0087666511535645,-0.4110901951789856
1.068306869130058,-0.8160458697011485,0.1283582075336201,0.3166181743144989,0.7947519421577454,-0.5789790153503418,-0.3508244752883911,-0.8763863444328308,-0.3299536406993866,-0.6237544417381287,-1.8702263832092285,-0.43579328060150146
1.0778998125651922,-0.8117540182262749,0.13051445909530315,1.1364665031433105,0.4319361746311188,-0.6697719693183899,-0.343289852142334,-0.8809660077095032,-0.32565516233444214,-0.5667901039123535,-1.7301791906356812,-0.39800798892974854
1.0934647089150444,-0.8204102662049622,0.1430848043702416,1.8117543458938599,0.06304575502872467,-0.7938880324363708,-0.3360249698162079,-0.8882239460945129,-0.3132820725440979,-0.526752769947052,-1.5873162746429443,-0.3095662593841553
1.1137194861680726,-0.8394623257483316,0.16344463662104072,2.2242753505706787,-0.22007836401462555,-0.9514104723930359,-0.32847288250923157,-0.8973463773727417,-0.29474619030952454,-0.5168488025665283,-1.4581378698349,-0.19179537892341614
1.1368328665750225,-0.8646646967892724,0.18798185154384026,2.356149673461914,-0.3778533637523651,-1.1293878555297852,-0.3199264705181122,-0.9073063731193542,-0.2728411853313446,-0.5160262584686279,-1.340710163116455,-0.06166177988052368
1.1610306798849555,-0.8910144612391452,0.21242230562090184,2.2348666191101074,-0.4162529408931732,-1.301914095878601,-0.3098353445529938,-0.9172142148017883,-0.2504401206970215,-0.5165653824806213,-1.228827714920044,0.03765645623207092
1.1850614447739285,-0.9134500117988869,0.23288524131160343,1.9628772735595703,-0.26932236552238464,-1.4801913499832153,-0.2978379428386688,-0.9265221953392029,-0.2298896461725235,-0.5080397129058838,-1.122702717781067,0.06619355082511902
1.2086424990137337,-0.927052062856055,0.24613282518682705,1.6498820781707764,0.02716260962188244,-1.678776741027832,-0.28337985277175903,-0.9351359009742737,-0.21264256536960602,-0.5203769207000732,-1.012618064880371,0.0035821199417114258
1.232059838662944,-0.929592379257219,0.25077756538317086,1.411509394645691,0.3284265995025635,-1.8621066808700562,-0.2662939727306366,-0.9431752562522888,-0.1987663060426712,-0.5426812171936035,-0.881165623664856,-0.08638976514339447
1.2556405718440302,-0.9226783135495217,0.24812034894124438,1.2944153547286987,0.5250183939933777,-1.9879242181777954,-0.24711033701896667,-0.950748085975647,-0.18712159991264343,-0.5180568695068359,-0.751781702041626,-0.19538575410842896
1.2795483550867945,-0.9106499810358554,0.24133767726993952,1.2987943887710571,0.5684707760810852,-2.0298094749450684,-0.22681905329227448,-0.957886278629303,-0.1760885864496231,-0.4550657272338867,-0.6184077858924866,-0.3010077476501465
1.3037798738708548,-0.898165074572956,0.2339288042217179,1.3714478015899658,0.49268683791160583,-2.014465570449829,-0.2063835859298706,-0.9645624160766602,-0.16439400613307953,-0.3725196123123169,-0.4785987138748169,-0.37689608335494995
1.3283082658592198,-0.888112939838051,0.2278720292492855,1.4545793533325195,0.33462026715278625,-1.986346960067749,-0.1863042563199997,-0.9707435369491577,-0.15148571133613586,-0.2956903576850891,-0.35994505882263184,-0.4184145927429199
1.3529559409229839,-0.8812553680402441,0.22327011783931755,1.4925121068954468,0.13673461973667145,-1.9474961757659912,-0.16674639284610748,-0.9763664603233337,-0.13749317824840546,-0.22914288938045502,-0.2530800700187683,-0.4300878047943115
1.3774204519806612,-0.8774111654771418,0.21983439192598353,1.511606216430664,-0.029086843132972717,-1.898289442062378,-0.14779867231845856,-0.9813610911369324,-0.12282707542181015,-0.16972148418426514,-0.14812523126602173,-0.42352890968322754
1.4019698306974844,-0.8775879125877925,0.2193302973277968,1.620955467224121,-0.08838050812482834,-1.879550576210022,-0.1292462944984436,-0.9857826232910156,-0.10737062990665436,-0.1352648288011551,-0.04832100868225098,-0.47089147567749023
1.4275722618496047,-0.8870247396105426,0.22816650407224354,1.841464638710022,-0.03580332174897194,-1.8914735317230225,-0.1106482669711113,-0.9897609353065491,-0.09016931802034378,-0.1594933420419693,0.04057258367538452,-0.6016639471054077
1.4547598905405423,-0.9142285643024765,0.2559384808289172,2.0801777839660645,0.10539612174034119,-1.909204363822937,-0.09170705080032349,-0.9932753443717957,-0.07067127525806427,-0.216596782207489,0.14290273189544678,-0.7057414650917053
1.4831039372297823,-0.9755940866569108,0.31921728736097704,2.2554776668548584,0.20308060944080353,-1.9180189371109009,-0.07252012193202972,-0.9961574673652649,-0.04910457134246826,-0.22578918933868408,0.2698543071746826,-0.6819743514060974
1.5113889427473564,-1.1136642651338804,0.4597867948475496,2.3384969234466553,0.21036091446876526,-1.905670166015625,-0.053278848528862,-0.9982358813285828,-0.02620690129697323,-0.1914873719215393,0.3759976029396057,-0.5938185453414917
1.536318494271145,-1.488604612885313,0.8369194371974628,2.329392433166504,0.14767064154148102,-1.8610506057739258,-0.03435926139354706,-0.9994056820869446,-0.00283042318187654,-0.14223068952560425,0.45402592420578003,-0.5039442777633667
1.544832374825724,-2.4680270511315863,1.8179185744777417,2.295090675354004,0.08896070718765259,-1.7535045146942139,-0.016197411343455315,-0.9996629357337952,0.02029561996459961,-0.09317757189273834,0.5237717032432556,-0.413468599319458
1.5273646894895792,3.1259931567333665,2.50759475079366,2.3229176998138428,-0.07585275173187256,-1.612660527229309,0.0006773520726710558,-0.9990569949150085,0.04341788589954376,-0.041174158453941345,0.5943021178245544,-0.35385775566101074
1.5019160110165637,2.902121750523407,2.7297937704114252,2.361459493637085,-0.32471024990081787,-1.4948151111602783,0.016325173899531364,-0.9976286888122559,0.06686370074748993,-0.015043409541249275,0.6644834876060486,-0.32006776332855225
1.4748963377516293,2.807501962196919,2.820358134850673,2.3764307498931885,-0.5299510359764099,-1.4618254899978638,0.03139914944767952,-0.9954051375389099,0.0904608890414238,-0.017254218459129333,0.7017495632171631,-0.2756718397140503
1.4473531164549207,2.7522893393773673,2.869811661990429,2.3710246086120605,-0.6719585061073303,-1.4941118955612183,0.04673368111252785,-0.9923905730247498,0.11391769349575043,-0.04656580463051796,0.7193191647529602,-0.23517906665802002
1.4196319339584662,2.7122552312973407,2.9029167688438413,2.332401752471924,-0.7615197896957397,-1.5358524322509766,0.0626857727766037,-0.9885963797569275,0.13692250847816467,-0.08198811858892441,0.74373859167099,-0.20590735971927643
1.3920186139607813,2.6796043501619216,2.9282603433371324,2.2655186653137207,-0.7500991225242615,-1.5782451629638672,0.07926248013973236,-0.9840617775917053,0.1591847538948059,-0.10508035123348236,0.7764354944229126,-0.19861331582069397
1.3653822309848949,2.6521224473644565,2.9491561135708872,2.074436902999878,-0.6227992177009583,-1.5500683784484863,0.09590010344982147,-0.9789766073226929,0.18002383410930634,-0.11880350112915039,0.815478503704071,-0.1947174370288849
1.3411317982957294,2.62886719812377,2.9676939243580436,1.7771159410476685,-0.4064503312110901,-1.4663130044937134,0.11167576164007187,-0.9737428426742554,0.19837866723537445,-0.10322234034538269,0.8563109636306763,-0.13560375571250916
1.319966690117773,2.6085679184394337,2.9853707779800494,1.455854892730713,-0.2247585952281952,-1.3666495084762573,0.12612459063529968,-0.9687068462371826,0.21377506852149963,-0.0922195315361023,0.8904292583465576,-0.07810905575752258
1.301973006546107,2.589869888019295,3.0031615947798866,1.147107481956482,-0.07411584258079529,-1.2668581008911133,0.1392141729593277,-0.9640840888023376,0.22618867456912994,-0.090431809425354,0.9178347587585449,-0.05277232825756073
1.2868436106401018,2.5725321630633804,3.0212506759089983,0.8881456851959229,0.08990878611803055,-1.170838713645935,0.15095794200897217,-0.9599555730819702,0.23600313067436218,-0.09350857138633728,0.9363501071929932,-0.05880260467529297
1.2739712309792905,2.556959516940091,3.0391856139304054,0.7163179516792297,0.2194712907075882,-1.0932267904281616,0.16142135858535767,-0.9562699198722839,0.24390871822834015,-0.09530499577522278,0.9547591805458069,-0.08338594436645508
1.2623648345791008,2.543029658748811,3.056305304801305,0.6451883912086487,0.24910855293273926,-1.0450477600097656,0.17104578018188477,-0.9528108835220337,0.25078949332237244,-0.10030598938465118,0.9740813970565796,-0.11980780959129333
1.2512924034872848,2.530352711464022,3.07218306498918,0.6175642609596252,0.23289179801940918,-1.0165197849273682,0.1802547127008438,-0.9493913650512695,0.2572252154350281,-0.11738844215869904,0.991169810295105,-0.1498793363571167
1.2404362795121076,2.5188212933422536,3.086733264259263,0.6126635074615479,0.21802708506584167,-0.9911847710609436,0.18920965492725372,-0.9459255933761597,0.2634860575199127,-0.13203492760658264,1.0102565288543701,-0.16515815258026123
1.2297328173444129,2.5086415752735043,3.099789926736698,0.61394202709198,0.20763593912124634,-0.9532796740531921,0.1978597640991211,-0.9423994421958923,0.26969438791275024,-0.1335897296667099,1.0390334129333496,-0.17029836773872375
1.2192481607956713,2.5001752263318147,3.110856025328302,0.6204683780670166,0.17468491196632385,-0.8867731094360352,0.20603671669960022,-0.9388407468795776,0.27591148018836975,-0.12269319593906403,1.0704782009124756,-0.1729145348072052
1.2091930233777448,2.4934525498258546,3.11951729748221,0.6176510453224182,0.09735069423913956,-0.7971803545951843,0.21357524394989014,-0.9353308081626892,0.28203174471855164,-0.09817300736904144,1.094815731048584,-0.1550479531288147
1.199862973482196,2.488155905384262,3.1258717839912387,0.5822634696960449,0.03649400174617767,-0.6849046349525452,0.22036223113536835,-0.9319894313812256,0.28781384229660034,-0.07580038905143738,1.1101202964782715,-0.13447806239128113
1.191819603715287,2.4846047058036405,3.130117475381595,0.4911472797393799,0.05515211448073387,-0.5348890423774719,0.22595398128032684,-0.929043710231781,0.29295599460601807,-0.057573169469833374,1.1252105236053467,-0.11876139044761658
1.1858147877481575,2.482928289317258,3.1331006969267143,0.30857425928115845,0.17510993778705597,-0.3659804165363312,0.22985488176345825,-0.9268053770065308,0.2969827950000763,-0.02912546694278717,1.1367967128753662,-0.09909144043922424
1.1827551645095316,2.4833330401720963,3.135640853875449,0.047967199236154556,0.38125675916671753,-0.15253563225269318,0.23146824538707733,-0.925652027130127,0.29931753873825073,0.010917633771896362,1.139885425567627,-0.07360926270484924
1.1832900673498,2.4862230626417774,3.1378993499007795,-0.2345356047153473,0.6136564016342163,0.0821911171078682,0.23030059039592743,-0.9258542656898499,0.29959285259246826,0.05265843868255615,1.141918659210205,-0.03724825382232666
1.1874265370249786,2.491909573317903,3.139519819171641,-0.48803138732910156,0.8091140389442444,0.3195630609989166,0.22627484798431396,-0.9274094700813293,0.29784590005874634,0.075757697224617,1.14460289478302,-0.013207852840423584
1.194746772944153,2.500024253107127,3.14001921366023,-0.6923554539680481,0.8854511380195618,0.5228192210197449,0.219781294465065,-0.9301226735115051,0.29422470927238464,0.08246484398841858,1.1474840641021729,0.005473464727401733
1.2045960350855973,2.509236513013249,3.139428247537147,-0.8577345609664917,0.8346774578094482,0.6736531257629395,0.21163663268089294,-0.9336946606636047,0.2888331711292267,0.07127663493156433,1.14438796043396,0.031326889991760254
1.2164871066390046,2.518255900226115,3.138202547791339,-1.0085792541503906,0.7349311709403992,0.780764639377594,0.2025274783372879,-0.9378863573074341,0.2816956639289856,0.037813782691955566,1.136250376701355,0.04995444416999817
1.230059105500399,2.526161883914551,3.1371289765156467,-1.1541697978973389,0.639440655708313,0.8398510813713074,0.1929270178079605,-0.9425085783004761,0.2728683352470398,0.0033468008041381836,1.1327855587005615,0.056965798139572144
1.2451794200170136,2.531804719079125,3.1373553033566135,-1.3218003511428833,0.5266832113265991,0.8794746398925781,0.18320102989673615,-0.9474535584449768,0.262239009141922,-0.030475780367851257,1.1316728591918945,0.056364744901657104
1.2620631832810252,2.534796331386261,3.139305607844125,-1.503399133682251,0.4479636251926422,0.954313337802887,0.17326851189136505,-0.9527192711830139,0.2496085911989212,-0.03899115324020386,1.1278443336486816,0.050776124000549316
1.2807281006465925,2.5368914502894384,-3.1415783589832955,-1.627211332321167,0.41186872124671936,1.0554618835449219,0.16260625422000885,-0.958224356174469,0.23529952764511108,-0.017601951956748962,1.1230190992355347,0.00888720154762268
1.3010571161819846,2.5399183786119495,-3.14052153115096,-1.7464271783828735,0.40043070912361145,1.2048819065093994,0.15083426237106323,-0.9638404250144958,0.2196836769580841,-0.013459354639053345,1.1051976680755615,-0.05670440196990967
1.3234471026117356,2.5458948863533433,3.140828905852889,-1.890845537185669,0.43667927384376526,1.393178105354309,0.13737383484840393,-0.9695648550987244,0.20266427099704742,-0.007887721061706543,1.087148904800415,-0.07690107822418213
1.3481453924563809,2.5566189835407656,3.1342737504584433,-2.0241622924804688,0.41279545426368713,1.5977762937545776,0.12193001806735992,-0.975315511226654,0.18410079181194305,0.014620915055274963,1.0660135746002197,-0.06459367275238037
1.3747866399414825,2.573021560413802,3.121083468979525,-2.1268959045410156,0.27260294556617737,1.7441707849502563,0.1048632338643074,-0.9808515310287476,0.16411691904067993,0.005122147500514984,1.0255444049835205,-0.06368327140808105
1.4017375044886191,2.595457882537607,3.100024901841652,-2.0294718742370605,0.06469368934631348,1.735556721687317,0.08738986402750015,-0.9857435822486877,0.14378070831298828,-0.07748688012361526,0.9592236876487732,-0.09194649755954742
1.4280051651564964,2.624652221954873,3.070197952281446,-2.0351483821868896,-0.1020074114203453,1.716105580329895,0.07033132761716843,-0.9898226261138916,0.12371248006820679,-0.18905994296073914,0.8928987979888916,-0.17261673510074615
1.4545526830805442,2.661165311346305,3.0321029406263698,-2.1535277366638184,-0.1349879652261734,1.67380952835083,0.053602829575538635,-0.9932513236999512,0.10285408049821854,-0.25215017795562744,0.7981370687484741,-0.1682988405227661
1.4820479126650261,2.7113207592723327,2.9803962342976464,-2.3015477657318115,-0.1267838329076767,1.6989420652389526,0.03697148337960243,-0.9960644245147705,0.08055664598941803,-0.29321229457855225,0.6562509536743164,-0.17200231552124023
1.5106351556255675,2.8120595398065342,2.8778564644160096,-2.4120864868164062,-0.19103020429611206,1.831562876701355,0.019457997754216194,-0.9981908798217773,0.05689418315887451,-0.24991147220134735,0.5269839763641357,-0.2165771722793579
1.538418537182181,3.1302547006340293,2.557034703492067,-2.4789838790893555,-0.26033923029899597,1.9992666244506836,0.00036704313242807984,-0.99947589635849,0.03237157687544823,-0.23025593161582947,0.4096626043319702,-0.3029555082321167
1.549478908341309,-1.8990684608030008,1.3002855872557213,-2.6257553100585938,-0.24727670848369598,2.097240686416626,-0.02018597535789013,-0.9997727870941162,0.006875250954180956,-0.25622695684432983,0.24076998233795166,-0.33936405181884766
1.5244487566117855,-1.1044682602340656,0.5029780568613323,-2.929171085357666,-0.22483184933662415,2.119831085205078,-0.041386932134628296,-0.9989261627197266,-0.020832322537899017,-0.2350870668888092,0.04047572612762451,-0.28792905807495117
1.4894593125736706,-0.8803234731091453,0.2756434468736797,-3.271378993988037,-0.3548614978790283,2.104541301727295,-0.06263934075832367,-0.9966939687728882,-0.05174832046031952,-0.22266951203346252,-0.14315307140350342,-0.17366957664489746
1.4508524747295835,-0.7777470833847935,0.1674287085268547,-3.4944405555725098,-0.6749181151390076,2.0999395847320557,-0.08396131545305252,-0.992815375328064,-0.08525604009628296,-0.23210923373699188,-0.31336766481399536,-0.11289441585540771
1.410644789671066,-0.7245226831638513,0.10514974340538004,-3.5172083377838135,-0.9951746463775635,2.0931055545806885,-0.1056920662522316,-0.9872031211853027,-0.119412362575531,-0.2469843029975891,-0.48690277338027954,-0.17103850841522217
1.370823349951148,-0.6971502709699411,0.06630271789850593,-3.392738103866577,-1.1451600790023804,2.0201282501220703,-0.12753595411777496,-0.9800719618797302,-0.15229472517967224,-0.30547797679901123,-0.6714631915092468,-0.32063597440719604
1.3327694449874778,-0.6809115680093237,0.037990115317963584,-3.2472851276397705,-1.105309009552002,1.8518856763839722,-0.14842742681503296,-0.9718050956726074,-0.183205246925354,-0.39086395502090454,-0.8604703545570374,-0.4579535722732544
1.2965972327560096,-0.6674539857217917,0.013503320632197759,-3.1706740856170654,-0.9250631928443909,1.693889856338501,-0.167607381939888,-0.9626423716545105,-0.21266774833202362,-0.4405469298362732,-1.0623058080673218,-0.5058989524841309
1.2613780082100625,-0.6538187077292998,-0.009382305238286814,-3.181567430496216,-0.7337235808372498,1.5818407535552979,-0.1852065920829773,-0.9525108337402344,-0.24170595407485962,-0.4023178219795227,-1.2462655305862427,-0.48200297355651855
1.2267382957874173,-0.6396216965573503,-0.03159650745608981,-3.1772942543029785,-0.6380311250686646,1.4366109371185303,-0.20133784413337708,-0.9413936138153076,-0.2706314027309418,-0.35267823934555054,-1.4040197134017944,-0.4323713481426239
1.1934816998823206,-0.6251045342919962,-0.05373312327777554,-3.0763442516326904,-0.6006994843482971,1.216461181640625,-0.21559588611125946,-0.9296573400497437,-0.29875680804252625,-0.36350566148757935,-1.5450894832611084,-0.41895541548728943
1.1629599224701226,-0.610966615402494,-0.07555243896532379,-2.826641082763672,-0.5993974208831787,0.9536722302436829,-0.22752733528614044,-0.9179810881614685,-0.32487261295318604,-0.40293532609939575,-1.6609070301055908,-0.4541036784648895
1.1365311000160836,-0.5988691237188833,-0.09536998120941152,-2.4099984169006348,-0.590999186038971,0.7201871871948242,-0.23717713356018066,-0.9071794152259827,-0.3475235402584076,-0.39836668968200684,-1.7572340965270996,-0.5246381759643555
1.1150370269762135,-0.5897155015075207,-0.1117803277813039,-1.9300254583358765,-0.5247205495834351,0.513319730758667,-0.24477511644363403,-0.8979271054267883,-0.3658035099506378,-0.35498684644699097,-1.834815263748169,-0.599329948425293
1.0984205638871434,-0.5817924968814686,-0.12535644412337293,-1.5137323141098022,-0.2928583025932312,0.31446748971939087,-0.2500346004962921,-0.8904898166656494,-0.3801458179950714,-0.3309895992279053,-1.8951548337936401,-0.6213036179542542
1.0857983696482174,-0.572472099120593,-0.13732113538113921,-1.2061885595321655,0.03382980823516846,0.1435873806476593,-0.2525496482849121,-0.884675920009613,-0.39187681674957275,-0.3056931495666504,-1.9084761142730713,-0.5684196352958679
1.076215865847442,-0.5608818154554122,-0.14834305820282148,-0.9624626636505127,0.33387914299964905,0.016545066609978676,-0.2524886727333069,-0.8801679015159607,-0.40193769335746765,-0.2651351988315582,-1.8940173387527466,-0.48815304040908813
1.0691047376257488,-0.5477649286696903,-0.15791028597770504,-0.7164931297302246,0.5944819450378418,-0.037451326847076416,-0.25044822692871094,-0.8767703175544739,-0.4105478823184967,-0.23082920908927917,-1.8568570613861084,-0.43237796425819397
1.0645195103057248,-0.5349801565859977,-0.16473896079175007,-0.3849925398826599,0.7491575479507446,-0.051920972764492035,-0.24722614884376526,-0.8745560050010681,-0.4171702563762665,-0.21239908039569855,-1.7631088495254517,-0.3990984857082367
1.063441204620533,-0.5248281077978911,-0.1674938430378623,0.07975729554891586,0.7732698321342468,-0.06997746974229813,-0.24345077574253082,-0.8740326166152954,-0.4204745292663574,-0.18960894644260406,-1.6440186500549316,-0.3995784521102905
1.0668176026390643,-0.5193656905252193,-0.16548031824276477,0.600457489490509,0.6542054414749146,-0.09472078830003738,-0.23968420922756195,-0.8756681084632874,-0.41923362016677856,-0.17776575684547424,-1.494983196258545,-0.3981489837169647
1.0746237838402966,-0.5199946079480772,-0.15854632987551837,1.0654655694961548,0.42173731327056885,-0.10378778725862503,-0.2365441471338272,-0.8794111013412476,-0.41313809156417847,-0.16584540903568268,-1.340834379196167,-0.3398219347000122
1.0858881078905513,-0.5269088754893053,-0.14743357930973758,1.3784987926483154,0.163635715842247,-0.1141028106212616,-0.23439863324165344,-0.8847177624702454,-0.4029045104980469,-0.14719316363334656,-1.200273871421814,-0.2517431974411011
1.0992032185034655,-0.5381549688575658,-0.13383240784271358,1.524091362953186,0.015245979651808739,-0.16990216076374054,-0.2328559011220932,-0.8908456563949585,-0.39009279012680054,-0.155785471200943,-1.089257001876831,-0.16509807109832764
1.113737983139147,-0.55005728245504,-0.12057757051949278,1.556910514831543,-0.012845538556575775,-0.33113548159599304,-0.23068904876708984,-0.8973545432090759,-0.37621501088142395,-0.21068674325942993,-0.9873502850532532,-0.11453807353973389
1.1292730966181312,-0.5586425855197512,-0.11080123671831503,1.5121533870697021,0.06832894682884216,-0.5859270095825195,-0.2264934480190277,-0.9041017889976501,-0.3623546063899994,-0.2872089743614197,-0.8993498682975769,-0.1223101019859314
1.1453874650223532,-0.5605922033024032,-0.10690139212060122,1.3673231601715088,0.2560245096683502,-0.8390749096870422,-0.2194240838289261,-0.9108700752258301,-0.3495267331600189,-0.3350040316581726,-0.8102604150772095,-0.15546274185180664
1.1610061003422252,-0.554029598167994,-0.11011056545364636,1.1310480833053589,0.46613380312919617,-1.0174490213394165,-0.20961453020572662,-0.9172044396400452,-0.33881843090057373,-0.33495640754699707,-0.7048659920692444,-0.14990511536598206
1.175261848221531,-0.539351947793726,-0.11988712147988202,0.9092071652412415,0.6636178493499756,-1.1016162633895874,-0.19788327813148499,-0.9227907657623291,-0.3306049406528473,-0.2833942174911499,-0.5807799696922302,-0.12888282537460327
1.1882237062487753,-0.5189409229098984,-0.13387820951099308,0.8002489805221558,0.8215904235839844,-1.1030749082565308,-0.18514643609523773,-0.927707314491272,-0.3241606652736664,-0.22534550726413727,-0.4532742500305176,-0.19123530387878418
1.200334716877528,-0.49598269990989013,-0.14898801601144146,0.7800875902175903,0.9437427520751953,-1.027133584022522,-0.1722964346408844,-0.9321603178977966,-0.3184202313423157,-0.1776486486196518,-0.33016902208328247,-0.2870483696460724
1.2117927248525728,-0.47362259150890523,-0.16257894404708464,0.7914334535598755,0.9703211188316345,-0.8838374614715576,-0.16025163233280182,-0.9362473487854004,-0.31266680359840393,-0.11552047729492188,-0.21649330854415894,-0.32559287548065186
1.2224637362668898,-0.45467880189320964,-0.17283082271471348,0.7913774847984314,0.8697989583015442,-0.6971098184585571,-0.149903804063797,-0.9399431347846985,-0.30665287375450134,-0.0453018844127655,-0.11343222856521606,-0.3155698776245117
1.2321245372335308,-0.44159270338711065,-0.17864020930102678,0.7726038098335266,0.635800838470459,-0.4930424094200134,-0.1419905126094818,-0.9431967735290527,-0.30036428570747375,0.018195971846580505,-0.023768126964569092,-0.27644824981689453
1.240837926034281,-0.4352499712228868,-0.18010314872522873,0.7602148652076721,0.354662150144577,-0.34736061096191406,-0.13661210238933563,-0.9460558295249939,-0.2937953770160675,0.04641738533973694,0.04957127571105957,-0.23046594858169556
1.24929512914087,-0.4331707015412845,-0.17966075111306878,0.7912305593490601,0.16351217031478882,-0.3663145899772644,-0.13263773918151855,-0.9487621188163757,-0.28680649399757385,0.01296304166316986,0.09520047903060913,-0.2260565459728241
1.25903720019472,-0.42904102256222104,-0.18215909475765005,0.9174302816390991,0.22713004052639008,-0.608971893787384,-0.12760096788406372,-0.9517954587936401,-0.2789330780506134,-0.10617893934249878,0.11301970481872559,-0.3058598041534424
1.2713200522840393,-0.41557495796610533,-0.19221776314730116,1.0625754594802856,0.5614675283432007,-0.9475408792495728,-0.1191043108701706,-0.9554911255836487,-0.26990920305252075,-0.2781429886817932,0.14679044485092163,-0.43629786372184753
1.285985384781506,-0.38861226099835516,-0.21249665831990242,1.1696077585220337,0.934962809085846,-1.2600051164627075,-0.10646327584981918,-0.9597147703170776,-0.2600257396697998,-0.3432437479496002,0.23777556419372559,-0.43186867237091064
1.3024020677755552,-0.348457907473921,-0.24322247615553,1.2854784727096558,1.1540045738220215,-1.4584523439407349,-0.0905468612909317,-0.9641979336738586,-0.24924682080745697,-0.287153959274292,0.32027679681777954,-0.3691154420375824
1.3200744068788781,-0.29984390166355773,-0.2813190921324484,1.4344966411590576,1.1675670146942139,-1.4873754978179932,-0.07328271120786667,-0.968733549118042,-0.2370341420173645,-0.17274999618530273,0.37527334690093994,-0.35360288619995117
1.3385757328413839,-0.24930085336511826,-0.3221578094318328,1.5867953300476074,0.9816285967826843,-1.3698546886444092,-0.05678156390786171,-0.9731577634811401,-0.22302497923374176,-0.0714380294084549,0.4486367106437683,-0.3041049838066101
1.3576979717211877,-0.20276170429184318,-0.3613318331537167,1.7451996803283691,0.665385901927948,-1.1562544107437134,-0.04258880764245987,-0.9773803353309631,-0.20715726912021637,0.013597115874290466,0.5397275686264038,-0.2219502329826355
1.3777426378114423,-0.16461119481735026,-0.39538125127045587,1.9359769821166992,0.28820720314979553,-0.920543909072876,-0.03143946826457977,-0.9814229607582092,-0.18926405906677246,0.09412258863449097,0.5969470739364624,-0.1577816605567932
1.3992325196918287,-0.13645727650384906,-0.4230998415882616,2.1462090015411377,-0.1055949255824089,-0.7223543524742126,-0.023224297910928726,-0.9853190183639526,-0.16913695633411407,0.14706464111804962,0.6255624294281006,-0.12796668708324432
1.4222834270707925,-0.11522399230902315,-0.44728793031985653,2.2993736267089844,-0.40149423480033875,-0.6321360468864441,-0.017011793330311775,-0.9889922142028809,-0.14698709547519684,0.13104073703289032,0.6411069631576538,-0.10786497592926025
1.4461290198173178,-0.09089935826244648,-0.47671578021147437,2.336216688156128,-0.5409429669380188,-0.6684285402297974,-0.011287400498986244,-0.9922391176223755,-0.12383250892162323,0.04508562386035919,0.6389216780662537,-0.06778717041015625
1.4696559488225416,-0.0450427494732887,-0.5283358432057714,2.244640350341797,-0.5268452167510986,-0.819690465927124,-0.004546317737549543,-0.9948896765708923,-0.10086512565612793,-0.048477962613105774,0.6187758445739746,-0.02978043258190155
1.4910386440932946,0.05164159977317501,-0.6300751809447498,2.0009984970092773,-0.3831101655960083,-0.9923780560493469,0.004112638533115387,-0.9968210458755493,-0.07956728339195251,-0.0987781435251236,0.601908266544342,-0.0053018853068351746
1.5078477500550054,0.22923359293555998,-0.8108372403975325,1.6508852243423462,-0.14735329151153564,-1.0680646896362305,0.014294820837676525,-0.9980193972587585,-0.061263058334589005,-0.10120886564254761,0.607272207736969,0.02925032377243042
1.5179354369138942,0.48932970360672035,-1.0714592537590888,1.2733521461486816,0.12407419085502625,-1.0193986892700195,0.024836376309394836,-0.9986031651496887,-0.04663867503404617,-0.06513482332229614,0.6343299150466919,0.0671771764755249
1.521406635489014,0.7719592422959646,-1.3521361316733909,0.9716418981552124,0.3214692771434784,-0.8690381646156311,0.03444128856062889,-0.9987805485725403,-0.03537966310977936,0.002469737082719803,0.6592264771461487,0.08368915319442749
1.5210224894667583,1.011293310065359,-1.5882813033303054,0.8077571392059326,0.3483731150627136,-0.648034930229187,0.04216825217008591,-0.9987615346908569,-0.026408182457089424,0.061728861182928085,0.6771824955940247,0.0735580325126648
1.5196981678716097,1.1990309872423877,-1.7734104544339386,0.7498091459274292,0.20409928262233734,-0.42243456840515137,0.047588054090738297,-0.9986947774887085,-0.018554365262389183,0.1038096621632576,0.6851571202278137,0.06619250774383545
1.5186960862596979,1.3587456981984853,-1.9322535156170093,0.7612689733505249,0.01839146576821804,-0.2418731302022934,0.05091105401515961,-0.9986431002616882,-0.010960496962070465,0.11806478351354599,0.6769877672195435,0.05716437101364136
1.517981353473778,1.510579739982354,-2.0849234252742166,0.7970860600471497,-0.140936940908432,-0.12207749485969543,0.05269655957818031,-0.9986056089401245,-0.0031770479399710894,0.08350341022014618,0.6549013257026672,0.0551944375038147
1.5168403894544185,1.6600651900662442,-2.236581736608869,0.8141464591026306,-0.2450481504201889,-0.09304185956716537,0.05371643975377083,-0.9985447525978088,0.00480798352509737,0.042413946241140366,0.6241855025291443,0.05674624443054199
1.514344205739713,1.7995885195189847,-2.379088233291387,0.8057255744934082,-0.3023921251296997,-0.15715107321739197,0.05495229363441467,-0.9984070062637329,0.01279672421514988,-0.015309952199459076,0.5684601068496704,0.05133616924285889
1.510131918525803,1.9138173502424727,-2.4965641340167237,0.7344884276390076,-0.3022507429122925,-0.2636445462703705,0.057098109275102615,-0.9981604814529419,0.02039199322462082,-0.05598419904708862,0.5175085067749023,0.05489504337310791
1.50482548003909,1.9904524219123194,-2.576994673025128,0.5944221019744873,-0.42102372646331787,-0.32695719599723816,0.06020558625459671,-0.9978247284889221,0.02686133235692978,-0.05315600335597992,0.4789036512374878,0.09404957294464111
1.4997717109499498,2.0380320456801124,-2.628394527553566,0.4766148328781128,-0.28352442383766174,-0.26921865344047546,0.06336017698049545,-0.9974787831306458,0.031964778900146484,-0.05110735446214676,0.476513147354126,0.04757952317595482
1.495992628380942,2.0746369602411434,-2.667218958801536,0.37821128964424133,-0.15783601999282837,-0.12949219346046448,0.06544914841651917,-0.997203528881073,0.036082103848457336,-0.03209342062473297,0.49981266260147095,0.045293211936950684
1.4938472312990365,2.108964138776397,-2.703165310933613,0.31076812744140625,-0.14979325234889984,0.027769917622208595,0.06600867211818695,-0.997040867805481,0.039403337985277176,0.015961557626724243,0.5016641616821289,0.05224120616912842
1.4930595773474005,2.1472055236028,-2.7429975116399135,0.2968680262565613,-0.13055378198623657,0.15903259813785553,0.0651123970746994,-0.9969800114631653,0.04232620447874069,0.040814146399497986,0.45459097623825073,0.03770637512207031
1.4931275169516216,2.1913786841613287,-2.7883862847486847,0.27151617407798767,-0.08945727348327637,0.24401192367076874,0.06312455981969833,-0.9969853162765503,0.045120708644390106,0.028672337532043457,0.40424227714538574,0.0260770320892334
1.4937220426293472,2.236718402855992,-2.834526450220892,0.22683951258659363,-0.03308480978012085,0.2674783766269684,0.060548197478055954,-0.9970312714576721,0.04756896570324898,0.0036302953958511353,0.36144155263900757,0.03571367263793945
1.494393644483422,2.27774427551361,-2.8754111506673166,0.1641658991575241,0.08683443069458008,0.22900508344173431,0.0580383725464344,-0.9970827102661133,0.04957844689488411,-0.04641115665435791,0.30737006664276123,0.032941341400146484
1.4952736255034338,2.3074079050309306,-2.9040523191819516,0.0352712944149971,0.1199369877576828,0.19485031068325043,0.05589288845658302,-0.9971495270729065,0.05068899318575859,-0.06755058467388153,0.25769317150115967,0.0717325210571289
1.497167285237398,2.32206757963877,-2.917442763847546,-0.14510972797870636,0.15052181482315063,0.22900202870368958,0.053763046860694885,-0.9972906112670898,0.0502132773399353,-0.04666769504547119,0.2278202772140503,0.12240958213806152
1.5007787221883397,2.326036850723101,-2.919489325619899,-0.3230687975883484,0.23271390795707703,0.32057082653045654,0.05094001069664955,-0.9975497722625732,0.047956619411706924,0.002618357539176941,0.2078005075454712,0.1546039581298828
1.5062493476421472,2.322653923943516,-2.9135755011992224,-0.47845879197120667,0.2592592239379883,0.4187180995941162,0.047114819288253784,-0.9979175925254822,0.0440557599067688,0.04921392723917961,0.17923766374588013,0.17841768264770508
1.513283725469642,2.312896923990938,-2.901432218032488,-0.5712904930114746,0.20174825191497803,0.5069603323936462,0.0423685722053051,-0.9983466267585754,0.038849812000989914,0.07953391969203949,0.1454564332962036,0.17610085010528564
1.5213284616543172,2.303486260992982,-2.890432064507692,-0.5827299952507019,0.10650135576725006,0.6044062972068787,0.03676135838031769,-0.9987767338752747,0.033076897263526917,0.1029786467552185,0.11672699451446533,0.14305543899536133
1.5298501716258193,2.3083005797603056,-2.894692260452432,-0.5193891525268555,0.005898579023778439,0.6758893132209778,0.030301501974463463,-0.9991618394851685,0.027529623359441757,0.10866031050682068,0.08963096141815186,0.10865533351898193
1.5380591229585856,2.3454901453376316,-2.932328023053998,-0.39707720279693604,-0.08944020420312881,0.6949496269226074,0.023397721350193024,-0.999464213848114,0.022902091965079308,0.08040785044431686,0.06376439332962036,0.07412875443696976
1.5450027933960346,2.441020373165114,-3.0290948833412314,-0.22739069163799286,-0.13945171236991882,0.6565449237823486,0.016631973907351494,-0.9996673464775085,0.019723255187273026,0.04017651081085205,0.04179662466049194,0.030936123803257942
1.5496523314776682,2.6270351306342588,3.0666834844533803,-0.02818210795521736,-0.1192486584186554,0.5876500606536865,0.010410947725176811,-0.9997764825820923,0.018414802849292755,0.004283295013010502,0.013188719749450684,-0.018429873511195183
1.5511702293390328,2.889578325183444,2.8031498969935384,0.14253157377243042,-0.06662965565919876,0.5161111950874329,0.00489619467407465,-0.9998074173927307,0.019015183672308922,-0.01687432825565338,-0.014444530010223389,-0.055498719215393066
1.5497351874451386,3.1401592712463167,2.5520384786962516,0.25921615958213806,-0.03353247791528702,0.45525306463241577,3.0200706532923505e-05,-0.9997782111167908,0.021069524809718132,-0.022552162408828735,-0.02397984266281128,-0.05239558219909668
1.5464364585158104,-2.969083588587276,2.377740869970461,0.3144157826900482,-0.03102218359708786,0.3820907175540924,-0.004181962925940752,-0.9997032880783081,0.02400103583931923,-0.029692530632019043,-0.03562086820602417,-0.02090335078537464
1.5426369662953445,-2.8691789320309056,2.27757078535949,0.29945045709609985,-0.012239680625498295,0.29565608501434326,-0.007577960845082998,-0.9996035695075989,0.02712629735469818,-0.030706331133842468,-0.0737152099609375,0.011402372270822525
1.5393540469561224,-2.8106999774950987,2.2189529009458946,0.21485699713230133,-0.015151580795645714,0.2336752861738205,-0.010216721333563328,-0.9995057582855225,0.02974104881286621,-0.022498100996017456,-0.10784006118774414,0.03758097067475319
1.537071624909655,-2.7651776165938693,2.17320673341627,0.10492256283760071,-0.018962275236845016,0.20538058876991272,-0.012396643869578838,-0.9994313716888428,0.031363122165203094,-0.013192340731620789,-0.10380971431732178,0.06112062931060791
1.5357876884279917,-2.71515848346658,2.1231384414368373,-0.004449998028576374,0.02373538538813591,0.2126036137342453,-0.014479394070804119,-0.999387264251709,0.031871020793914795,0.0005176225677132607,-0.08990728855133057,0.06448841094970703
1.535327442276498,-2.6490405144390667,2.0577347703030853,-0.11404247581958771,0.13058005273342133,0.2439262419939041,-0.016771405935287476,-0.9993710517883301,0.03125082328915596,0.01036272943019867,-0.08623087406158447,0.043837904930114746
1.535363989887614,-2.5587093795781857,1.9692310513991964,-0.20596307516098022,0.23906126618385315,0.28685104846954346,-0.019503433257341385,-0.9993723630905151,0.029582157731056213,0.015169946476817131,-0.08479541540145874,0.02600574865937233
1.5355105368934892,-2.448524303630014,1.8617113446660796,-0.2585909962654114,0.2972758710384369,0.3000650405883789,-0.022542042657732964,-0.9993775486946106,0.027142487466335297,0.012791678309440613,-0.07587897777557373,0.01161503791809082
1.5353504616149007,-2.332436083852042,1.7484724077518887,-0.25358426570892334,0.2727009952068329,0.3042778968811035,-0.025648994371294975,-0.9993718862533569,0.024458300322294235,0.0047139376401901245,-0.06415057182312012,-0.007276654243469238
1.5344667224545692,-2.2284813717375873,1.6468252981690772,-0.17824749648571014,0.19500590860843658,0.30160799622535706,-0.02874857932329178,-0.9993401765823364,0.022205466404557228,0.0022288132458925247,-0.056842803955078125,-0.017719151452183723
1.5328085250035468,-2.155785915107161,1.5754925823143073,-0.05367840453982353,0.07902710884809494,0.27169135212898254,-0.03166549652814865,-0.9992785453796387,0.02097279578447342,-0.0006373338401317596,-0.0686841607093811,-0.022178055718541145
1.5306573272848147,-2.1248395177394324,1.544497235727473,0.08518330752849579,-0.09101357311010361,0.21836642920970917,-0.034128643572330475,-0.9991945624351501,0.021114781498908997,-0.012151241302490234,-0.07998347282409668,-0.027889490127563477
1.5283157382646215,-2.1344751400637727,1.552439402349104,0.21477805078029633,-0.24107390642166138,0.14227458834648132,-0.03590083867311478,-0.9990978240966797,0.022692425176501274,-0.025119051337242126,-0.07530415058135986,-0.026110172271728516
1.526128950388674,-2.1753375562525865,1.5904801373944408,0.29555630683898926,-0.3193404972553253,0.03416642174124718,-0.036741338670253754,-0.9990025758743286,0.02538181096315384,-0.04474058747291565,-0.07013511657714844,-0.02248239517211914
1.5244129070235104,-2.2370219856954225,1.6489512815992413,0.32848548889160156,-0.32166728377342224,-0.07368973642587662,-0.0364534817636013,-0.9989244937896729,0.02865714207291603,-0.0694272518157959,-0.0735396146774292,-0.018738746643066406
1.5231229725773683,-2.3080850606235446,1.7171269467367252,0.3164989948272705,-0.2603916823863983,-0.13247644901275635,-0.03528192639350891,-0.9988638162612915,0.03204058110713959,-0.0668298751115799,-0.06703907251358032,-0.014492746442556381
1.5220460931268127,-2.373678782045653,1.780618044340915,0.26478812098503113,-0.1722000390291214,-0.13199254870414734,-0.03385284170508385,-0.9988119602203369,0.03505781665444374,-0.043631285429000854,-0.05068773031234741,-0.003853440284729004
1.5212002711694048,-2.422703110068899,1.8283871730479626,0.17155542969703674,-0.09260137379169464,-0.09598782658576965,-0.03265097737312317,-0.9987703561782837,0.037310920655727386,-0.01898476481437683,-0.03399038314819336,0.01133430004119873
1.520710455290635,-2.4483980757437283,1.853356571725778,0.06157592684030533,-0.06642010807991028,-0.029250342398881912,-0.03199305385351181,-0.9987459778785706,0.038512393832206726,0.006907615810632706,-0.025881826877593994,0.03778183087706566
1.520602000696411,-2.4507606024322177,1.85498167601267,-0.03168756142258644,-0.08195216953754425,0.02898613177239895,-0.03196948394179344,-0.998740553855896,0.03866952285170555,0.02231067791581154,-0.020683884620666504,0.05749153718352318
1.5207462214658791,-2.4368173274402056,1.8401030483552736,-0.08283010870218277,-0.09893728792667389,0.06183435767889023,-0.032412830740213394,-0.9987477660179138,0.038111016154289246,0.020877201110124588,-0.013611912727355957,0.05606639012694359
1.5210605241355977,-2.416746801342479,1.818910147064934,-0.097618967294693,-0.1173916608095169,0.0504244863986969,-0.03296278044581413,-0.9987634420394897,0.03721756115555763,0.00641249492764473,-0.006256759166717529,0.034819360822439194
1.521602136920779,-2.400208821924525,1.8011504547449866,-0.09600775688886642,-0.11995255947113037,0.00227746507152915,-0.03321018069982529,-0.9987902045249939,0.03627029433846474,-0.018211930990219116,-0.007664382457733154,0.01318371295928955
1.5224386785281505,-2.3945819942865145,1.7944273147110592,-0.07230816036462784,-0.09813622385263443,-0.06622469425201416,-0.03284535929560661,-0.9988309741020203,0.035469070076942444,-0.037573933601379395,-0.013940751552581787,-0.0038527250289916992
1.5235142350472226,-2.402504589871022,1.8014791565598467,-0.03856191784143448,-0.07812176644802094,-0.12393113970756531,-0.031838711351156235,-0.9988824129104614,0.03493313491344452,-0.040121715515851974,-0.010455965995788574,-0.018911127001047134
1.5245782482596362,-2.4226200910799713,1.8209170593191384,-0.0015273471362888813,-0.06106875091791153,-0.15307871997356415,-0.030430462211370468,-0.9989321231842041,0.034767668694257736,-0.03269514441490173,0.002365291118621826,-0.0243762768805027
1.5254108226225764,-2.452242951107969,1.8501000200264426,0.030596233904361725,-0.03038300946354866,-0.15280547738075256,-0.028860624879598618,-0.9989702701568604,0.03501468524336815,-0.02173750475049019,0.00946807861328125,-0.03173386678099632
1.5260028072678922,-2.484598246635247,1.8822781363764016,0.02623145468533039,-0.00939114484935999,-0.13731862604618073,-0.027351627126336098,-0.998996913433075,0.03546171635389328,-0.009071100503206253,0.011814117431640625,-0.029068108648061752
1.5265924576198908,-2.5129035901925247,1.9106878210064895,-0.0037139286287128925,0.027834255248308182,-0.12433384358882904,-0.025989370420575142,-0.9990231394767761,0.03574344143271446,0.0012854039669036865,0.017654001712799072,-0.010596752166748047
1.5273361003660537,-2.5323221488900582,1.9305733839739583,-0.044133786112070084,0.058578040450811386,-0.10100852698087692,-0.02486443892121315,-0.9990557432174683,0.03563090041279793,-0.0021283458918333054,0.021302998065948486,-0.0005049742758274078
1.5282773614568774,-2.5394367544026273,1.9381974764743244,-0.08381195366382599,0.035451147705316544,-0.08346468955278397,-0.024076517671346664,-0.9990962147712708,0.03503025323152542,0.002897340804338455,0.015880882740020752,0.008777972310781479
1.5294339976414668,-2.538113960474697,1.937058329409481,-0.10858867317438126,0.0020324569195508957,-0.08145584911108017,-0.023468326777219772,-0.9991446733474731,0.034048788249492645,0.005813928321003914,0.00860506296157837,0.013070579618215561
1.5308068380699453,-2.5347116936660927,1.9336081548605404,-0.11755606532096863,-0.014392590150237083,-0.09168185293674469,-0.02280302345752716,-0.9992005228996277,0.03284383565187454,0.0005557090044021606,0.008813440799713135,0.007729530334472656
