attitudeX,attitudeY,attitudeZ,gyroX,gyroY,gyroZ,gravityX,gravityY,gravityZ,accX,accY,accZ
1.2193045667665658,-0.6480773773328863,0.6008948883640253,0.338670015335083,-0.1759287267923355,-0.017297426238656044,-0.20783758163452148,-0.9388601183891296,-0.2744907736778259,0.009656429290771484,0.009218454360961914,0.05883824825286865
1.2217922568141013,-0.6548929167032393,0.6062391130566259,0.25973767042160034,-0.1692657768726349,0.004729578737169504,-0.2082802802324295,-0.9397137761116028,-0.2712145745754242,0.02819603681564331,-0.012587249279022217,0.09897327423095703
1.2234501688048656,-0.6606136376913246,0.6105891824253197,0.18012642860412598,-0.15674957633018494,0.026495838537812233,-0.20887227356433868,-0.9402794241905212,-0.26878821849823,0.026026219129562378,-0.01919323205947876,0.10576331615447998
1.2243844174459106,-0.6655450494954135,0.6140736940472109,0.12208735942840576,-0.17519064247608185,0.04055599495768547,-0.20965267717838287,-0.9405969977378845,-0.26706379652023315,0.023190289735794067,-0.019165515899658203,0.09601271152496338
1.2248821556509395,-0.6701603058797985,0.6169390132579511,0.0958063080906868,-0.2054450809955597,0.04849392920732498,-0.21059226989746094,-0.940765917301178,-0.2657265067100525,0.01692768931388855,-0.02777045965194702,0.06679761409759521
1.2252582712687046,-0.6750219824123234,0.6198114252743937,0.09948333352804184,-0.22792749106884003,0.057654134929180145,-0.2116604745388031,-0.9408933520317078,-0.2644232213497162,0.006643354892730713,-0.03104579448699951,0.024707525968551636
1.2257437759709509,-0.6807394363837082,0.6233359045844786,0.14048460125923157,-0.25916439294815063,0.06514700502157211,-0.21288126707077026,-0.9410576820373535,-0.2628536820411682,-0.004815846681594849,-0.015790462493896484,-0.018671035766601562
1.2266823554651363,-0.6881803310481718,0.6281239300020441,0.2159561812877655,-0.33356592059135437,0.06744159013032913,-0.21427008509635925,-0.9413747191429138,-0.2605799436569214,-0.016442805528640747,-0.004380226135253906,-0.05520075559616089
1.2283249155069615,-0.6984837913183662,0.6349554434439257,0.3345399498939514,-0.4378739893436432,0.07795406877994537,-0.21594887971878052,-0.9419276118278503,-0.25717392563819885,-0.017724215984344482,-0.002087831497192383,-0.08592003583908081
1.2309090606832593,-0.7125431548059799,0.6446790854924066,0.47704383730888367,-0.5340282320976257,0.0800102949142456,-0.21795117855072021,-0.9427922368049622,-0.2522698938846588,-0.013570457696914673,0.0019811391830444336,-0.10731875896453857
1.234578593568477,-0.7302276695502435,0.6574497811306519,0.6254464983940125,-0.5824059247970581,0.06702179461717606,-0.22006894648075104,-0.9440092444419861,-0.24579712748527527,-0.02185913920402527,0.0031371116638183594,-0.1160651445388794
1.239392466578219,-0.7504832535928039,0.6728001596759529,0.7547182440757751,-0.556114673614502,0.02390442229807377,-0.22190040349960327,-0.9455865025520325,-0.2379630208015442,-0.03107506036758423,0.005492508411407471,-0.11572051048278809
1.2452637483506699,-0.772021358954282,0.6900396409492128,0.8531322479248047,-0.48170265555381775,-0.03332430124282837,-0.22309695184230804,-0.9474805593490601,-0.22914689779281616,-0.037752047181129456,0.011033475399017334,-0.10686694085597992
1.2520475436899487,-0.7940753735010014,0.7086642745039596,0.9312393069267273,-0.39121800661087036,-0.08742988109588623,-0.22350667417049408,-0.9496282935142517,-0.21966111660003662,-0.04927468299865723,0.008054137229919434,-0.08803242444992065
1.2594726824984117,-0.8168473136422542,0.7288040410536821,0.9886255860328674,-0.3366115987300873,-0.11463085561990738,-0.22330409288406372,-0.951928973197937,-0.20968253910541534,-0.048729658126831055,0.003717184066772461,-0.06641009449958801
1.267211403610503,-0.8409324646754021,0.7507014556403938,1.0247453451156616,-0.3086385726928711,-0.12735304236412048,-0.22279202938079834,-0.9542709589004517,-0.19932587444782257,-0.03465428948402405,0.00482332706451416,-0.0448300838470459
1.2750372731121584,-0.8665122454835166,0.7742977895778769,1.044265627861023,-0.292106956243515,-0.13561755418777466,-0.2221192568540573,-0.956581175327301,-0.18872104585170746,-0.029467731714248657,-0.00299835205078125,-0.032562047243118286
1.2828104213903397,-0.8934792037278931,0.7995860949482284,1.058058500289917,-0.2565758526325226,-0.13329528272151947,-0.22132590413093567,-0.9588178396224976,-0.17799775302410126,-0.027697503566741943,0.000962674617767334,-0.029628634452819824
1.2904860406036747,-0.9219264643043992,0.8268647419768307,1.0909812450408936,-0.18411046266555786,-0.1294611096382141,-0.22042861580848694,-0.9609696269035339,-0.16717806458473206,-0.03417953848838806,0.02426314353942871,-0.028409123420715332
1.2982199145180602,-0.9527782171089891,0.8573302619946664,1.1644195318222046,-0.13042593002319336,-0.13671688735485077,-0.2194167524576187,-0.9630804657936096,-0.15598802268505096,-0.03580173850059509,0.049689412117004395,-0.03348040580749512
1.3065980050438923,-0.9881425728200057,0.8923507786554227,1.317008376121521,-0.2025192230939865,-0.20915302634239197,-0.21804939210414886,-0.9653021693229675,-0.14368756115436554,-0.04348629713058472,0.0699622631072998,-0.03563380241394043
1.316654133626561,-1.031073830404086,0.9337652282678434,1.5425091981887817,-0.3901330828666687,-0.3694950342178345,-0.21567672491073608,-0.9678792953491211,-0.12920168042182922,-0.08765272796154022,0.07957375049591064,-0.04046081006526947
1.3290434765686892,-1.084333845655752,0.9835374268001948,1.7849513292312622,-0.6013680100440979,-0.5912508368492126,-0.21163181960582733,-0.9709198474884033,-0.11192206293344498,-0.13269798457622528,0.0633271336555481,-0.03317379206418991
1.3436391907874068,-1.148330770844591,1.0425070173802826,1.9293614625930786,-0.7088931202888489,-0.8141006827354431,-0.20540882647037506,-0.974310576915741,-0.09233806282281876,-0.15549206733703613,0.043676912784576416,-0.003929741680622101
1.359137785077127,-1.221068484969323,1.1096850029020016,1.9106110334396362,-0.711403489112854,-0.9395840764045715,-0.19736506044864655,-0.9776838421821594,-0.07198300212621689,-0.13524606823921204,0.044273197650909424,0.0540844202041626
1.374017385518349,-1.2982642655123147,1.1815312126870796,1.7482000589370728,-0.6426917910575867,-0.9867398738861084,-0.18829606473445892,-0.9807014465332031,-0.052626121789216995,-0.11735278367996216,0.059467196464538574,0.13000339269638062
1.3875562964916939,-1.3747740779513908,1.2534963967789172,1.5050396919250488,-0.5149950981140137,-1.0044031143188477,-0.17872624099254608,-0.9832584857940674,-0.03549005463719368,-0.10185237228870392,0.07322436571121216,0.1967906355857849
1.3996124429985624,-1.4457786764761666,1.321120523326907,1.2188791036605835,-0.3722238540649414,-0.9834060072898865,-0.1690194457769394,-0.9853838086128235,-0.021241191774606705,-0.0725729763507843,0.10057240724563599,0.2307901382446289
1.4103118075483592,-1.5083307602480087,1.381370946464565,0.9643192887306213,-0.2562693655490875,-0.9567655920982361,-0.15948408842086792,-0.9871499538421631,-0.009975241497159004,-0.05450516939163208,0.10922044515609741,0.23910117149353027
1.4202053445649188,-1.5641715811364765,1.435597233354024,0.7821292281150818,-0.2042703628540039,-0.958407998085022,-0.1500190943479538,-0.9886825680732727,-0.0009938528528437018,-0.06046062707901001,0.10782325267791748,0.23681843280792236
1.429713850875846,-1.6158854809147982,1.485845056901107,0.6423515677452087,-0.19543199241161346,-0.9607371687889099,-0.14047151803970337,-0.9900643825531006,0.006338038016110659,-0.06329436600208282,0.11828404664993286,0.22474098205566406
1.4389871405872696,-1.6647404088936273,1.5334884276862888,0.5236116051673889,-0.12890037894248962,-0.9735024571418762,-0.13084742426872253,-0.9913257360458374,0.012328632175922394,-0.03365756571292877,0.15125322341918945,0.19903600215911865
1.4481237196075405,-1.7106904760583947,1.5788501255945113,0.3971456289291382,-0.06904260814189911,-0.9582172632217407,-0.12116901576519012,-0.9924851655960083,0.017062287777662277,0.031081125140190125,0.15300774574279785,0.17754817008972168
1.4566785225246095,-1.7499847106658883,1.6181516748734082,0.24560722708702087,0.025402402505278587,-0.8668612241744995,-0.11204803735017776,-0.9934956431388855,0.020295390859246254,0.08603174984455109,0.10866886377334595,0.1742846965789795
1.46436644310183,-1.778992155448102,1.6483282837897013,0.10466980189085007,0.16771788895130157,-0.7674703001976013,-0.10393412411212921,-0.9943416714668274,0.02195681445300579,0.05129130184650421,0.14371007680892944,0.1592106819152832
1.4715055488679536,-1.7944611865381834,1.66607932985757,-0.05959450453519821,0.26114851236343384,-0.7094852924346924,-0.09665906429290771,-0.9950746893882751,0.021987106651067734,-0.027074456214904785,0.22438383102416992,0.1520240306854248
1.4788640173794296,-1.7941903050489751,1.6687918970241271,-0.2143351137638092,0.33034369349479675,-0.745353639125824,-0.08952099829912186,-0.9957771897315979,0.020337902009487152,-0.07496878504753113,0.2715188264846802,0.15335285663604736
1.487086475165453,-1.7772759298079488,1.6556652053881165,-0.3668985664844513,0.4458068907260895,-0.8066412210464478,-0.08183717727661133,-0.9964983463287354,0.01714201271533966,-0.07810544967651367,0.25452446937561035,0.14714932441711426
1.4959588236133576,-1.736232199026259,1.6199206333905274,-0.5171071290969849,0.6369361877441406,-0.8119499683380127,-0.07374762743711472,-0.9972009658813477,0.012313040904700756,-0.04159355163574219,0.25084781646728516,0.1329200267791748
1.504380813471031,-1.6586441936351428,1.549066209118762,-0.6835038661956787,0.7209879755973816,-0.7172940373420715,-0.06610959768295288,-0.9977952837944031,0.005822572857141495,0.02198115736246109,0.2898181080818176,0.12567758560180664
1.5109996411396571,-1.5361753050322258,1.4331926695697723,-0.8124226927757263,0.6021711826324463,-0.5568720102310181,-0.05972584709525108,-0.9982126951217651,-0.002068596426397562,0.0827360451221466,0.34197795391082764,0.13247013092041016
1.5147517249001097,-1.3757577934725014,1.2771745267169399,-0.8659570217132568,0.33164116740226746,-0.39675983786582947,-0.054953400045633316,-0.9984298944473267,-0.01085603516548872,0.10562783479690552,0.42621010541915894,0.09996730089187622
1.5158287687396923,-1.2181363954972404,1.1212981250740912,-0.7200361490249634,0.06926006078720093,-0.27877503633499146,-0.05155711993575096,-0.9984896779060364,-0.018975380808115005,0.12385324388742447,0.5010227560997009,-0.011908469721674919
1.5154205055880803,-1.102258303857393,1.0045448843869869,-0.500023365020752,-0.21123339235782623,-0.16563169658184052,-0.04938149452209473,-0.9984671473503113,-0.02499336004257202,0.15822240710258484,0.49440842866897583,-0.07692015171051025
1.514674594024609,-1.0318183924977604,0.9304555968401935,-0.32481542229652405,-0.477500855922699,-0.1180369034409523,-0.04813866317272186,-0.9984256029129028,-0.02878890186548233,0.14921289682388306,0.4454319477081299,-0.09434962272644043
1.5143414162479325,-0.9880749452840932,0.8814599331212566,-0.18733319640159607,-0.5195745229721069,-0.1228010356426239,-0.04711354151368141,-0.9984068274497986,-0.03105088323354721,0.09017381072044373,0.42115163803100586,-0.11685264110565186
1.5149172877215193,-0.9574138035542136,0.8462867595225632,-0.07861088961362839,-0.35969772934913635,-0.20833298563957214,-0.04566797614097595,-0.9984391927719116,-0.032148685306310654,0.02239832654595375,0.4210161566734314,-0.1581132411956787
1.5169958000942074,-0.922726711210453,0.8086971029318901,-0.01636296510696411,-0.21438689529895782,-0.3802695870399475,-0.04286959394812584,-0.9985530972480774,-0.03245926648378372,-0.045112572610378265,0.4144773483276367,-0.16851431131362915
1.5208609488298757,-0.8668035809959785,0.7511387834300148,0.029593970626592636,-0.07852376997470856,-0.5938805341720581,-0.03804977238178253,-0.9987534880638123,-0.03230946511030197,-0.09161940217018127,0.4130142331123352,-0.1539241075515747
1.5257140939313927,-0.7634814968511022,0.6491144746675309,-0.1178913563489914,0.28562888503074646,-0.7613560557365417,-0.031161325052380562,-0.9989839792251587,-0.03255806490778923,-0.03266620635986328,0.4605928659439087,-0.08069276809692383
1.5288477172832338,-0.5718921310705358,0.46004809899344,-0.39356687664985657,0.27291396260261536,-0.8935903906822205,-0.02269672602415085,-0.99912029504776,-0.035263001918792725,0.09253615140914917,0.47043377161026,0.07199084758758545
1.5286906849859745,-0.33137144005658686,0.22225337608877827,-0.47758641839027405,0.2971615195274353,-0.8609523177146912,-0.013695025816559792,-0.9991136789321899,-0.03980441763997078,0.03501152992248535,0.46182119846343994,-0.02489292621612549
1.5260495484878296,-0.12852514968780482,0.021472603944763826,-0.41035324335098267,0.12529388070106506,-0.6960841417312622,-0.005733775906264782,-0.9989990592002869,-0.044366177171468735,0.12559157609939575,0.5289824604988098,-0.16576266288757324
1.5232022894235493,-0.0011221830395960596,-0.10633241189170878,-0.21234269440174103,-0.18393293023109436,-0.43108952045440674,-5.338692426448688e-05,-0.9988676309585571,-0.04757414758205414,0.15079495310783386,0.5745360255241394,-0.28807348012924194
1.5224916831563107,0.0538148345469083,-0.1646557766212789,0.09247160702943802,-0.46974632143974304,-0.13277705013751984,0.0025972521398216486,-0.9988335371017456,-0.04821615293622017,0.16415080428123474,0.5996636152267456,-0.3932054042816162
1.525088753330743,0.05096888094919138,-0.16765670814761857,0.42825043201446533,-0.687740683555603,0.12456981092691422,0.0023277720902115107,-0.9989556074142456,-0.04563090205192566,0.1563025712966919,0.6254968047142029,-0.4691091775894165
1.5311295223912258,-0.0042633838782939705,-0.12000170824222565,0.7613494396209717,-0.8127373456954956,0.29567673802375793,-0.00016905809752643108,-0.9992133975028992,-0.03965326398611069,0.12159848213195801,0.6358407139778137,-0.5106092691421509
1.5400277862275933,-0.11843171899295794,-0.013912832527856965,1.0428080558776855,-0.8007238507270813,0.3184632658958435,-0.0036347564309835434,-0.9995266795158386,-0.030547110363841057,0.0959962010383606,0.6513822078704834,-0.517243504524231
1.550597060305499,-0.35600095805377907,0.21569908611129798,1.2781773805618286,-0.8263189196586609,0.3642925024032593,-0.00703631155192852,-0.9997959733009338,-0.018922748044133186,0.10159504413604736,0.6776984333992004,-0.48098576068878174
1.5586140435247084,-1.1153927309413076,0.9658554648347888,1.3909292221069336,-1.0280365943908691,0.34104123711586,-0.010942594148218632,-0.9999257922172546,-0.005358994007110596,0.018709272146224976,0.6726552844047546,-0.3897063732147217
1.555406754039088,-2.1851510804744754,2.025698099109229,1.3978197574615479,-0.9170250296592712,-0.04812496155500412,-0.012572534382343292,-0.9998815655708313,0.008868926204741001,-0.049637556076049805,0.7787207365036011,-0.316577672958374
1.54709697458103,-2.7316758276314275,2.5641089111084034,1.1102758646011353,-0.7383245229721069,-0.5377159714698792,-0.00944339670240879,-0.9997192025184631,0.021732322871685028,-0.01709166169166565,0.8400207757949829,-0.21109402179718018
1.540131588662147,-3.0724820161837094,2.8985035353253332,0.6301325559616089,-0.5481904149055481,-0.8712010979652405,-0.0021171921398490667,-0.9995298981666565,0.030586032196879387,-0.030231446027755737,0.805697500705719,-0.0058211106806993484
1.5360360910056587,2.916216512131046,-3.094299219799164,0.009350236505270004,-0.29228830337524414,-1.052039384841919,0.007766613736748695,-0.9993959069252014,0.03387521952390671,0.004974454641342163,0.7239595055580139,0.1610558032989502
1.5352780801001913,2.5997251717273393,-2.7789663480225424,-0.7076040506362915,0.033644914627075195,-1.0075221061706543,0.01831221953034401,-0.9993692636489868,0.030420437455177307,0.12190079689025879,0.6731060147285461,0.26173949241638184
1.5375714219347505,2.2041583912203957,-2.3812917106085965,-1.4362574815750122,0.3124203681945801,-0.6508715748786926,0.02677418850362301,-0.9994481205940247,0.01965966448187828,0.24869272112846375,0.6264013051986694,0.28478360176086426
1.5401418077381317,1.6401302733512921,-1.813831239592454,-2.0641894340515137,0.2714705765247345,-0.10262802988290787,0.030574752017855644,-0.9995301961898804,0.002123271580785513,0.3263130784034729,0.5930207967758179,0.255124568939209
1.5350999126855454,0.942320466396908,-1.1141411981003306,-2.5335257053375244,0.02487890236079693,0.43051818013191223,0.02886919490993023,-0.9993629455566406,-0.02098163776099682,0.2993168532848358,0.5752296447753906,0.1538550853729248
1.5179052436063587,0.43822400956144686,-0.610530558794425,-2.8000824451446533,-0.2040499746799469,0.8261010646820068,0.022432714700698853,-0.9986016154289246,-0.04787047579884529,0.19987255334854126,0.5547234416007996,-0.04862618446350098
1.493274484933733,0.1683341968608291,-0.34285163377557576,-2.8586819171905518,-0.3355241119861603,0.9928133487701416,0.01297468226402998,-0.9969967007637024,-0.07634751498699188,0.07833388447761536,0.5398588180541992,-0.2737044095993042
1.4657668751877402,0.027986139190746908,-0.20575483006291242,-2.82478928565979,-0.3937770426273346,0.9220845103263855,0.0029335434082895517,-0.9944894909858704,-0.10479392856359482,-0.0219917893409729,0.5104808807373047,-0.43039289116859436
1.4377596603934506,-0.042703668550043504,-0.1377008319220749,-2.752087354660034,-0.2176923155784607,0.7217577695846558,-0.005662673152983189,-0.9911636710166931,-0.1325232833623886,-0.08505085110664368,0.4583420753479004,-0.49436885118484497
1.4097778196109554,-0.07606947293281491,-0.10523173091240136,-2.7797939777374268,-0.03397742286324501,0.5719166398048401,-0.012183941900730133,-0.9870644807815552,-0.1598595529794693,-0.06310293078422546,0.3484690189361572,-0.42819899320602417
1.380665224543396,-0.09333556964891082,-0.08718073378162383,-2.969074010848999,0.12932442128658295,0.5647002458572388,-0.017613610252738,-0.981979489326477,-0.18816442787647247,0.005498113110661507,0.1996462345123291,-0.2778085172176361
1.3489108698909202,-0.10612776427259986,-0.07231437050067714,-3.2770557403564453,0.2069077491760254,0.6797738075256348,-0.023311672732234,-0.9754842519760132,-0.2188313901424408,0.03669360280036926,0.06342065334320068,-0.16761279106140137
1.3139665203818192,-0.11906469177636926,-0.056998659320495096,-3.5469229221343994,0.1628846377134323,0.8163889050483704,-0.030172908678650856,-0.9672001004219055,-0.25221744179725647,0.009207308292388916,-0.04049026966094971,-0.18528258800506592
1.2770236018983723,-0.13199923839497463,-0.042534324463811606,-3.63272762298584,0.03335609287023544,0.8632195591926575,-0.03811151906847954,-0.9571582674980164,-0.2870464324951172,-0.05063360556960106,-0.11312371492385864,-0.3326740562915802
1.2400746850730613,-0.14209391606906696,-0.032124945490213164,-3.5658206939697266,-0.061234328895807266,0.7562161087989807,-0.045986440032720566,-0.9458082318305969,-0.3214530646800995,-0.12297415733337402,-0.1713944673538208,-0.5150185823440552
1.2043088422786221,-0.1467404659729247,-0.027906027258631193,-3.451169490814209,-0.05912227928638458,0.5490157008171082,-0.05239425599575043,-0.9335917830467224,-0.35448741912841797,-0.16675248742103577,-0.2429676651954651,-0.6341448426246643
1.16996188603016,-0.14542187472770493,-0.029552748016751184,-3.3469879627227783,0.028151636943221092,0.3302956223487854,-0.05654194578528404,-0.9207357168197632,-0.38606852293014526,-0.14514875411987305,-0.3267923593521118,-0.658624529838562
1.136743585273864,-0.1392685516553394,-0.035279874284939165,-3.2766239643096924,0.15481802821159363,0.16154320538043976,-0.05838039889931679,-0.9072688221931458,-0.41647928953170776,-0.0849149227142334,-0.4348636865615845,-0.603418231010437
1.1042278787235928,-0.1303589501267584,-0.04281527629891034,-3.242070436477661,0.2646460235118866,0.0698401927947998,-0.058472663164138794,-0.8931171298027039,-0.44600751996040344,-0.009505242109298706,-0.5724284648895264,-0.4978860020637512
1.0717970666309706,-0.12040599294387712,-0.05053215398156992,-3.2696280479431152,0.3624899983406067,0.03531580790877342,-0.057480812072753906,-0.8780618906021118,-0.4750823676586151,0.03544709086418152,-0.7165730595588684,-0.3990021347999573
1.0388965435906794,-0.1101219710827905,-0.05744290400966066,-3.3157808780670166,0.4802107810974121,0.04699376970529556,-0.05573790892958641,-0.8618451356887817,-0.504099428653717,0.05367795005440712,-0.8310869336128235,-0.36301177740097046
1.0059561254578138,-0.10096818422115063,-0.062478457500226514,-3.2535364627838135,0.46593692898750305,0.1336914747953415,-0.05395454540848732,-0.8446741700172424,-0.5325546264648438,0.06510868668556213,-0.9254521131515503,-0.4076462984085083
0.9742817097496856,-0.09542360772722971,-0.0642264054903329,-3.0291147232055664,0.346769779920578,0.299428790807724,-0.05352408438920975,-0.8272985816001892,-0.5592067837715149,0.08764269948005676,-1.0047173500061035,-0.5104496479034424
0.9455423084781479,-0.09397445461160711,-0.062356567859276985,-2.639153242111206,0.25119471549987793,0.44948774576187134,-0.05492263659834862,-0.8108144402503967,-0.5827207565307617,0.10135510563850403,-1.0772470235824585,-0.6188326478004456
0.9209340525220309,-0.09532515981352242,-0.05771595807489901,-2.193272590637207,0.23783712089061737,0.5567377209663391,-0.05759173631668091,-0.7961671352386475,-0.6023297905921936,0.09122207760810852,-1.1587584018707275,-0.6578478813171387
0.9004743038061265,-0.09786343920378242,-0.050962441108958145,-1.7985153198242188,0.3308313488960266,0.6616233587265015,-0.06069951876997948,-0.7836216688156128,-0.6182658076286316,0.07879641652107239,-1.2418909072875977,-0.5977070927619934
0.8833213661937138,-0.10077698088548011,-0.042167609174423526,-1.5045521259307861,0.45591068267822266,0.7718774080276489,-0.06384363025426865,-0.7728508114814758,-0.6313679218292236,0.06451500207185745,-1.3055486679077148,-0.4541270136833191
0.8687037809271361,-0.10382637532855063,-0.03167409524768775,-1.2639573812484741,0.5300360918045044,0.8502082228660583,-0.06693239510059357,-0.7634924650192261,-0.6423388719558716,0.01059693843126297,-1.3686485290527344,-0.2953137159347534
0.8561196063090815,-0.10721062506282807,-0.020169486779979585,-1.0842825174331665,0.5328606367111206,0.8909718990325928,-0.07012845575809479,-0.7553051710128784,-0.6516103744506836,-0.0953226312994957,-1.440098762512207,-0.16554349660873413
0.8450141232301839,-0.11089728711412962,-0.00835634102913158,-0.9526892900466919,0.48581433296203613,0.8861187100410461,-0.07345405220985413,-0.7479804754257202,-0.6596435904502869,-0.21920952200889587,-1.5172629356384277,-0.07807308435440063
0.8352979634567831,-0.11515308240443417,0.002921287913292112,-0.7927952408790588,0.33354464173316956,0.823962390422821,-0.07709210366010666,-0.7414964437484741,-0.666513204574585,-0.34803304076194763,-1.6108441352844238,-0.056356728076934814
0.8277731531006088,-0.12053310885777425,0.013509510344975611,-0.5163790583610535,0.14962826669216156,0.7686657905578613,-0.08134543150663376,-0.7364267110824585,-0.6716089844703674,-0.44479289650917053,-1.6878132820129395,-0.12930959463119507
0.8236539717021817,-0.1274698138719338,0.023809005946517137,-0.11579517275094986,-0.015354827977716923,0.715193510055542,-0.08638709038496017,-0.7336337566375732,-0.674031674861908,-0.47664695978164673,-1.7102444171905518,-0.23398834466934204
0.8238625326309591,-0.13566863170034124,0.03406872143945852,0.3318271040916443,-0.112901471555233,0.6582096219062805,-0.09188969433307648,-0.7337754964828491,-0.6731491684913635,-0.4589526057243347,-1.6947827339172363,-0.290977418422699
0.8281084777222923,-0.14476656135419683,0.044305848175043475,0.6802133321762085,-0.20357385277748108,0.589812159538269,-0.09755974262952805,-0.7366535067558289,-0.669196367263794,-0.43803903460502625,-1.6582591533660889,-0.24524766206741333
0.835211910618555,-0.15429482136900427,0.0539992638611718,0.8968536257743835,-0.2546713054180145,0.4782659113407135,-0.10312467813491821,-0.7414387464523315,-0.6630489826202393,-0.4505404829978943,-1.6293803453445435,-0.12441140413284302
0.8440565104939413,-0.1627406000700526,0.062111203566435694,1.005296230316162,-0.21679477393627167,0.3035106062889099,-0.1076541543006897,-0.7473445534706116,-0.6556574106216431,-0.4757656455039978,-1.6386417150497437,-0.042050719261169434
0.8541325546989713,-0.1688193653103036,0.06789798258775279,1.1059931516647339,-0.1327120065689087,0.11670880764722824,-0.11036685854196548,-0.7540013790130615,-0.6475346088409424,-0.4925384223461151,-1.663921594619751,-0.06230431795120239
0.8659643904235278,-0.1727113768269887,0.07148827082137423,1.3118650913238525,-0.11499398946762085,-0.05083625391125679,-0.11134522408246994,-0.7617204785346985,-0.6382665634155273,-0.48255735635757446,-1.6591169834136963,-0.16996103525161743
0.8806317244171934,-0.17592170438320526,0.0737962624325406,1.6283392906188965,-0.17678184807300568,-0.15457376837730408,-0.1114262118935585,-0.7711412310600281,-0.6268376111984253,-0.4424983561038971,-1.6200177669525146,-0.3108302354812622
0.8987345354201879,-0.1800318196673031,0.07616811817719218,1.9695911407470703,-0.27995723485946655,-0.1878017634153366,-0.11148343980312347,-0.7825396656990051,-0.6125382781028748,-0.3672763407230377,-1.5488353967666626,-0.41242510080337524
0.9199641851399523,-0.18594451737568438,0.07928845768147715,2.2539851665496826,-0.4118388593196869,-0.2088964730501175,-0.11200617253780365,-0.7955799102783203,-0.5954050421714783,-0.30979254841804504,-1.4709453582763672,-0.446602463722229
0.9436419605511532,-0.19349068448290466,0.08290169789362302,2.453540325164795,-0.5035485625267029,-0.2603048086166382,-0.11284147948026657,-0.8097007274627686,-0.5758920311927795,-0.26862823963165283,-1.415442705154419,-0.44081640243530273
0.9691858542983566,-0.2015496407921596,0.08638417263287192,2.618213176727295,-0.5327832102775574,-0.35292547941207886,-0.11330049484968185,-0.824425220489502,-0.5545142889022827,-0.25020965933799744,-1.3878092765808105,-0.46429985761642456
0.9966815352648849,-0.20927423747151963,0.08913468868244123,2.815063953399658,-0.5486359596252441,-0.4718843698501587,-0.11282731592655182,-0.8396733999252319,-0.5312424898147583,-0.24364852905273438,-1.340456485748291,-0.5263746976852417
1.0265110073166968,-0.2163513606383167,0.09103553128305755,3.038849353790283,-0.5350114107131958,-0.5820313096046448,-0.11115627735853195,-0.8554975986480713,-0.5057352781295776,-0.21167391538619995,-1.2554185390472412,-0.6034566760063171
1.0585680390297236,-0.22320747989011702,0.09288297203447247,3.2312943935394287,-0.5217810869216919,-0.6159583926200867,-0.10849246382713318,-0.8716545701026917,-0.47796201705932617,-0.1474737524986267,-1.143680453300476,-0.6557354927062988
1.0922327398148914,-0.2316146326564935,0.09633274222422047,3.37304949760437,-0.5559914112091064,-0.5707032680511475,-0.1057085320353508,-0.8876572847366333,-0.4482077658176422,-0.0675855278968811,-1.0013349056243896,-0.6726418733596802
1.1268950342397848,-0.2434611753101468,0.10290264770711706,3.4734556674957275,-0.6320438385009766,-0.48878923058509827,-0.10352840274572372,-0.903083086013794,-0.41680067777633667,-0.0023523494601249695,-0.8566214442253113,-0.6800926923751831
1.1620178703055863,-0.25972226485211697,0.11346866014828032,3.5184295177459717,-0.6822288036346436,-0.41430458426475525,-0.10207990556955338,-0.9176070690155029,-0.3841573894023895,0.04730082303285599,-0.7346298098564148,-0.6875742673873901
1.197122674754237,-0.280277420940563,0.12831984228495902,3.522390127182007,-0.6713889241218567,-0.3660697042942047,-0.10097765922546387,-0.930992603302002,-0.35079383850097656,0.06949874758720398,-0.637366771697998,-0.7040920257568359
1.2319907222511888,-0.30524119189794596,0.14806013170627294,3.536353349685669,-0.6173093914985657,-0.32858091592788696,-0.0998820811510086,-0.9431523084640503,-0.31699705123901367,0.0820292979478836,-0.5520257949829102,-0.7569470405578613
1.2669806356078275,-0.33607329448886697,0.1742863783453619,3.611502170562744,-0.5674997568130493,-0.30463457107543945,-0.09865888953208923,-0.9542019367218018,-0.28242728114128113,0.09106001257896423,-0.45773959159851074,-0.843671441078186
1.3026804229462907,-0.3754940439950069,0.209642543132725,3.7574093341827393,-0.5335690975189209,-0.3149789571762085,-0.09715292602777481,-0.9642717242240906,-0.24645763635635376,0.0970308780670166,-0.35750555992126465,-0.946108341217041
1.3394518353438503,-0.42848273505848194,0.2586959976962448,3.9316906929016113,-0.553964376449585,-0.32349759340286255,-0.09526650607585907,-0.9733589887619019,-0.2085583209991455,0.08980384469032288,-0.23612892627716064,-1.0065295696258545
1.3766338164998728,-0.5047049440184443,0.3309212631230863,4.036006927490234,-0.5582043528556824,-0.285894513130188,-0.09329843521118164,-0.9812095761299133,-0.1688881367444992,0.11278387904167175,-0.1186286211013794,-0.9874076843261719
1.4122888240254177,-0.6197315699234329,0.44207091822362926,4.02703857421875,-0.5523427128791809,-0.2028622031211853,-0.0916786715388298,-0.9874639511108398,-0.12849079072475433,0.15172195434570312,-0.02028745412826538,-0.9138371348381042
1.443803897436912,-0.7979524022741961,0.6165718881735214,3.935467481613159,-0.5325822234153748,-0.11785069853067398,-0.09067321568727493,-0.9919472932815552,-0.08842466026544571,0.17610713839530945,0.06238192319869995,-0.837539792060852
1.4678602570098047,-1.0702088767771885,0.8854952643894922,3.823983669281006,-0.46800321340560913,-0.059150636196136475,-0.09014621376991272,-0.9947067499160767,-0.049315884709358215,0.17023959755897522,0.14650124311447144,-0.8078314065933228
1.4802341361758475,-1.4471583922811506,1.2601282389272834,3.7524118423461914,-0.32882872223854065,-0.05269249156117439,-0.0897468775510788,-0.9959020614624023,-0.011153006926178932,0.1472724974155426,0.2216559648513794,-0.8231366276741028
1.4777653402415412,-1.8590339989783866,1.6711465370091279,3.724208354949951,-0.18488910794258118,-0.08731012046337128,-0.08906376361846924,-0.9956757426261902,0.026406919583678246,0.11881840229034424,0.28145766258239746,-0.84922194480896
1.462058061324197,-2.1970549913114357,2.0095079772832176,3.7065367698669434,-0.08525138348340988,-0.1269710808992386,-0.08792873471975327,-0.9940938353538513,0.06360765546560287,0.08551779389381409,0.3634481430053711,-0.8548521995544434
1.4379174111751016,-2.430536944891354,2.2441664465789053,3.668334722518921,-0.024129170924425125,-0.15614788234233856,-0.08646665513515472,-0.9911845922470093,0.10038317739963531,0.06312066316604614,0.4596294164657593,-0.8362078666687012
1.4093641278694795,-2.5862558859807687,2.4013968205720544,3.621669054031372,-0.01172870583832264,-0.18849162757396698,-0.08474279940128326,-0.9869980812072754,0.13657790422439575,0.04000400751829147,0.5605301260948181,-0.807949423789978
1.3787341769699943,-2.693529991968051,2.51024087863873,3.552175283432007,-0.008113198913633823,-0.22478172183036804,-0.08269476890563965,-0.9816126823425293,0.1720413863658905,0.02037784457206726,0.6606898307800293,-0.7663254737854004
1.3474998748891562,-2.770765422693291,2.5891152204032504,3.439434289932251,-0.0012527229264378548,-0.27279090881347656,-0.08024869114160538,-0.975172758102417,0.20639291405677795,0.008272983133792877,0.740233302116394,-0.6977107524871826
1.3167819116231834,-2.8288701940676853,2.648848059736164,3.2636353969573975,-0.006793962325900793,-0.32829704880714417,-0.07730968296527863,-0.967911422252655,0.23910313844680786,-0.0015172511339187622,0.8082894086837769,-0.6090373396873474
1.2874054340007495,-2.8741097233704367,2.69578539922279,3.055227279663086,0.013855474069714546,-0.3771708607673645,-0.07390293478965759,-0.9601128101348877,0.2696693539619446,-0.0029098019003868103,0.8777307271957397,-0.5305641889572144
1.2597493235272152,-2.910108399155129,2.733820898653974,2.8296632766723633,0.05996464565396309,-0.41051816940307617,-0.07021588832139969,-0.9520136713981628,0.29789161682128906,0.0021922141313552856,0.9423855543136597,-0.47132307291030884
1.2340505056486932,-2.9387587835521765,2.7650089717536557,2.5982096195220947,0.121638722717762,-0.4148649275302887,-0.06656134128570557,-0.9438349008560181,0.3236442506313324,0.016314111649990082,0.997469425201416,-0.4218955934047699
1.2103275505935303,-2.96144758789302,2.790673884374554,2.379108428955078,0.1613302081823349,-0.3982657194137573,-0.0631963387131691,-0.9357315897941589,0.3470049798488617,0.03243459016084671,1.0348680019378662,-0.387257844209671
1.1884579044948873,-2.979558282755593,2.811846075051177,2.1813836097717285,0.15636177361011505,-0.36678847670555115,-0.06018935516476631,-0.9277947545051575,0.3682038187980652,0.03788099065423012,1.0688927173614502,-0.36905840039253235
1.1681873251464612,-2.994068633876516,2.829230973053462,2.020731210708618,0.15954744815826416,-0.3218601644039154,-0.05759342759847641,-0.9200418591499329,0.3875640630722046,0.04151064157485962,1.0946481227874756,-0.36411142349243164
1.1492765277993109,-3.0057529486412378,2.8436679560484315,1.8759212493896484,0.14236779510974884,-0.28870224952697754,-0.05540770664811134,-0.9124681949615479,0.40537843108177185,0.034823570400476456,1.1112139225006104,-0.3521405756473541
1.1317276381750967,-3.015517067975138,2.8558513397065486,1.7257980108261108,0.12048966437578201,-0.25628626346588135,-0.05345240980386734,-0.9051479697227478,0.421722412109375,0.02726833149790764,1.1130948066711426,-0.34315499663352966
1.1155205766074727,-3.02318227021301,2.8657160374359187,1.5871185064315796,0.12507188320159912,-0.18830344080924988,-0.05194460228085518,-0.8981398344039917,0.4366306662559509,0.04538331180810928,1.1298904418945312,-0.34167537093162537
1.100503666777866,-3.028187446321194,2.872715727446162,1.4574599266052246,0.1236598789691925,-0.07809198647737503,-0.05127912387251854,-0.8914356827735901,0.4502359926700592,0.07776839286088943,1.1555960178375244,-0.33555111289024353
1.086655371846836,-3.030149178188781,2.876315508591567,1.3224496841430664,0.12265776097774506,0.0651634931564331,-0.051763828843832016,-0.8850750923156738,0.4625605344772339,0.11034230142831802,1.1826673746109009,-0.3103085160255432
1.0740840627758677,-3.0289108569256946,2.8762267167202213,1.1671210527420044,0.10805219411849976,0.22554969787597656,-0.05358356609940529,-0.8791540265083313,0.4735155701637268,0.1261696219444275,1.205096960067749,-0.2706042528152466
1.0629536595934996,-3.024635990803275,2.8724169209548527,0.9936756491661072,0.07614264637231827,0.39276742935180664,-0.056745655834674835,-0.8737956285476685,0.48297104239463806,0.13033878803253174,1.2229931354522705,-0.22123709321022034
1.0534651378421507,-3.0176707082487897,2.8651090556584964,0.7995634078979492,0.04583081975579262,0.5425294637680054,-0.06113032251596451,-0.8691421747207642,0.49076926708221436,0.12530876696109772,1.2454545497894287,-0.17720136046409607
1.0457222073816639,-3.0084711036699536,2.8549036795620517,0.5988470315933228,0.025921404361724854,0.651777446269989,-0.0665339007973671,-0.8652867674827576,0.49684226512908936,0.1089990958571434,1.2732150554656982,-0.14952176809310913
1.0398295608509622,-2.997688689491514,2.8426493063364764,0.3914482891559601,0.016901277005672455,0.7218713164329529,-0.07261701673269272,-0.8623179197311401,0.5011332631111145,0.08352702856063843,1.2938975095748901,-0.13727223873138428
1.035880808386503,-2.985696875084225,2.8290498937185173,0.18273642659187317,0.04089208319783211,0.7524082660675049,-0.07914917171001434,-0.8603116869926453,0.5035859942436218,0.06279175728559494,1.3049070835113525,-0.14477574825286865
1.0338030822883877,-2.9727991694139124,2.814741228200916,-0.006334965117275715,0.08092605322599411,0.7476076483726501,-0.08593771606683731,-0.8592506647109985,0.5042848587036133,0.04974385350942612,1.319608211517334,-0.1645631194114685
1.033400279049204,-2.9595667142756508,2.800527508837665,-0.1635991334915161,0.12329034507274628,0.6859892010688782,-0.09266556054353714,-0.8590445518493652,0.5034438967704773,0.03085216134786606,1.3310750722885132,-0.1905624270439148
1.034450087022454,-2.9467235534412435,2.787395353599511,-0.2929680347442627,0.1915210634469986,0.5850924253463745,-0.09894885122776031,-0.859581470489502,0.5013271570205688,0.0037339776754379272,1.33966863155365,-0.21452301740646362
1.0368900657263964,-2.9342912614388625,2.7756195121372214,-0.4284364581108093,0.2664611041545868,0.4887998700141907,-0.10474170744419098,-0.860825777053833,0.49800440669059753,-0.005075827240943909,1.3464518785476685,-0.21184104681015015
1.040890998820623,-2.922182781627325,2.7650141985652215,-0.60793536901474,0.3256285488605499,0.3890756666660309,-0.1100134551525116,-0.8628548979759216,0.49333417415618896,-0.004107072949409485,1.3389594554901123,-0.18405383825302124
1.0470765829897923,-2.910241394143642,2.7552352784447316,-0.8215309381484985,0.366852730512619,0.2905741333961487,-0.11467041820287704,-0.8659648895263672,0.4867802858352661,-0.010253287851810455,1.3151838779449463,-0.15886911749839783
1.055586033203708,-2.8983169370144983,2.745829833293295,-1.0484915971755981,0.37888914346694946,0.2174122929573059,-0.1186874657869339,-0.8701891303062439,0.4782094359397888,-0.013514697551727295,1.2840074300765991,-0.1474142074584961
1.066434684804193,-2.886053716381844,2.7360172458268197,-1.281897783279419,0.35501396656036377,0.1768627166748047,-0.12214928865432739,-0.8754831552505493,0.467556357383728,0.000796094536781311,1.2618813514709473,-0.1557735800743103
1.0794697725976359,-2.8731739053139926,2.7250145715040195,-1.4995843172073364,0.28503116965293884,0.1621338427066803,-0.12512367963790894,-0.8817077875137329,0.45490169525146484,0.015763908624649048,1.246423363685608,-0.18025875091552734
1.0946886236870583,-2.8596322296834122,2.712404505312992,-1.7408300638198853,0.19180522859096527,0.1382775455713272,-0.12752345204353333,-0.8887856006622314,0.4402247965335846,0.030706405639648438,1.2171852588653564,-0.21019864082336426
1.1122657630322772,-2.8451544751417988,2.6980707458165205,-1.9833660125732422,0.14575998485088348,0.0906466394662857,-0.12929949164390564,-0.8967038989067078,0.4233250021934509,0.03713636100292206,1.1673641204833984,-0.2591251730918884
1.1320895531927542,-2.829972892474625,2.6827994805532933,-2.1732256412506104,0.14358925819396973,-0.027286838740110397,-0.1302347183227539,-0.9053017497062683,0.40431198477745056,0.02601715922355652,1.115445613861084,-0.3374479115009308
1.1536366752766682,-2.815480365733924,2.668832835290963,-2.2559401988983154,0.216472789645195,-0.23008522391319275,-0.1297997683286667,-0.9142434597015381,0.3838108777999878,-0.004752248525619507,1.0687997341156006,-0.43097591400146484
1.176338917788164,-2.8034962028944683,2.6585874593445404,-2.289921998977661,0.2906281352043152,-0.48143547773361206,-0.12747153639793396,-0.9232051968574524,0.3625505566596985,-0.030395880341529846,1.0153683423995972,-0.4826526939868927
1.2004751356124765,-2.7947233577349175,2.652602233663124,-2.409621000289917,0.35274821519851685,-0.708673894405365,-0.12303487211465836,-0.93221116065979,0.3403598368167877,-0.011807024478912354,0.9728147983551025,-0.4505283832550049
1.226986143793767,-2.7877907335387317,2.649227454567967,-2.653719186782837,0.40382176637649536,-0.8755448460578918,-0.11678596585988998,-0.9414771795272827,0.3161991834640503,0.03765381872653961,0.9486181735992432,-0.37843987345695496
1.2567277332051758,-2.7799282176898905,2.6455400697553646,-2.991288423538208,0.46640151739120483,-0.9726412892341614,-0.10930942744016647,-0.951084554195404,0.2889457643032074,0.10448763519525528,0.9166149497032166,-0.3267267048358917
1.2900074963828794,-2.768163231195277,2.6384485855147863,-3.3468945026397705,0.5259383320808411,-1.0184974670410156,-0.10109409689903259,-0.9608371257781982,0.2580156624317169,0.16721037030220032,0.8582217693328857,-0.3205004930496216
1.3262781408250148,-2.7490295207518876,2.6244892096780896,-3.613072156906128,0.605227530002594,-1.005564570426941,-0.09261307120323181,-0.9702540636062622,0.2236737310886383,0.2134626805782318,0.7821742296218872,-0.39937877655029297
1.3639107344135957,-2.7181844294973727,2.599497713297436,-3.687680721282959,0.6795952320098877,-0.9394294619560242,-0.08439803868532181,-0.9786754250526428,0.18727374076843262,0.2516190707683563,0.7195506691932678,-0.5426051616668701
1.4005837058169035,-2.670017973141188,2.5574258050056375,-3.566732406616211,0.665897786617279,-0.7938157916069031,-0.07695324718952179,-0.9855487942695618,0.15090397000312805,0.2838318645954132,0.658858060836792,-0.6642554998397827
1.4344267118872234,-2.591133470790089,2.4838210297718226,-3.4168214797973633,0.5539377331733704,-0.5374374985694885,-0.071111299097538,-0.9907160401344299,0.1158660426735878,0.3270469605922699,0.5949030518531799,-0.6830201148986816
1.4644314583366325,-2.447023314130083,2.343689948065352,-3.4291372299194336,0.4377610683441162,-0.1863659918308258,-0.06795112043619156,-0.9943485856056213,0.0815693661570549,0.3712042570114136,0.5366001725196838,-0.6025502681732178
1.4882810899659615,-2.1647755669613753,2.064073360279303,-3.64005184173584,0.32607442140579224,0.2098541557788849,-0.0683034136891365,-0.9965975284576416,0.04612763226032257,0.3960469365119934,0.47451817989349365,-0.4867100715637207
1.4980234729378148,-1.682958228764216,1.5834736765003452,-3.913698196411133,0.18987612426280975,0.5532916188240051,-0.07225286960601807,-0.997353196144104,0.008138174191117287,0.37842047214508057,0.40251976251602173,-0.42973852157592773
1.4856794933624506,-1.185428452480437,1.0856507111880782,-4.064440727233887,0.05563730746507645,0.7267635464668274,-0.07877851277589798,-0.9963797330856323,-0.03195653110742569,0.28625229001045227,0.3196983337402344,-0.4936324954032898
1.458095436162598,-0.869534760874388,0.7686368411242652,-4.046813011169434,0.03645481914281845,0.6851180791854858,-0.08592458814382553,-0.9936559796333313,-0.07255878299474716,0.15367355942726135,0.2358892560005188,-0.6326414942741394
1.4251639176465851,-0.6848405403130186,0.583308954951778,-3.9438588619232178,0.15147370100021362,0.4981634020805359,-0.09179454296827316,-0.9894143342971802,-0.11239705234766006,0.04105907678604126,0.12242519855499268,-0.7325279116630554
1.3911812676929012,-0.561608070554394,0.4610136494915858,-3.860215187072754,0.3585592210292816,0.2457343190908432,-0.09514020383358002,-0.9839125275611877,-0.15121014416217804,-0.03545980900526047,-0.01331031322479248,-0.7440230846405029
1.356815793246915,-0.46834420132072613,0.3706155053862126,-3.8389346599578857,0.5414072871208191,0.0781480073928833,-0.09585736691951752,-0.9771934151649475,-0.18948465585708618,-0.06905966252088547,-0.1386207938194275,-0.6932516098022461
1.3212301335356338,-0.39703853142828754,0.30304287380527883,-3.9077091217041016,0.533410370349884,0.11156429350376129,-0.09550584107637405,-0.9690196514129639,-0.2277708202600479,-0.037215106189250946,-0.22672003507614136,-0.6062594056129456
1.2834686057982574,-0.3468690884141892,0.25567189525968814,-4.010627269744873,0.34062689542770386,0.29890477657318115,-0.09633998572826385,-0.9590045809745789,-0.2665121257305145,0.005351848900318146,-0.2736765742301941,-0.5498179197311401
1.244058197040657,-0.3148753166731396,0.22441381876738836,-4.013064384460449,0.09982466697692871,0.45124077796936035,-0.09939927607774734,-0.9470943212509155,-0.3051758110523224,-0.014629662036895752,-0.3084903955459595,-0.6037140488624573
1.2049277792316124,-0.2935042300148553,0.20178802214964406,-3.877641439437866,-0.07187076658010483,0.38814061880111694,-0.10350311547517776,-0.9338133931159973,-0.3424612581729889,-0.12722507119178772,-0.3673340082168579,-0.742453932762146
1.167833225342113,-0.2738641118240171,0.1794278986181709,-3.68805193901062,-0.1272946149110794,0.0410873219370842,-0.10605724900960922,-0.919903039932251,-0.3775317966938019,-0.2962407171726227,-0.464618444442749,-0.851334810256958
1.133722158225608,-0.24895922974927007,0.15106906142911175,-3.4701600074768066,-0.05115490406751633,-0.533176839351654,-0.10429683327674866,-0.9059939980506897,-0.41024017333984375,-0.43468937277793884,-0.5946468114852905,-0.8892745971679688
1.1030627237867925,-0.21575494230405798,0.11429293503953587,-3.2145092487335205,0.08562078326940536,-1.1689199209213257,-0.09652328491210938,-0.8925924301147461,-0.44041118025779724,-0.4727058708667755,-0.6970376372337341,-0.8642916679382324
1.0749885431979893,-0.1760354944353489,0.07162385605231571,-3.065828561782837,0.30338382720947266,-1.5641441345214844,-0.08331567049026489,-0.8795847296714783,-0.4683900773525238,-0.3456546664237976,-0.7631612420082092,-0.7485289573669434
1.0471281359975184,-0.1354224561382459,0.02938338205621641,-3.0758121013641357,0.4089858829975128,-1.58950936794281,-0.06751257926225662,-0.8659906983375549,-0.49548181891441345,-0.11647790670394897,-0.8212956190109253,-0.5690476298332214
1.0180673001465599,-0.10104384436253101,-0.006461794457361162,-3.095672369003296,0.2861403822898865,-1.339446783065796,-0.05295899137854576,-0.8510949015617371,-0.5223339796066284,0.06013062596321106,-0.8492376804351807,-0.44397467374801636
0.9888009530366314,-0.07686982181105453,-0.03296377742044299,-2.943857192993164,0.07425477355718613,-0.9695068001747131,-0.042213115841150284,-0.8353675007820129,-0.548068642616272,0.14643064141273499,-0.8749595880508423,-0.4611934423446655
0.9613086213059666,-0.062136250046869915,-0.05087642503721805,-2.6556568145751953,-0.08415735512971878,-0.6645376086235046,-0.03554685413837433,-0.8199414014816284,-0.5713427662849426,0.15482479333877563,-0.9447680711746216,-0.5245740413665771
0.9364007658447975,-0.05352302457514602,-0.06284983479222724,-2.3909969329833984,-0.12598443031311035,-0.44366249442100525,-0.03170746564865112,-0.8054301142692566,-0.5918421149253845,0.11975067853927612,-1.0714619159698486,-0.5132452249526978
0.9135194049656914,-0.048584708648830466,-0.07036697543242779,-2.220684766769409,-0.08115451037883759,-0.22140151262283325,-0.02967180125415325,-0.791658878326416,-0.6102424263954163,0.11385452747344971,-1.212094783782959,-0.41522449254989624
0.8918394460394304,-0.04655300328281412,-0.0736751937698604,-2.120631456375122,-0.03670795261859894,0.024964584037661552,-0.029223866760730743,-0.778228223323822,-0.6273011565208435,0.12262287735939026,-1.3371129035949707,-0.307772696018219
0.871037143069906,-0.04757514564761228,-0.07269812371044425,-2.0078022480010986,-0.015637176111340523,0.2955513000488281,-0.03062843158841133,-0.7649973034858704,-0.6433048248291016,0.13217565417289734,-1.4409047365188599,-0.2633114457130432
0.8517231523178835,-0.05132854324183373,-0.06783340514278961,-1.7939494848251343,-0.006586156319826841,0.5121938586235046,-0.03379463031888008,-0.7524165511131287,-0.6578201055526733,0.10851690173149109,-1.522043228149414,-0.29971474409103394
0.8349429207349216,-0.056776488330216895,-0.06060287251168264,-1.4932563304901123,-0.0021462412551045418,0.6095070838928223,-0.03808904066681862,-0.7412582039833069,-0.6701383590698242,0.027636736631393433,-1.6195968389511108,-0.3599214553833008
0.8212544505651576,-0.06261580823775982,-0.052714313703943395,-1.167411208152771,0.0016447678208351135,0.6065517663955688,-0.04263249784708023,-0.7320010662078857,-0.6799682974815369,-0.06723079085350037,-1.7367031574249268,-0.39013057947158813
0.8109716867488809,-0.06780184826547378,-0.045323024652090024,-0.8121496438980103,0.035896092653274536,0.5233165621757507,-0.04666575416922569,-0.7249568104743958,-0.6872116923332214,-0.164821058511734,-1.834415078163147,-0.41163480281829834
0.8044118494857404,-0.07175491221961147,-0.0392955389412468,-0.43849191069602966,0.03543483465909958,0.3938041031360626,-0.0497218556702137,-0.7204228639602661,-0.6917504072189331,-0.2650364637374878,-1.9109095335006714,-0.4215308427810669
0.8017060958546809,-0.07485000113441403,-0.034793541684870435,-0.05292370170354843,-0.007669918239116669,0.2699192762374878,-0.05200822278857231,-0.7185437083244324,-0.6935345530509949,-0.3321318030357361,-1.9723284244537354,-0.4136890172958374
0.8029293050165328,-0.07752400202919196,-0.03148995238497989,0.3287946283817291,-0.0521918460726738,0.17127816379070282,-0.05379443243145943,-0.7193938493728638,-0.6925161480903625,-0.3622211813926697,-1.9913909435272217,-0.4002115726470947
0.807931926937254,-0.08008215760530671,-0.02904769775057404,0.68521648645401,-0.11185459792613983,0.08604368567466736,-0.055277228355407715,-0.7228596806526184,-0.6887802481651306,-0.3491722345352173,-1.9777321815490723,-0.3783431649208069
0.8163372469657602,-0.08261531673229548,-0.027448222422524246,0.9969761967658997,-0.15713287889957428,-0.006449762266129255,-0.05651843920350075,-0.7286421060562134,-0.6825585961341858,-0.32618728280067444,-1.9636642932891846,-0.3484320044517517
0.82781552220225,-0.08470610940735239,-0.02689503166932312,1.2847000360488892,-0.17514556646347046,-0.11143296957015991,-0.05723400413990021,-0.7364553809165955,-0.674060583114624,-0.313646137714386,-1.9308114051818848,-0.34489089250564575
0.8422674104618046,-0.08591391560975063,-0.02763185196019904,1.5760210752487183,-0.17256496846675873,-0.22995509207248688,-0.057128798216581345,-0.7461546063423157,-0.663317084312439,-0.30128490924835205,-1.8649598360061646,-0.38261187076568604
0.8597416484630213,-0.08613315761660856,-0.02962536098687279,1.8711365461349487,-0.1670130491256714,-0.32740965485572815,-0.056143876165151596,-0.757673978805542,-0.6502137780189514,-0.282708078622818,-1.7687389850616455,-0.4421629309654236
0.88021568652822,-0.08547250268891139,-0.03255780429096078,2.159193992614746,-0.15267007052898407,-0.39513489603996277,-0.05437842756509781,-0.7708762884140015,-0.6346595287322998,-0.2598763406276703,-1.6402106285095215,-0.4985649585723877
0.9035371393272135,-0.08441381176268578,-0.03609047245395746,2.427503824234009,-0.18797247111797333,-0.438193142414093,-0.05217623710632324,-0.7855207324028015,-0.6166318655014038,-0.23856475949287415,-1.5076005458831787,-0.5227876901626587
0.9292744724057874,-0.08347496012401984,-0.03995325523726131,2.634125232696533,-0.2347833812236786,-0.45555031299591064,-0.04989470914006233,-0.8011859655380249,-0.5963317155838013,-0.20417940616607666,-1.397803783416748,-0.5068024396896362
0.9566867828288906,-0.08300077538634812,-0.0436083779539764,2.7705612182617188,-0.2547571063041687,-0.42301294207572937,-0.04777272045612335,-0.8172869086265564,-0.5742472410202026,-0.14984387159347534,-1.2877545356750488,-0.49360865354537964
0.9852863048970901,-0.08333512358039022,-0.04636948078945074,2.888624668121338,-0.26892033219337463,-0.3589428961277008,-0.04599974676966667,-0.8334303498268127,-0.550706684589386,-0.09058168530464172,-1.1793564558029175,-0.5210859775543213
1.01501587527096,-0.08504035926989284,-0.04781259304324614,3.0027081966400146,-0.31343770027160645,-0.2935252785682678,-0.04481377452611923,-0.8494889140129089,-0.5256997346878052,-0.05555855855345726,-1.0758802890777588,-0.5744284391403198
1.0458328752291932,-0.08829715817239221,-0.04790327878791096,3.1173129081726074,-0.35078880190849304,-0.2507951259613037,-0.044195402413606644,-0.8653422594070435,-0.499228835105896,-0.04274916276335716,-0.9598987102508545,-0.6447073221206665
1.077725919500463,-0.09273120430920524,-0.04717202239154299,3.217573404312134,-0.4071701169013977,-0.26166316866874695,-0.04382983222603798,-0.8808836936950684,-0.47129905223846436,-0.05410107597708702,-0.8354858756065369,-0.7030936479568481
1.110565969245231,-0.09750854740902153,-0.04674991851353634,3.2965617179870605,-0.46879062056541443,-0.3221832513809204,-0.0432402677834034,-0.895950198173523,-0.4420447051525116,-0.0762208104133606,-0.7303467392921448,-0.7267633676528931
1.1439927103892433,-0.1022098660314311,-0.04695606614005299,3.3198204040527344,-0.4950112998485565,-0.352589875459671,-0.04223750904202461,-0.9102935791015625,-0.41180291771888733,-0.06049993634223938,-0.6454010009765625,-0.6948560476303101
1.1771539518733143,-0.10694699165056877,-0.04706263083490311,3.241483211517334,-0.46418496966362,-0.33920082449913025,-0.040941886603832245,-0.9235181212425232,-0.3813634514808655,-0.011624664068222046,-0.5985612869262695,-0.6209712028503418
1.2092313857741714,-0.11180828437762648,-0.04649385367984605,3.1221978664398193,-0.3961966931819916,-0.3177282512187958,-0.039468538016080856,-0.935344398021698,-0.35152971744537354,0.02346205711364746,-0.5658457279205322,-0.5844444632530212
1.2403230137291799,-0.11629470896369473,-0.04538585574462644,3.057401180267334,-0.2882539927959442,-0.317031592130661,-0.037651557475328445,-0.945888876914978,-0.32229897379875183,0.03456926345825195,-0.498935341835022,-0.6405459642410278
1.2711727108339514,-0.12017870160805243,-0.043831980889724724,3.0678229331970215,-0.19851168990135193,-0.31176894903182983,-0.035386692732572556,-0.9554476737976074,-0.2930316627025604,0.04181060194969177,-0.4120450019836426,-0.7406750321388245
1.30227900886136,-0.12512666448824683,-0.04055597320368833,3.1113061904907227,-0.1658213883638382,-0.2602391839027405,-0.03310984745621681,-0.9641653299331665,-0.26322823762893677,0.062284648418426514,-0.325003981590271,-0.823380708694458
1.3339531111067944,-0.1341351119868277,-0.033055725087800795,3.206601619720459,-0.18631619215011597,-0.18370050191879272,-0.03137851506471634,-0.9720835089683533,-0.232527494430542,0.07410311698913574,-0.23603105545043945,-0.9015210866928101
1.366629822094727,-0.1505252670690709,-0.01850646758096678,3.332733392715454,-0.2516707181930542,-0.11943443864583969,-0.03040398471057415,-0.9792303442955017,-0.2004580795764923,0.07227405905723572,-0.13048028945922852,-0.9720425605773926
1.4004055716665973,-0.17662372351633385,0.005136807826974192,3.453202247619629,-0.3142014145851135,-0.12215875834226608,-0.02979407086968422,-0.9855185747146606,-0.16692891716957092,0.05207193270325661,-0.013275861740112305,-1.018877387046814
1.4353221728496708,-0.2140071088553269,0.039616353981140974,3.574903964996338,-0.3397776186466217,-0.20737725496292114,-0.028683582320809364,-0.9908373951911926,-0.13197854161262512,0.014569194987416267,0.09975475072860718,-1.0391488075256348
1.471344302337538,-0.2692899612066817,0.09181516268734653,3.679286479949951,-0.3424290716648102,-0.3283288776874542,-0.026415016502141953,-0.9950587153434753,-0.0957087054848671,0.0045186616480350494,0.2143886685371399,-1.0196325778961182
1.5078040909115555,-0.37163079788976044,0.19119487118377865,3.7048826217651367,-0.3072415292263031,-0.42974764108657837,-0.022859076038002968,-0.9980166554450989,-0.05865204334259033,0.030915681272745132,0.3376316428184509,-0.9636869430541992
1.5423701728917862,-0.7014063221076088,0.5183687104604469,3.647662401199341,-0.2686801254749298,-0.4894969165325165,-0.018342819064855576,-0.9995959997177124,-0.021715309470891953,0.07168751955032349,0.46111321449279785,-0.8833597898483276
1.551230298053596,-2.3928771285173456,2.207600272977258,3.528604030609131,-0.23654243350028992,-0.5081315636634827,-0.013317027129232883,-0.9998086094856262,0.014331711456179619,0.09630954265594482,0.5642465353012085,-0.8012123107910156
1.5209907105619125,-2.978570443278075,2.7913565231750654,3.41078782081604,-0.2061350792646408,-0.522875964641571,-0.008080380968749523,-0.9987599849700928,0.049126263707876205,0.0943993330001831,0.6661030650138855,-0.7469260692596436
1.4878779809463134,-3.109787586748241,2.9209593359911423,3.3138601779937744,-0.16347524523735046,-0.5422592163085938,-0.0026338116731494665,-0.9965642690658569,0.08278314769268036,0.06873485445976257,0.7910740375518799,-0.7216992378234863
1.4551651514828896,3.1158382886360667,2.977449388578194,3.2064008712768555,-0.10200639069080353,-0.5499455332756042,0.0029710049275308847,-0.9933221340179443,0.11533377319574356,0.04839006066322327,0.9106044769287109,-0.6942675113677979
1.423410455382346,3.083516700116503,3.0093208394721325,3.08117413520813,-0.04214705526828766,-0.5501159429550171,0.008523841388523579,-0.9891583323478699,0.14660553634166718,0.0309964120388031,1.0027843713760376,-0.6499778032302856
1.3928589384550851,3.0626103945495817,3.030254064756756,2.949892282485962,-0.008924080990254879,-0.5421971082687378,0.013965374790132046,-0.9842108488082886,0.1764487773180008,0.005062313750386238,1.080188512802124,-0.6027488708496094
1.3634548516701557,3.048593873684528,3.0447138541661043,2.8474066257476807,0.046131979674100876,-0.5066673159599304,0.019117025658488274,-0.9785816669464111,0.2049691528081894,-0.02644127793610096,1.1579641103744507,-0.5680215358734131
1.3348393308827466,3.0407284848970786,3.053574447736561,2.7950477600097656,0.10734299570322037,-0.4280175268650055,0.023539355024695396,-0.9722910523414612,0.23258480429649353,-0.03972897306084633,1.2443554401397705,-0.5411023497581482
1.3066838745400637,3.0384217380325618,3.0572535606222275,2.768857002258301,0.14847365021705627,-0.3184550702571869,0.0268852598965168,-0.9653245806694031,0.25966426730155945,-0.035537004470825195,1.3247454166412354,-0.4938867390155792
1.2790921828422335,3.041205489063142,3.0560216165299394,2.7014143466949463,0.16292496025562286,-0.1705722063779831,0.028821386396884918,-0.9577552080154419,0.2861372232437134,-0.02758544310927391,1.3747320175170898,-0.40738365054130554
1.2526388931919217,3.048255543440977,3.050285709969282,2.5701069831848145,0.14969117939472198,0.0038355556316673756,0.029155081138014793,-0.9498134255409241,0.3114556074142456,-0.014689773321151733,1.3973383903503418,-0.28376102447509766
1.2280666326313325,3.0584688046179567,3.040887045580652,2.3533935546875,0.1123775988817215,0.16837631165981293,0.027902383357286453,-0.9418408274650574,0.3348989486694336,-0.011621296405792236,1.4022138118743896,-0.1562643051147461
1.2061108392186528,3.070390472094788,3.0291884563369633,2.0641696453094482,0.07579055428504944,0.29553160071372986,0.025373205542564392,-0.9342359900474548,0.3557519316673279,-0.024305105209350586,1.399903655052185,-0.043099403381347656
1.1873747769661978,3.082885043724576,3.0165228217162614,1.7172023057937622,0.0622539296746254,0.37564122676849365,0.02194967493414879,-0.9273900985717773,0.3734516203403473,-0.050361573696136475,1.3892582654953003,0.035254985094070435
1.172176143442492,3.0947787876254784,3.004276475613625,1.3560508489608765,0.0515405610203743,0.38728880882263184,0.01816403493285179,-0.921597421169281,0.3877219557762146,-0.08254089951515198,1.3811310529708862,0.0783882737159729
1.1605908928775115,3.105003023867412,2.9937220617859244,0.987709105014801,0.05906590074300766,0.339006245136261,0.01458860281854868,-0.9170389175415039,0.3985307216644287,-0.1125653088092804,1.379685401916504,0.07801640033721924
1.1524652606937895,3.1131474157113996,2.985578779863368,0.6637555360794067,0.07809098809957504,0.25784507393836975,0.011553918942809105,-0.9137681722640991,0.40607160329818726,-0.14305418729782104,1.3746141195297241,0.03815746307373047
1.1471253575320377,3.118955551525415,2.9801293479170425,0.4204162657260895,0.08878187835216522,0.15662845969200134,0.009305531159043312,-0.9115859270095825,0.41100406646728516,-0.15609508752822876,1.3700363636016846,-0.02320200204849243
1.1437848790848422,3.122476165316546,2.977391508986693,0.26194167137145996,0.11757011711597443,0.055379342287778854,0.007916653528809547,-0.9102075099945068,0.4140765368938446,-0.15891766548156738,1.3552912473678589,-0.09240609407424927
1.1416573931397571,3.1240901783148964,2.977116546773487,0.16707958281040192,0.1557960957288742,-0.037392377853393555,0.007282197941094637,-0.9093243479728699,0.41602426767349243,-0.14886853098869324,1.3392865657806396,-0.14621829986572266
1.1403362631846856,3.124281461279417,2.9788991687737196,0.09325170516967773,0.20710456371307373,-0.11319286376237869,0.007223404943943024,-0.9087738394737244,0.41722622513771057,-0.11768180131912231,1.3232331275939941,-0.16374734044075012
1.139806649477441,3.123612425097642,2.982218645865942,0.0034650766756385565,0.2622569799423218,-0.16005827486515045,0.00751120550557971,-0.9085527658462524,0.4177030324935913,-0.08797082304954529,1.303724765777588,-0.15474838018417358
1.14032430395763,3.1229032324821846,2.9862687210525856,-0.1183156818151474,0.33273276686668396,-0.16765254735946655,0.007798632141202688,-0.908768892288208,0.417226642370224,-0.05915972590446472,1.2976239919662476,-0.13608354330062866
1.1422537367456942,3.123173489934571,2.9900484057105965,-0.2752029299736023,0.4034353792667389,-0.13706649839878082,0.007653575856238604,-0.9095723628997803,0.41547542810440063,-0.02297341823577881,1.2892719507217407,-0.11585384607315063
1.1457780426165431,3.1247664171188854,2.9930275187377533,-0.45112335681915283,0.4476092457771301,-0.09898994863033295,0.006937764119356871,-0.911031186580658,0.41227930784225464,-0.00875356700271368,1.2791492938995361,-0.10161036252975464
1.15115462583701,3.127331596927627,2.995214650755466,-0.632580578327179,0.45568007230758667,-0.0631108358502388,0.005810228642076254,-0.9132350087165833,0.40739160776138306,-0.013897418975830078,1.281063437461853,-0.08710974454879761
1.1584875416608245,3.130593378591307,2.9965701264923994,-0.8369821906089783,0.43324214220046997,-0.02665243297815323,0.004407607484608889,-0.9161980748176575,0.4007018208503723,-0.013044089078903198,1.2856743335723877,-0.06746512651443481
1.1680910251427883,3.1343300322982754,2.997006595786945,-1.0853286981582642,0.3922226130962372,0.013621782884001732,0.0028462617192417383,-0.92000412940979,0.39189866185188293,-0.01557210087776184,1.2873440980911255,-0.04340320825576782
1.1803399411893942,3.1386619876254773,2.9962484905284725,-1.3591796159744263,0.3282436430454254,0.06076452508568764,0.0011154399253427982,-0.924735426902771,0.38060861825942993,-0.02093660831451416,1.2762370109558105,-0.03182333707809448
1.1953643261119318,-3.13925979826681,2.9936187921731223,-1.6357063055038452,0.23059222102165222,0.13537470996379852,-0.0008553968509659171,-0.9303492903709412,0.366673082113266,-0.02029329538345337,1.2501888275146484,-0.04694059491157532
1.2130393299065787,-3.132909435585083,2.98859502786717,-1.8818995952606201,0.09793964773416519,0.2021276354789734,-0.003040605690330267,-0.9366846084594727,0.3501615524291992,-0.021831244230270386,1.2246025800704956,-0.08912941813468933
1.2328610022189028,-3.125214728882296,2.981011472075541,-2.069364309310913,0.023544784635305405,0.25994426012039185,-0.005429692566394806,-0.9434412121772766,0.33149540424346924,-0.02545410394668579,1.1882073879241943,-0.1547377109527588
1.2543265259599576,-3.1156517974031606,2.9709374431320152,-2.219648838043213,-0.010997212491929531,0.28493401408195496,-0.008072244934737682,-0.9503399729728699,0.3111090064048767,-0.025329262018203735,1.1471936702728271,-0.22097539901733398
1.2771813025635772,-3.1050131099194043,2.959823914086029,-2.3504772186279297,0.031629469245672226,0.22615927457809448,-0.010584287345409393,-0.9572038650512695,0.2892208397388458,-0.030553430318832397,1.0996904373168945,-0.2786922752857208
1.3012780264007342,-3.0948226685076445,2.949980691767431,-2.4726595878601074,0.11412221938371658,0.113148033618927,-0.012448780238628387,-0.9638992547988892,0.2659761607646942,-0.0526757538318634,1.0266586542129517,-0.3188936710357666
1.3267953891798243,-3.086608515246499,2.94287581311277,-2.63459849357605,0.13899904489517212,-0.006095576100051403,-0.013276792131364346,-0.9703791737556458,0.24122247099876404,-0.057936012744903564,0.9614679217338562,-0.33906182646751404
1.354223530222486,-3.0797726458208934,2.936841469043564,-2.843221426010132,0.03709239512681961,-0.02360798977315426,-0.013275704346597195,-0.9766396284103394,0.21447405219078064,-0.03460639715194702,0.9258735179901123,-0.36590227484703064
1.38363346773984,-3.069574031555791,2.9259624668413253,-3.03047251701355,-0.13707207143306732,0.07354734092950821,-0.013389145955443382,-0.9825360774993896,0.1855907440185547,0.020911691710352898,0.9074016809463501,-0.3990459442138672
1.4144827038866012,-3.049559748759884,2.9032814676254923,-3.153938055038452,-0.3225215673446655,0.18810321390628815,-0.014307249337434769,-0.9878078699111938,0.15501882135868073,0.056009501218795776,0.8838040232658386,-0.4554797410964966
1.4459489964132262,-3.0130732648840617,2.862525410946828,-3.1983225345611572,-0.4376770853996277,0.24175700545310974,-0.015959544107317924,-0.9922167062759399,0.12349559366703033,0.04395940899848938,0.856154203414917,-0.5383820533752441
1.4772598860598625,-2.950500021474076,2.795035217916434,-3.1902074813842773,-0.44751664996147156,0.197203129529953,-0.01773940585553646,-0.9956286549568176,0.09169873595237732,0.031731728464365005,0.8216785788536072,-0.6044399738311768
1.5080662383676056,-2.8362294074187,2.6761969419701908,-3.211263418197632,-0.38433733582496643,0.08501908928155899,-0.018846701830625534,-0.9980331063270569,0.05978856235742569,0.0295430738478899,0.7784439325332642,-0.621220588684082
1.5375067474944484,-2.53264925071724,2.3689140332502907,-3.2930872440338135,-0.28794050216674805,-0.010786529630422592,-0.01903996802866459,-0.9994459748268127,0.027303421869874,0.047802746295928955,0.7092236876487732,-0.5881097316741943
1.5511107147352199,-1.2428172226573864,1.0765759300464561,-3.4314815998077393,-0.14631472527980804,-0.05804483965039253,-0.018636953085660934,-0.9998062252998352,-0.006341567263007164,0.10745835304260254,0.6446274518966675,-0.5495972633361816
1.5253051552645507,-0.40858761880498895,0.2413646329619531,-3.6438746452331543,0.019664926454424858,-0.053663939237594604,-0.018067991361021996,-0.9989654421806335,-0.04173198714852333,0.15286412835121155,0.5892364978790283,-0.5117806196212769
1.4890581918001282,-0.2192208393662595,0.05260871276962073,-3.9423000812530518,0.15804055333137512,0.007245853543281555,-0.017755694687366486,-0.9966613054275513,-0.07969290763139725,0.17914792895317078,0.5083648562431335,-0.4805335998535156
1.4485689594604747,-0.1474774704211422,-0.01764442347544355,-4.241499900817871,0.19591124355793,0.05740595981478691,-0.017915673553943634,-0.9925395250320435,-0.12059875577688217,0.19333067536354065,0.4107677936553955,-0.5035010576248169
1.4053649271210544,-0.11164769965173842,-0.051855844421639784,-4.3996195793151855,0.19504621624946594,0.0789780542254448,-0.01834775321185589,-0.9863473773002625,-0.16365274786949158,0.17136287689208984,0.3216898441314697,-0.6241586208343506
1.3614658180982813,-0.0904327550820755,-0.07145702381621397,-4.353481769561768,0.1963232010602951,0.0819954201579094,-0.018766790628433228,-0.9781702756881714,-0.20695602893829346,0.13375699520111084,0.2331446409225464,-0.8132619857788086
1.3189004395358925,-0.07733411478597552,-0.08298121127700403,-4.12852668762207,0.16372857987880707,0.11208943277597427,-0.019255589693784714,-0.9684416055679321,-0.24849560856819153,0.11793413758277893,0.15375959873199463,-0.9831175804138184
1.278845001892222,-0.07094743417749282,-0.08819626083092785,-3.86368465423584,0.11689981818199158,0.2167295664548874,-0.020403064787387848,-0.9576840400695801,-0.28709733486175537,0.14593708515167236,0.10482466220855713,-1.0459104776382446
1.2406830894677303,-0.07109572215414495,-0.08664926383590833,-3.7435905933380127,0.14662915468215942,0.42935362458229065,-0.023026257753372192,-0.946005642414093,-0.32333096861839294,0.2157294750213623,0.024313926696777344,-0.9676084518432617
1.2026156305344493,-0.07734392912876338,-0.07852402222052574,-3.8004138469696045,0.12384793907403946,0.6873233318328857,-0.027809778228402138,-0.9329836964607239,-0.3588427007198334,0.2712637484073639,-0.08570826053619385,-0.8070204257965088
1.163360853076873,-0.08808040522350433,-0.06574430366701917,-3.9174349308013916,0.09987194836139679,0.9073615074157715,-0.03485727310180664,-0.9181400537490845,-0.3947198688983917,0.25705575942993164,-0.20359450578689575,-0.6819860935211182
1.1230398675634978,-0.09954755442028364,-0.05188118734985326,-3.968430280685425,0.12920640408992767,0.9568819403648376,-0.0430273711681366,-0.9014207124710083,-0.4308006167411804,0.1673407256603241,-0.33052802085876465,-0.6724861264228821
1.0827468312128634,-0.10727613603403656,-0.04171657736101216,-3.908581256866455,0.1337215006351471,0.7493712902069092,-0.0502057708799839,-0.8832491636276245,-0.4662083387374878,-0.0007433556020259857,-0.4473934769630432,-0.7587367296218872
1.0440739437831619,-0.10856126272620015,-0.03868289411525102,-3.707869052886963,0.1483427882194519,0.36395007371902466,-0.05446690693497658,-0.8644593954086304,-0.4997433125972748,-0.1752236783504486,-0.5778776407241821,-0.8738377094268799
1.008402625426652,-0.10335546687142505,-0.042570665027247885,-3.394819974899292,0.22888363897800446,0.0021927575580775738,-0.05501239374279976,-0.8459811806678772,-0.530367374420166,-0.23141035437583923,-0.724087119102478,-0.9452949166297913
0.9763194858371506,-0.09413694034650184,-0.050506485127185495,-3.060817003250122,0.28010451793670654,-0.2063673734664917,-0.05264595150947571,-0.8284416198730469,-0.5575956106185913,-0.1645323932170868,-0.8382605910301208,-0.9168154001235962
0.9471075065103072,-0.08448207453870023,-0.05882636109004408,-2.8403255939483643,0.27480125427246094,-0.18783535063266754,-0.04928167536854744,-0.8117296099662781,-0.5819503664970398,-0.08162349462509155,-0.9138867259025574,-0.7691238522529602
0.9192819297852044,-0.07786594664267972,-0.06427305324223384,-2.753669500350952,0.15600641071796417,0.005689899902790785,-0.047169528901576996,-0.7951663732528687,-0.6045538783073425,-0.015559341758489609,-0.9661250114440918,-0.57185298204422
0.8917477766447618,-0.07608743587206046,-0.06578714559351005,-2.7414727210998535,-0.03699108213186264,0.22356237471103668,-0.047740835696458817,-0.778170645236969,-0.6262357234954834,-0.0016824007034301758,-1.0150879621505737,-0.4207460880279541
0.8641671801868968,-0.07805450113909855,-0.06441252036182682,-2.7269952297210693,-0.12773190438747406,0.36072421073913574,-0.05062729865312576,-0.7605547904968262,-0.6472969651222229,-0.03268572688102722,-1.1058850288391113,-0.3673820495605469
0.8368488856947611,-0.08098092516985096,-0.06202056249646708,-2.668031930923462,-0.09187016636133194,0.3666454553604126,-0.05418223887681961,-0.742536187171936,-0.6676108837127686,-0.08148369193077087,-1.2537710666656494,-0.40524983406066895
0.810667776876943,-0.08249274696258463,-0.06048506237361874,-2.503610610961914,0.014060532674193382,0.2540949583053589,-0.056774262338876724,-0.7247474193572998,-0.6866714954376221,-0.15138614177703857,-1.4177237749099731,-0.49902790784835815
0.7868287511312323,-0.08158571548835497,-0.06098655369203728,-2.2275235652923584,0.0879691019654274,0.05671113356947899,-0.05754333361983299,-0.708117663860321,-0.7037457823753357,-0.2376074194908142,-1.5725066661834717,-0.5749559998512268
0.7661845577413716,-0.07844980746524173,-0.06418957396879138,-1.9104218482971191,0.08888708800077438,-0.1787562370300293,-0.05646994337439537,-0.6933910250663757,-0.7183453440666199,-0.30771157145500183,-1.703383207321167,-0.6053241491317749
0.7489912796333439,-0.07347172024144608,-0.07002311487081302,-1.571728229522705,0.10961930453777313,-0.39564943313598633,-0.05376053228974342,-0.6809003353118896,-0.7304002642631531,-0.3143882751464844,-1.8015520572662354,-0.6090010404586792
0.7353246864371344,-0.06681390106559656,-0.07778005301805564,-1.224519968032837,0.17361213266849518,-0.53882896900177,-0.04951319843530655,-0.6708279848098755,-0.7399582862854004,-0.25680702924728394,-1.881479024887085,-0.5999007821083069
0.7252048174706991,-0.059113400252506776,-0.0861034971788744,-0.8653722405433655,0.2542739510536194,-0.5498973727226257,-0.04421255737543106,-0.6632887125015259,-0.7470564842224121,-0.16469553112983704,-1.9475815296173096,-0.5718370079994202
0.7187604928991126,-0.051733633874928034,-0.09313809894811818,-0.48360759019851685,0.2826904058456421,-0.4138074219226837,-0.03891852870583534,-0.6584522724151611,-0.7516155242919922,-0.06947991251945496,-1.9574991464614868,-0.5365924835205078
0.7159500906174574,-0.04631035285220705,-0.09733525213402261,-0.11067237704992294,0.24512256681919098,-0.1801552176475525,-0.034927282482385635,-0.6563345193862915,-0.753661036491394,-0.007278531789779663,-1.928809404373169,-0.48826706409454346
0.7166686775519735,-0.04387444883561891,-0.09792373140964038,0.24771347641944885,0.16108466684818268,0.08507245033979416,-0.0330706387758255,-0.6568765044212341,-0.753272533416748,0.005360666662454605,-1.888503074645996,-0.43117570877075195
0.7207198471257185,-0.04454738647147577,-0.09506587710532519,0.5710564851760864,0.08282553404569626,0.2971452474594116,-0.03345875442028046,-0.6599256992340088,-0.7505854368209839,-0.01898571476340294,-1.8594529628753662,-0.36797529458999634
0.7276740585103024,-0.0475630816018782,-0.08963543220603708,0.8452613949775696,0.037613049149513245,0.43837934732437134,-0.0355030819773674,-0.665134608745575,-0.745879054069519,-0.066517174243927,-1.8406941890716553,-0.31402701139450073
0.7371500688899965,-0.05210306965826066,-0.08250953147014294,1.0952924489974976,0.00958839152008295,0.5127696990966797,-0.038558997213840485,-0.6721805930137634,-0.7393825650215149,-0.12489315867424011,-1.8085932731628418,-0.2900211811065674
0.7490567987744117,-0.05749832883930698,-0.07455778060337503,1.3287854194641113,-0.01745600812137127,0.5150536298751831,-0.04208463802933693,-0.6809483170509338,-0.7311212420463562,-0.18278414011001587,-1.7658900022506714,-0.2877234220504761
0.7630769223812214,-0.06348960165296609,-0.06657949742097065,1.5294471979141235,-0.08851512521505356,0.4628671407699585,-0.04585392773151398,-0.6911484599113464,-0.721256673336029,-0.24410885572433472,-1.7236464023590088,-0.2994343042373657
0.7791912259516298,-0.06974333152018593,-0.05929170281416091,1.7425628900527954,-0.14523352682590485,0.3544919490814209,-0.04958091676235199,-0.7027041912078857,-0.7097524404525757,-0.2934519350528717,-1.6645443439483643,-0.3391214609146118
0.7974460728616514,-0.07570142975796643,-0.05341201129546811,1.947685956954956,-0.20590388774871826,0.19563768804073334,-0.052829720079898834,-0.7155744433403015,-0.6965358853340149,-0.33504873514175415,-1.5868852138519287,-0.3985569477081299
0.8178658730554108,-0.08077831943148861,-0.049662212933824716,2.14776611328125,-0.260280042886734,0.0063058556988835335,-0.05517455190420151,-0.7296882271766663,-0.6815503239631653,-0.3520825505256653,-1.5128806829452515,-0.4536120295524597
0.8403107063011913,-0.08484829987531319,-0.04780010282568679,2.330634355545044,-0.2788749933242798,-0.11762350052595139,-0.056545551866292953,-0.7448504567146301,-0.6648311018943787,-0.31476184725761414,-1.4378582239151,-0.5083256363868713
0.8646042278557451,-0.08866810087525505,-0.046722761906917036,2.503312349319458,-0.3319999873638153,-0.152047798037529,-0.05746503174304962,-0.760838508605957,-0.6463920474052429,-0.24089011549949646,-1.3438215255737305,-0.5533455610275269
0.8904987849018223,-0.09372176523501019,-0.045060178365013887,2.644836187362671,-0.4297773241996765,-0.10353323072195053,-0.05886700749397278,-0.7773855924606323,-0.6262637972831726,-0.1722273826599121,-1.2459907531738281,-0.5661495327949524
0.9172617170352082,-0.10140414874762035,-0.04197473572440799,2.693673610687256,-0.6324825286865234,-0.045371390879154205,-0.06154775619506836,-0.7939397096633911,-0.6048731803894043,-0.12355664372444153,-1.1853082180023193,-0.5523991584777832
0.9443853782937921,-0.11204352449651754,-0.03819843534165753,2.7310924530029297,-0.8850181698799133,-0.10349689424037933,-0.0655471459031105,-0.8101367950439453,-0.5825649499893188,-0.1444137990474701,-1.1650371551513672,-0.5642093420028687
0.9721970054153679,-0.1238851762533942,-0.03593432949277512,2.8120768070220947,-1.0985957384109497,-0.3068936765193939,-0.06962911039590836,-0.8261256814002991,-0.5591672658920288,-0.19978007674217224,-1.159942865371704,-0.6596285104751587
1.001528793418391,-0.1343787113943983,-0.037299911873505814,2.976106882095337,-1.2095000743865967,-0.6007360816001892,-0.07221435755491257,-0.8422960042953491,-0.5341557264328003,-0.21619203686714172,-1.1502423286437988,-0.8073512315750122
1.0331862853937965,-0.14157769490436983,-0.043200213608394385,3.1931302547454834,-1.2062575817108154,-0.8719702363014221,-0.07225781679153442,-0.8589349985122681,-0.5069611072540283,-0.16849538683891296,-1.1020481586456299,-0.9591644406318665
1.0674062247464282,-0.14430180272596757,-0.05319464797045202,3.415083169937134,-1.0446021556854248,-1.0737128257751465,-0.06936955451965332,-0.8759522438049316,-0.47738412022590637,-0.07391050457954407,-1.0026183128356934,-1.076174259185791
1.1040895310497867,-0.14154133753770112,-0.06665100867463057,3.644646406173706,-0.7767056822776794,-1.1938258409500122,-0.06347376853227615,-0.8930549025535583,-0.445448100566864,0.007351905107498169,-0.8717308044433594,-1.1794604063034058
1.1430982460557142,-0.13407245434853793,-0.08234588188380909,3.8669755458831787,-0.5610015392303467,-1.2023593187332153,-0.05544374883174896,-0.9099229574203491,-0.41105493903160095,0.09342285990715027,-0.7073712944984436,-1.2388322353363037
1.1838888538752015,-0.12345801647327745,-0.09887400019442333,4.01917839050293,-0.3552643060684204,-1.1331638097763062,-0.046465691179037094,-0.9260804057121277,-0.37445423007011414,0.1741969883441925,-0.53334641456604,-1.236233115196228
1.2256493854315762,-0.11060999829835598,-0.11590780681874106,4.0992655754089355,-0.2738727331161499,-1.046315312385559,-0.03734695911407471,-0.9410257339477539,-0.3362673223018646,0.20058545470237732,-0.3762502074241638,-1.219290018081665
1.2678023377267473,-0.09654321304196258,-0.1337657017244413,4.136687755584717,-0.3005448281764984,-0.9494297504425049,-0.028761757537722588,-0.9544474482536316,-0.2969897389411926,0.18908584117889404,-0.23123669624328613,-1.1782910823822021
1.3100552378596095,-0.08120176033116346,-0.15304201516651678,4.15867805480957,-0.3250699043273926,-0.8616207838058472,-0.020910559222102165,-0.9661992192268372,-0.25694739818573,0.17156058549880981,-0.10737866163253784,-1.146723985671997
1.352234376527851,-0.06319218832426933,-0.1746140696243588,4.15294075012207,-0.24890562891960144,-0.7621668577194214,-0.013692582026124,-0.9762102365493774,-0.21639305353164673,0.15752190351486206,0.008803129196166992,-1.1376566886901855
1.3941605185407304,-0.040685163495217,-0.19931792379561952,4.141429901123047,-0.09937457740306854,-0.6354646682739258,-0.007147152442485094,-0.9844403862953186,-0.17557281255722046,0.14052417874336243,0.14372700452804565,-1.1377817392349243
1.4358416561899876,-0.012029158711834746,-0.22876052210679054,4.140770435333252,0.006979825906455517,-0.4922526776790619,-0.0016184333944693208,-0.9909074306488037,-0.1345360428094864,0.1370249092578888,0.2722642421722412,-1.1284644603729248
1.4773120123517156,0.026194115338631457,-0.26681397033230725,4.123905658721924,0.07126901298761368,-0.3067435622215271,0.0024449166376143694,-0.9956335425376892,-0.09331704676151276,0.13244277238845825,0.38850152492523193,-1.086416244506836
1.5182115655980435,0.08437369675508434,-0.3243686382763417,4.0518388748168945,0.07516708225011826,-0.07917085289955139,0.004429369233548641,-0.9986177682876587,-0.05237240716814995,0.13471552729606628,0.500738799571991,-1.0166736841201782
1.557770738638613,0.32466387508418076,-0.5642466097727895,3.9250271320343018,0.024618498980998993,0.12621575593948364,0.004156791605055332,-0.9999151825904846,-0.012350322678685188,0.11396148800849915,0.5886144638061523,-0.93265700340271
1.544410294102337,3.056560304874774,2.9869545028385525,3.774658203125,-0.031019996851682663,0.2433953732252121,0.002240555826574564,-0.9996519088745117,0.026285914704203606,0.04992923140525818,0.659579336643219,-0.8726452589035034
1.5073916878340758,-3.1364818685180187,2.8960975966336497,3.6264686584472656,-0.09374942630529404,0.2665688395500183,-0.0003238267090637237,-0.997990608215332,0.06336089223623276,-0.02998015284538269,0.7475786209106445,-0.8484408855438232
1.4715168600314608,-3.1143050284352207,2.872648730965168,3.5265305042266846,-0.14380300045013428,0.2258477509021759,-0.002704273909330368,-0.9950758218765259,0.0990779772400856,-0.09862938523292542,0.8363998532295227,-0.8409603834152222
1.4363879175520615,-3.108004535988941,2.8646987577699843,3.4710750579833984,-0.17424102127552032,0.173076331615448,-0.004500085487961769,-0.9909808039665222,0.1339281052350998,-0.14230474829673767,0.8903338313102722,-0.8221606016159058
1.4019017917171226,-3.1077299259975697,2.8626162692175727,3.3957772254943848,-0.17580829560756683,0.11928872764110565,-0.005690974649041891,-0.9857711791992188,0.1679958999156952,-0.16195738315582275,0.9314042329788208,-0.7802548408508301
1.3682915074484334,-3.1105409216793856,2.8639308530438883,3.300915002822876,-0.1254679560661316,0.04591163620352745,-0.006244214717298746,-0.9795658588409424,0.2010260671377182,-0.17539644241333008,0.9922460913658142,-0.7446204423904419
1.3356502361852174,-3.1155635707005893,2.868142237334873,3.209000825881958,-0.05631444603204727,-0.04351145401597023,-0.006063692271709442,-0.972480297088623,0.23290574550628662,-0.18659380078315735,1.0713878870010376,-0.7238268852233887
1.3038879552734561,-3.121870628848155,2.8745366963674264,3.132627487182617,0.04185952618718147,-0.12584733963012695,-0.005201347172260284,-0.9645909070968628,0.2636987268924713,-0.1945209503173828,1.1755285263061523,-0.6964991688728333
1.2727426430207776,-3.1277179061739924,2.8816695910707484,3.086197853088379,0.15533201396465302,-0.15910516679286957,-0.004074332304298878,-0.9559098482131958,0.2936320900917053,-0.1854703426361084,1.2951890230178833,-0.6558605432510376
1.242023499575056,-3.1310703249862692,2.887421567515685,3.040741205215454,0.2617870569229126,-0.1082080602645874,-0.00339740258641541,-0.946439266204834,0.3228636085987091,-0.1594596803188324,1.428876519203186,-0.5894347429275513
1.2117984402214024,-3.130576105263084,2.889835755907617,2.979027271270752,0.2726370394229889,0.013698671944439411,-0.0038704408798366785,-0.9362493753433228,0.3513154983520508,-0.1368766725063324,1.5563052892684937,-0.4860962927341461
1.182428177903038,-3.1272410567989617,2.888593742076162,2.8654844760894775,0.14784500002861023,0.147075816988945,-0.005434448830783367,-0.9255282282829285,0.3786391019821167,-0.12812572717666626,1.6338719129562378,-0.3439408242702484
1.1546111238947847,-3.1233031689953874,2.8849352517766027,2.664339065551758,-0.03074231930077076,0.22001206874847412,-0.007393554784357548,-0.9146378040313721,0.40420660376548767,-0.13274317979812622,1.671351671218872,-0.1973433494567871
1.1292571181787596,-3.120270057942498,2.880730866988567,2.3716776371002197,-0.11492137610912323,0.21824799478054047,-0.009111132472753525,-0.9040949940681458,0.4272346496582031,-0.14750510454177856,1.692089319229126,-0.07464981079101562
1.107294558179669,-3.118840828699133,2.877746228263223,1.9871138334274292,-0.13390545547008514,0.1248413473367691,-0.01017108466476202,-0.8944923877716064,0.4469676613807678,-0.1472690999507904,1.7122260332107544,0.018883168697357178
1.0896751642465026,-3.120087893384816,2.877561008686398,1.519101858139038,-0.137539342045784,-0.0369681790471077,-0.009951066225767136,-0.8864766359329224,0.46266651153564453,-0.12550121545791626,1.7085286378860474,0.10326671600341797
1.0770041289165055,-3.1239306288043887,2.880665126730034,1.0131723880767822,-0.07569754123687744,-0.2022620588541031,-0.00837081391364336,-0.8805418014526367,0.473894864320755,-0.0882020890712738,1.6735104322433472,0.1620151400566101
1.0693352213063438,-3.129356782549132,2.886583174806649,0.5330604314804077,0.04095124453306198,-0.3317379951477051,-0.005881727207452059,-0.8768811225891113,0.4806714355945587,-0.030159562826156616,1.6419720649719238,0.16685044765472412
1.0661178898469452,-3.134876643537212,2.894284674570571,0.12636137008666992,0.20762836933135986,-0.39486610889434814,-0.0032473388127982616,-0.8753300309181213,0.4835147559642792,0.03422266244888306,1.6297094821929932,0.12331190705299377
1.0665639010542094,-3.1390796984284406,2.9024246081300076,-0.19912414252758026,0.3706209361553192,-0.38073310256004333,-0.0012140960898250341,-0.8755455613136292,0.48313379287719727,0.09345346689224243,1.625744104385376,0.05287688970565796
1.069790769310893,-3.1410804495955533,2.9095925185317357,-0.43233954906463623,0.47955435514450073,-0.301254540681839,-0.00024601552286185324,-0.8771000504493713,0.4803076386451721,0.13731569051742554,1.617197036743164,-0.023612171411514282
1.0749273726729893,-3.140311674057716,2.9146054725017114,-0.583346426486969,0.5480496287345886,-0.1743919402360916,-0.0006094849668443203,-0.8795555830001831,0.4757957458496094,0.15470796823501587,1.592781901359558,-0.08897030353546143
1.0813439700113463,-3.1364126349027326,2.9165671085860114,-0.6938018202781677,0.5715762376785278,-0.01511494442820549,-0.002435337519273162,-0.8825904726982117,0.47013646364212036,0.15986022353172302,1.567740559577942,-0.13548076152801514
1.0887451852661778,-3.1291725098192487,2.914835826120902,-0.7867271304130554,0.5590731501579285,0.16199353337287903,-0.005757804494351149,-0.8860458731651306,0.46356213092803955,0.15579745173454285,1.5499708652496338,-0.16804522275924683
1.0969190823932633,-3.118842929009592,2.9092298702929646,-0.8625614643096924,0.5033526420593262,0.317853718996048,-0.01038071047514677,-0.8898056149482727,0.4562217593193054,0.14239972829818726,1.5269973278045654,-0.1829063892364502
1.1059368244447305,-3.106102106577616,2.90025414911861,-0.9640442132949829,0.44204315543174744,0.4317091405391693,-0.01590697281062603,-0.893884539604187,0.44801488518714905,0.12660947442054749,1.4885653257369995,-0.1709764003753662
1.1162349711047161,-3.091359289930678,2.888533758272533,-1.1393123865127563,0.39981234073638916,0.5099785923957825,-0.02204657532274723,-0.8984537124633789,0.4385138750076294,0.10703802108764648,1.4467175006866455,-0.1354440152645111
1.1284949738575734,-3.074879170691858,2.87440051709592,-1.379665493965149,0.34794899821281433,0.5615797638893127,-0.028533561155200005,-0.9037690162658691,0.4270683526992798,0.08558616042137146,1.4054932594299316,-0.08684325218200684
1.1432899486814552,-3.056596141970611,2.8579523113752576,-1.6713601350784302,0.3353125751018524,0.5863807201385498,-0.03519739955663681,-0.9100024700164795,0.4131063222885132,0.07162010669708252,1.355726718902588,-0.05431121587753296
1.1609803939172376,-3.0361840951900763,2.839523094849602,-1.981397032737732,0.38829877972602844,0.56143718957901,-0.04192129150032997,-0.9171941876411438,0.3962288498878479,0.05508962646126747,1.3068883419036865,-0.06499126553535461
1.181506036203844,-3.0134447478201936,2.8195432025127256,-2.2545583248138428,0.47401663661003113,0.4978760778903961,-0.04850315302610397,-0.9251786470413208,0.37641939520835876,0.03847811371088028,1.2517168521881104,-0.12657219171524048
1.2042963895155812,-2.988725178179428,2.7984807303470487,-2.4477882385253906,0.5486209988594055,0.3967770040035248,-0.054566964507102966,-0.9335873126983643,0.35417115688323975,0.022813379764556885,1.1877682209014893,-0.2269740104675293
1.2285518134613271,-2.962679300082006,2.7769189370658665,-2.5597429275512695,0.6048091650009155,0.2770995795726776,-0.05972382426261902,-0.9420037865638733,0.3302448093891144,-0.0002584904432296753,1.1211574077606201,-0.34030041098594666
1.2536384411737953,-2.9356349955879306,2.7548168654801617,-2.6156036853790283,0.611696720123291,0.1699276715517044,-0.06377828866243362,-0.9501256346702576,0.3052760362625122,-0.019412659108638763,1.0656499862670898,-0.44082000851631165
1.2790252922441454,-2.9073412440801354,2.7313940687843865,-2.6231491565704346,0.5689651966094971,0.09572827070951462,-0.06676753610372543,-0.9577359557151794,0.2797924876213074,-0.02632635086774826,1.0244321823120117,-0.5124280452728271
1.3042239898515597,-2.876829715789678,2.7053609285551286,-2.5963692665100098,0.5253246426582336,0.05264723673462868,-0.06893336772918701,-0.964679479598999,0.2542465329170227,-0.012350186705589294,0.9886206984519958,-0.5479783415794373
1.3291895715223396,-2.842121998818478,2.6748110318740483,-2.618708372116089,0.496235728263855,0.03783393278717995,-0.07058612257242203,-0.9709547758102417,0.22861431539058685,0.00993242859840393,0.9488447904586792,-0.538306713104248
1.3544923899261005,-2.7992991653363797,2.635730772093624,-2.7390317916870117,0.4522206485271454,0.053348612040281296,-0.07203714549541473,-0.9766973853111267,0.20217013359069824,0.03379858285188675,0.912625789642334,-0.48758578300476074
1.3808239669707065,-2.7412628617700854,2.5810422571281353,-2.9620137214660645,0.4474882185459137,0.0968654602766037,-0.0735919401049614,-0.9820094704627991,0.17390139400959015,0.0698992908000946,0.8784937858581543,-0.42205512523651123
1.4085121167682315,-2.655310201986716,2.4984724231319735,-3.2632040977478027,0.47772249579429626,0.13747619092464447,-0.07550989836454391,-0.9868608117103577,0.14284279942512512,0.09642965346574783,0.8440080285072327,-0.3869987726211548
1.4370130491286432,-2.5213824534015896,2.367987976047803,-3.5738465785980225,0.487827867269516,0.13827699422836304,-0.07752341777086258,-0.9910643696784973,0.10854179412126541,0.08084984123706818,0.8113769888877869,-0.4050659239292145
1.4641360070904363,-2.3054116299589764,2.1552875225112467,-3.799581289291382,0.45337116718292236,0.05895141512155533,-0.07900035381317139,-0.9943171739578247,0.07135815173387527,0.028676852583885193,0.7688382267951965,-0.47589921951293945
1.4851240724272086,-1.9627779082473045,1.8153187564619246,-3.8545656204223633,0.379355788230896,-0.0978054404258728,-0.07907752692699432,-0.9963323473930359,0.032688532024621964,-0.03733181953430176,0.7102758884429932,-0.5650219917297363
1.493166217248574,-1.4949870937435534,1.3494466247858266,-3.805253744125366,0.30666640400886536,-0.25311893224716187,-0.07732807099819183,-0.9969882965087891,-0.005873437505215406,-0.05150192230939865,0.6298161745071411,-0.6302655339241028
1.4841174049792742,-1.034772952940784,0.8909166604975564,-3.8335886001586914,0.34121212363243103,-0.2918945252895355,-0.07442998141050339,-0.9962457418441772,-0.0442141592502594,0.00019597262144088745,0.5490868091583252,-0.6301480531692505
1.4604558218297385,-0.7102925459565879,0.5685702289986463,-3.996190309524536,0.3737785518169403,-0.1638694554567337,-0.07180240005254745,-0.9939186573028564,-0.08348752558231354,0.07401490211486816,0.46178364753723145,-0.5899896621704102
1.4267124173318193,-0.5184809206372527,0.3786853017141571,-4.249879837036133,0.2911257743835449,0.11927036941051483,-0.07115589082241058,-0.9896378517150879,-0.12471532821655273,0.14567983150482178,0.3772263526916504,-0.5358530282974243
1.3861222497468668,-0.4129447026961175,0.2737695605798381,-4.498878479003906,0.09832687675952911,0.44777965545654297,-0.07369053363800049,-0.9829961657524109,-0.16819074749946594,0.1583157777786255,0.31162476539611816,-0.5401681065559387
1.3414120896183768,-0.35576190838806604,0.21509672129325944,-4.642899990081787,-0.15777812898159027,0.6342464685440063,-0.07919672131538391,-0.973806619644165,-0.2131396383047104,0.06808830052614212,0.2681029438972473,-0.6228132247924805
1.2954825312647804,-0.32122523240640466,0.17628974768584615,-4.6106061935424805,-0.4431729018688202,0.546110987663269,-0.08583056926727295,-0.9623399376869202,-0.2579433023929596,-0.10736095160245895,0.21072262525558472,-0.7327946424484253
1.2510481932951059,-0.29363672109207095,0.14205877876309808,-4.432900428771973,-0.5449978113174438,0.20467086136341095,-0.09097737818956375,-0.9493145942687988,-0.300873339176178,-0.25295573472976685,0.09808790683746338,-0.8080592155456543
1.208612886284377,-0.26446768404430104,0.10587379218316156,-4.394537448883057,-0.41888290643692017,-0.17950813472270966,-0.09261681139469147,-0.9351254105567932,-0.34199783205986023,-0.23860570788383484,-0.09247761964797974,-0.7960485219955444
1.1657685618975548,-0.23269625058620513,0.06875032167711392,-4.58883810043335,-0.08677367120981216,-0.36733877658843994,-0.09086735546588898,-0.9190914630889893,-0.38342398405075073,-0.08497493714094162,-0.31178921461105347,-0.696867823600769
1.1200756919365338,-0.20200156652128104,0.03599649031268466,-4.8830952644348145,0.23967866599559784,-0.28218042850494385,-0.08739759773015976,-0.9001334309577942,-0.4267571270465851,0.09525585174560547,-0.5195748209953308,-0.6613929271697998
1.0715630696592124,-0.17760246111124972,0.011982524659778702,-4.983007907867432,0.32747137546539307,-0.03206062316894531,-0.08458133786916733,-0.8779498934745789,-0.47122183442115784,0.20970338582992554,-0.7030589580535889,-0.7646486163139343
1.0234172599367823,-0.16215025257492283,-0.0027637644871867303,-4.675681114196777,0.19240838289260864,0.18727464973926544,-0.08402193337678909,-0.8538914918899536,-0.5136239528656006,0.189902663230896,-0.8360498547554016,-1.022798776626587
0.9796761638788873,-0.15364427970566644,-0.011909197079314787,-4.0682878494262695,-0.036797359585762024,0.177707239985466,-0.0852881446480751,-0.830316960811615,-0.5507264137268066,0.043311215937137604,-0.9129385948181152,-1.3045439720153809
0.9426278294905498,-0.14777417294935843,-0.02051733839718003,-3.3873939514160156,-0.17333486676216125,-0.061783567070961,-0.0865258201956749,-0.8091051578521729,-0.58125901222229,-0.1149054765701294,-0.9931103587150574,-1.4466798305511475
0.912279762832942,-0.14040994455208505,-0.03166325097605415,-2.812917947769165,-0.12216009199619293,-0.386712908744812,-0.08564100414514542,-0.7909008860588074,-0.6059218645095825,-0.18077746033668518,-1.1240618228912354,-1.393864393234253
0.8870092397172843,-0.13011888254407522,-0.04550806978589637,-2.440048933029175,0.023413915187120438,-0.6129863858222961,-0.08196865767240524,-0.7751858830451965,-0.6263928413391113,-0.11931002140045166,-1.2527682781219482,-1.1617846488952637
0.8644638995796387,-0.11771449375128555,-0.06002302664328081,-2.272113561630249,0.22519390285015106,-0.6418982148170471,-0.07622603327035904,-0.7607474327087402,-0.6445564031600952,-0.005591593682765961,-1.3347573280334473,-0.8632713556289673
0.842696694757941,-0.10522892567642876,-0.07253533559248722,-2.2320666313171387,0.367613822221756,-0.48972007632255554,-0.0698956698179245,-0.7464403510093689,-0.6617714166641235,0.1059521734714508,-1.3954815864562988,-0.5975670218467712
0.8208670022932462,-0.09489055680401016,-0.0815183688450607,-2.2097039222717285,0.3556002974510193,-0.28259459137916565,-0.06457915157079697,-0.7317370176315308,-0.6785207390785217,0.14911282062530518,-1.4536876678466797,-0.43563026189804077
0.7995132502187082,-0.08750690920824211,-0.08734901520576424,-2.085815191268921,0.28301647305488586,-0.13927511870861053,-0.0609193816781044,-0.717016875743866,-0.6943886876106262,0.09740310907363892,-1.4992458820343018,-0.41590189933776855
0.7798360352539753,-0.08178248187828285,-0.09133267640743367,-1.86406409740448,0.2993221879005432,-0.09912051260471344,-0.05808490514755249,-0.7031628489494324,-0.7086523771286011,0.01894611120223999,-1.5164263248443604,-0.4956017732620239
0.7626445740642692,-0.07621364576752304,-0.09476497975301136,-1.5873522758483887,0.332089900970459,-0.11943792551755905,-0.055050019174814224,-0.6908358931541443,-0.7209128141403198,-0.043552279472351074,-1.524953842163086,-0.5442697405815125
0.7483014119235194,-0.07072062720250412,-0.09782380856152705,-1.3044203519821167,0.33829745650291443,-0.1002139002084732,-0.05178411304950714,-0.6803949475288391,-0.7310137748718262,-0.06264156103134155,-1.5499211549758911,-0.5224804878234863
0.7363626998988047,-0.06627247160369067,-0.09950468070963715,-1.1002739667892456,0.31996214389801025,0.032097842544317245,-0.049066416919231415,-0.671597421169281,-0.7392898201942444,-0.032186657190322876,-1.5684995651245117,-0.4385514259338379
0.7259323426106705,-0.0638430796339501,-0.09859623810035519,-0.9679862260818481,0.27871909737586975,0.2456575334072113,-0.047714587301015854,-0.6638330221176147,-0.7463572025299072,-0.007751107215881348,-1.5739445686340332,-0.36428433656692505
0.7169343004984842,-0.06403302166782573,-0.09452381959541545,-0.7947773337364197,0.2192591428756714,0.4746635854244232,-0.048236627131700516,-0.6570767760276794,-0.752278745174408,-0.016948934644460678,-1.5793428421020508,-0.36033111810684204
0.7098092648150925,-0.06664341906430821,-0.08758537688255334,-0.5490301251411438,0.16783615946769714,0.6541848182678223,-0.0505107045173645,-0.6516891121864319,-0.756802499294281,-0.06724140048027039,-1.5856612920761108,-0.40051567554473877
0.7051625382350609,-0.07102721294708494,-0.07864545031729117,-0.28289973735809326,0.11869650334119797,0.751843273639679,-0.05404219776391983,-0.6481575965881348,-0.7595861554145813,-0.13991230726242065,-1.5918021202087402,-0.4438135623931885
0.7032069830671862,-0.0765532934747311,-0.06872642597684073,0.013029934838414192,0.056869085878133774,0.7705434560775757,-0.05833571031689644,-0.6466671824455261,-0.7605382800102234,-0.22793444991111755,-1.601837396621704,-0.4846552610397339
0.7044782788502588,-0.08285638661149071,-0.05867936589042772,0.3674188554286957,-0.014158105477690697,0.7247129082679749,-0.06306017190217972,-0.6476364135742188,-0.7593355774879456,-0.3088575601577759,-1.5889816284179688,-0.5257748961448669
0.7094020081537601,-0.08935737879131472,-0.0490846279145137,0.7248350381851196,-0.02398357167840004,0.6350517272949219,-0.06770985573530197,-0.651380181312561,-0.755724310874939,-0.3523035943508148,-1.566591501235962,-0.5422950983047485
0.7175577625726643,-0.0949448602959059,-0.04050483077749994,0.9980374574661255,0.03768428415060043,0.499203085899353,-0.07142534852027893,-0.6575466394424438,-0.7500205636024475,-0.36865338683128357,-1.537079095840454,-0.51473468542099
0.728069084493175,-0.09890120905411563,-0.033449606521329785,1.1849242448806763,0.10456743836402893,0.3489550054073334,-0.07370557636022568,-0.6654295325279236,-0.742812991142273,-0.3695775270462036,-1.5078186988830566,-0.4471284747123718
0.7403075576256221,-0.10138386160253778,-0.027899705829928748,1.3206908702850342,0.1366036832332611,0.2350435107946396,-0.07471960783004761,-0.6745150089263916,-0.7344701886177063,-0.3589962422847748,-1.4691921472549438,-0.3895685076713562
0.7536711342976337,-0.10332480728348745,-0.023124121657476755,1.3942668437957764,0.11322032660245895,0.19715391099452972,-0.07520855963230133,-0.6843202710151672,-0.7252926230430603,-0.32095539569854736,-1.3911954164505005,-0.3783145546913147
0.7676672309993262,-0.10612917618711543,-0.01816807281726823,1.462437629699707,-0.001012144610285759,0.2330576330423355,-0.07622013241052628,-0.6944586038589478,-0.7154842615127563,-0.2877325117588043,-1.2633354663848877,-0.3968815207481384
0.782630982161994,-0.11119916533642375,-0.01214727265799685,1.6059257984161377,-0.1764494776725769,0.292411208152771,-0.07868457585573196,-0.705147385597229,-0.7046814560890198,-0.25308728218078613,-1.1386178731918335,-0.450958251953125
0.7991787879516712,-0.11899407837776382,-0.0048427743874719376,1.788020372390747,-0.3308863043785095,0.34308281540870667,-0.08277837187051773,-0.7167837023735046,-0.6923647522926331,-0.20767268538475037,-1.023038625717163,-0.5086088180541992
0.8172724883339826,-0.12883235771323245,0.003539321826434508,1.9250011444091797,-0.41283443570137024,0.3466717004776001,-0.08790511637926102,-0.7292823195457458,-0.6785424947738647,-0.17483597993850708,-0.9216880798339844,-0.5384374856948853
0.836328616550643,-0.13933154114068408,0.012090396484497326,1.9842785596847534,-0.41612666845321655,0.2822573781013489,-0.09307707846164703,-0.7421876192092896,-0.6636974215507507,-0.15841829776763916,-0.852035403251648,-0.5411213636398315
0.8556146932665595,-0.1488638304831101,0.01997669059374747,1.9526317119598389,-0.28605443239212036,0.1940596103668213,-0.09725798666477203,-0.7549741268157959,-0.6485020518302917,-0.13980257511138916,-0.803329586982727,-0.5313228368759155
0.8740362563180832,-0.15553007119451312,0.026531654071658552,1.7918601036071777,-0.056084614247083664,0.08239375054836273,-0.0994073823094368,-0.7669253945350647,-0.6339902281761169,-0.1043890118598938,-0.7545589208602905,-0.49857819080352783
0.8907897556225987,-0.15747683783134883,0.030947300219646128,1.595262050628662,0.37679198384284973,-0.037648770958185196,-0.09861237555742264,-0.7775685787200928,-0.6210174560546875,-0.08035796880722046,-0.684360682964325,-0.4796448349952698
0.9057549834006996,-0.15533837565220562,0.03329541254092637,1.422067403793335,0.4022621810436249,-0.15089590847492218,-0.09547296166419983,-0.7868912816047668,-0.609661340713501,-0.07019170373678207,-0.5837140679359436,-0.512744665145874
0.9202203509263144,-0.15116584511319991,0.03365786617053435,1.4450438022613525,0.46571892499923706,-0.22593313455581665,-0.09120453149080276,-0.7957351207733154,-0.5987381935119629,0.005846858024597168,-0.40819859504699707,-0.6096816658973694
0.9353704319301603,-0.14666809516398105,0.03379546896602553,1.5545756816864014,0.45480573177337646,-0.200242817401886,-0.08673873543739319,-0.8048189878463745,-0.5871480107307434,0.08087936043739319,-0.2471829056739807,-0.7028758525848389
0.9519350980444834,-0.1431467825464915,0.03474288774236777,1.7366067171096802,0.39484572410583496,-0.16663531959056854,-0.08275728672742844,-0.8145396113395691,-0.5741746425628662,0.11696749925613403,-0.11269116401672363,-0.7737258076667786
0.9706385352952148,-0.14105896335064885,0.03666604721602486,1.9906717538833618,0.33536165952682495,-0.1450725942850113,-0.07940233498811722,-0.8252465128898621,-0.5591632723808289,0.12810835242271423,0.036931753158569336,-0.8163098096847534
0.9919852203757711,-0.1404083672860515,0.039705880052850424,2.2692322731018066,0.3033238351345062,-0.12000852823257446,-0.07655533403158188,-0.837113618850708,-0.5416457056999207,0.1474629044532776,0.16362124681472778,-0.8254044651985168
1.0158475399015912,-0.1410625901332867,0.043948077210742294,2.495884418487549,0.2802865505218506,-0.10110112279653549,-0.07407960295677185,-0.8499274253845215,-0.5216662287712097,0.17533692717552185,0.272092342376709,-0.7894147634506226
1.0415057813481652,-0.1432539589610712,0.049565158407863776,2.6379518508911133,0.23146790266036987,-0.046245865523815155,-0.07208482176065445,-0.8631654977798462,-0.4997491240501404,0.19264450669288635,0.3856264352798462,-0.7052069902420044
1.068349628285462,-0.14889387535372783,0.05783601017700486,2.7789146900177,0.08284757286310196,0.08175709843635559,-0.07143839448690414,-0.8764069080352783,-0.47624319791793823,0.20933204889297485,0.5006745457649231,-0.629088282585144
1.096328727397906,-0.16010617306225247,0.07075167917746006,2.9147543907165527,-0.05165191367268562,0.25913798809051514,-0.0728347897529602,-0.8895360827445984,-0.45102179050445557,0.2341507077217102,0.6487829685211182,-0.5790685415267944
1.1249314735077203,-0.17854353574818901,0.08979431639572542,2.9832804203033447,-0.22644156217575073,0.44101446866989136,-0.07658637315034866,-0.9022380709648132,-0.4243829846382141,0.23285162448883057,0.7610486149787903,-0.4908697009086609
1.15354802751262,-0.20539193412997997,0.11575471218205391,3.0267298221588135,-0.4185766577720642,0.593766450881958,-0.08265035599470139,-0.9142075181007385,-0.3967285752296448,0.21929281949996948,0.8476945161819458,-0.403106689453125
1.1819581652692677,-0.2410526025402799,0.1492889216025197,3.071434736251831,-0.5212500095367432,0.7047225832939148,-0.09050385653972626,-0.9253501296043396,-0.36815235018730164,0.22189727425575256,0.9280662536621094,-0.3357356786727905
1.2097561970602828,-0.28477302905445995,0.19060535169293422,3.0464296340942383,-0.5242679119110107,0.758941650390625,-0.09924118220806122,-0.935529887676239,-0.3390204608440399,0.22566023468971252,0.9937117695808411,-0.25276121497154236
1.2359022726023479,-0.33508440831791536,0.23856529941138516,2.9033844470977783,-0.509402334690094,0.7510759830474854,-0.10808246582746506,-0.9444451332092285,-0.31038936972618103,0.21407002210617065,1.035830020904541,-0.12619516253471375
1.2596327077391851,-0.3902178913343719,0.29126344334823784,2.7025668621063232,-0.5425115823745728,0.6826194524765015,-0.11646263301372528,-0.9519779682159424,-0.2831507623195648,0.1774061918258667,1.0476353168487549,0.001290351152420044
1.2813082348908484,-0.44813570028379585,0.3464016606736299,2.5822718143463135,-0.4350951611995697,0.5178203582763672,-0.12368661165237427,-0.9583901166915894,-0.2572742700576782,0.10720708966255188,1.0282907485961914,0.06280094385147095
1.3017488959150776,-0.504600727880842,0.40184545828695417,2.405349016189575,-0.23271755874156952,0.32760244607925415,-0.12850943207740784,-0.964024543762207,-0.23268412053585052,0.04725636541843414,1.001835823059082,0.13377662003040314
1.3197265891811223,-0.5573724567925675,0.45444876805876916,2.0307962894439697,-0.16188029944896698,0.19169120490550995,-0.131414532661438,-0.9686471819877625,-0.21083834767341614,0.048406749963760376,0.9584848880767822,0.27800750732421875
1.3337071760295656,-0.6038977831635434,0.5000793341767062,1.4919873476028442,-0.29172244668006897,0.12810850143432617,-0.13337427377700806,-0.9720257520675659,-0.1933312714099884,0.07977016270160675,0.890345573425293,0.3707146942615509
1.3428540845724586,-0.6414080947698928,0.5353150502037166,0.9314936995506287,-0.3235493004322052,0.12983614206314087,-0.13520526885986328,-0.9741334319114685,-0.18106196820735931,0.09328936040401459,0.8478670716285706,0.39512741565704346
1.3469818040871384,-0.6665768748440041,0.55868193324642,0.351349413394928,-0.12732785940170288,0.2133113294839859,-0.13723166286945343,-0.9750578999519348,-0.1744401901960373,0.09310324490070343,0.8514007925987244,0.3848283290863037
1.3454038279392477,-0.6783910476998969,0.5710528224127329,-0.25819939374923706,0.17929689586162567,0.42800793051719666,-0.14024825394153595,-0.9747064709663391,-0.174004465341568,0.09315963089466095,0.8477687239646912,0.3767174482345581
1.3375978063112,-0.6786513956486369,0.5743177952906399,-0.8493191599845886,0.3730517327785492,0.6528552174568176,-0.14506584405899048,-0.9729322195053101,-0.17988573014736176,0.08941704034805298,0.8486341238021851,0.3743131160736084
1.324801350327516,-0.6694623164560433,0.5684192045579458,-1.292159080505371,0.27503082156181335,0.6877416968345642,-0.1511206030845642,-0.9698954820632935,-0.19095848500728607,0.054990217089653015,0.836350679397583,0.3419747054576874
1.310042721142609,-0.6538122857150136,0.5533363251835559,-1.4539210796356201,-0.09904105961322784,0.5066637992858887,-0.15680348873138428,-0.9661959409713745,-0.20464088022708893,-0.007655724883079529,0.7997074127197266,0.22839881479740143
1.29664465252584,-0.6383139366428697,0.5336780272119562,-1.2608882188796997,-0.5742908120155334,0.2822079062461853,-0.16131232678890228,-0.9626551866531372,-0.21742363274097443,-0.018710851669311523,0.764947235584259,0.02096669375896454
1.2871073339803132,-0.6307746256044455,0.5172687462303741,-0.7732686996459961,-1.0636531114578247,0.12433543801307678,-0.16507607698440552,-0.9600294232368469,-0.2260381579399109,0.01872904598712921,0.708457887172699,-0.1997889131307602
1.2833469384818466,-0.6348187018507674,0.5098171433209426,-0.06203886866569519,-1.0742206573486328,-0.017784293740987778,-0.16812869906425476,-0.9589701294898987,-0.22827409207820892,0.013312995433807373,0.6284647583961487,-0.40319573879241943
1.2860443260069452,-0.6467474644827902,0.5130072729088707,0.5596789717674255,-0.6828081607818604,-0.16314788162708282,-0.1692802459001541,-0.9597313404083252,-0.22418706119060516,0.008177950978279114,0.520797073841095,-0.4562481641769409
1.2932415979473038,-0.6598443968710941,0.5213607998067327,0.8189736008644104,-0.3398137092590332,-0.34388649463653564,-0.16796313226222992,-0.9617283344268799,-0.21648761630058289,-0.021200045943260193,0.41535699367523193,-0.3413127362728119
1.30248604453968,-0.6673841288881484,0.5273446865385499,0.808393657207489,-0.025325551629066467,-0.5405470728874207,-0.16408050060272217,-0.9642202258110046,-0.20822261273860931,-0.040951862931251526,0.39210736751556396,-0.17864879965782166
1.3123417726507327,-0.664655461172272,0.5254592793270862,0.668322741985321,0.19770866632461548,-0.7483476996421814,-0.15764275193214417,-0.9667861461639404,-0.20117972791194916,-0.02820928394794464,0.3977401852607727,-0.030860766768455505
1.3220995076536404,-0.6504466168175671,0.5137984396088826,0.5168455839157104,0.40283650159835815,-0.8804471492767334,-0.14904870092868805,-0.9692339897155762,-0.19588233530521393,0.004578486084938049,0.3919483423233032,0.06918855011463165
1.3308178523134147,-0.6281757291973067,0.4971987019955501,0.39807382225990295,0.8420820832252502,-0.772682249546051,-0.13967835903167725,-0.9713431000709534,-0.19230850040912628,0.08415159583091736,0.39836031198501587,0.11912727355957031
1.3373366419161525,-0.6035017639362406,0.48234314532562644,0.25460267066955566,1.158691167831421,-0.5368987321853638,-0.13129492104053497,-0.9728718400001526,-0.19047853350639343,0.18972080945968628,0.39172565937042236,0.18173515796661377
1.3409980272694149,-0.5812712008464854,0.4719032352137746,0.0801122784614563,1.2217626571655273,-0.2709950804710388,-0.1250719130039215,-0.9737123847007751,-0.190372034907341,0.21483935415744781,0.3116334080696106,0.26474329829216003
1.3416793442362935,-0.5631192450536918,0.4652010510804538,-0.132041797041893,1.0656145811080933,-0.06670398265123367,-0.12124139070510864,-0.9738672971725464,-0.1920493245124817,0.16712456941604614,0.21735185384750366,0.3368704319000244
1.3398476959196557,-0.5489836078384215,0.46001797411093864,-0.29033344984054565,0.7298190593719482,0.04761042073369026,-0.11944512277841568,-0.97344970703125,-0.1952650547027588,0.08961419016122818,0.17765814065933228,0.34603703022003174
1.336733026464656,-0.5392124207022919,0.4555451506284669,-0.33343806862831116,0.3556137681007385,0.09186843037605286,-0.11908774077892303,-0.9727320075035095,-0.19902372360229492,0.04769185185432434,0.1730189323425293,0.27579063177108765
1.333527190964867,-0.5334941309606188,0.45211412590833283,-0.2927241325378418,0.15403008460998535,0.09355179965496063,-0.11953302472829819,-0.9719834923744202,-0.2023855596780777,0.04769459366798401,0.16471731662750244,0.187691330909729
1.3307234271038024,-0.528628668519634,0.4489907158554748,-0.2719637155532837,0.25876396894454956,0.0629906952381134,-0.11992097645998001,-0.971320629119873,-0.20531728863716125,0.0728934183716774,0.14124256372451782,0.14325971901416779
1.3277431758918865,-0.5184898147135112,0.44391261646854857,-0.39118579030036926,0.8225156664848328,0.02220209501683712,-0.11926716566085815,-0.9706076979637146,-0.20903590321540833,0.11974016577005386,0.09391403198242188,0.19309045374393463
1.3229531359035858,-0.49542747530471765,0.43243787288836194,-0.7440155148506165,1.5607717037200928,-0.04333004355430603,-0.11662416160106659,-0.9694437980651855,-0.21581876277923584,0.11685298383235931,0.018760085105895996,0.3430922329425812
1.3141539114285927,-0.4559714599177493,0.41147396274214776,-1.3259142637252808,2.2565178871154785,-0.08500426262617111,-0.11177210509777069,-0.967247724533081,-0.22790108621120453,0.076997309923172,0.018151044845581055,0.5111956596374512
1.2990982598523468,-0.4007099673794602,0.3793966463914474,-2.1034274101257324,2.445103168487549,-0.1775890439748764,-0.10468286275863647,-0.9633165597915649,-0.24710898101329803,-0.01932533085346222,0.11398178339004517,0.704674243927002
1.2767965338250997,-0.34505021201140784,0.3432461592061805,-2.7280611991882324,1.674086093902588,-0.035682208836078644,-0.09801711142063141,-0.9570924639701843,-0.27270209789276123,0.048120900988578796,0.12663298845291138,0.6922425031661987
1.2490815022253938,-0.3069555978846488,0.31724615944736423,-2.961577892303467,1.0400532484054565,0.31709983944892883,-0.09554053097963333,-0.9486945867538452,-0.301414430141449,0.19528722763061523,0.06498181819915771,0.4651564359664917
1.2196112769842418,-0.28609763103575236,0.3047573231109473,-2.8662848472595215,0.783272385597229,0.5948764681816101,-0.0970834419131279,-0.9389656782150269,-0.33002740144729614,0.10251558572053909,-0.0009603500366210938,0.18352773785591125
1.1913697912473145,-0.2768140403376984,0.30187371219244435,-2.5914158821105957,0.5235268473625183,0.7645230293273926,-0.10122410953044891,-0.9288771748542786,-0.3562873303890228,0.04203525930643082,0.015409886837005615,-0.021718710660934448
1.1655679079221448,-0.2762206135112765,0.30549157323116277,-2.2830893993377686,0.2781893312931061,0.9037925004959106,-0.10751456022262573,-0.9190123677253723,-0.37928441166877747,0.07641715556383133,0.06728214025497437,-0.11352869868278503
1.1423257044416488,-0.28096350244268364,0.31345791747651786,-2.0006000995635986,0.2553732097148895,0.9768586754798889,-0.11520497500896454,-0.9096022248268127,-0.39918869733810425,0.06569015979766846,0.06817162036895752,-0.14338338375091553
1.1215471834969506,-0.28646038255933515,0.3228646204393479,-1.755933165550232,0.34355059266090393,0.9271219372749329,-0.12271218746900558,-0.9007734656333923,-0.416592001914978,-0.010603845119476318,0.05069112777709961,-0.13518112897872925
1.1033129161433226,-0.2897464756795556,0.3307150567888549,-1.5439211130142212,0.4040786325931549,0.756985604763031,-0.12875230610370636,-0.8927052021026611,-0.431856632232666,-0.10221992433071136,0.015324890613555908,-0.09521248936653137
1.0873489261999432,-0.2894181652904918,0.3352951688071786,-1.402999758720398,0.4762265682220459,0.5517260432243347,-0.13266119360923767,-0.885397732257843,-0.44550180435180664,-0.16096363961696625,-0.015420079231262207,-0.05588677525520325
1.0727145292122757,-0.28475867935161076,0.33608224324960256,-1.3859750032424927,0.603532612323761,0.3465736508369446,-0.13420988619327545,-0.8785005807876587,-0.4585024118423462,-0.15685151517391205,-0.017327606678009033,-0.015832334756851196
1.0584264688828229,-0.27485300347559466,0.3328372294812771,-1.4453085660934448,0.8040288686752319,0.15140791237354279,-0.1330549418926239,-0.8715851306915283,-0.4718429148197174,-0.1616685688495636,-0.015103042125701904,-0.007969796657562256
1.0439170957645618,-0.2611269233407164,0.3269830595165101,-1.485124945640564,0.8898543119430542,0.06505811214447021,-0.12981748580932617,-0.8643805384635925,-0.4857919216156006,-0.14064458012580872,-0.004943132400512695,-0.03444129228591919
1.0303242682859812,-0.24795236292621323,0.32092633850029223,-1.249167561531067,0.6587339639663696,0.02255886048078537,-0.1262783408164978,-0.8574658632278442,-0.49880462884902954,-0.0920291543006897,-0.004945576190948486,-0.09021520614624023
1.0203056752956736,-0.23950280168146948,0.31648850855650973,-0.8001131415367126,0.27097558975219727,0.021303445100784302,-0.12409089505672455,-0.8522679805755615,-0.5081740021705627,-0.07572296261787415,-0.023128747940063477,-0.20891284942626953
1.0142689372627904,-0.23609073360152422,0.31429829603455683,-0.4502711892127991,0.07456164807081223,0.03593289107084274,-0.12355740368366241,-0.8490946292877197,-0.5135871767997742,-0.0556723028421402,-0.03968393802642822,-0.26313096284866333
1.0107607939443202,-0.23441179663014114,0.3131815002935704,-0.26963457465171814,0.0831705778837204,0.011956186965107918,-0.12338607013225555,-0.8472362160682678,-0.5166880488395691,-0.044582657516002655,-0.04470092058181763,-0.2244923710823059
1.00878981319074,-0.2326913003113438,0.3123748112050942,-0.13180263340473175,0.12610723078250885,-0.001881262520328164,-0.12288179993629456,-0.8461875915527344,-0.518523633480072,-0.029477208852767944,-0.032917022705078125,-0.16903746128082275
1.0081909058271368,-0.23077010103079082,0.31181562947598274,0.0016619479283690453,0.1584438681602478,-0.025745317339897156,-0.1220012754201889,-0.8458682894706726,-0.5192519426345825,-0.03362312912940979,-0.03692889213562012,-0.13832563161849976
1.008775086750855,-0.22857663256655983,0.3111304655695722,0.08450114727020264,0.1616298109292984,-0.07294686883687973,-0.12075002491474152,-0.846179723739624,-0.5190369486808777,-0.05648078769445419,-0.0463830828666687,-0.10860282182693481
1.0100130940096266,-0.22596829460108642,0.3098126098803278,0.12038324773311615,0.13145779073238373,-0.12067417800426483,-0.11916100233793259,-0.8468388319015503,-0.5183287858963013,-0.0647989809513092,-0.04801285266876221,-0.076779305934906
1.0115807078324166,-0.22330258685670817,0.3079052600735597,0.1349620372056961,0.08207892626523972,-0.1429184377193451,-0.11748474836349487,-0.8476715087890625,-0.5173494815826416,-0.05507689714431763,-0.044097900390625,-0.057967960834503174
1.0132768867099002,-0.2210344985174673,0.3059570041478639,0.1513838917016983,0.045060448348522186,-0.1283879578113556,-0.11599566787481308,-0.8485701680183411,-0.5162110328674316,-0.026643484830856323,-0.047136008739471436,-0.051095545291900635
1.0151282622648856,-0.219397008246492,0.3045950214632019,0.1758182793855667,0.061231568455696106,-0.09054183959960938,-0.114808090031147,-0.8495482206344604,-0.5148659944534302,0.014969825744628906,-0.04109203815460205,-0.0478171706199646
1.0170116328766523,-0.2179473644666637,0.3039517454188328,0.1705513447523117,0.12043976783752441,-0.05912133306264877,-0.11371543258428574,-0.8505402207374573,-0.5134688019752502,0.04277732968330383,-0.03953540325164795,-0.02162647247314453
1.0186413270100068,-0.21647458235595332,0.30374944151185346,0.13672342896461487,0.12242283672094345,-0.03434205427765846,-0.1126612201333046,-0.8513961434364319,-0.5122812986373901,0.034398868680000305,-0.05152750015258789,0.010679066181182861
1.0197665168811219,-0.21567410547465177,0.3038212439488096,0.08359283953905106,0.04334932565689087,-0.00966440699994564,-0.11204599589109421,-0.8519858121871948,-0.5114350914955139,0.0288245752453804,-0.0443153977394104,0.033346712589263916
1.0200385387814745,-0.21589888623040285,0.3039560914324585,-0.045946113765239716,-0.05185450613498688,0.014262995682656765,-0.11211130023002625,-0.8521282076835632,-0.5111834406852722,0.03873181343078613,-0.018431425094604492,0.07499563694000244
1.0190870693728264,-0.21696359299756313,0.30417793998930315,-0.12515464425086975,-0.14615970849990845,0.04433434456586838,-0.11282998323440552,-0.8516298532485962,-0.5118553638458252,0.035727329552173615,-0.0013211369514465332,0.0899956226348877
1.0176989039569861,-0.2198961351384479,0.3050048983424163,-0.12004844844341278,-0.2883610129356384,0.10640503466129303,-0.11458830535411835,-0.8509014248847961,-0.5126755833625793,0.03566986322402954,-0.027348637580871582,0.01212620735168457
1.0163907531191172,-0.22475499095767767,0.3069163350712597,-0.08940745145082474,-0.34297341108322144,0.13786736130714417,-0.11732593178749084,-0.8502135276794434,-0.5131974220275879,0.04107777029275894,-0.020330846309661865,-0.0015883445739746094
1.0153385066369556,-0.22998385488243547,0.30921015630221,-0.053837813436985016,-0.30254244804382324,0.1452459692955017,-0.12021161615848541,-0.8496590852737427,-0.513447642326355,0.02484416961669922,-0.01577359437942505,-0.02099144458770752
1.0148161652212904,-0.23468195538585804,0.31162556454271584,0.012950005009770393,-0.22368676960468292,0.13538561761379242,-0.1227257028222084,-0.849383533000946,-0.5133088231086731,0.011901110410690308,-0.00991511344909668,-0.03605341911315918
1.0149557331203325,-0.2385452836168902,0.3140903808042182,0.06194455176591873,-0.13714183866977692,0.12602967023849487,-0.12467988580465317,-0.8494572043418884,-0.5127158164978027,0.004288047552108765,-0.011077404022216797,-0.04409271478652954
1.015689611013606,-0.24209003243306149,0.31677944580680706,0.13506430387496948,-0.13154387474060059,0.13232991099357605,-0.12634706497192383,-0.849844217300415,-0.5116652846336365,-0.0016894340515136719,-0.007333517074584961,-0.0658341646194458
1.017460126877062,-0.2467663792600962,0.3201889000220148,0.2746458053588867,-0.24103198945522308,0.1515321284532547,-0.12837061285972595,-0.8507760167121887,-0.509608805179596,-0.000337257981300354,0.009864211082458496,-0.13138240575790405
1.0206694769034463,-0.253690755774221,0.32471310079669236,0.4324583113193512,-0.36494967341423035,0.15565204620361328,-0.13121025264263153,-0.8524582386016846,-0.5060619711875916,-0.01120002567768097,0.025447189807891846,-0.17608219385147095
1.0249947801199017,-0.26201382986247007,0.3296941904380667,0.5205541253089905,-0.4409032464027405,0.1225486472249031,-0.13446131348609924,-0.8547114729881287,-0.5013863444328308,-0.04719458520412445,0.02150547504425049,-0.1278098225593567
1.0298843573060812,-0.27052544299095216,0.3343526803536792,0.5395810604095459,-0.44331419467926025,0.08386649936437607,-0.13760556280612946,-0.8572394251823425,-0.49619075655937195,-0.05019962787628174,0.0034339427947998047,-0.051645636558532715
