attitudeX,attitudeY,attitudeZ,gyroX,gyroY,gyroZ,gravityX,gravityY,gravityZ,accX,accY,accZ
1.1273778772186867,0.0880819304221932,-0.8796783482582209,0.35305845737457275,-0.7955116033554077,-0.06854122132062912,0.03774093836545944,-0.903290331363678,-0.427366703748703,-0.13049909472465515,-0.2743220925331116,-0.29976028203964233
1.1316152654459541,0.07885105456433691,-0.8814366805893099,0.5107465982437134,-1.3886010646820068,-0.00023513427004218102,0.033492621034383774,-0.9051001667976379,-0.42387738823890686,-0.027907881885766983,-0.3754938244819641,-0.320904016494751
1.137817670781227,0.06169247673014551,-0.8813340335887382,0.7300710678100586,-2.0384554862976074,0.09087291359901428,0.025868291035294533,-0.9077200293540955,-0.4187782108783722,0.08646693080663681,-0.5111337900161743,-0.37168797850608826
1.1461147185253318,0.03732847073816817,-0.8799167766135422,0.9080344438552856,-2.541649580001831,0.09462983906269073,0.015376914292573929,-0.9111699461936951,-0.4117439389228821,0.14337554574012756,-0.7117701768875122,-0.44592201709747314
1.155386719748079,0.010745613763165825,-0.8792870296753444,0.9180787801742554,-2.6220955848693848,-0.010662500746548176,0.004336468409746885,-0.9149510860443115,-0.40354153513908386,0.10825814306735992,-0.9618495106697083,-0.5154799818992615
1.1633212345851507,-0.013035921248371388,-0.8821949914424189,0.6272914409637451,-2.7121026515960693,-0.25073182582855225,-0.005165891256183386,-0.9181243777275085,-0.39625880122184753,-0.028494980186223984,-1.0928620100021362,-0.4704860746860504
1.1672451948539728,-0.030654066762191293,-0.8935544929766758,0.13332264125347137,-2.9107038974761963,-0.6780948042869568,-0.01203556451946497,-0.9196723103523254,-0.39250239729881287,-0.2105748951435089,-1.1811425685882568,-0.31735163927078247
1.166673758442318,-0.03900444967986074,-0.9169743330597084,-0.2933115065097809,-3.0889878273010254,-1.1608258485794067,-0.015333148650825024,-0.9194477796554565,-0.39291343092918396,-0.3400745689868927,-1.3311169147491455,-0.3162539601325989
1.1632206801323386,-0.038662262987051686,-0.9527634528665034,-0.4769650995731354,-3.4597439765930176,-1.6482746601104736,-0.01532131526619196,-0.9180845022201538,-0.396088570356369,-0.4020828306674957,-1.3723361492156982,-0.49458208680152893
1.159182406523115,-0.03090387477151085,-1.0009243965462538,-0.44523167610168457,-3.8165478706359863,-2.171027183532715,-0.012362342327833176,-0.916476309299469,-0.3998982906341553,-0.44549286365509033,-1.3607606887817383,-0.700168788433075
1.156134651201252,-0.014079013381805235,-1.0616343346219959,-0.269321471452713,-3.9215047359466553,-2.6909751892089844,-0.005671970080584288,-0.915252685546875,-0.40284037590026855,-0.42978331446647644,-1.3473358154296875,-0.8770819902420044
1.1541522989872897,0.012917869857079857,-1.133536955356467,-0.14072301983833313,-3.813065528869629,-3.1084706783294678,0.0052276370115578175,-0.9144522547721863,-0.40466007590293884,-0.37206417322158813,-1.290152907371521,-0.9102811813354492
1.1511580312799408,0.04593112496723353,-1.2124999782287522,-0.3654288649559021,-4.2307915687561035,-3.2998929023742676,0.018707159906625748,-0.9132363796234131,-0.4070007801055908,-0.33154284954071045,-1.1918357610702515,-0.8112456202507019
1.1453676548965932,0.07603279171162958,-1.2901451389649883,-0.31782540678977966,-3.7948708534240723,-3.0833075046539307,0.031349390745162964,-0.9108619093894958,-0.41151925921440125,-0.3091356158256531,-0.9374200701713562,-0.6439005732536316
1.142082485989659,0.10465168355734505,-1.3569280275521518,0.19465865194797516,-2.6789674758911133,-2.4625794887542725,0.04342450946569443,-0.9095011353492737,-0.41342732310295105,-0.14112651348114014,-0.7676839828491211,-0.7875308990478516
1.1446180439790894,0.12689433693994,-1.4086078465360992,0.82182776927948,-2.425809144973755,-1.760053038597107,0.052316684275865555,-0.9105522632598877,-0.41007015109062195,0.11015891283750534,-0.6431282162666321,-1.0097600221633911
1.153442728929544,0.13591952490893944,-1.4484977654190545,1.3319827318191528,-3.1578080654144287,-1.2972418069839478,0.05492450296878815,-0.9141648411750793,-0.40160423517227173,0.12413740903139114,-0.47528523206710815,-1.059424638748169
1.1673664994818376,0.1336307604665585,-1.484379422008496,1.8195453882217407,-3.8261611461639404,-1.2302957773208618,0.05230415239930153,-0.919719934463501,-0.3890754282474518,-0.15443119406700134,-0.2531317472457886,-0.9275290966033936
1.1856738667723354,0.13446117705806343,-1.5282167167490457,2.2564594745635986,-4.1003594398498535,-1.6987634897232056,0.050361357629299164,-0.9267524480819702,-0.3722820580005646,-0.3214947581291199,-0.16472411155700684,-0.7980974912643433
1.2072348881520618,0.15216663411236028,-1.5911862739742966,2.6728808879852295,-4.043428897857666,-2.2190535068511963,0.05390265956521034,-0.9346362948417664,-0.3514961302280426,-0.21541693806648254,-0.06955987215042114,-0.6797232627868652
1.2311820055036315,0.18913124773176349,-1.6724183889669715,2.988942861557007,-3.8595423698425293,-2.4586117267608643,0.06262914091348648,-0.9428831934928894,-0.327183336019516,-0.02646578848361969,-0.18121659755706787,-0.6636155247688293
1.2561139893697442,0.2421691097083751,-1.768860242904668,3.2068967819213867,-3.8144166469573975,-2.5283496379852295,0.07422443479299545,-0.9508947730064392,-0.30048316717147827,0.03306013345718384,-0.16865795850753784,-0.6222919821739197
1.2809440714708547,0.3107418929451127,-1.8798019742066119,3.38291597366333,-3.6456220149993896,-2.4618136882781982,0.08739101141691208,-0.9582861065864563,-0.2721226215362549,-0.05531700700521469,0.03178757429122925,-0.5537745356559753
1.3053888072110835,0.3959336335019605,-2.0045787060824978,3.5729775428771973,-3.329320192337036,-2.2670795917510986,0.1011623814702034,-0.9649856686592102,-0.24201053380966187,-0.020107656717300415,0.18103468418121338,-0.47551867365837097
1.328922093083429,0.4996359759240299,-2.1443066346590687,3.690380573272705,-2.9920082092285156,-2.0220282077789307,0.11475701630115509,-0.9708907604217529,-0.21024318039417267,0.1026349812746048,0.21999037265777588,-0.384178102016449
1.3498027911148238,0.6217736132019746,-2.298591846681027,3.5812008380889893,-2.6355011463165283,-1.7679942846298218,0.12767869234085083,-0.9756801724433899,-0.17817538976669312,0.18187637627124786,0.2658259868621826,-0.22596882283687592
1.3658129037914266,0.7574115767497769,-2.462293509868477,3.283280372619629,-2.2278263568878174,-1.5424437522888184,0.13984845578670502,-0.9790643453598022,-0.14790375530719757,0.18856649100780487,0.38239985704421997,-0.03347742557525635
1.3764781936645083,0.8978937124471041,-2.625206493251854,2.9189810752868652,-1.6030842065811157,-1.2611559629440308,0.15100577473640442,-0.9811795353889465,-0.12035002559423447,0.24174022674560547,0.48444485664367676,0.10951638221740723
1.3828846703379556,1.034313815145144,-2.776803036850684,2.555060863494873,-0.8792153596878052,-0.9700753092765808,0.16056369245052338,-0.9823964834213257,-0.0954805314540863,0.3320968449115753,0.4975789785385132,0.19794338941574097
1.3861929458043956,1.1619306583349245,-2.912001883538175,2.2144856452941895,-0.19165591895580292,-0.7309255599975586,0.16842706501483917,-0.9830091595649719,-0.07297662645578384,0.3673548400402069,0.4737469553947449,0.24346321821212769
1.3873395597895954,1.2781182232428543,-3.029379710153843,1.9116475582122803,0.3255724608898163,-0.5388731956481934,0.17467239499092102,-0.9832189679145813,-0.052634332329034805,0.34081530570983887,0.47786301374435425,0.26837843656539917
1.3869945829056451,1.3813146930426992,-3.1298109423673375,1.6413654088974,0.49340617656707764,-0.41881608963012695,0.1794976145029068,-0.9831559658050537,-0.03442447632551193,0.2961188554763794,0.48890846967697144,0.3002326488494873
1.3851559929095802,1.467478161512612,3.0697026135832575,1.3449313640594482,0.28891536593437195,-0.4036344587802887,0.18359194695949554,-0.9828182458877563,-0.01903616636991501,0.25630372762680054,0.5378261208534241,0.37531375885009766
1.381795152954681,1.5320304861692364,3.0055657290206605,0.9871676564216614,-0.0009337379597127438,-0.44191688299179077,0.187737375497818,-0.9821923971176147,-0.00728144496679306,0.2571936845779419,0.6379997730255127,0.4035980701446533
1.37718516936135,1.5717915390042172,2.962723270958983,0.6406089067459106,-0.4826186001300812,-0.5091359615325928,0.1924050897359848,-0.9813158512115479,0.00019148395222146064,0.29445716738700867,0.6832504272460938,0.3914254903793335
1.3717169463486316,1.5902532521678268,2.9361232673069346,0.43599340319633484,-1.0448726415634155,-0.5829153656959534,0.19773000478744507,-0.9802490472793579,0.003847703570500016,0.2949915826320648,0.6612334847450256,0.3423895835876465
1.3652580003709411,1.5965513842727383,2.916325607779572,0.4141404926776886,-1.5797327756881714,-0.6884493231773376,0.20402681827545166,-0.9789512753486633,0.005255884490907192,0.24505463242530823,0.6557700634002686,0.2569054365158081
1.358101757967876,1.5995188442142438,2.8944205102020626,0.5502471923828125,-2.121445417404175,-0.7056005597114563,0.21100784838199615,-0.9774656295776367,0.006062343716621399,0.18678881227970123,0.7047299742698669,0.16057896614074707
1.351179434111539,1.6043705734463687,2.865132713073919,0.7564513087272644,-2.630066394805908,-0.6301410794258118,0.2177334874868393,-0.9759809970855713,0.007312986068427563,0.1372622847557068,0.7958813905715942,0.08501803874969482
1.3452040435355868,1.6135890076768387,2.8267409234052394,0.985419511795044,-3.0005249977111816,-0.5010576844215393,0.22347934544086456,-0.9746617674827576,0.009569122456014156,0.08660979568958282,0.8635014891624451,0.04778885841369629
1.3402985480641407,1.6279594206124777,2.7803769445975313,1.1566742658615112,-3.143049955368042,-0.37936028838157654,0.22808925807476044,-0.9735527634620667,0.013052508234977722,0.06027135252952576,0.8564873337745667,0.03618776798248291
1.336146347889648,1.6467395718370812,2.729147446800608,1.2494220733642578,-3.061628580093384,-0.2988598346710205,0.2318333387374878,-0.9725958108901978,0.01764010079205036,0.052056506276130676,0.8156131505966187,0.049147725105285645
1.3323580656486549,1.667727107259063,2.6769984963042446,1.2437775135040283,-2.89435076713562,-0.2482604682445526,0.23507750034332275,-0.9717079997062683,0.022857878357172012,0.047454312443733215,0.7752509117126465,0.08233630657196045
1.3288855467260414,1.6876369424815048,2.6276929159447424,1.157719612121582,-2.7081031799316406,-0.1940441131591797,0.2379254847764969,-0.970881998538971,0.027926558628678322,0.036091893911361694,0.7322801947593689,0.10860919952392578
1.3257937733018155,1.7040734932748598,2.583951017870557,1.0157546997070312,-2.5052685737609863,-0.15526865422725677,0.2404082864522934,-0.9701367020606995,0.03223200514912605,0.014596641063690186,0.7105845808982849,0.12664258480072021
1.3232338170867513,1.7167919696145448,2.546232716849158,0.8852142691612244,-2.2794036865234375,-0.08976368606090546,0.2424352467060089,-0.9695125818252563,0.035648129880428314,-0.0055272579193115234,0.7051997184753418,0.13712716102600098
1.3215834147001801,1.7272497140616139,2.512921025634203,0.7878659963607788,-2.105051040649414,0.012629677541553974,0.24362924695014954,-0.9691068530082703,0.038430698215961456,-0.0010144710540771484,0.6700345277786255,0.1407381296157837
1.321063340636047,1.7358747072616498,2.4830346783394392,0.6854671835899353,-1.97251296043396,0.12049036473035812,0.24378558993339539,-0.9689784646034241,0.040613315999507904,0.014515221118927002,0.6158748269081116,0.1542567014694214
1.3216735521884222,1.7420666828319478,2.4571075490149252,0.5579925179481506,-1.8175406455993652,0.2107590138912201,0.24294711649417877,-0.9691290855407715,0.04202132299542427,0.01118806004524231,0.5759404897689819,0.17920076847076416
1.3231582011952854,1.7461725537551198,2.4348398856872007,0.4746931493282318,-1.6935065984725952,0.26872190833091736,0.24135538935661316,-0.9694940447807312,0.04276736453175545,-0.009314939379692078,0.5606042146682739,0.19316422939300537
1.3252064935976045,1.749138629507133,2.4150028415437466,0.41221919655799866,-1.5615819692611694,0.31468793749809265,0.2392730414867401,-0.969994068145752,0.04313075169920921,-0.03791798651218414,0.5474932789802551,0.19023728370666504
1.3279870028037155,1.7524656533179421,2.396412755458394,0.37741726636886597,-1.383851408958435,0.3935995399951935,0.23647435009479523,-0.9706663489341736,0.043439075350761414,0.0051638782024383545,0.4864286184310913,0.16067790985107422
1.3313285251313522,1.7571283119355625,2.3781569584110045,0.35590416193008423,-1.2513704299926758,0.41653090715408325,0.23308025300502777,-0.9714643359184265,0.04394001513719559,0.08677451312541962,0.39326298236846924,0.13207018375396729
1.334611636600951,1.7609972819420865,2.361307903211888,0.2982690930366516,-1.2724549770355225,0.3741008937358856,0.22977523505687714,-0.9722378253936768,0.044238220900297165,0.10626907646656036,0.34600186347961426,0.13683795928955078
1.3375241000271967,1.7612879906483945,2.3473499657018464,0.22979064285755157,-1.3949718475341797,0.323484867811203,0.2269820272922516,-0.9729151725769043,0.043768882751464844,0.09006516635417938,0.34841853380203247,0.1577082872390747
1.3401830011960059,1.7580030102230597,2.3358589737994695,0.1962108463048935,-1.4954798221588135,0.3057575225830078,0.22458180785179138,-0.9735263586044312,0.04254135116934776,0.0469636470079422,0.3878176808357239,0.1571505069732666
1.3429286238151275,1.7540773954327247,2.3244490359614414,0.21484827995300293,-1.5138745307922363,0.33993449807167053,0.22211837768554688,-0.9741503000259399,0.041172146797180176,0.005024030804634094,0.44114530086517334,0.12154769897460938
1.3462331090910822,1.7521028646770644,2.3110869325293635,0.25630277395248413,-1.4842100143432617,0.42544034123420715,0.21903155744075775,-0.9748914837837219,0.040152788162231445,-0.051627323031425476,0.4725566506385803,0.0846794843673706
1.3502875720614322,1.7532168393853906,2.2953002628639596,0.2802855670452118,-1.3677409887313843,0.49973252415657043,0.2150975465774536,-0.9757862687110901,0.03967932611703873,-0.10370835661888123,0.4639759063720703,0.08173501491546631
1.3549770689912755,1.7563850452473284,2.278878231318126,0.23678630590438843,-1.208990216255188,0.5520960688591003,0.21047085523605347,-0.9768012762069702,0.039515744894742966,-0.15643946826457977,0.44635993242263794,0.10442054271697998
1.3601042522422,1.7588730648380235,2.2650346957706344,0.14197741448879242,-0.9945208430290222,0.5618566274642944,0.20544902980327606,-0.977886438369751,0.039102327078580856,-0.22830668091773987,0.4472162127494812,0.11568295955657959
1.3652783849735537,1.7594399690029252,2.255829656484296,0.03910030052065849,-0.688042938709259,0.523703932762146,0.200454443693161,-0.9789553880691528,0.03826949745416641,-0.2869412302970886,0.43261438608169556,0.09815943241119385
1.3699381891139912,1.758826633006194,2.2511253642374376,-0.023126160725951195,-0.3627515435218811,0.4216969907283783,0.195994570851326,-0.9798957109451294,0.03729346767067909,-0.3243819773197174,0.4114447236061096,0.0716695785522461
1.3732968698665102,1.7585174388133131,2.249286071502958,-0.02328089065849781,-0.07233356684446335,0.24370460212230682,0.19277054071426392,-0.980560302734375,0.036618247628211975,-0.3493714928627014,0.40354931354522705,0.05765055865049362
1.374615686882107,1.7592253700322502,2.24870125666694,-0.005992750637233257,0.07607798278331757,0.022611822932958603,0.19147507846355438,-0.9808182120323181,0.036512624472379684,-0.3711930513381958,0.39504843950271606,0.08304011821746826
1.3738570613949046,1.7589391704297286,2.2498921835125114,-0.025556331500411034,0.09091205149888992,-0.17098267376422882,0.192216157913208,-0.9806700348854065,0.036596931517124176,-0.3637706935405731,0.4163541793823242,0.13395071029663086
1.3715774148636752,1.754521020672056,2.255355722769603,-0.11270859837532043,0.10386668890714645,-0.3051377236843109,0.19457276165485382,-0.9802214503288269,0.03615554794669151,-0.3359606862068176,0.48174744844436646,0.19483208656311035
1.3686526598930264,1.7453291057691234,2.2662204366633656,-0.21150441467761993,0.19539235532283783,-0.3365510404109955,0.19771993160247803,-0.9796384572982788,0.03486333042383194,-0.303432822227478,0.5534451603889465,0.22815251350402832
1.365875670547036,1.7325378795729023,2.281931084846289,-0.32694536447525024,0.3263857066631317,-0.3142472207546234,0.20083342492580414,-0.979077160358429,0.03276936337351799,-0.26293671131134033,0.602795422077179,0.2154148817062378
1.363455309184598,1.7157025100247236,2.303170145554566,-0.4626310169696808,0.468551903963089,-0.29942938685417175,0.20370204746723175,-0.9785817265510559,0.029726039618253708,-0.24805930256843567,0.6110737323760986,0.1887493133544922
1.3612613718209403,1.6946316917469244,2.330311626913713,-0.5934497117996216,0.6372972726821899,-0.28236305713653564,0.20641295611858368,-0.9781277775764465,0.025692692026495934,-0.2192760854959488,0.580758273601532,0.14819657802581787
1.3593332017540851,1.6699225972995737,2.36295500815358,-0.719093918800354,0.8063046932220459,-0.2516797184944153,0.20886071026325226,-0.9777248501777649,0.020771661773324013,-0.16128377616405487,0.5517756938934326,0.09456956386566162
1.3576554835994987,1.6426824556875959,2.39971767861116,-0.7984137535095215,0.9292535781860352,-0.21493591368198395,0.2109845131635666,-0.977371335029602,0.015193038620054722,-0.1205914169549942,0.5368043184280396,0.03780078887939453
1.3562169684072642,1.614472304738592,2.438428669921777,-0.8218298554420471,0.9935119152069092,-0.16690793633460999,0.21273379027843475,-0.9770660400390625,0.009297268465161324,-0.09452393651008606,0.5263213515281677,-0.02211451530456543
1.3550358573436083,1.5875612747621821,2.4764366435145315,-0.7934005260467529,1.0657069683074951,-0.12326744198799133,0.21406054496765137,-0.9768138527870178,0.003589050145819783,-0.06103011965751648,0.5076213479042053,-0.06816411018371582
1.3537814411294224,1.5633883013643421,2.51242235646706,-0.7567967176437378,1.1169086694717407,-0.14237268269062042,0.21531003713607788,-0.9765445590019226,-0.001595051377080381,-0.03394404053688049,0.47155481576919556,-0.0724252462387085
1.3518321302965224,1.5404817846533723,2.546960800850634,-0.7531814575195312,1.039440393447876,-0.2245139330625534,0.217119038105011,-0.9761229753494263,-0.006583881098777056,-0.050096333026885986,0.45239555835723877,-0.051353633403778076
1.348869787969288,1.5170454415036818,2.580959378792213,-0.7583325505256653,0.9115138053894043,-0.30231738090515137,0.2197921723127365,-0.9754751920700073,-0.011825415305793285,-0.06454919278621674,0.453441321849823,-0.047378599643707275
1.3452530485940204,1.494495623333656,2.613007031752659,-0.6976509690284729,0.842247724533081,-0.3186472952365875,0.2229861319065094,-0.9746727347373962,-0.01704709418118,-0.06501181423664093,0.4616110324859619,-0.058941543102264404
1.3418164884666735,1.4774009910982802,2.6391871919586123,-0.5273838639259338,0.8485378623008728,-0.26303356885910034,0.22599558532238007,-0.9738984704017639,-0.02116851881146431,-0.03417731821537018,0.46327823400497437,-0.08251482248306274
1.3392898932416648,1.4694804451239467,2.656096431245433,-0.29053977131843567,0.8606343269348145,-0.16205355525016785,0.22826769948005676,-0.9733218550682068,-0.023206602782011032,0.005237594246864319,0.439050555229187,-0.10040473937988281
1.338153251546414,1.4705758965795015,2.663722569439451,-0.09257876127958298,0.8393327593803406,-0.03111710026860237,0.22939392924308777,-0.9730604290962219,-0.023067239671945572,0.04318912327289581,0.4129559397697449,-0.08986294269561768
1.3383343970793742,1.4767965454869068,2.6655312244949516,-0.0009699179790914059,0.7563490867614746,0.06423573195934296,0.22935763001441956,-0.9731021523475647,-0.021623292937874794,0.06997406482696533,0.3798556327819824,-0.03449845314025879
1.339091511929767,1.4838270973358072,2.6653166141490314,0.01842934638261795,0.6042290925979614,0.0778423547744751,0.22877010703086853,-0.9732763171195984,-0.019946275278925896,0.04172247648239136,0.36304670572280884,0.02139592170715332
1.3396964964482505,1.490089779539409,2.6640825073176857,0.05239639803767204,0.40741825103759766,0.03668816760182381,0.2283032089471817,-0.9734150767326355,-0.018465673550963402,0.00659063458442688,0.34276920557022095,0.029391109943389893
1.339901325453889,1.4970153482057846,2.6599467530343692,0.14630131423473358,0.17592857778072357,-0.012292691506445408,0.22822615504264832,-0.9734619855880737,-0.01686936989426613,0.0012202709913253784,0.29575812816619873,-5.250982940196991e-05
1.339673775066565,1.5069418009686617,2.6504383696644362,0.2870374321937561,-0.03679804503917694,-0.06196083128452301,0.2286035269498825,-0.97340989112854,-0.01461724191904068,0.0035742074251174927,0.26289963722229004,-0.037354111671447754
1.3390806767601893,1.5211441767476468,2.6347575563599372,0.42028895020484924,-0.15817399322986603,-0.08942867070436478,0.22936517000198364,-0.9732738137245178,-0.011397842317819595,0.02260322868824005,0.23676252365112305,-0.05361980199813843
1.3384992605243695,1.539080256715088,2.6148229530651466,0.4854836165904999,-0.11448755115270615,-0.05489350110292435,0.23009763658046722,-0.9731401205062866,-0.00730024091899395,0.057286396622657776,0.2238115668296814,-0.03472238779067993
1.3384625183546732,1.558724725570656,2.5939437812931474,0.46958455443382263,-0.0255156010389328,0.026728125289082527,0.23023253679275513,-0.9731317162513733,-0.0027794104535132647,0.10463687777519226,0.20109796524047852,0.02090698480606079
1.3391111338457369,1.5772400829531081,2.574652862130276,0.41867780685424805,-0.04235411435365677,0.09666436910629272,0.22961387038230896,-0.9732808470726013,0.0014795962488278747,0.13027997314929962,0.17761117219924927,0.062363386154174805
1.3402815565757635,1.5930999617900703,2.557390639512124,0.37634074687957764,-0.1545136719942093,0.1459331214427948,0.22842323780059814,-0.9735488891601562,0.005095513537526131,0.13981719315052032,0.16631299257278442,0.06550705432891846
1.3418137472415335,1.6065825079531728,2.54118666364819,0.35897088050842285,-0.30382853746414185,0.18205231428146362,0.22684204578399658,-0.9738978147506714,0.008121277205646038,0.1481122225522995,0.1629083752632141,0.05625569820404053
1.3436073271932103,1.6185305779807546,2.5251274635997474,0.35795941948890686,-0.437488317489624,0.20571769773960114,0.22498328983783722,-0.9743033647537231,0.010747573338449001,0.15554043650627136,0.17745888233184814,0.049219608306884766
1.3455966888936437,1.629537099882829,2.508506664451024,0.36762312054634094,-0.6002376675605774,0.23403744399547577,0.22291621565818787,-0.9747495651245117,0.013109352439641953,0.14204353094100952,0.20553869009017944,0.05105388164520264
1.3480058615689385,1.639975838699995,2.4910036460380036,0.37791863083839417,-0.7208338379859924,0.3023483157157898,0.2204238623380661,-0.9752846956253052,0.01527318824082613,0.1328629106283188,0.2149239182472229,0.0772256851196289
1.35126106403256,1.6502904767572453,2.472543657376549,0.3803769648075104,-0.8270407915115356,0.4142170548439026,0.2170892059803009,-0.9759987592697144,0.017293766140937805,0.13691474497318268,0.2189338207244873,0.10720276832580566
1.3558798945300587,1.6601942749329515,2.4534000361852115,0.36077582836151123,-0.9319541454315186,0.5894488096237183,0.21241478621959686,-0.9769942164421082,0.019040195271372795,0.12335491180419922,0.2191815972328186,0.12275981903076172
1.362204275030553,1.6689498425191396,2.4344531508429443,0.3094514012336731,-1.0313408374786377,0.7295904755592346,0.20608700811862946,-0.9783234596252441,0.020293375477194786,0.10597057640552521,0.18237900733947754,0.1320962905883789
1.3692733118342586,1.6743458246737233,2.41784820971173,0.21946929395198822,-1.1407887935638428,0.7340837717056274,0.1990901678800583,-0.979762852191925,0.020689688622951508,0.0619114488363266,0.14135336875915527,0.12594735622406006
1.3761105119823713,1.6741879791254062,2.4061942088689228,0.09810581058263779,-1.1640840768814087,0.6758627891540527,0.192425936460495,-0.9811084866523743,0.019966432824730873,0.017489254474639893,0.12098574638366699,0.09963202476501465
1.3827129564651162,1.668252960170451,2.400961748958617,-0.03210598975419998,-1.0350738763809204,0.673075258731842,0.1860893964767456,-0.9823644161224365,0.018193280324339867,0.015082508325576782,0.11217093467712402,0.07467186450958252
1.389947307527627,1.6577202761775556,2.4024232499791442,-0.14592182636260986,-0.7738348841667175,0.7778165340423584,0.1791866421699524,-0.9836913347244263,0.015614958480000496,0.04319499433040619,0.13295269012451172,0.058008790016174316
1.3987922633973224,1.6450228077975504,2.409262945594492,-0.23530682921409607,-0.421021968126297,0.9789354801177979,0.17068679630756378,-0.9852437376976013,0.012692799791693687,0.0803050547838211,0.19753915071487427,0.043169617652893066
1.409855057783075,1.6292643621110292,2.4222450895292806,-0.34253281354904175,-0.19915609061717987,1.2070506811141968,0.1599748730659485,-0.9870768785476685,0.009364088997244835,0.1294996440410614,0.25219810009002686,0.06198608875274658
1.4231114284714652,1.6055422227396243,2.4439941740263187,-0.44467464089393616,-0.2920471429824829,1.411246657371521,0.14706076681613922,-0.9891144037246704,0.0051118154078722,0.15292704105377197,0.26468801498413086,0.1131134033203125
1.4380070956434743,1.5683632370345342,2.4764541145414825,-0.5057071447372437,-0.7486216425895691,1.5498590469360352,0.13240022957324982,-0.9911964535713196,-0.00032214229577220976,0.13291960954666138,0.26184147596359253,0.13359248638153076
1.4535732460031443,1.5142421157959383,2.5206869109897854,-0.49910515546798706,-1.2851381301879883,1.5858747959136963,0.11676916480064392,-0.9931372404098511,-0.0066108377650380135,0.08495207130908966,0.23349356651306152,0.1150093674659729
1.468450006118404,1.4444928777508168,2.5760687551857733,-0.43378695845603943,-1.630694031715393,1.4741567373275757,0.1013549417257309,-0.9947671890258789,-0.012869988568127155,0.007013007998466492,0.14653104543685913,0.047965288162231445
1.481185943893116,1.3661293631449878,2.6377890536913444,-0.31183016300201416,-1.7292581796646118,1.2228587865829468,0.08762285113334656,-0.9959876537322998,-0.018188174813985825,-0.12638016045093536,0.05622941255569458,-0.0511934757232666
1.4910478305798671,1.2916435554315298,2.69552637256064,-0.164865180850029,-1.6561574935913086,0.9316505789756775,0.07658232003450394,-0.9968217611312866,-0.021951347589492798,-0.23756250739097595,-0.0008895397186279297,-0.12673020362854004
1.4985788775998137,1.2297437318356914,2.7416587230575953,-0.0477614663541317,-1.532707929611206,0.7374693751335144,0.06800004839897156,-0.9973934292793274,-0.024134686216711998,-0.23982925713062286,-0.014493227005004883,-0.11130225658416748
1.5049727636739771,1.1781592925190258,2.7784054489082846,0.028359482064843178,-1.467413067817688,0.6507127285003662,0.06077249348163605,-0.9978343844413757,-0.025168372318148613,-0.17087988555431366,0.03544723987579346,-0.05201047658920288
1.5109170535909082,1.1312526746991285,2.8107507704540504,0.079551562666893,-1.46470046043396,0.6049262881278992,0.05415697023272514,-0.9982077479362488,-0.025465862825512886,-0.13501326739788055,0.114510178565979,-0.020951271057128906
1.5164846710403437,1.0892673064235354,2.838283534783023,0.13706110417842865,-1.4304639101028442,0.528837263584137,0.048112839460372925,-0.9985255002975464,-0.025141645222902298,-0.15646548569202423,0.1546228528022766,-0.012059150263667107
1.5215538735960827,1.0603276664317263,2.853411546065221,0.20591206848621368,-1.334171175956726,0.4364396929740906,0.042947590351104736,-0.9987878203392029,-0.024049540981650352,-0.18767718970775604,0.14202207326889038,-0.01951419934630394
1.526136798519014,1.051895056752232,2.849297339186935,0.2789780795574188,-1.177956223487854,0.34926873445510864,0.03876826912164688,-0.9990029335021973,-0.022140707820653915,-0.1960711032152176,0.12612390518188477,-0.04161041975021362
1.5304947537021316,1.068897922374417,2.8215137277718827,0.34887781739234924,-0.9608063697814941,0.303663969039917,0.03532331436872482,-0.9991880059242249,-0.01938437670469284,-0.18096844851970673,0.13511323928833008,-0.08674037456512451
1.5348816420250189,1.1080126689189156,2.77423230529868,0.37206700444221497,-0.6778209805488586,0.31879428029060364,0.032133135944604874,-0.999355137348175,-0.016031881794333458,-0.12701228260993958,0.132579505443573,-0.12158703804016113
1.5398313425082157,1.1541292661388567,2.7222117410738105,0.3648647665977478,-0.5199775695800781,0.44422727823257446,0.028319045901298523,-0.9995205998420715,-0.012533467262983322,-0.06353630125522614,0.09671890735626221,-0.12420046329498291
1.5465060153638739,1.1977536018029211,2.673543995860057,0.40528813004493713,-0.5127222537994385,0.7039123773574829,0.022621771320700645,-0.9997050166130066,-0.008853432722389698,0.03842867165803909,0.05033355951309204,-0.1228451132774353
1.556121220018389,1.2661270196883667,2.5990125151135044,0.5155614018440247,-0.7342802286148071,1.0123958587646484,0.01399994920939207,-0.9998922944068909,-0.004402420949190855,0.16866302490234375,0.017195820808410645,-0.1245800256729126
1.5678400055222406,2.1395698998646435,1.7168561082049039,0.7067595720291138,-1.003180980682373,1.2835798263549805,0.0024820102844387293,-0.9999956488609314,0.00158659927546978,0.22491972148418427,-0.05153322219848633,-0.12010157108306885
1.5558410005253132,-2.2872798389816538,-0.15045243492532956,0.9358170032501221,-1.1671336889266968,1.4805328845977783,-0.011288664303719997,-0.9998881816864014,0.009830907918512821,0.13586141169071198,-0.17052221298217773,-0.14453542232513428
1.5371352598632684,-2.2236769826584926,-0.22514629522794796,1.148493766784668,-1.0014598369598389,1.6603076457977295,-0.02673928812146187,-0.9994335174560547,0.020449131727218628,-0.034097496420145035,-0.3104574680328369,-0.15585553646087646
1.5155512765723962,-2.2069287208402937,-0.24995708857107496,1.2404412031173706,-0.6299653053283691,1.897626519203186,-0.044416747987270355,-0.9984743595123291,0.032803963869810104,-0.09593358635902405,-0.4946744441986084,-0.13171136379241943
1.4926118303841487,-2.1886657565588186,-0.2744044686131245,1.199243187904358,-0.6585965752601624,2.047962188720703,-0.06366505473852158,-0.9969451427459717,0.04524659365415573,-0.13004526495933533,-0.7677643895149231,-0.005283717066049576
1.4678438401058247,-2.168852052216703,-0.30229969603624374,1.2308977842330933,-0.9418397545814514,2.3128864765167236,-0.08493290841579437,-0.994705080986023,0.05786362662911415,-0.21975457668304443,-1.1915283203125,0.08268509805202484
1.4421025423019795,-2.1565546226495527,-0.3249937936061466,1.1868244409561157,-1.0813220739364624,2.152740001678467,-0.10694387555122375,-0.9917303919792175,0.0709497407078743,-0.47264593839645386,-1.5356132984161377,0.11117922514677048
1.4199133042483463,-2.157873527856905,-0.33469854200258214,1.041253924369812,-1.0896713733673096,1.7077577114105225,-0.12514442205429077,-0.9886387586593628,0.08326243609189987,-0.9449544548988342,-1.8789455890655518,0.2554827928543091
1.4033835842011728,-2.166937588601795,-0.33579077009149133,0.7555747628211975,-0.9167022109031677,1.0276718139648438,-0.13789013028144836,-0.9860191941261292,0.09355664253234863,-1.303455114364624,-2.216114044189453,0.3692120313644409
1.3950424390958465,-2.17956295143812,-0.33045248724333764,0.3346472978591919,-0.5495119690895081,0.23862145841121674,-0.14344032108783722,-0.984595000743866,0.09999003261327744,-1.5282516479492188,-2.481301784515381,0.3991098403930664
1.395716851328789,-2.1953320801890106,-0.31886138088282917,-0.08439905941486359,-0.3709622621536255,-0.572451114654541,-0.14130663871765137,-0.9847127199172974,0.10185083001852036,-1.4073994159698486,-2.7139720916748047,0.3842027187347412
1.4045657661097635,-2.217559635841172,-0.30062324706776156,-0.47383764386177063,-0.4987417757511139,-1.1900025606155396,-0.13204918801784515,-0.9862154722213745,0.09971162676811218,-1.0765689611434937,-2.723623514175415,0.3247116804122925
1.4194728636850402,-2.242759521969749,-0.2806953033270254,-0.8584742546081543,-0.581549882888794,-1.5197614431381226,-0.11797486990690231,-0.9885724186897278,0.09384365379810333,-0.7011321783065796,-2.615004301071167,0.25236308574676514
1.4384388656494778,-2.2630456016139067,-0.2656463310859985,-1.19558846950531,-0.48772481083869934,-1.6969636678695679,-0.10159359872341156,-0.9912535548210144,0.08423374593257904,-0.43853700160980225,-2.4547152519226074,0.19590246677398682
1.4605085863972325,-2.278208592690548,-0.25439843533757317,-1.4304101467132568,-0.29881367087364197,-1.856752872467041,-0.08365436643362045,-0.9939244985580444,0.07152775675058365,-0.33582496643066406,-2.1833674907684326,0.11775767058134079
1.484536624766911,-2.2915020608416943,-0.24253295500307034,-1.5326659679412842,0.007257293444126844,-1.9206738471984863,-0.06473078578710556,-0.9962819218635559,0.05685416981577873,-0.26920780539512634,-1.9453227519989014,-0.0014494694769382477
1.5088484043913897,-2.305196231730051,-0.22700614278367248,-1.528114676475525,0.35357919335365295,-1.8559372425079346,-0.04595087841153145,-0.9980818629264832,0.041487786918878555,-0.16391849517822266,-1.7556108236312866,-0.1211843490600586
1.5320854802342805,-2.3269466950190107,-0.20007453971144826,-1.4214439392089844,0.6639277338981628,-1.7501647472381592,-0.028157802298665047,-0.9992508292198181,0.026557058095932007,-0.0953163206577301,-1.5781266689300537,-0.19344234466552734
1.5536126092142952,-2.446446194637222,-0.07279116009415615,-1.2162582874298096,0.8704504370689392,-1.743423342704773,-0.011010637506842613,-0.9998523592948914,0.013201804831624031,-0.11971140652894974,-1.3976240158081055,-0.23099040985107422
1.5635121517525488,1.8744784642890584,1.8983608189539496,-0.9865803718566895,0.858356237411499,-1.8862675428390503,0.006969536188989878,-0.999973475933075,0.0021840808913111687,-0.19657522439956665,-1.2034568786621094,-0.2329883575439453
1.5435056314441593,1.337356979644923,2.44309473185319,-0.7424264550209045,0.6621443033218384,-2.026613235473633,0.026552649214863777,-0.9996276497840881,-0.006313534919172525,-0.26101920008659363,-1.0295166969299316,-0.19171494245529175
1.522109545093588,1.3122062986283882,2.474201867472203,-0.5515526533126831,0.553259015083313,-2.061652421951294,0.04705009609460831,-0.9988150596618652,-0.012445331551134586,-0.2609935402870178,-0.877848207950592,-0.1571102738380432
1.5012319069418083,1.3194856391904188,2.472830516758827,-0.5076371431350708,0.6555870175361633,-1.9728472232818604,0.06732802838087082,-0.9975813627243042,-0.017285699024796486,-0.20491650700569153,-0.7173082828521729,-0.09889465570449829
1.4819062378900993,1.318794485718989,2.4813525908443412,-0.60071861743927,0.9242576360702515,-1.7275618314743042,0.08597195148468018,-0.9960518479347229,-0.0221356600522995,-0.11656579375267029,-0.5556603670120239,-0.04253101348876953
1.4651251012902833,1.3054999418421178,2.505459552727411,-0.7252795100212097,1.2135759592056274,-1.4088293313980103,0.1017867773771286,-0.9944220185279846,-0.027655547484755516,-0.02559959888458252,-0.413430392742157,-0.02179807797074318
1.4504557303132666,1.2822516832689932,2.541857936026752,-0.8610548973083496,1.334338903427124,-1.213685154914856,0.1150885671377182,-0.9927678108215332,-0.03416156768798828,-0.005911923944950104,-0.27561914920806885,0.003354191780090332
1.4365841276611977,1.2554833699714083,2.5812450596869603,-0.9103981852531433,1.0984746217727661,-1.154984951019287,0.12721394002437592,-0.9910070300102234,-0.0414966344833374,-0.06744523346424103,-0.18671226501464844,0.051369186490774155
1.4227730770046034,1.2309860556856143,2.6153266609276864,-0.8847844004631042,0.7654240131378174,-1.1631706953048706,0.13905103504657745,-0.9890645742416382,-0.04915779456496239,-0.17828133702278137,-0.10575377941131592,0.09688734263181686
1.408827383071821,1.211637834829435,2.641691946467242,-0.842340350151062,0.6087912917137146,-1.178753137588501,0.15097279846668243,-0.9869116544723511,-0.056681592017412186,-0.25049060583114624,0.0229223370552063,0.12258440256118774
1.3949017020664725,1.1975284894926796,2.6623301555938657,-0.8067943453788757,0.6659088730812073,-1.1796977519989014,0.16293953359127045,-0.9845703840255737,-0.06381158530712128,-0.25685739517211914,0.13624274730682373,0.12185610085725784
1.3809584959544141,1.1887717482461533,2.6789209503875258,-0.790088415145874,0.8630011081695557,-1.1963053941726685,0.17509673535823822,-0.9820348620414734,-0.07034724205732346,-0.23124904930591583,0.2176305651664734,0.09431887418031693
1.3669268231692686,1.184640628971801,2.6932614374923127,-0.785844624042511,1.1369484663009644,-1.1994705200195312,0.1875525861978531,-0.9792904853820801,-0.07625290751457214,-0.1668005883693695,0.2726863622665405,0.05360895395278931
1.3528832106027748,1.1845554847720343,2.706520117887716,-0.7873151898384094,1.4463075399398804,-1.199363112449646,0.20026689767837524,-0.976350724697113,-0.08144200593233109,-0.06937693059444427,0.3080461025238037,0.012182466685771942
1.339055837330986,1.1887361794945748,2.7185622239505665,-0.736311137676239,1.7438126802444458,-1.1582188606262207,0.21311265230178833,-0.9732681512832642,-0.0856294110417366,0.04363176226615906,0.3285994529724121,-0.04141521453857422
1.3264997536382337,1.1985030828814325,2.7274708476040654,-0.5731233954429626,1.9247660636901855,-1.0076568126678467,0.22530469298362732,-0.9703077077865601,-0.08798232674598694,0.18273061513900757,0.3564007878303528,-0.0944516584277153
1.3166281592310292,1.2130967121052079,2.7321581654127702,-0.3442888855934143,1.8851025104522705,-0.7478669881820679,0.23552580177783966,-0.9678727984428406,-0.08803455531597137,0.3080991208553314,0.400520384311676,-0.14086246490478516
1.3102157314904048,1.2311517360284712,2.7318960501197953,-0.08200468868017197,1.6644635200500488,-0.46714165806770325,0.24292415380477905,-0.9662405848503113,-0.08583410084247589,0.3851886987686157,0.4398273825645447,-0.14387160539627075
1.3070754504918538,1.252015708615573,2.7258425393229277,0.17310403287410736,1.3416239023208618,-0.2333427518606186,0.24754148721694946,-0.9654267430305481,-0.08169776201248169,0.3854846656322479,0.4614747166633606,-0.11189036816358566
1.306647906022199,1.275219488065635,2.7140819729361993,0.3810003995895386,1.0426262617111206,-0.04263562709093094,0.24976542592048645,-0.9653151631355286,-0.07605268061161041,0.36423301696777344,0.4597914218902588,-0.08527839183807373
1.3081312228532687,1.3001882800169784,2.697821393037418,0.5068491697311401,0.8290454745292664,0.08180004358291626,0.2502063512802124,-0.9657014012336731,-0.06941045820713043,0.3324505686759949,0.45337218046188354,-0.05378890037536621
1.3105459246643338,1.3256755109680651,2.6792125813348693,0.533560574054718,0.6885572075843811,0.1312565803527832,0.24963079392910004,-0.966325581073761,-0.06244540587067604,0.25487059354782104,0.4546525478363037,-0.014367278665304184
1.3130542735203525,1.3494179953567218,2.661640485739245,0.44568344950675964,0.6854287981987,0.14828962087631226,0.2486770749092102,-0.9669679999351501,-0.055969033390283585,0.1773483157157898,0.4533572196960449,0.037826430052518845
1.3152943446289238,1.3683200256934824,2.64962316149021,0.23646020889282227,0.7823534607887268,0.16495151817798615,0.24756835401058197,-0.9675365686416626,-0.0508231595158577,0.13287904858589172,0.4526897072792053,0.08694082498550415
1.3172541535134208,1.379844139272024,2.6464709671943756,-0.00015872623771429062,0.9162026047706604,0.18915165960788727,0.24627573788166046,-0.9680299758911133,-0.047606926411390305,0.11750911176204681,0.470517098903656,0.10781824588775635
1.3189771299469486,1.384578709870999,2.651671426894872,-0.17646345496177673,1.0413999557495117,0.19632071256637573,0.24485868215560913,-0.968460738658905,-0.046131473034620285,0.11813266575336456,0.48115599155426025,0.09419673681259155
1.3204271819434261,1.3861409541315362,2.661251691437208,-0.21723006665706635,1.1246713399887085,0.17756487429141998,0.2435501217842102,-0.9688210487365723,-0.045491065829992294,0.12209627032279968,0.4814399480819702,0.033650338649749756
1.3217067977875494,1.3901278451030483,2.6688035683564406,-0.08339212089776993,1.1230953931808472,0.1431356966495514,0.24250967800617218,-0.9691372513771057,-0.04429687187075615,0.1438581496477127,0.46825218200683594,-0.047621965408325195
1.3231671973653996,1.4010965982944728,2.667815153657215,0.18987004458904266,0.843230664730072,0.14522895216941833,0.24158607423305511,-0.9694962501525879,-0.04139522463083267,0.18845243752002716,0.44326621294021606,-0.08645808696746826
1.3254568072276784,1.4193390689367313,2.6548169805489836,0.5053231120109558,0.25552940368652344,0.21261508762836456,0.24010564386844635,-0.9700549244880676,-0.03664638474583626,0.24576476216316223,0.41600823402404785,-0.056233759969472885
1.328867370555442,1.441822837799896,2.6307546454007698,0.729910671710968,-0.4197523593902588,0.29991722106933594,0.2375868409872055,-0.9708776473999023,-0.030813446268439293,0.2870256304740906,0.4025944471359253,0.01503598690032959
1.3330938628136475,1.4657101989311783,2.599120118624411,0.8539042472839355,-0.9334309101104736,0.3632258176803589,0.23417191207408905,-0.9718815684318542,-0.02469920553267002,0.28929615020751953,0.3958774209022522,0.06603538990020752
1.3376204200077446,1.4888951403016457,2.5635480365309538,0.8767126202583313,-1.3427844047546387,0.3760039508342743,0.2302946299314499,-0.9729374647140503,-0.018903689458966255,0.2680879831314087,0.33493685722351074,0.09121519327163696
1.3417706427773226,1.5089178733213706,2.5275488288088526,0.8240392208099365,-1.651210069656372,0.32936960458755493,0.2265947163105011,-0.9738880395889282,-0.014039253816008568,0.20428301393985748,0.28062015771865845,0.10781985521316528
1.3452469799506561,1.5248720830223639,2.4934839299225784,0.7505221366882324,-1.7799632549285889,0.29201769828796387,0.2234068065881729,-0.9746714234352112,-0.010267007164657116,0.12519553303718567,0.28382962942123413,0.11260777711868286
1.3485243137315612,1.5382439935282948,2.4618237923858555,0.6826162934303284,-1.7062352895736694,0.31668317317962646,0.2203296571969986,-0.9753991365432739,-0.007174779195338488,0.0699230432510376,0.32383352518081665,0.11186540126800537
1.3523068617296679,1.550507937250155,2.4328393605211085,0.6040652990341187,-1.4912108182907104,0.41231250762939453,0.21671080589294434,-0.9762259721755981,-0.004397316835820675,0.03887392580509186,0.36396706104278564,0.1104612946510315
1.35716007350819,1.5616464610336922,2.4077909689203953,0.4801804721355438,-1.1645314693450928,0.547595739364624,0.21200677752494812,-0.9772664308547974,-0.001939887646585703,0.020170986652374268,0.3884601593017578,0.11151337623596191
1.363330855875081,1.5700974938251735,2.3891846611306717,0.30307599902153015,-0.7910817861557007,0.6858603954315186,0.20598137378692627,-0.9785560965538025,-0.00014394659956451505,0.003460824489593506,0.40932679176330566,0.11659914255142212
1.3709013077678827,1.573227991462256,2.3795806966686754,0.07602503150701523,-0.47926098108291626,0.8311181664466858,0.1985667198896408,-0.980087399482727,0.00048284861259162426,-0.012714624404907227,0.4308167099952698,0.13016295433044434
1.3798661737989422,1.5667474124465601,2.382527015118474,-0.19276754558086395,-0.25229814648628235,0.9663218259811401,0.18977075815200806,-0.9818281531333923,-0.0007683697622269392,-0.028180181980133057,0.44665664434432983,0.1523798108100891
1.3900489930106954,1.5471131584978073,2.4008411905524465,-0.455356627702713,-0.0773700550198555,1.0821973085403442,0.17971479892730713,-0.9837096333503723,-0.004257011692970991,-0.04665812849998474,0.46620774269104004,0.16203302145004272
1.4010412354580044,1.5123156268768174,2.436043579934696,-0.676927387714386,0.04061650484800339,1.1624382734298706,0.1686529666185379,-0.9856261610984802,-0.009874203242361546,-0.05242675542831421,0.4692991375923157,0.15353578329086304
1.4122005161398894,1.4612944677743966,2.488460088033565,-0.8389038443565369,0.09866587817668915,1.2014341354370117,0.15698593854904175,-0.9874500036239624,-0.01725929044187069,-0.07556502521038055,0.4702534079551697,0.12400984764099121
1.4229094673974116,1.3940088068106686,2.557851102365965,-0.9490026831626892,0.153239905834198,1.2258713245391846,0.1450517475605011,-0.9890846610069275,-0.025913871824741364,-0.1008165031671524,0.485346257686615,0.0907180905342102
1.4329272822513701,1.3102453207225315,2.6440582527333714,-1.0125998258590698,0.16037839651107788,1.2679946422576904,0.132794588804245,-0.9905111193656921,-0.03540458157658577,-0.1179019957780838,0.5115987062454224,0.06665468215942383
1.442163100334128,1.209330237351998,2.747437753990548,-1.0382540225982666,0.14663143455982208,1.3342125415802002,0.11998972296714783,-0.9917381405830383,-0.04536542296409607,-0.10720285773277283,0.5259636044502258,0.03862113133072853
1.4502470509665626,1.092071296329493,2.866837903587417,-1.0099133253097534,0.09489677101373672,1.3451801538467407,0.10673880577087402,-0.9927427172660828,-0.05539652332663536,-0.09366198629140854,0.5209256410598755,-0.0006946921348571777
1.456471884774555,0.9654377564285125,2.9948447867388857,-0.913557767868042,-0.0008049835450947285,1.2616641521453857,0.09380399435758591,-0.9934720993041992,-0.06491540372371674,-0.09705410897731781,0.4947080612182617,-0.0545303151011467
1.460678834542573,0.8410000521779445,3.119351109308132,-0.7509245276451111,-0.14627686142921448,1.1279691457748413,0.08190660923719406,-0.9939432144165039,-0.07326962053775787,-0.09090927988290787,0.45657432079315186,-0.09790337085723877
1.4636897752495048,0.7291178173601358,-3.053884737244997,-0.5031711459159851,-0.38535600900650024,0.9834231734275818,0.07122032344341278,-0.9942695498466492,-0.07972453534603119,-0.08016195148229599,0.43373775482177734,-0.13395941257476807
1.4668906879098411,0.6371024362988669,-2.9671158913462294,-0.14633522927761078,-0.7788068056106567,0.8446775078773499,0.061699431389570236,-0.9946066737174988,-0.08337201178073883,-0.07860614359378815,0.4242483377456665,-0.1602802276611328
1.471965747529905,0.5668048689384866,-2.9065009902828236,0.29263415932655334,-1.2284791469573975,0.750368595123291,0.05298038199543953,-0.9951202273368835,-0.08324098587036133,-0.08174319565296173,0.418917715549469,-0.1768297553062439
1.4801307388661373,0.5146070719789549,-2.868758146945912,0.7386884689331055,-1.7071146965026855,0.7110607028007507,0.044564396142959595,-0.9958927035331726,-0.07881604135036469,-0.08409988880157471,0.41038233041763306,-0.15667277574539185
1.4917932300540602,0.4756219972145091,-2.8490760504118393,1.1564985513687134,-2.1665260791778564,0.6993931531906128,0.03613775223493576,-0.9968808889389038,-0.07016237080097198,-0.11127200722694397,0.38582736253738403,-0.11958055943250656
1.5067544613691606,0.44852059987840015,-2.845039052028903,1.4855941534042358,-2.424365758895874,0.6853464245796204,0.02775210328400135,-0.99795001745224,-0.05766889452934265,-0.1532709002494812,0.3149970769882202,-0.07366341352462769
1.5237449949407065,0.4373550930054914,-2.858315250122384,1.627250075340271,-2.448183298110962,0.6382726430892944,0.01992133818566799,-0.9988932609558105,-0.0426076203584671,-0.20278266072273254,0.24498701095581055,0.019048098474740982
1.5408394273361652,0.44358193337028573,-2.888617198868661,1.54746675491333,-2.3647243976593018,0.6191372871398926,0.012855293229222298,-0.9995512962341309,-0.027054449543356895,-0.23113225400447845,0.19114065170288086,0.1305549144744873
1.55647831261405,0.43538947131436617,-2.9033903403263133,1.3003478050231934,-2.228271484375,0.6632294058799744,0.00603946577757597,-0.9998974800109863,-0.012983622029423714,-0.23557740449905396,0.14030885696411133,0.21522372961044312
1.5686455175023601,-0.564842873499939,-1.9240642665533663,0.9378834962844849,-1.9404221773147583,0.7490746378898621,-0.0011465653078630567,-0.9999976754188538,-0.0018092714017257094,-0.2795846164226532,0.10618364810943604,0.25165677070617676
1.560266252646244,-2.1139578795189897,-0.3916761292160661,0.48752593994140625,-1.3730524778366089,0.8265625238418579,-0.00902355182915926,-0.9999445676803589,0.005447837058454752,-0.3475133180618286,0.053594350814819336,0.25064051151275635
1.5518994513833013,-2.0006028092819186,-0.5146142845438268,-0.03709094226360321,-0.5111204385757446,0.8064365386962891,-0.017182251438498497,-0.9998214840888977,0.007876117713749409,-0.42854222655296326,-0.0020096898078918457,0.22771966457366943
1.5457288990769256,-1.755828349086822,-0.7590892425893692,-0.618717610836029,0.6043661832809448,0.6737919449806213,-0.024642113596200943,-0.9996858239173889,0.004612337797880173,-0.48742759227752686,-0.028039515018463135,0.19982492923736572
1.5401835387169243,-1.4160867695989432,-1.0874543424969407,-1.1753839254379272,1.6728748083114624,0.440161794424057,-0.03024987131357193,-0.9995314478874207,-0.0047176433727145195,-0.4597403407096863,-0.014049053192138672,0.18075841665267944
1.5326394785856718,-1.0458792729175739,-1.437304013150488,-1.55271315574646,2.3977062702178955,0.1671595424413681,-0.03301498666405678,-0.9992721080780029,-0.01911928504705429,-0.34921765327453613,0.02858412265777588,0.14030468463897705
1.521954838784248,-0.736126677187255,-1.7215020136313548,-1.6642837524414062,2.7285656929016113,-0.06363867223262787,-0.032781630754470825,-0.9988074898719788,-0.03618234023451805,-0.18949313461780548,0.09011602401733398,0.07931900024414062
1.5099009775917533,-0.5141470371830191,-1.9165895401398385,-1.5102558135986328,2.6744420528411865,-0.2622460424900055,-0.029930569231510162,-0.9981464743614197,-0.05299171805381775,-0.039176471531391144,0.18048888444900513,0.03173631429672241
1.4992317929684844,-0.3557713639871127,-2.0503182403353537,-1.154374599456787,2.2904884815216064,-0.4428234100341797,-0.02490631677210331,-0.9974403381347656,-0.06702764332294464,0.08499543368816376,0.2677191495895386,-0.003727257251739502
1.4917904331787575,-0.2329871575310585,-2.1533399507747597,-0.7143199443817139,1.7109479904174805,-0.6077383160591125,-0.018222469836473465,-0.9968806505203247,-0.07679198682308197,0.18645063042640686,0.32181650400161743,-0.013646773993968964
1.48815529559378,-0.12568354616896302,-2.247213740879759,-0.2749250829219818,1.0338551998138428,-0.7483567595481873,-0.010347593575716019,-0.9965871572494507,-0.08189657330513,0.2700827121734619,0.3601125478744507,-0.002499692142009735
1.4879623960924264,-0.023546573093741734,-2.342891760790994,0.10880710929632187,0.3288320302963257,-0.8166713714599609,-0.0019480697810649872,-0.9965712428092957,-0.08271733671426773,0.355784147977829,0.3852124810218811,0.014373302459716797
1.4904393226578816,0.07717047620569827,-2.4438995939073163,0.41785454750061035,-0.29827120900154114,-0.8084717392921448,0.006188466679304838,-0.9967731237411499,-0.08003289997577667,0.41705983877182007,0.40049004554748535,0.02238529920578003
1.4946587256204746,0.17838720785600384,-2.5505380931356245,0.6162981390953064,-0.6893404126167297,-0.7317061424255371,0.01349744014441967,-0.9971029162406921,-0.07485942542552948,0.44780629873275757,0.4135456681251526,0.02960193157196045
1.4995236944471466,0.2808968320128242,-2.661097145524558,0.6869093179702759,-0.8374179005622864,-0.6361609101295471,0.019741635769605637,-0.997461199760437,-0.06842248141765594,0.43628254532814026,0.42630934715270996,0.048448801040649414
1.5040167057988827,0.3852930351775509,-2.7739595864772797,0.6678853034973145,-0.783344030380249,-0.5446224808692932,0.025079527869820595,-0.9977710843086243,-0.06183876469731331,0.38211652636528015,0.4378650188446045,0.05465191975235939
1.507630718805736,0.49138358481804606,-2.8872325518336366,0.6075783371925354,-0.6006149053573608,-0.4789159595966339,0.029785603284835815,-0.9980056881904602,-0.055656686425209045,0.3304286599159241,0.43729090690612793,0.0498279333114624
1.510121279172348,0.5946606186187602,-2.9958866026009447,0.50875324010849,-0.4458945393562317,-0.4156126081943512,0.03397249057888985,-0.9981598258018494,-0.050230883061885834,0.27983978390693665,0.4297240376472473,0.052504539489746094
1.5114694054774205,0.6866494105902734,-3.0920983159153135,0.3951913118362427,-0.3685922622680664,-0.34789326786994934,0.037588633596897125,-0.9982406497001648,-0.04585552588105202,0.20844410359859467,0.4266616702079773,0.05682671442627907
1.5118874803817046,0.7607983938553265,3.1135438059858447,0.2797187566757202,-0.277140349149704,-0.28610098361968994,0.04059586301445961,-0.9982653856277466,-0.0426439568400383,0.11594407260417938,0.44777393341064453,0.05810123682022095
1.5115918890647133,0.8170581469200386,3.0552070594980973,0.17114315927028656,-0.10824759304523468,-0.24381457269191742,0.043143272399902344,-0.9982479214668274,-0.040494419634342194,0.012154605239629745,0.4802883267402649,0.05840832367539406
1.510609628246441,0.8572562353489009,3.014973102226056,0.0520939938724041,0.11871152371168137,-0.2276233434677124,0.04547819495201111,-0.9981893301010132,-0.03937060758471489,-0.08840113878250122,0.5146381855010986,0.06672972440719604
1.5088218179601116,0.8835378623344508,2.991079659981008,-0.05932904779911041,0.3705042600631714,-0.23630362749099731,0.0478767454624176,-0.9980801939964294,-0.03929423913359642,-0.1692604124546051,0.5586574673652649,0.07435905933380127
1.506158858034371,0.9008532382466921,2.9789086446376323,-0.15572082996368408,0.6724098324775696,-0.28257283568382263,0.05063425749540329,-0.9979117512702942,-0.0401105135679245,-0.224355548620224,0.5955219864845276,0.07061296701431274
1.5023471058154585,0.9186447299121662,2.969591161102158,-0.20581074059009552,1.0413823127746582,-0.4048132300376892,0.054361794143915176,-0.9976582527160645,-0.0415109358727932,-0.27834552526474,0.6048205494880676,0.05228370055556297
1.497398466153912,0.9482406440017634,2.9521852833782307,-0.17705924808979034,1.400558352470398,-0.5384517312049866,0.05957503616809845,-0.9973075985908508,-0.04276143014431,-0.33450788259506226,0.607567548751831,0.02475619688630104
1.4916453571074941,0.99275904944168,2.9229577266299613,-0.10505475848913193,1.6659770011901855,-0.6592350602149963,0.06622250378131866,-0.9968692064285278,-0.04320136830210686,-0.33863765001296997,0.6428958773612976,0.03407669812440872
1.485294466179354,1.048073381804464,2.8848475321846894,-0.02444620057940483,1.7882235050201416,-0.7520248889923096,0.07399450242519379,-0.9963469505310059,-0.042634379118680954,-0.2932022213935852,0.6504606604576111,0.07621902227401733
1.4784128528772702,1.1107828601734526,2.8395581734336957,0.08312245458364487,1.7216129302978516,-0.8472811579704285,0.08266250044107437,-0.9957357048988342,-0.040956418961286545,-0.23532666265964508,0.640312671661377,0.12108039855957031
1.4708062700504454,1.1781505626849509,2.7883062644108167,0.18494628369808197,1.5468254089355469,-0.9404862523078918,0.0922275111079216,-0.9950051307678223,-0.038196124136447906,-0.1981692612171173,0.6579842567443848,0.16991007328033447
1.4626232580438798,1.2447222711359185,2.735526103684392,0.2605836093425751,1.271822214126587,-0.9720031023025513,0.10227431356906891,-0.9941549897193909,-0.03458346426486969,-0.17157971858978271,0.6942434310913086,0.23107099533081055
1.4542020245445184,1.3048325597992512,2.6865053011425544,0.2951434254646301,1.0203375816345215,-0.9614441990852356,0.11224133521318436,-0.9932105541229248,-0.030576512217521667,-0.14048531651496887,0.71714848279953,0.28201091289520264
1.4456902672996303,1.3549997020168485,2.6452019552515726,0.2622511684894562,0.8325252532958984,-0.936579167842865,0.12188774347305298,-0.9921844601631165,-0.02671900950372219,-0.1127934604883194,0.6987271904945374,0.3216867446899414
1.43708055432043,1.3937119526576038,2.614091642208645,0.18508155643939972,0.7544578313827515,-0.9124645590782166,0.13123415410518646,-0.9910733699798584,-0.02348552644252777,-0.10538575053215027,0.6392818689346313,0.35167163610458374
1.4284291689652147,1.4204110218165034,2.5947588449824917,0.05561613664031029,0.7683500647544861,-0.8851194977760315,0.140285924077034,-0.9898828864097595,-0.021257434040308,-0.11947290599346161,0.5980981588363647,0.38478291034698486
1.4197561764566473,1.4349903143779081,2.5878138249950413,-0.10468192398548126,0.7665828466415405,-0.8658491373062134,0.14908215403556824,-0.988615095615387,-0.02037164755165577,-0.12179940938949585,0.5943126082420349,0.4154065251350403
1.4108840120146484,1.4373643539391072,2.592691898716102,-0.28727996349334717,0.6574675440788269,-0.8811221718788147,0.157817542552948,-0.987241268157959,-0.02118377387523651,-0.09519542753696442,0.5843938589096069,0.43214887380599976
1.401520062344131,1.4281108116829697,2.607684295111614,-0.45376428961753845,0.43684110045433044,-0.9072472453117371,0.1667584329843521,-0.9857069253921509,-0.023956812918186188,-0.056727245450019836,0.5579723715782166,0.40141355991363525
1.3916136426493015,1.4099687571126898,2.628829870556044,-0.5615634918212891,0.08983516693115234,-0.9461727142333984,0.17592529952526093,-0.9839897155761719,-0.028540130704641342,-0.020148292183876038,0.5296440124511719,0.3241334557533264
1.3810112565417823,1.3877145612509614,2.6503931198783324,-0.5688307285308838,-0.3048410713672638,-1.0176000595092773,0.1854955554008484,-0.9820448160171509,-0.03434545546770096,0.007924899458885193,0.49742555618286133,0.21156108379364014
1.3695741024352956,1.367478671563907,2.6659039646858287,-0.4473869204521179,-0.6991380453109741,-1.116932988166809,0.1957506388425827,-0.9798230528831482,-0.04035719484090805,0.01652964949607849,0.4490917921066284,0.06066674366593361
1.3576298391854642,1.3546562133648774,2.670223089140899,-0.21016398072242737,-1.0051554441452026,-1.1813650131225586,0.20663335919380188,-0.9773659110069275,-0.04537048563361168,0.028443560004234314,0.38917016983032227,-0.09237051010131836
1.345971178982956,1.353539514123127,2.660434748272279,0.13158564269542694,-1.1026204824447632,-1.184167504310608,0.21769560873508453,-0.9748331308364868,-0.04805430769920349,0.06726230680942535,0.32148224115371704,-0.20949870347976685
1.3353547912713657,1.367012293598432,2.635817899429536,0.5265635848045349,-0.9822408556938171,-1.1227891445159912,0.22844545543193817,-0.9724114537239075,-0.04720884934067726,0.10906371474266052,0.30546504259109497,-0.2654436230659485
1.326322591180299,1.3946406830199345,2.598124918993726,0.8777023553848267,-0.8220453858375549,-0.9801470637321472,0.23830093443393707,-0.9702648520469666,-0.04241771623492241,0.1588243693113327,0.34190768003463745,-0.22824257612228394
1.3191943964655874,1.4306775665775207,2.552881175514176,1.077622652053833,-0.7647360563278198,-0.7814851403236389,0.24651604890823364,-0.9685148596763611,-0.034769367426633835,0.21060676872730255,0.4000486135482788,-0.10556566715240479
1.3137330646985084,1.4671589009966441,2.5068521505915236,1.0678417682647705,-0.8741559386253357,-0.5891420245170593,0.25287774205207825,-0.967140793800354,-0.026301832869648933,0.26207590103149414,0.39943742752075195,0.03531986474990845
1.309575694547131,1.4955164841573516,2.4671931569446373,0.866144597530365,-1.140591025352478,-0.4270053505897522,0.2575284242630005,-0.9660754799842834,-0.019423404708504677,0.2948092222213745,0.35958439111709595,0.1605062484741211
1.3065128728310855,1.5098053073242004,2.43912203675703,0.5430547595024109,-1.4187177419662476,-0.283316433429718,0.2607320547103882,-0.9652799367904663,-0.0159220602363348,0.3126474618911743,0.3325437307357788,0.2077099084854126
1.3048090561313441,1.5097292734743626,2.4241353124270497,0.22947895526885986,-1.45822274684906,-0.09707627445459366,0.26237255334854126,-0.9648334383964539,-0.01604226417839527,0.3277153968811035,0.3228961229324341,0.15544664859771729
1.305251234971604,1.5005565525044107,2.4199328842816983,0.01233163196593523,-1.1517783403396606,0.18179577589035034,0.2617883086204529,-0.9649496078491211,-0.01841825246810913,0.351660817861557,0.3317098617553711,0.050202369689941406
1.308852285420737,1.4890992856782117,2.4227621880258257,-0.0903761014342308,-0.5829789638519287,0.5579587817192078,0.25809574127197266,-0.9658883810043335,-0.02113269455730915,0.4018927216529846,0.39356160163879395,-0.05368107557296753
1.3164102558215107,1.4805173461489198,2.428518744228304,-0.056177008897066116,-0.042893294245004654,0.9813595414161682,0.250626802444458,-0.9678179621696472,-0.022688003256917,0.44702035188674927,0.47061026096343994,-0.11343556642532349
1.328219624528148,1.4776256833334087,2.432549311963143,0.0817427784204483,0.21203379333019257,1.3930082321166992,0.2391631007194519,-0.9707222580909729,-0.02234768308699131,0.4768250584602356,0.4618568420410156,-0.10980856418609619
1.3440120409622254,1.480720296048978,2.4313466277549,0.2620733678340912,0.1264916956424713,1.7423828840255737,0.22393397986888885,-0.9743944406509399,-0.02022581547498703,0.4885904788970947,0.41654837131500244,-0.06693226099014282
1.3629542726948776,1.4874330989588163,2.4236858066959033,0.37732911109924316,-0.3256688416004181,1.9940412044525146,0.20563264191150665,-0.9784784913063049,-0.017182020470499992,0.49581390619277954,0.39472293853759766,0.005463423207402229
1.383634780390258,1.4901583356937032,2.4141415231228573,0.3173679709434509,-1.0186623334884644,2.0941550731658936,0.18546636402606964,-0.9825363159179688,-0.014988135546445847,0.42943233251571655,0.37450408935546875,0.115772545337677
1.404826576662522,1.479443279313421,2.4111069193640744,0.14550726115703583,-1.712442398071289,2.1235299110412598,0.16452071070671082,-0.9862586259841919,-0.015071417205035686,0.2976527810096741,0.34424495697021484,0.17925608158111572
1.4258001477004383,1.4504971809508334,2.4208419512152117,0.008518170565366745,-2.11366868019104,2.077390670776367,0.14344510436058044,-0.9895064830780029,-0.017340052872896194,0.16989415884017944,0.2772413492202759,0.15828561782836914
1.4454789213235848,1.4067744377803721,2.4440575096000967,-0.0741032063961029,-1.962154746055603,1.9012149572372437,0.12331343442201614,-0.992158055305481,-0.02040945738554001,-0.006766766309738159,0.1999979019165039,0.027749061584472656
1.4627222889222453,1.3470339571365633,2.487074714466933,-0.2543586194515228,-1.4370646476745605,1.6885149478912354,0.10517656803131104,-0.9941656589508057,-0.02393537573516369,-0.19939956068992615,0.14991194009780884,-0.10698491334915161
1.477210174825073,1.260005780538689,2.5618171895963906,-0.415993869304657,-1.1604386568069458,1.5081878900527954,0.08897458761930466,-0.9956240057945251,-0.028578581288456917,-0.26382502913475037,0.1800110936164856,-0.12768661975860596
1.4887578375363988,1.1482491535411457,2.6613785188839203,-0.35311704874038696,-1.4337321519851685,1.268018126487732,0.07473957538604736,-0.9966367483139038,-0.033605244010686874,-0.27266132831573486,0.23502475023269653,-0.09995484352111816
1.4978255666902027,1.0422736125402992,2.7505876265263645,-0.02378229610621929,-1.9661307334899902,0.9789773225784302,0.06295876204967499,-0.9973388314247131,-0.03676377981901169,-0.3277292549610138,0.19686269760131836,-0.11593085527420044
1.5062255076810536,0.977933655301193,2.7941195580092,0.4103446304798126,-2.168090581893921,0.7880880832672119,0.053515028208494186,-0.997916042804718,-0.03605359047651291,-0.3470330834388733,0.11704134941101074,-0.18419170379638672
1.5162342681075511,0.9663168413045222,2.7849563976402614,0.8018532991409302,-1.9386488199234009,0.8382828235626221,0.04487411677837372,-0.9985118508338928,-0.030996039509773254,-0.2596568167209625,0.08258765935897827,-0.2481786608695984
1.529269548226524,1.0025322262140728,2.7313266798989546,1.0487785339355469,-1.5545098781585693,1.0612894296646118,0.034995242953300476,-0.9991378784179688,-0.02234523929655552,-0.14075389504432678,0.12174201011657715,-0.20861166715621948
1.5453243965086172,1.0976235824021616,2.622140369318939,1.1849865913391113,-1.26358163356781,1.364842414855957,0.0226750485599041,-0.9996756315231323,-0.011608803644776344,-0.12439011037349701,0.12810873985290527,-0.12504881620407104
1.5634762557311985,1.6558540959366927,2.053198895746699,1.291195034980774,-0.8609906435012817,1.7092067003250122,0.007330426014959812,-0.9999732375144958,0.0006250176811590791,-0.16258859634399414,0.05505722761154175,-0.057112932205200195
1.5519819006908941,-2.4284407084068222,-0.15227601238644464,1.4268237352371216,-0.4742485284805298,2.271082878112793,-0.012312193401157856,-0.9998230338096619,0.014233352616429329,-0.17134258151054382,-0.053231894969940186,-0.006634354591369629
1.5234653941808118,-2.199275292949657,-0.3859281255905829,1.2539095878601074,-0.4367378056049347,2.974419593811035,-0.038272660225629807,-0.9988800883293152,0.02781609818339348,-0.0800592452287674,-0.15880417823791504,0.11962961405515671
1.4883924557087835,-2.082844629976312,-0.5078481151209471,1.2116599082946777,-0.6243827939033508,3.7529685497283936,-0.0717543214559555,-0.996606707572937,0.04032958671450615,-0.055153027176856995,-0.34891337156295776,0.3307032585144043
1.4483066757005298,-2.015527006652099,-0.5827704497654532,1.1349105834960938,-0.8434771299362183,4.0483012199401855,-0.11029885709285736,-0.9925075173377991,0.05256541818380356,-0.29570698738098145,-0.5720372200012207,0.3699657917022705
1.4067019168670176,-1.9800418063058456,-0.6289802641591627,1.1330660581588745,-1.1779173612594604,4.0285964012146,-0.14986994862556458,-0.9865667223930359,0.06500376015901566,-0.6766528487205505,-0.7924098372459412,0.440535306930542
1.36632956969702,-1.96717249877127,-0.6533329105959174,1.2316808700561523,-0.9460826516151428,3.7574336528778076,-0.18730294704437256,-0.9791693687438965,0.07839155197143555,-1.07040274143219,-1.002626895904541,0.366646409034729
1.3267717005485538,-1.96084509313109,-0.6674078920835809,1.1670355796813965,-0.49684199690818787,3.783829927444458,-0.22346383333206177,-0.9703734517097473,0.09186864644289017,-1.1668102741241455,-1.288614273071289,0.24597632884979248
1.2882584632918606,-1.946299448343343,-0.6844154095737549,0.8980435132980347,0.1352250874042511,3.689882755279541,-0.25936880707740784,-0.9603509902954102,0.10224519670009613,-1.035873532295227,-1.926962971687317,0.21959328651428223
1.257028293766002,-1.9297094882929917,-0.6980655041342567,0.6610056757926941,0.4336589276790619,2.1412508487701416,-0.28897833824157715,-0.9511773586273193,0.10841385275125504,-1.2138292789459229,-3.1796669960021973,0.292388916015625
1.2466455081183756,-1.9255247976734955,-0.7023300490526944,-0.3273478150367737,-0.49797800183296204,0.039273761212825775,-0.29867443442344666,-0.9479215145111084,0.1106279119849205,-2.069108247756958,-5.269577503204346,0.7159866094589233
1.2552134171921154,-1.8985316872583475,-0.7385383976970867,-2.5057382583618164,-0.7900247573852539,-0.7680009603500366,-0.29385119676589966,-0.950615644454956,0.09990838170051575,-2.4745967388153076,-5.6591105461120605,1.5081696510314941
1.2747743210615294,-1.8117011052614633,-0.8359452002464127,-4.0034332275390625,-0.472606360912323,-1.3742941617965698,-0.28329360485076904,-0.9565045237541199,0.06959840655326843,-2.041001319885254,-4.3832478523254395,1.5580872297286987
1.2989510577843832,-1.6985253352168788,-0.9595070759243012,-3.4423136711120605,-0.6914407014846802,-2.133190155029297,-0.2663225829601288,-0.9632770419120789,0.03420332819223404,-1.2836804389953613,-3.1029767990112305,0.33061909675598145
1.3264700893018662,-1.615967317937409,-1.0547680794305083,-1.9478051662445068,-1.1911261081695557,-2.9029603004455566,-0.24165655672550201,-0.970300555229187,0.010923296213150024,-0.6636016368865967,-2.03908371925354,-0.8442513942718506
1.3573596754379766,-1.5606397861257046,-1.1235061776274753,-1.3887394666671753,-1.012075662612915,-3.146101951599121,-0.21180972456932068,-0.9773087501525879,-0.002151327906176448,-0.3328222632408142,-1.0886856317520142,-0.9576874375343323
1.3865950333933508,-1.4942955574249923,-1.1972032243793935,-1.2950234413146973,-0.1171223446726799,-2.765493154525757,-0.18262699246406555,-0.9830828309059143,-0.013998424634337425,-0.11830687522888184,-0.44910728931427,-0.5840086936950684
1.4095507640526386,-1.4019814883961266,-1.2872412886541102,-1.2089886665344238,0.7768486738204956,-2.187811851501465,-0.1582658737897873,-0.9870280623435974,-0.026974357664585114,0.06462270021438599,-0.2637043595314026,-0.4420807361602783
1.426457561919723,-1.292525985000353,-1.3885202604845952,-1.0537965297698975,1.014959692955017,-1.8365939855575562,-0.13830627501010895,-0.9896012544631958,-0.03951169550418854,0.10553038120269775,-0.2506943941116333,-0.3425987958908081
1.439874685716049,-1.1758025537091938,-1.497044105021128,-0.8698253035545349,0.8054386973381042,-1.6996585130691528,-0.12049702554941177,-0.9914420247077942,-0.05023575574159622,-0.006089895963668823,-0.2867717146873474,-0.2066153883934021
1.451636210184535,-1.05588107520454,-1.610967764439401,-0.6490698456764221,0.5969216227531433,-1.676655650138855,-0.10346479713916779,-0.9929088354110718,-0.058543454855680466,-0.1866200566291809,-0.3883931636810303,-0.11203449964523315
1.4628919308065909,-0.9287127853250066,-1.7331263981225085,-0.44914475083351135,0.5952046513557434,-1.7319271564483643,-0.08624833822250366,-0.9941839575767517,-0.06449542194604874,-0.37954145669937134,-0.5195948481559753,-0.0574679970741272
1.4736593189017655,-0.7774785598433233,-1.8782602943663707,-0.4012591540813446,0.7953853011131287,-1.8540467023849487,-0.06803381443023682,-0.9952859282493591,-0.06912004202604294,-0.5207875967025757,-0.6047660708427429,0.028272390365600586
1.4822226370481062,-0.5756899240690296,-2.071670078314675,-0.5280613303184509,1.0438997745513916,-2.0197348594665527,-0.04815826565027237,-0.9960799217224121,-0.07420086860656738,-0.5751174688339233,-0.6791979074478149,0.11332446336746216
1.485839400979204,-0.3146871083515058,-2.3222566261879556,-0.689022421836853,1.2187848091125488,-2.2057018280029297,-0.026264842599630356,-0.9963933229446411,-0.0806899219751358,-0.5685837864875793,-0.7510890960693359,0.17053371667861938
1.4821761579726278,-0.030737958087708652,-2.5946983821295775,-0.8426748514175415,1.2668565511703491,-2.3079404830932617,-0.0027200914919376373,-0.9960758090019226,-0.08846504241228104,-0.5091512203216553,-0.784945547580719,0.2101539969444275
1.4707266104544363,0.2168517657368532,-2.831256399186742,-1.0211061239242554,1.1279984712600708,-2.3348379135131836,0.021495051681995392,-0.9949972033500671,-0.09756460785865784,-0.4039107859134674,-0.7783946394920349,0.2504730224609375
1.452883573924353,0.39765186996953683,-3.00312708149452,-1.2508543729782104,0.8598463535308838,-2.298823595046997,0.045557018369436264,-0.9930563569068909,-0.10846183449029922,-0.3387546241283417,-0.7006693482398987,0.2842584252357483
1.4309480055439427,0.5122214651163448,-3.1111000859892854,-1.4681965112686157,0.6577624678611755,-2.106698513031006,0.0683194026350975,-0.9902371764183044,-0.12150447815656662,-0.2591152787208557,-0.6053746342658997,0.258772611618042
1.4076256935878113,0.5752884929233527,3.114509740059505,-1.6225264072418213,0.5896076560020447,-1.7977536916732788,0.088384248316288,-0.986717164516449,-0.13629969954490662,-0.1131034642457962,-0.5489579439163208,0.16782444715499878
1.3845895538145154,0.6066846215194963,3.0885420764769664,-1.7055234909057617,0.5721279382705688,-1.5460069179534912,0.10555286705493927,-0.9827135801315308,-0.15209448337554932,-0.03797168284654617,-0.5036298632621765,0.10494489967823029
1.362041853639183,0.6225452292728278,3.077641548633561,-1.733012080192566,0.4517972469329834,-1.4250801801681519,0.12084375321865082,-0.978289783000946,-0.16836270689964294,-0.08919698745012283,-0.44294440746307373,0.07671850919723511
1.3399544068535962,0.6322255263537638,3.071778410969674,-1.6978192329406738,0.36660659313201904,-1.3892669677734375,0.13520598411560059,-0.9734740853309631,-0.18457426130771637,-0.170484259724617,-0.33811044692993164,0.04217928647994995
1.318275465427238,0.641935614503815,3.066528300569715,-1.6406702995300293,0.5971713662147522,-1.3996578454971313,0.14959461987018585,-0.9682856798171997,-0.20011137425899506,-0.22840623557567596,-0.20346736907958984,0.038108885288238525
1.2968781828904827,0.6554550070557307,3.06054241494405,-1.592060923576355,0.9512590765953064,-1.4384807348251343,0.1648787409067154,-0.9627184271812439,-0.21444912254810333,-0.2708815038204193,-0.07831257581710815,0.02644568681716919
1.2754676922856538,0.672563027797854,3.054418078937136,-1.5764663219451904,1.3028156757354736,-1.4812090396881104,0.18132492899894714,-0.9567065238952637,-0.22767087817192078,-0.29152387380599976,0.009852826595306396,-0.00992363691329956
1.2538145874759117,0.6934969916393328,3.047921944885382,-1.534701943397522,1.6435377597808838,-1.5706006288528442,0.19924816489219666,-0.9501805305480957,-0.23970218002796173,-0.28690993785858154,0.0818181037902832,-0.0315684974193573
1.2321044589202566,0.7199303494580653,3.0387254296855617,-1.3613104820251465,1.8910326957702637,-1.713408350944519,0.21906563639640808,-0.9431900978088379,-0.2498055398464203,-0.2939252257347107,0.16404575109481812,-0.05533963441848755
1.211416521684609,0.7535309563407576,3.0237551986343196,-1.0247422456741333,2.012176752090454,-1.8073447942733765,0.2406352162361145,-0.9361151456832886,-0.25648233294487,-0.2811320424079895,0.2378881573677063,-0.12326303124427795
1.192768080261384,0.7906894491859696,3.0057398262552826,-0.7537978887557983,2.059499740600586,-1.7122331857681274,0.26236259937286377,-0.9293941855430603,-0.2596007287502289,-0.18295583128929138,0.2982600927352905,-0.16575324535369873
1.1767035724405197,0.827131666100304,2.9883729650980917,-0.5260513424873352,2.0056371688842773,-1.5195633172988892,0.2825997471809387,-0.9233453273773193,-0.2599443197250366,-0.03867271542549133,0.3690086603164673,-0.1762891411781311
1.1633428600512328,0.861459966352238,2.97202511835265,-0.2954586446285248,1.8434193134307861,-1.3316285610198975,0.30068936944007874,-0.9181329011917114,-0.2581043541431427,0.09106478095054626,0.4172173738479614,-0.17947188019752502
1.152824088876865,0.8935109756329387,2.955744012792837,-0.03859420865774155,1.5894153118133545,-1.1242966651916504,0.3163149058818817,-0.913913905620575,-0.25437456369400024,0.18952924013137817,0.4283791780471802,-0.1785629689693451
1.1454314742423304,0.923978134906664,2.9384425831426206,0.24561834335327148,1.3615556955337524,-0.9217900633811951,0.329299658536911,-0.9108882546424866,-0.24868573248386383,0.27218660712242126,0.4232324957847595,-0.1763477921485901
1.1410144730116125,0.9541793191807735,2.9190750771894027,0.5309226512908936,1.1638981103897095,-0.7440683245658875,0.3399381935596466,-0.9090566635131836,-0.2409529834985733,0.31274133920669556,0.41084176301956177,-0.17713776230812073
1.1393149038557953,0.9850292311240341,2.897087899224282,0.7906535863876343,1.0203065872192383,-0.5830594897270203,0.3484955132007599,-0.9083471894264221,-0.23120668530464172,0.3195190727710724,0.39821529388427734,-0.1624852418899536
1.1397761099132648,1.0168910452905155,2.8723527239200184,0.9934161901473999,0.8549668788909912,-0.4621739685535431,0.35532769560813904,-0.9085399508476257,-0.21976712346076965,0.29162976145744324,0.37736618518829346,-0.12547814846038818
1.141562912448623,1.0488536271482758,2.845782606546285,1.0836752653121948,0.7223060727119446,-0.37031570076942444,0.36076146364212036,-0.9092850685119629,-0.20748987793922424,0.23521634936332703,0.3651871085166931,-0.0797719806432724
1.143860147224541,1.0799173322331197,2.8193101464024806,1.0504109859466553,0.6890422105789185,-0.29587027430534363,0.365188866853714,-0.9102386832237244,-0.19519993662834167,0.19752484560012817,0.36440110206604004,-0.03159138560295105
1.1461243804944763,1.1092050206611972,2.795203323384226,0.9222039580345154,0.7928040623664856,-0.21437858045101166,0.36890196800231934,-0.911173939704895,-0.18350373208522797,0.17464667558670044,0.38793474435806274,-0.0021041035652160645
1.1482053216319072,1.1363666670069008,2.774792274600418,0.7803820371627808,0.9109012484550476,-0.1409727931022644,0.3720289468765259,-0.9120293855667114,-0.17261895537376404,0.1588396430015564,0.4162253141403198,0.013195201754570007
1.1501527081220813,1.1613079627877558,2.757393191698909,0.6909759640693665,0.8870651721954346,-0.08741208910942078,0.3745880722999573,-0.9128262996673584,-0.16257986426353455,0.1356506645679474,0.4244990944862366,0.017224714159965515
1.1522002091683843,1.1837259622972522,2.741769895489834,0.6467894911766052,0.7336236238479614,-0.03011583909392357,0.3764066994190216,-0.91366046667099,-0.1534363180398941,0.14187335968017578,0.4006751775741577,0.03180861473083496
1.1544203299022315,1.2031354451142626,2.726973308825364,0.6412895321846008,0.41762542724609375,-0.00804196298122406,0.37741973996162415,-0.9145606756210327,-0.14537249505519867,0.16011688113212585,0.3734534978866577,0.04440517723560333
1.156570590770761,1.219077342865995,2.711637516001533,0.6697930097579956,-0.025638647377490997,-0.031673040241003036,0.37784233689308167,-0.9154282212257385,-0.13865973055362701,0.1428944170475006,0.36660003662109375,0.05603349208831787
1.158331787581203,1.2322255023883253,2.6952455013470895,0.686130166053772,-0.33254560828208923,-0.08833259344100952,0.37811148166656494,-0.9161356687545776,-0.13314427435398102,0.10832351446151733,0.3797433376312256,0.0918998122215271
1.1594059657168885,1.2433522098722893,2.678170936218469,0.6821697354316711,-0.572957456111908,-0.14952918887138367,0.37863749265670776,-0.9165657162666321,-0.12861241400241852,0.03688991069793701,0.4276740550994873,0.11744308471679688
1.1601652815782355,1.2523774523063103,2.660639942422289,0.7025921940803528,-0.8490356206893921,-0.141714408993721,0.3791217803955078,-0.9168691039085388,-0.12497202306985855,0.001966536045074463,0.46929818391799927,0.10435748100280762
1.1612932170590105,1.2589532674083732,2.6427807626904163,0.7193726897239685,-1.1045811176300049,-0.08428528159856796,0.3789506256580353,-0.9173187613487244,-0.12215886265039444,0.009583920240402222,0.45055240392684937,0.0970124676823616
1.1629028954805412,1.263359468785571,2.6252076308177927,0.7088111639022827,-1.2230709791183472,-0.039530061185359955,0.3780773878097534,-0.9179584980010986,-0.12004096060991287,0.001866459846496582,0.43413275480270386,0.09704608470201492
1.1646854869701395,1.266695637026861,2.608493636492741,0.6603139042854309,-1.1627904176712036,-0.015199586749076843,0.37691405415534973,-0.9186641573905945,-0.11828884482383728,-0.040183037519454956,0.45580393075942993,0.09187597036361694
1.166578963949221,1.2700273087401863,2.593291071349551,0.5920411348342896,-0.9631220102310181,0.0233259666711092,0.3756439685821533,-0.9194104671478271,-0.11651689559221268,-0.07937929034233093,0.5030438303947449,0.08285611867904663
1.1687771170174746,1.2730716955188144,2.580856478320902,0.4742039442062378,-0.716555655002594,0.118831105530262,0.37406396865844727,-0.9202728271484375,-0.11477962136268616,-0.07932513952255249,0.547408938407898,0.07834172248840332
1.1718455469958877,1.2756973853730473,2.5717239027626833,0.396331787109375,-0.4420895278453827,0.26293474435806274,0.3716605603694916,-0.9214690923690796,-0.11297526210546494,-0.05053931474685669,0.58601975440979,0.0626518726348877
1.1762318833649776,1.2791394857040652,2.56477279279769,0.37540745735168457,-0.1562032550573349,0.427356481552124,0.3681721091270447,-0.9231640696525574,-0.11053191870450974,-0.01955452561378479,0.6341016292572021,0.0392734557390213
1.182494335580566,1.2827983286273097,2.5599937630392806,0.3206251561641693,-0.02155144326388836,0.695007860660553,0.3630240261554718,-0.9255532622337341,-0.10753998905420303,0.016248464584350586,0.7033699750900269,0.0514640212059021
1.1924234859376601,1.2799216092310841,2.5630269492044624,-0.04309464618563652,0.012752536684274673,1.3436915874481201,0.35389140248298645,-0.9292669296264648,-0.10594292730093002,0.08423423767089844,0.8285131454467773,0.12759524583816528
1.2067856482007595,1.2603701655460835,2.5857309094522187,-0.5907233357429504,0.404901921749115,1.7453175783157349,0.3390083909034729,-0.9344764351844788,-0.1087530329823494,0.1800956428050995,1.0170416831970215,0.2827795743942261
1.222067400315614,1.234293957252664,2.621275533707926,-0.8138185143470764,1.0161986351013184,2.071197748184204,0.32253962755203247,-0.9398077726364136,-0.11282643675804138,0.05024793744087219,0.8658024668693542,0.25596922636032104
1.2420620507499853,1.201065325713477,2.66991883972836,-0.818945586681366,1.49966299533844,2.8228423595428467,0.3010295331478119,-0.946451723575592,-0.11666512489318848,0.12493488192558289,1.0419105291366577,0.22340039908885956
1.2671303953147437,1.1509263667461336,2.739912390108545,-1.3712629079818726,1.7920958995819092,3.3960530757904053,0.2730487287044525,-0.9542466998100281,-0.12189348042011261,0.22934696078300476,1.0474319458007812,0.12668476998806
1.2900388724439713,1.0708446932056213,2.8448141977739043,-1.9644484519958496,2.3301405906677246,3.361159086227417,0.24317049980163574,-0.9608458280563354,-0.13282938301563263,0.11406829953193665,0.9634245038032532,0.2156084179878235
1.3067653198753326,0.9728646532683481,2.9735644694037764,-2.1678354740142822,2.8444011211395264,3.1281981468200684,0.21569600701332092,-0.9653458595275879,-0.14691156148910522,0.01922839879989624,0.7312300205230713,0.1398925632238388
1.3182292216749059,0.8625649998358345,3.1176329647215013,-2.267296075820923,2.946672201156616,3.1417665481567383,0.18979568779468536,-0.9682741165161133,-0.16255202889442444,-0.007849857211112976,0.7078522443771362,0.010299861431121826
1.3246452314878026,0.7486283062343428,-3.0182022929103813,-2.06813645362854,2.7849535942077637,2.810891628265381,0.16585268080234528,-0.9698574542999268,-0.17852094769477844,-0.056828573346138,0.7624903321266174,-0.08690561354160309
1.3271477149008333,0.6426132006569814,-2.8828790314083217,-1.7580376863479614,2.2562241554260254,2.5829625129699707,0.1445760577917099,-0.9704642295837402,-0.19312508404254913,-0.2165212333202362,0.6505178213119507,-0.11000597476959229
1.3283057821872466,0.5428333082856293,-2.7597636791556495,-1.3541404008865356,1.713882565498352,2.459408760070801,0.12403804808855057,-0.97074294090271,-0.20560352504253387,-0.2579491436481476,0.7690979838371277,-0.058190345764160156
1.3301836409394712,0.45356934795891407,-2.6524949294545856,-0.7342429757118225,1.2872258424758911,2.223801374435425,0.1044168472290039,-0.9711921811103821,-0.2142038196325302,-0.32209867238998413,0.782684862613678,-0.0956411063671112
1.3353786845055713,0.38301309323909183,-2.568553927948508,0.06868628412485123,0.913336992263794,1.7972224950790405,0.08716941624879837,-0.9724169969558716,-0.21634921431541443,-0.4081990420818329,0.7388047575950623,-0.1676381528377533
1.3441120709192533,0.33549516050099415,-2.5129883072702737,0.6300601363182068,0.37790846824645996,1.187713861465454,0.07399533689022064,-0.974416971206665,-0.2122177928686142,-0.49860164523124695,0.5268918871879578,-0.16365186870098114
1.3542355174106666,0.31225038874927774,-2.488376272448058,0.9273276925086975,-0.22108548879623413,0.4914122223854065,0.06600890308618546,-0.9766421914100647,-0.204481840133667,-0.5601189732551575,0.4738041162490845,-0.027482181787490845
1.3642539428775984,0.3154674111413826,-2.4963433888357263,1.0765575170516968,-0.6705594062805176,-0.17824363708496094,0.06362736225128174,-0.9787458181381226,-0.1949567347764969,-0.5810071229934692,0.5106977224349976,0.09580524265766144
1.3734314706139266,0.3468340440335098,-2.536553021943834,1.1818695068359375,-0.9174123406410217,-0.7329461574554443,0.0666540190577507,-0.9805867075920105,-0.18440993130207062,-0.5616490840911865,0.520335853099823,0.1505659967660904
1.3813613779739855,0.404508713883137,-2.605375501665308,1.2613675594329834,-1.0567213296890259,-1.1298927068710327,0.0741102546453476,-0.9821107983589172,-0.17310704290866852,-0.4948255717754364,0.5399416089057922,0.14179612696170807
1.3874036793700502,0.4835829275904118,-2.697094142380492,1.2892690896987915,-1.1571060419082642,-1.4189213514328003,0.0847923681139946,-0.9832306504249573,-0.1614559441804886,-0.4224388301372528,0.5551452040672302,0.11918920278549194
1.3906745402106748,0.5793834667915049,-2.806528805872769,1.284831166267395,-1.204077124595642,-1.6615358591079712,0.09808642417192459,-0.9838218688964844,-0.14991331100463867,-0.3742246925830841,0.56414395570755,0.09069399535655975
1.3906403059636767,0.6867476324409544,-2.9275314540853405,1.2803462743759155,-1.1208405494689941,-1.8356826305389404,0.11360707134008408,-0.9838157296180725,-0.13856500387191772,-0.3241478204727173,0.5715384483337402,0.06536865234375
1.3873789896306308,0.7997300910942532,-3.052810895813437,1.3200329542160034,-0.9255704283714294,-1.9418047666549683,0.13080495595932007,-0.9832261204719543,-0.12710830569267273,-0.2523716986179352,0.5743973255157471,0.04805260896682739
1.3815345712513878,0.9138001602594813,3.105817862514415,1.4092613458633423,-0.7574899792671204,-1.959609031677246,0.1489708423614502,-0.9821434020996094,-0.11490163952112198,-0.1805259734392166,0.5878409147262573,0.023120105266571045
1.3738723209093828,1.0231614159677624,2.987224375705929,1.474584698677063,-0.6571796536445618,-1.8775395154953003,0.16704125702381134,-0.98067307472229,-0.1018710732460022,-0.08583395183086395,0.5943967700004578,0.02215922623872757
1.3651137862732716,1.1230895318429897,2.8789443671143418,1.4953399896621704,-0.5827663540840149,-1.7322322130203247,0.1841064691543579,-0.9789218306541443,-0.08841342478990555,0.009313955903053284,0.5875948667526245,0.057422883808612823
1.3556586640383925,1.211663830722956,2.7829124466881385,1.4504001140594482,-0.47747695446014404,-1.5873762369155884,0.1998627930879593,-0.976947009563446,-0.07503104209899902,0.0652892142534256,0.585787832736969,0.1148870587348938
1.3456854685316357,1.2878829373076721,2.700842350818525,1.321270227432251,-0.2896057367324829,-1.442543864250183,0.21434162557125092,-0.9747693538665771,-0.062311526387929916,0.10119493305683136,0.5768657326698303,0.17594385147094727
1.3355180793705208,1.3518363915397584,2.6334548682676258,1.1524678468704224,-0.04036448895931244,-1.295825719833374,0.22754868865013123,-0.972449541091919,-0.05063586309552193,0.16695211827754974,0.5315923690795898,0.2209240198135376
1.3256126664712582,1.4040638053190593,2.5804254674430225,0.9445044994354248,0.17563383281230927,-1.1391403675079346,0.2393687218427658,-0.9700927734375,-0.040284544229507446,0.2508046329021454,0.4762572646141052,0.2517104148864746
1.3164656623920392,1.4451412275415865,2.5406634959111325,0.7393487095832825,0.32831472158432007,-0.9576008915901184,0.24961459636688232,-0.9678319096565247,-0.03153147175908089,0.28201693296432495,0.4647647738456726,0.25528645515441895
1.3087838611141485,1.4767211264970028,2.5119828516585025,0.5558717846870422,0.43806135654449463,-0.729297935962677,0.25788038969039917,-0.9658706784248352,-0.024331972002983093,0.294060617685318,0.4867597222328186,0.24518775939941406
1.3032241921461205,1.5008131096124977,2.4918129052156353,0.41286319494247437,0.4774948060512543,-0.4643685519695282,0.26374393701553345,-0.9644156694412231,-0.01848784275352955,0.31325194239616394,0.5223531723022461,0.24802595376968384
1.3002153838128712,1.5183992180758308,2.4782316176822667,0.27212223410606384,0.40999212861061096,-0.18273364007472992,0.2669244408607483,-0.9636157751083374,-0.013998881913721561,0.3266119360923767,0.5483020544052124,0.25693416595458984
1.2999403976616652,1.5292123337414023,2.4703027566766482,0.16368979215621948,0.1914810836315155,0.1170237809419632,0.26732513308525085,-0.9635422229766846,-0.01112285815179348,0.33983737230300903,0.5330460071563721,0.2598106861114502
1.3026204577585567,1.5337368793657142,2.4664736102701146,0.045415837317705154,0.002369451802223921,0.39163902401924133,0.26479145884513855,-0.9642558693885803,-0.009817520156502724,0.35956770181655884,0.5120310187339783,0.24782419204711914
1.3071645196099235,1.5309516598679667,2.4694910027314516,-0.16120044887065887,0.045310527086257935,0.5053319931030273,0.2603819668292999,-0.9654499292373657,-0.010380325838923454,0.34502577781677246,0.3997913599014282,0.21991407871246338
1.312164666227468,1.5229696579784013,2.478839648889592,-0.26535892486572266,0.1627664417028427,0.5107323527336121,0.2554657757282257,-0.9667408466339111,-0.012227402068674564,0.2694365680217743,0.32071417570114136,0.19811010360717773
1.317138451282328,1.5127487077874735,2.4912349955039637,-0.3130015432834625,0.16930103302001953,0.5216047167778015,0.2505244314670563,-0.9680009484291077,-0.014558701775968075,0.229318767786026,0.3162522315979004,0.1759815216064453
1.3223366909981888,1.4985724111239276,2.506732026107504,-0.3899799585342407,-0.026844464242458344,0.5712159872055054,0.2452707588672638,-0.9692923426628113,-0.017745280638337135,0.2566213607788086,0.3052908182144165,0.18026673793792725
1.3278961937215443,1.4786654529188288,2.525391792451635,-0.41614365577697754,-0.3348774015903473,0.6126545071601868,0.2394990772008896,-0.9706445336341858,-0.022127902135252953,0.2477140873670578,0.28131335973739624,0.17970550060272217
1.333540383185809,1.4558886976383056,2.5444464680717926,-0.3648657500743866,-0.48982590436935425,0.5959327816963196,0.23348699510097504,-0.9719865918159485,-0.026948146522045135,0.21637268364429474,0.28016823530197144,0.167374849319458
1.3385681473161426,1.433721380048135,2.562122145636355,-0.332854300737381,-0.5084565877914429,0.4943094551563263,0.22798818349838257,-0.9731559753417969,-0.03144868463277817,0.187935933470726,0.2915000319480896,0.19276469945907593
1.3421578175223663,1.4114427599677741,2.579275824267356,-0.3453364670276642,-0.6341814398765564,0.33215534687042236,0.22378088533878326,-0.9739758968353271,-0.03596522659063339,0.1518295407295227,0.28400373458862305,0.22905004024505615
1.3441123094162044,1.3832061400317601,2.5995804589648683,-0.5266655683517456,-1.136519193649292,0.23115098476409912,0.22080585360527039,-0.9744170308113098,-0.04191381856799126,0.1433452069759369,0.2797756791114807,0.2385386824607849
1.3455322590159444,1.3364857370710537,2.632660451851739,-0.8596547842025757,-1.7039443254470825,0.3963894248008728,0.21726082265377045,-0.9747351408004761,-0.051859050989151,0.18995051085948944,0.3106115460395813,0.28774476051330566
1.3484018431328648,1.2691795403192616,2.682750020135802,-1.123940348625183,-1.9842058420181274,0.7520801424980164,0.21060948073863983,-0.9753720760345459,-0.06552243232727051,0.24921417236328125,0.3209225535392761,0.3365185856819153
1.3527650901533996,1.1844842170105705,2.748445597071357,-1.2858366966247559,-2.1377804279327393,1.0151169300079346,0.20036721229553223,-0.9763252139091492,-0.08149944245815277,0.18891502916812897,0.3849250078201294,0.2981743812561035
1.3570036903531475,1.0867454019940557,2.8263287849866523,-1.3678815364837646,-2.1810548305511475,1.1625066995620728,0.1877933293581009,-0.9772332906723022,-0.09873621165752411,0.0504269152879715,0.41895991563796997,0.15833711624145508
1.3606312000209175,0.9833872447187119,2.909921664809047,-1.2679394483566284,-2.162091016769409,1.2631245851516724,0.17365233600139618,-0.9779964685440063,-0.11561941355466843,0.0470203161239624,0.3550258278846741,-0.0518915057182312
1.3642624037726658,0.8807579011220374,2.993070552289469,-1.0627375841140747,-2.09028959274292,1.3724782466888428,0.15815389156341553,-0.978747546672821,-0.13054034113883972,0.044620171189308167,0.31859123706817627,-0.21575778722763062
1.3685588170924097,0.7803698744723317,3.075039451190794,-0.8169436454772949,-1.932701587677002,1.5209959745407104,0.1413153111934662,-0.9796196222305298,-0.14274364709854126,0.053859904408454895,0.34093236923217773,-0.21791303157806396
1.37411505768721,0.679433703213523,-3.1238516311460973,-0.5958621501922607,-1.7439912557601929,1.718673825263977,0.12278994917869568,-0.9807205200195312,-0.1520194709300995,0.11742918193340302,0.36173248291015625,-0.10297004878520966
1.3806912623161314,0.5713671923863239,-3.0308019559677706,-0.4318515658378601,-1.6360870599746704,1.9612330198287964,0.10218747705221176,-0.9819843769073486,-0.1589479148387909,0.16026371717453003,0.35222363471984863,0.07436855137348175
1.3881240830771862,0.44973745429204837,-2.924207177181982,-0.18929776549339294,-1.7896531820297241,2.210709571838379,0.07897212356328964,-0.9833617806434631,-0.16359436511993408,0.18726325035095215,0.31845998764038086,0.20520515739917755
1.3960959248226417,0.31176343765830505,-2.8042030962153737,0.07016557455062866,-2.2182517051696777,2.3234951496124268,0.053315214812755585,-0.984778642654419,-0.16543494164943695,0.175261452794075,0.28978651762008667,0.2426445484161377
1.4027171993800764,0.15963247263888086,-2.67502675545984,0.16075779497623444,-2.7720961570739746,2.254570960998535,0.026591617614030838,-0.9859079122543335,-0.16516287624835968,0.07942648231983185,0.21980971097946167,0.23570434749126434
1.4058711359411393,0.003178009770206858,-2.5471383065927085,0.1122250035405159,-3.2852303981781006,2.005734920501709,0.0005217638681642711,-0.9864306449890137,-0.16417889297008514,-0.03993520140647888,0.11779332160949707,0.20920763909816742
1.4052468350964615,-0.14091410025668946,-2.4359375566303467,0.004865260329097509,-3.5793955326080322,1.659361481666565,-0.023145167157053947,-0.9863279461860657,-0.16316157579421997,-0.1880364716053009,0.09062165021896362,0.15583747625350952
1.401632984319167,-0.2630616778042624,-2.3483317877422114,-0.13231022655963898,-3.5328338146209717,1.3675823211669922,-0.04377966374158859,-0.985725998878479,-0.16256682574748993,-0.2584969401359558,0.12313127517700195,0.0859677791595459
1.3958056761512097,-0.36287440952533045,-2.280823555422541,-0.2602596879005432,-3.1038074493408203,1.2097342014312744,-0.06179886311292648,-0.9847281575202942,-0.16276219487190247,-0.21633833646774292,0.13603419065475464,0.04859602451324463
1.3886864097702334,-0.4446621177695922,-2.2256925496810394,-0.2540404498577118,-2.396368980407715,1.1733553409576416,-0.07790304720401764,-0.9834637641906738,-0.1634940803050995,-0.19316935539245605,0.15335500240325928,0.03321462869644165
1.3814235161285946,-0.51867983839309,-2.172745398519954,-0.11753851920366287,-2.0969223976135254,1.2440928220748901,-0.09331860393285751,-0.9821224808692932,-0.16348446905612946,-0.18219411373138428,0.23648643493652344,0.009630143642425537
1.374796696190619,-0.5960185281194819,-2.1159827865699623,0.17567548155784607,-2.2723121643066406,1.2928669452667236,-0.10932180285453796,-0.9808534979820251,-0.16116845607757568,-0.21836066246032715,0.30694901943206787,0.09044410288333893
1.3705927613100515,-0.6833864539887599,-2.0520046629367497,0.666541337966919,-2.6891231536865234,1.2222033739089966,-0.1255706250667572,-0.980026125907898,-0.15421104431152344,-0.2836090624332428,0.2935483455657959,0.022634565830230713
1.3697610449890767,-0.7849637490180469,-1.977546270166922,1.1994847059249878,-2.9921011924743652,1.0997250080108643,-0.14113673567771912,-0.9798603653907776,-0.14125941693782806,-0.3578561842441559,0.1637287139892578,-0.08016078174114227
1.3713956889473444,-0.901768113119289,-1.888046843847305,1.661939263343811,-2.779127359390259,1.034578800201416,-0.15538085997104645,-0.9801854491233826,-0.12285555154085159,-0.42285096645355225,-0.008004307746887207,-0.11341148614883423
1.372986841559312,-1.0294383037312356,-1.7839922214493869,1.8632841110229492,-2.3852453231811523,1.0559606552124023,-0.1684219390153885,-0.9804993867874146,-0.10126826167106628,-0.4871566891670227,-0.060638487339019775,-0.03708310425281525
1.3716999986403429,-1.1592915975830151,-1.675021584973302,1.8200136423110962,-2.2651143074035645,1.1560560464859009,-0.18127354979515076,-0.9802457094192505,-0.07911165058612823,-0.5282906889915466,-0.026315808296203613,0.1512705683708191
1.366136273374749,-1.2827741539154713,-1.572776647464031,1.650722861289978,-2.434006929397583,1.311038851737976,-0.1948632001876831,-0.9791301488876343,-0.057730190455913544,-0.5103217363357544,-0.031184911727905273,0.3116059899330139
1.3557547320387917,-1.3960393898044707,-1.4829986039336323,1.5573610067367554,-2.643082618713379,1.6174507141113281,-0.21013860404491425,-0.9769675135612488,-0.03710164502263069,-0.45450374484062195,-0.11771339178085327,0.32958221435546875
1.3406496711284606,-1.4899329892826119,-1.4139778581406708,0.9654048681259155,-2.694978952407837,1.6971205472946167,-0.2273760288953781,-0.9736329317092896,-0.01842656545341015,-0.33112621307373047,-0.2663117051124573,0.25914931297302246
1.3230492013743962,-1.5489058619522853,-1.3805564231739318,0.502578616142273,-2.534799098968506,1.949711799621582,-0.24516211450099945,-0.9694673418998718,-0.005367570091038942,-0.24995507299900055,-0.40557849407196045,0.3756069540977478
1.3022825297755518,-1.5868942720553212,-1.3649674028382741,0.3398668169975281,-2.0731348991394043,2.2329094409942627,-0.26526495814323425,-0.9641662240028381,0.0042705899104475975,-0.14553219079971313,-0.6445069909095764,0.1507434844970703
1.2785213298826588,-1.6174251021277455,-1.3531087591158852,0.4926997721195221,-1.7543797492980957,2.4729347229003906,-0.28781890869140625,-0.9575908780097961,0.013430378399789333,-0.42850497364997864,-0.934255063533783,-0.07713568210601807
1.2537134760485469,-1.6487497973156406,-1.3358759437506627,0.8625577092170715,-1.2109856605529785,2.3712072372436523,-0.31085002422332764,-0.9501489996910095,0.024281039834022522,-0.8699819445610046,-1.3515174388885498,-0.09289979934692383
1.231348816685286,-1.6818920749633637,-1.3107522421694124,1.1544438600540161,-0.6972038745880127,1.9062379598617554,-0.3309137225151062,-0.9429387450218201,0.03691510483622551,-1.282230257987976,-1.6878443956375122,0.03350424766540527
1.2144132070315654,-1.7142433934223933,-1.2823705761008581,1.1687158346176147,-0.4778086245059967,1.1939364671707153,-0.34530356526374817,-0.937164843082428,0.049875352531671524,-1.5083646774291992,-1.9959864616394043,0.21848106384277344
1.204576365503989,-1.7423624967119569,-1.2572973789044042,0.8509013652801514,-0.4720554053783417,0.4873521327972412,-0.3528316617012024,-0.9336876273155212,0.06113499402999878,-1.5803196430206299,-2.1664865016937256,0.3470834493637085
1.2006287035542207,-1.7607483069583683,-1.2424962299100057,0.3162480890750885,-0.4053767919540405,0.1649254411458969,-0.3552648723125458,-0.9322667121887207,0.06830679625272751,-1.4222772121429443,-2.2862696647644043,0.36731648445129395
1.2001385567502227,-1.7624989285037158,-1.242954578539651,-0.3264152705669403,-0.018516140058636665,-0.09124614298343658,-0.35559356212615967,-0.9320892691612244,0.06901572644710541,-1.1794711351394653,-2.4150938987731934,0.33552539348602295
1.2044501256511633,-1.7476427124596419,-1.25819814787934,-0.8870956301689148,0.08352155983448029,-0.5477595329284668,-0.35261988639831543,-0.9336423873901367,0.06301788240671158,-1.040705919265747,-2.391751289367676,0.2891702651977539
1.2128796767795518,-1.7228007339088782,-1.284471711898831,-1.2058721780776978,-0.004350508563220501,-0.7903838753700256,-0.3462846875190735,-0.9366286993026733,0.05304597690701485,-0.8733961582183838,-2.263932943344116,0.1325773000717163
1.2233139759278797,-1.6894758955509794,-1.3188946338087706,-1.44363272190094,0.256549209356308,-0.953848123550415,-0.3381365239620209,-0.940233051776886,0.04031937196850777,-0.6783429980278015,-2.0487043857574463,-0.06987547874450684
1.2348786407089474,-1.643358095825954,-1.3627313440928932,-1.7142082452774048,0.6954613327980042,-1.0660289525985718,-0.3287685811519623,-0.9441081881523132,0.023897986859083176,-0.5273563265800476,-1.800780177116394,-0.14273333549499512
1.246730303542609,-1.583888954652983,-1.4171612282158204,-1.8986847400665283,0.8628772497177124,-1.1540089845657349,-0.3183964490890503,-0.9479485154151917,0.004168884363025427,-0.4114772379398346,-1.5434455871582031,-0.13696610927581787
1.2584862155089496,-1.5169072940901822,-1.4785664394072944,-1.854024052619934,0.8703277111053467,-1.2854080200195312,-0.30681273341178894,-0.9516263008117676,-0.016549864783883095,-0.41447028517723083,-1.3320043087005615,-0.1423092484474182
1.2713122106184258,-1.452217696776661,-1.5365385833786371,-1.4072836637496948,1.0066747665405273,-1.5784302949905396,-0.29295629262924194,-0.9554888010025024,-0.034902095794677734,-0.46519193053245544,-1.2310805320739746,-0.230219304561615
1.286384924406066,-1.3916732722251088,-1.5893889543831914,-1.2061457633972168,0.9640222787857056,-1.8566159009933472,-0.2761038541793823,-0.9598269462585449,-0.049992382526397705,-0.5122262239456177,-1.1648833751678467,-0.24244225025177002
1.3026789180050602,-1.3254538763754822,-1.6486637537059519,-1.2979751825332642,0.9055729508399963,-1.9958571195602417,-0.25698432326316833,-0.9642713069915771,-0.06434541940689087,-0.5136914253234863,-1.009544849395752,-0.03665239363908768
1.3180095069022306,-1.2439246025513078,-1.7227655541074725,-1.5079822540283203,1.114163875579834,-2.0208098888397217,-0.23686100542545319,-0.9682191610336304,-0.08030376583337784,-0.444108247756958,-0.8747221827507019,0.1233031153678894
1.3306293492350785,-1.1431106738653207,-1.814077110418011,-1.7059156894683838,1.3199918270111084,-1.962332844734192,-0.21644079685211182,-0.9712982773780823,-0.09865866601467133,-0.37898772954940796,-0.8105775713920593,0.1745712012052536
1.3391442677592627,-1.0274132106702003,-1.9191421274054365,-1.846273422241211,1.382354736328125,-1.8316755294799805,-0.19651742279529572,-0.9732884168624878,-0.1187039315700531,-0.3545385003089905,-0.7333003878593445,0.16690653562545776
1.3430145283024042,-0.905611281315554,-2.029707712249787,-1.8403133153915405,1.4658409357070923,-1.6771025657653809,-0.17767350375652313,-0.9741696715354919,-0.13937540352344513,-0.3219755291938782,-0.6421937942504883,0.15507681667804718
1.3434191006140621,-0.7865433381753165,-2.1361505014678834,-1.7005906105041504,1.612817406654358,-1.5827544927597046,-0.15958093106746674,-0.9742609858512878,-0.15921585261821747,-0.31502845883369446,-0.5695776343345642,0.11754417419433594
1.3417381977557445,-0.6731565987421807,-2.2356784423513827,-1.5650520324707031,1.6632442474365234,-1.5626801252365112,-0.14156301319599152,-0.9738807082176208,-0.17752963304519653,-0.3338703513145447,-0.49695998430252075,0.08823524415493011
1.3384672334578538,-0.5649128051603913,-2.3301437775730887,-1.4877545833587646,1.5883358716964722,-1.5845917463302612,-0.12325993925333023,-0.9731327891349792,-0.19447317719459534,-0.34582576155662537,-0.4054226279258728,0.1029510498046875
1.3336155281592643,-0.46140381304846545,-2.4209104943019866,-1.447996735572815,1.4587255716323853,-1.6227681636810303,-0.10460714995861053,-0.972004234790802,-0.21039317548274994,-0.36347144842147827,-0.3297078609466553,0.1270192414522171
1.3270916577158953,-0.3632769094625154,-2.5076126751328993,-1.4107433557510376,1.3325746059417725,-1.6307429075241089,-0.08574315160512924,-0.9704506993293762,-0.22555163502693176,-0.35784509778022766,-0.2785269618034363,0.12620171904563904
1.3185779737513244,-0.2733696276084246,-2.5873139365348896,-1.4457594156265259,1.2019526958465576,-1.5495814085006714,-0.06737367063760757,-0.9683611989021301,-0.2402862161397934,-0.30564266443252563,-0.22682923078536987,0.10413208603858948
1.30779469343443,-0.1946754830892705,-2.656725976443471,-1.4673831462860107,1.1298027038574219,-1.387624740600586,-0.05029268562793732,-0.9656139612197876,-0.2550692558288574,-0.269943505525589,-0.14606517553329468,0.10213056206703186
1.2957899128860169,-0.12902367508812304,-2.7128390509871565,-1.3743689060211182,1.2021775245666504,-1.167342185974121,-0.03493967279791832,-0.9624234437942505,-0.2692961096763611,-0.24650868773460388,-0.05472749471664429,0.05275872349739075
1.2841689894877808,-0.07545254633378291,-2.7553008148284364,-1.1743212938308716,1.3692567348480225,-0.9483598470687866,-0.02131163887679577,-0.9592028260231018,-0.28191468119621277,-0.23189271986484528,0.02417469024658203,-0.010413110256195068
1.274259606237094,-0.029291226399887616,-2.7881092127581577,-0.9000324010848999,1.5821171998977661,-0.857866644859314,-0.008557960391044617,-0.9563542008399963,-0.2920844852924347,-0.2619803547859192,0.07789045572280884,-0.03578105568885803
1.2667875305918392,0.01632811564087933,-2.8184613097259414,-0.6109142899513245,1.7384189367294312,-0.9548261761665344,0.004887571092694998,-0.9541441202163696,-0.29930809140205383,-0.33244797587394714,0.09034401178359985,-0.01688450574874878
1.2614211912385607,0.06668509104414347,-2.8528168481465954,-0.38008204102516174,1.7739510536193848,-1.1769341230392456,0.02028815820813179,-0.9525240063667297,-0.3037872016429901,-0.3859497904777527,0.10364693403244019,0.0298919677734375
1.2573737751639416,0.12304147769512276,-2.893798159874965,-0.19556894898414612,1.6875183582305908,-1.3988028764724731,0.0378401093184948,-0.9512839317321777,-0.3059859275817871,-0.3742811381816864,0.14302575588226318,0.07629537582397461
1.2538383252824117,0.18281090985773724,-2.939696442548725,-0.08089585602283478,1.5461599826812744,-1.5136239528656006,0.05666128173470497,-0.9501879215240479,-0.30648428201675415,-0.3023582696914673,0.21065539121627808,0.11834347248077393
1.2499322230916792,0.24268414601857852,-2.986903215695421,-0.06298583745956421,1.4887664318084717,-1.5446768999099731,0.07579030096530914,-0.9489632248878479,-0.30614492297172546,-0.21531663835048676,0.2722511291503906,0.14164000749588013
1.2450262146672642,0.30137241613715726,-3.0328675710165207,-0.1024637520313263,1.550842046737671,-1.5342706441879272,0.09499742090702057,-0.9474045634269714,-0.30561456084251404,-0.148036926984787,0.2932296395301819,0.1356622576713562
1.2388800318706594,0.3583165786238998,-3.07592782490474,-0.16142132878303528,1.7014168500900269,-1.5007989406585693,0.11427697539329529,-0.9454196691513062,-0.3051600158214569,-0.0819283053278923,0.3013613224029541,0.10685688257217407
1.2316382439127087,0.4132908604960077,-3.1152756410534774,-0.20489461719989777,1.8653968572616577,-1.4489766359329224,0.1336180567741394,-0.9430351257324219,-0.3046819269657135,-0.015087783336639404,0.3293876051902771,0.07045957446098328
1.2237011679900567,0.465489189085911,3.132770729174968,-0.22505953907966614,1.9532405138015747,-1.3672761917114258,0.15268775820732117,-0.9403648376464844,-0.3039747476577759,0.04738551378250122,0.3694723844528198,0.040684401988983154
1.2155128149226577,0.5134881286109775,3.1024932254459516,-0.24104443192481995,1.961180567741394,-1.2384395599365234,0.17087343335151672,-0.9375479221343994,-0.3029954433441162,0.10669921338558197,0.38917750120162964,0.031892627477645874
1.207449744313011,0.5559737783599742,3.0777641533899103,-0.2606261372566223,1.9030003547668457,-1.0826141834259033,0.18757210671901703,-0.9347126483917236,-0.3018760085105896,0.15025749802589417,0.39043158292770386,0.043788909912109375
1.1997846551687406,0.5925686928701603,3.0581377804097247,-0.26002237200737,1.7506064176559448,-0.9412635564804077,0.20248661935329437,-0.9319610595703125,-0.30074548721313477,0.16261045634746552,0.3971557021141052,0.05343112349510193
1.1926749503787877,0.6237818553404346,3.0423379949121077,-0.24547085165977478,1.5563615560531616,-0.8317474722862244,0.21563856303691864,-0.9293597936630249,-0.2996504008769989,0.15618762373924255,0.4026263952255249,0.06919696927070618
1.1861682435181982,0.6508843115592055,3.0287815876556152,-0.19629885256290436,1.357757806777954,-0.7614319324493408,0.2273387759923935,-0.9269380569458008,-0.29850125312805176,0.1389790028333664,0.4008607268333435,0.08147558569908142
1.1803714797223475,0.6753231923749398,3.0159846908117234,-0.12170930206775665,1.169935703277588,-0.7214107513427734,0.23792047798633575,-0.9247474670410156,-0.29704588651657104,0.11669380962848663,0.3939703702926636,0.07631224393844604
1.1752951721530236,0.6983131478656923,3.0028430712132943,-0.02390626072883606,1.007193684577942,-0.707669734954834,0.24770087003707886,-0.9228035807609558,-0.2950896620750427,0.08466610312461853,0.39051592350006104,0.06500244140625
1.1709149074159557,0.7211307330134088,2.98839070524203,0.08670680224895477,0.9024779796600342,-0.7182630300521851,0.25703537464141846,-0.9211071729660034,-0.2923945188522339,0.05218401551246643,0.40075188875198364,0.05260273814201355
1.1671443913855588,0.7448766499069418,2.971980645142974,0.21510754525661469,0.8282270431518555,-0.7461076378822327,0.2662578523159027,-0.9196327328681946,-0.28876033425331116,0.024635732173919678,0.41482609510421753,0.04510807991027832
1.1639362919317886,0.7699839546979365,2.9531054799805427,0.3376121520996094,0.7272708415985107,-0.7799534797668457,0.2754756212234497,-0.9183679223060608,-0.2841017544269562,0.00791063904762268,0.42941516637802124,0.03896939754486084
1.1609874139033656,0.796166479447608,2.932014206703769,0.4199778735637665,0.6398121118545532,-0.8309210538864136,0.2847530245780945,-0.9171969890594482,-0.2786855101585388,0.006888240575790405,0.4364839792251587,0.04374605417251587
1.1577787044735497,0.8228138425234168,2.90929089718668,0.4522106349468231,0.5154163837432861,-0.8958017826080322,0.29423317313194275,-0.9159138202667236,-0.2729998528957367,0.011034160852432251,0.43596380949020386,0.05743899941444397
1.1539277321314343,0.8484265003794879,2.8858077932621486,0.42758122086524963,0.2983432412147522,-0.9504640102386475,0.3037721514701843,-0.914361298084259,-0.26770511269569397,0.02012622356414795,0.44568753242492676,0.07878607511520386
1.1491299126637804,0.8706371910411961,2.8633108805824974,0.32645541429519653,0.03481413051486015,-0.9706052541732788,0.3129940330982208,-0.912408173084259,-0.2637163996696472,0.03679850697517395,0.4559871554374695,0.12412905693054199
1.1434607188031893,0.88771143263757,2.843519151132259,0.2078254520893097,-0.227976992726326,-0.9419446587562561,0.3214576244354248,-0.9100732207298279,-0.26159462332725525,0.050856828689575195,0.4876946806907654,0.16593733429908752
1.1374354514209155,0.8995318447182656,2.8268182700168696,0.1298840343952179,-0.4340428113937378,-0.8721874356269836,0.32881516218185425,-0.9075595736503601,-0.26118260622024536,0.05820879340171814,0.5203830003738403,0.18629255890846252
1.1316680634016405,0.9073052009127471,2.812755222848598,0.09454657882452011,-0.5519899725914001,-0.7693832516670227,0.3349536657333374,-0.9051226377487183,-0.26183798909187317,0.052055031061172485,0.536973774433136,0.19184604287147522
1.126622983185945,0.9123255480519401,2.8009558131232293,0.08474188297986984,-0.5625810623168945,-0.6503831148147583,0.3398714065551758,-0.9029662013053894,-0.2629440724849701,0.034350425004959106,0.5331388711929321,0.17474836111068726
1.1224116231510066,0.9159187387194865,2.791130680689161,0.07327757775783539,-0.4845826327800751,-0.5392206311225891,0.34382686018943787,-0.9011484980583191,-0.26403480768203735,0.005065351724624634,0.5228984355926514,0.15404954552650452
1.1188323222974954,0.9190501016638702,2.7829205784287234,0.06216074526309967,-0.3663784861564636,-0.4698924422264099,0.3472142517566681,-0.8995910882949829,-0.26491180062294006,-0.030838489532470703,0.5294738411903381,0.14050698280334473
1.1155881423474778,0.922536251487415,2.775739375054544,0.048609744757413864,-0.23089736700057983,-0.43126124143600464,0.3504602909088135,-0.8981695175170898,-0.2654605507850647,-0.0671808123588562,0.5491399168968201,0.13341104984283447
1.1125853154241832,0.9269289445473343,2.7689560905990493,0.07543016970157623,-0.11500539630651474,-0.40736737847328186,0.3537784516811371,-0.896845281124115,-0.265536367893219,-0.09575226902961731,0.5859321355819702,0.13327324390411377
1.1101433760883186,0.9326808285774945,2.761751935972923,0.14866764843463898,-0.02689443901181221,-0.367023766040802,0.35705795884132385,-0.8957624435424805,-0.26480087637901306,-0.10150372982025146,0.6402844190597534,0.13157647848129272
1.1085421616310642,0.9397973952336172,2.7536746752053323,0.2390550673007965,-0.0041824690997600555,-0.3169960081577301,0.360090970993042,-0.895049512386322,-0.26309898495674133,-0.0896441638469696,0.681441605091095,0.14403468370437622
1.1078434924808445,0.9475079218904561,2.7449087563279537,0.30494698882102966,-0.02815254032611847,-0.25394317507743835,0.3626166582107544,-0.8947376608848572,-0.2606797218322754,-0.07153993844985962,0.6934131383895874,0.18635421991348267
1.107880337012149,0.9545362065359531,2.736467327183798,0.3072865605354309,-0.08722224831581116,-0.17617513239383698,0.364412784576416,-0.89475417137146,-0.2581055760383606,-0.06596609950065613,0.6907441020011902,0.23401203751564026
1.1084829768546292,0.9596346052199506,2.729220120019418,0.2908862829208374,-0.19333961606025696,-0.10001495480537415,0.3652822971343994,-0.8950231075286865,-0.25593486428260803,-0.06289884448051453,0.6863590478897095,0.2597190737724304
1.1095329555775453,0.9627817263146335,2.723011781574605,0.2864486575126648,-0.28468871116638184,-0.04718742519617081,0.36531445384025574,-0.8954908847808838,-0.2542470693588257,-0.06303778290748596,0.677839457988739,0.27344268560409546
1.1108683218664397,0.9646608912638891,2.7174714739558596,0.27072611451148987,-0.32488277554512024,-0.015661006793379784,0.36480844020843506,-0.8960844278335571,-0.2528786361217499,-0.07573062181472778,0.6631589531898499,0.28357940912246704
1.1123841109571295,0.9657593215608592,2.7126262065155196,0.25404807925224304,-0.31800222396850586,0.01980217918753624,0.3639684319496155,-0.8967562317848206,-0.2517049014568329,-0.0720677375793457,0.6622591018676758,0.29238492250442505
1.1141356995924956,0.9661579127853309,2.7089053006839747,0.2113592028617859,-0.26407453417778015,0.08465272933244705,0.3627760112285614,-0.8975300192832947,-0.2506665885448456,-0.059507519006729126,0.6846697926521301,0.29976946115493774
1.116311500926831,0.9657266936958923,2.707087102867096,0.16932493448257446,-0.14065726101398468,0.18793410062789917,0.3610607087612152,-0.8984873294830322,-0.24971146881580353,-0.05696827173233032,0.7162668108940125,0.3004164695739746
1.1192956588404586,0.9649051273579885,2.707486454938546,0.14638319611549377,0.051509566605091095,0.3275063633918762,0.3586499094963074,-0.8997933268547058,-0.24847997725009918,-0.0472790002822876,0.749433159828186,0.28912943601608276
1.1233927612113113,0.9642593672582104,2.7100286118480525,0.13744109869003296,0.28073984384536743,0.4768034517765045,0.3554573953151703,-0.9015734195709229,-0.24660801887512207,-0.027637511491775513,0.7577134966850281,0.26342326402664185
1.1285887611935739,0.9641982696897291,2.71465142239382,0.1250167191028595,0.5394113659858704,0.6077349185943604,0.3515886068344116,-0.9038091897964478,-0.24395577609539032,-0.0007280111312866211,0.7333379983901978,0.23499897122383118
1.134598167750818,0.9647221300773822,2.7214267689633895,0.0813150405883789,0.78973388671875,0.7043125629425049,0.34724611043930054,-0.9063645005226135,-0.2406732589006424,0.02238282561302185,0.7035903930664062,0.20774491131305695
1.1409367209831967,0.9655022758996219,2.730392046742917,0.02114771492779255,0.9868955612182617,0.7638797163963318,0.3427024483680725,-0.9090242385864258,-0.23712851107120514,0.04595419764518738,0.6874819397926331,0.1860269010066986
1.14727288404608,0.966219405972989,2.74112300281979,-0.0343477688729763,1.1048853397369385,0.7825279831886292,0.3381269872188568,-0.9116465449333191,-0.23360419273376465,0.07550832629203796,0.6763559579849243,0.15439587831497192
1.153435992325649,0.9665329259934429,2.753069882755712,-0.067107655107975,1.136895775794983,0.7855278253555298,0.3335701823234558,-0.9141620993614197,-0.23030152916908264,0.12251505255699158,0.6712878942489624,0.1221015453338623
1.1594566676296982,0.9661847463809231,2.7656697038743028,-0.0800335705280304,1.09483003616333,0.7838359475135803,0.32895582914352417,-0.9165859818458557,-0.22728487849235535,0.1734246015548706,0.6720638275146484,0.09209203720092773
1.1654428754881014,0.9648384682067559,2.77827320876911,-0.053436972200870514,0.9393180012702942,0.7741720080375671,0.3241335451602936,-0.9189630746841431,-0.22459831833839417,0.2237180471420288,0.6630121469497681,0.062275439500808716
1.17159667479141,0.9623356641720486,2.7899507636621643,0.009921493008732796,0.7062663435935974,0.761936366558075,0.31892403960227966,-0.9213723540306091,-0.2221720665693283,0.27407827973365784,0.6394662261009216,0.03598441183567047
1.1780011912786095,0.9586869361061774,2.800111679815232,0.0807126984000206,0.43809789419174194,0.7400397062301636,0.3132752478122711,-0.9238427877426147,-0.21993905305862427,0.31344902515411377,0.61323481798172,0.026717081665992737
1.184652594571067,0.953737006955256,2.808773934062533,0.1446906179189682,0.1752132773399353,0.7329480051994324,0.30716416239738464,-0.9263682961463928,-0.21792647242546082,0.33765703439712524,0.5978007912635803,0.02938893437385559
1.191698898393785,0.9467979912043861,2.816852136545287,0.18205000460147858,-0.05433892458677292,0.7783910036087036,0.300339937210083,-0.9289990663528442,-0.216233491897583,0.3623187839984894,0.5844554901123047,0.03460818529129028
1.1995077393052278,0.9369558035226797,2.8258768464461173,0.2035190910100937,-0.22673998773097992,0.8847256898880005,0.2923426330089569,-0.931860625743866,-0.21487577259540558,0.3812871277332306,0.5755221247673035,0.04583898186683655
1.2084102537144663,0.9237056419333579,2.8369869084050947,0.21800296008586884,-0.3360441029071808,1.0251067876815796,0.282839834690094,-0.9350535869598389,-0.21372053027153015,0.3767366111278534,0.5724284052848816,0.050588905811309814
1.2183794631492415,0.9072900921659424,2.8508920682653036,0.2260044366121292,-0.3368489146232605,1.1515766382217407,0.2719360888004303,-0.9385412335395813,-0.21258290112018585,0.3501800298690796,0.5556523203849792,0.057385802268981934
1.2291526911326354,0.8886905146233754,2.867135782608605,0.25598689913749695,-0.33529943227767944,1.2220605611801147,0.2600713074207306,-0.9422052502632141,-0.2112169712781906,0.2945094406604767,0.5205742120742798,0.060826390981674194
1.24038535504485,0.8685326458247619,2.88465065810987,0.292820006608963,-0.3941938877105713,1.2445629835128784,0.24766568839550018,-0.9459090828895569,-0.2095661461353302,0.2177579253911972,0.4811873435974121,0.07089436054229736
1.2517492104247658,0.8471314676109897,2.9026405263862083,0.326286256313324,-0.48120397329330444,1.2281067371368408,0.23505371809005737,-0.9495347142219543,-0.20768709480762482,0.1491931825876236,0.4460402727127075,0.09301730990409851
1.2630122165053586,0.8249231051639543,2.920460998020297,0.36942973732948303,-0.5750300884246826,1.1826298236846924,0.22251386940479279,-0.9530072212219238,-0.20558449625968933,0.0920918732881546,0.41449397802352905,0.10805036127567291
1.2740678833241117,0.8023881586005798,2.937510916983389,0.4096249043941498,-0.6788517832756042,1.12588369846344,0.2102360874414444,-0.9562981724739075,-0.2032109498977661,0.05563308298587799,0.3802025318145752,0.11704468727111816
1.2846894166149487,0.7793018455544085,2.9541098675122686,0.401505708694458,-0.7579548358917236,1.0621659755706787,0.19833914935588837,-0.9593498706817627,-0.20077228546142578,0.02681957185268402,0.3378898501396179,0.13131435215473175
1.2945652949374742,0.754698271883827,2.9716364840871394,0.33930593729019165,-0.7941038608551025,1.0221166610717773,0.18684013187885284,-0.9620901942253113,-0.19867925345897675,0.0029944777488708496,0.31165367364883423,0.16443860530853271
1.3036983947146712,0.7270192967634268,2.992038264357331,0.2689042091369629,-0.8162187337875366,1.026820182800293,0.1754222810268402,-0.9645408987998962,-0.19720031321048737,0.016472280025482178,0.30107343196868896,0.18632084131240845
1.312371138110027,0.6950803145432104,3.016392915420578,0.2281731516122818,-0.8748853802680969,1.0701137781143188,0.1636715829372406,-0.9667936563491821,-0.19626936316490173,0.03640167415142059,0.30190718173980713,0.191554456949234
1.3210272199054347,0.658379664556005,3.044954286600022,0.22586552798748016,-0.9386393427848816,1.1404297351837158,0.15123382210731506,-0.9689695239067078,-0.19551584124565125,0.03696809709072113,0.311040997505188,0.18594862520694733
1.3298940791391085,0.6163323704533962,3.078447322288162,0.22690936923027039,-0.97348552942276,1.2316746711730957,0.13790972530841827,-0.9711230993270874,-0.19468145072460175,0.03095930814743042,0.3223041296005249,0.1817115694284439
1.3387663174866773,0.5673209931199098,3.1188554008962726,0.19031673669815063,-0.9709054231643677,1.3385571241378784,0.12357146292924881,-0.97320157289505,-0.1939302682876587,0.015634499490261078,0.3430745601654053,0.20580166578292847
1.3473037553488054,0.5098381315182586,-3.1150668688532748,0.13359498977661133,-0.9300572276115417,1.4550930261611938,0.10816679149866104,-0.9751293063163757,-0.19344991445541382,0.0063199326395988464,0.36702072620391846,0.2526388168334961
