attitudeX,attitudeY,attitudeZ,gyroX,gyroY,gyroZ,gravityX,gravityY,gravityZ,accX,accY,accZ
1.0454719342232544,-0.09251034725546665,-0.4454500603585488,-0.020213961601257324,0.314846396446228,0.3352240025997162,-0.04632721096277237,-0.8651612997055054,-0.49934932589530945,0.05952608212828636,0.08267533779144287,-0.1693975329399109
1.0461002516345455,-0.09514540793037266,-0.4385418341255828,0.20238876342773438,0.34788158535957336,0.33233892917633057,-0.04759121686220169,-0.8654762506484985,-0.4986843168735504,0.023909591138362885,0.05486828088760376,-0.1683383285999298
1.0485258255194967,-0.09744276853699187,-0.43213204745681744,0.3304055631160736,0.3008922338485718,0.2548787593841553,-0.04853237420320511,-0.8666887879371643,-0.4964829087257385,-0.04849827662110329,0.023365914821624756,-0.1253584623336792
1.0518781618424968,-0.09917581981052533,-0.4271907617849674,0.38191482424736023,0.20479950308799744,0.1724579930305481,-0.04910477623343468,-0.8683562278747559,-0.4935041069984436,-0.10549727827310562,-0.009939789772033691,-0.07747972011566162
1.0556870105018425,-0.10093345695375913,-0.42359871205240146,0.4079778492450714,0.0682254210114479,0.10369677096605301,-0.049638476222753525,-0.8702389001846313,-0.49012285470962524,-0.13383318483829498,-0.024857044219970703,-0.02495276927947998
1.0595466194028227,-0.10267158619200192,-0.4215328540991988,0.375559002161026,-0.04988681152462959,0.01564910262823105,-0.05014567822217941,-0.872133731842041,-0.4866911470890045,-0.13756795227527618,-0.02064281702041626,0.01922297477722168
1.0627430391337336,-0.10391409871004664,-0.42129146067499346,0.25584083795547485,-0.14969408512115479,-0.04687126725912094,-0.050460945814847946,-0.8736931681632996,-0.48385336995124817,-0.08441150188446045,-0.034433722496032715,0.05184662342071533
1.0647166389609708,-0.10505854910212481,-0.42120022961800785,0.14747920632362366,-0.015520576387643814,0.023756206035614014,-0.05083373188972473,-0.8746516108512878,-0.48207947611808777,0.05330565199255943,-0.02892822027206421,0.05539804697036743
1.0660428931987858,-0.10400197493362459,-0.4200399752651401,0.13461826741695404,0.4506934583187103,0.039290688931941986,-0.05020388215780258,-0.8752937316894531,-0.480978786945343,0.05697879567742348,-0.007656216621398926,0.024847865104675293
1.0672767521867128,-0.09739647821435116,-0.42025605565562146,0.10938714444637299,0.7909234166145325,-0.091537244617939,-0.046920645982027054,-0.875889778137207,-0.4802246391773224,-0.05528271570801735,0.01135718822479248,-0.007842957973480225
1.0684490072456772,-0.08677531310455944,-0.4227284466404195,0.11469881981611252,0.8898047208786011,-0.14553789794445038,-0.041728533804416656,-0.876454770565033,-0.4796726405620575,-0.05727047473192215,-0.0018869638442993164,-0.027666807174682617
1.0701380214432594,-0.07611352329766712,-0.42477358825707634,0.2172197550535202,0.8744325637817383,-0.06917659938335419,-0.03649947792291641,-0.8772667646408081,-0.47861358523368835,0.012726280838251114,-0.034522294998168945,-0.04407614469528198
1.0729474916830355,-0.06806395714026722,-0.42481461920945207,0.3426988422870636,0.7147589921951294,0.021817222237586975,-0.03247795253992081,-0.8786118626594543,-0.47643110156059265,0.03031120076775551,-0.034062206745147705,-0.05567336082458496
1.0769174482422283,-0.0634154369596881,-0.42316754671002943,0.46123170852661133,0.501825749874115,0.07844497263431549,-0.030041629448533058,-0.8805007338523865,-0.4730921685695648,0.003491334617137909,-0.018654048442840576,-0.07295876741409302
1.082221922135445,-0.06201282855820412,-0.4202270182767345,0.6217489242553711,0.30513378977775574,0.1333465725183487,-0.029088174924254417,-0.8830028772354126,-0.4684656262397766,-0.019327951595187187,-0.04532676935195923,-0.08175104856491089
1.0891467410398785,-0.064047586747036,-0.4159904657456692,0.7875022888183594,0.0323028489947319,0.17154131829738617,-0.029649237170815468,-0.8862319588661194,-0.46229198575019836,-0.006880294531583786,-0.11083841323852539,-0.07709085941314697
1.097612003533546,-0.06998433164615915,-0.4105949026315895,0.9349935054779053,-0.258196622133255,0.21261632442474365,-0.03186745569109917,-0.8901216387748718,-0.45460763573646545,0.027488194406032562,-0.16021722555160522,-0.06319928169250488
1.107262654326258,-0.08026226322073893,-0.403458562308286,1.0334705114364624,-0.5123921632766724,0.2861054837703705,-0.03584768995642662,-0.8944781422615051,-0.4456724524497986,0.06442739069461823,-0.20194226503372192,-0.041098058223724365
1.117274819935261,-0.09484125166995294,-0.3939508475150678,1.026781439781189,-0.6943814158439636,0.3811433017253876,-0.041490908712148666,-0.8989098072052002,-0.4361650049686432,0.10211408138275146,-0.26219260692596436,-0.030174076557159424
1.1264315311208468,-0.11421366624818236,-0.38127973568753487,0.902006208896637,-0.9135185480117798,0.5331981778144836,-0.04899201542139053,-0.9028838872909546,-0.42708373069763184,0.14158234000205994,-0.3606507182121277,-0.03264826536178589
1.1335675327832022,-0.14047155607817224,-0.36399264121629027,0.7006555199623108,-1.2238590717315674,0.7602360844612122,-0.05928454548120499,-0.9059285521507263,-0.4192599058151245,0.22275196015834808,-0.47818100452423096,-0.034917861223220825
1.1380346490980504,-0.17486114426702737,-0.3408208460334794,0.4958360195159912,-1.4218579530715942,1.034914493560791,-0.07296004146337509,-0.9078110456466675,-0.41298428177833557,0.3073350489139557,-0.6373550891876221,-0.057886600494384766
1.1400211531590105,-0.21442357250010938,-0.3125782407505062,0.3520034849643707,-1.341929316520691,1.1896438598632812,-0.08885344117879868,-0.9086423516273499,-0.4080125093460083,0.3212753236293793,-0.7882571220397949,-0.12677744030952454
1.1402047367093526,-0.2526091677853152,-0.28355696227394556,0.2563997507095337,-1.0013413429260254,1.133758306503296,-0.10432342439889908,-0.908719003200531,-0.40416157245635986,0.21333220601081848,-0.9460174441337585,-0.25178319215774536
1.139949641754994,-0.28264370485700463,-0.25880633974700107,0.25772812962532043,-0.5085324645042419,0.8546990156173706,-0.11647801101207733,-0.9086124897003174,-0.40106910467147827,0.04463961720466614,-1.1075466871261597,-0.39150285720825195
1.1407812804484927,-0.30110195351629104,-0.24156023072078675,0.3087668716907501,-0.04863089695572853,0.48194581270217896,-0.1236366555094719,-0.9089594483375549,-0.3981291949748993,-0.112859345972538,-1.1838293075561523,-0.533465564250946
1.143112432614205,-0.30895690881357823,-0.23159968991891158,0.39782747626304626,0.27640339732170105,0.1867959201335907,-0.12611547112464905,-0.9099287986755371,-0.3951261043548584,-0.16154325008392334,-1.2196946144104004,-0.6591646075248718
1.1474603411281932,-0.31014465202785607,-0.2260249738141787,0.5821922421455383,0.4891313314437866,0.0003613372100517154,-0.12537606060504913,-0.9117235541343689,-0.3912048041820526,-0.16368648409843445,-1.2300612926483154,-0.7752838134765625
1.154571238944878,-0.308028918301764,-0.22224503299552656,0.8871572017669678,0.6178006529808044,-0.14003784954547882,-0.12257938832044601,-0.9146217107772827,-0.3852813243865967,-0.1770269274711609,-1.1783196926116943,-0.890826404094696
1.165797647896269,-0.304841184211361,-0.21888904844187373,1.3615875244140625,0.6252648830413818,-0.2817116677761078,-0.1182611733675003,-0.9191029071807861,-0.37585148215293884,-0.2251073718070984,-1.0862071514129639,-0.991152822971344
1.182783585970928,-0.3032200370592999,-0.2143847122369913,2.0035672187805176,0.5267082452774048,-0.4014956057071686,-0.11297333985567093,-0.9256627559661865,-0.3610895276069641,-0.2724483907222748,-0.967220664024353,-1.070779800415039
1.206677868373729,-0.30579121547520377,-0.20700278894433327,2.725416421890259,0.33502647280693054,-0.5194773077964783,-0.10721088945865631,-0.9344380497932434,-0.33960482478141785,-0.3054325580596924,-0.8433330059051514,-1.1127724647521973
1.237457314348206,-0.3134348132453776,-0.19636721404496676,3.3572118282318115,0.1330384612083435,-0.6662201285362244,-0.1008850485086441,-0.9449551105499268,-0.31125932931900024,-0.3410400152206421,-0.7340458631515503,-1.0943496227264404
1.2738658716370599,-0.32649765832001654,-0.18224660865608644,3.817669153213501,-0.05592918395996094,-0.7904368042945862,-0.09384077787399292,-0.9562391042709351,-0.277130126953125,-0.36807331442832947,-0.641875147819519,-0.9897459745407104
1.3140745224416628,-0.3461262706264974,-0.16328729384139268,4.111710071563721,-0.21998071670532227,-0.887210488319397,-0.0861409604549408,-0.9672275185585022,-0.2388526350259781,-0.3664957284927368,-0.5259212255477905,-0.840264081954956
1.3565649581557193,-0.3735100554779205,-0.1380485101904409,4.264072895050049,-0.3406941890716553,-1.0047284364700317,-0.07757341116666794,-0.9771400690078735,-0.19793841242790222,-0.3593162000179291,-0.4071066975593567,-0.6933578252792358
1.4002371901722985,-0.4118166562557195,-0.10295087885245602,4.329582691192627,-0.4360228478908539,-1.0972533226013184,-0.0679401308298111,-0.9854900240898132,-0.15554317831993103,-0.3478771150112152,-0.28945815563201904,-0.5653887391090393
1.4441971166321415,-0.4738496526155151,-0.04553786812334304,4.358331203460693,-0.6296892762184143,-1.1236181259155273,-0.05761547014117241,-0.9919970035552979,-0.11235063523054123,-0.3065355122089386,-0.1742018461227417,-0.4523007869720459
1.487207825700269,-0.6044576723527055,0.0779404484751043,4.359415531158447,-0.9462664127349854,-1.0507969856262207,-0.04745075851678848,-0.9965085387229919,-0.0686994269490242,-0.229572594165802,-0.06937915086746216,-0.35360270738601685
1.5251835393296074,-0.9955642168678589,0.45826762303277085,4.360743522644043,-1.3529033660888672,-0.8869473934173584,-0.03826114535331726,-0.9989598989486694,-0.024807574227452278,-0.11730219423770905,0.03490954637527466,-0.2620422840118408
1.534645122144693,-2.1301792099101404,1.5782126511389216,4.357934474945068,-1.731504201889038,-0.6407679915428162,-0.03064141422510147,-0.9993466138839722,0.019184287637472153,0.00813470408320427,0.13583624362945557,-0.18556594848632812
1.5030788994393411,-2.766095705558924,2.1958857099244153,4.3122406005859375,-2.0548577308654785,-0.37054207921028137,-0.024815214797854424,-0.9977080225944519,0.06295072287321091,0.08641494810581207,0.23487550020217896,-0.11766864359378815
1.462716783157972,-2.9510563454344325,2.359373814271412,4.240407466888428,-2.3902101516723633,-0.14964167773723602,-0.020429261028766632,-0.9941650629043579,0.10591912269592285,0.09754718840122223,0.31673574447631836,-0.0575333833694458
1.4213516713811267,-3.0308180253621204,2.414022800941925,4.146371364593506,-2.693093776702881,0.007121505681425333,-0.01645963080227375,-0.988853931427002,0.14797839522361755,0.0651809424161911,0.36971306800842285,-0.015928611159324646
1.3809180694089958,-3.0751340590626524,2.430873708376679,3.9724509716033936,-2.8402910232543945,0.1354440599679947,-0.012534175999462605,-0.9820272326469421,0.18832354247570038,0.04111389443278313,0.4326954483985901,0.015457749366760254
1.3423747510447197,-3.104738844600087,2.431784227170507,3.738494873046875,-2.903742551803589,0.22225527465343475,-0.008343327790498734,-0.9740250110626221,0.22628732025623322,0.008129709400236607,0.4686996340751648,0.051239609718322754
1.3064971913872627,-3.1277190105182964,2.4253609876069184,3.4365663528442383,-2.943603038787842,0.27292829751968384,-0.003624138655140996,-0.9652758240699768,0.2612079679965973,-0.01520519144833088,0.49593067169189453,0.07353946566581726
1.2740149567019197,3.1353896200780214,2.415696515786862,3.0717692375183105,-2.9379429817199707,0.28272804617881775,0.0018140282481908798,-0.9562827348709106,0.2924383580684662,-0.02195562608540058,0.5050193071365356,0.08604082465171814
1.2452740475834503,3.1160840392615086,2.4056622749625034,2.7005903720855713,-2.8290750980377197,0.23534083366394043,0.008156869560480118,-0.9474838376045227,0.31969985365867615,-0.023018911480903625,0.49097132682800293,0.09425589442253113
1.220176493218639,3.0969687523818696,2.397616019635185,2.353013753890991,-2.489767074584961,0.11660992354154587,0.01532236859202385,-0.9391599893569946,0.3431389033794403,-0.031359340995550156,0.4899563193321228,0.0772867500782013
1.1983101642254268,3.0785812506728165,2.393570261684884,2.0369045734405518,-1.9388728141784668,-0.08136281371116638,0.02291674166917801,-0.9314254522323608,0.3632104992866516,-0.03867904841899872,0.4962751865386963,0.036035895347595215
1.179490176148741,3.060136474855421,2.3959967838809275,1.708281397819519,-1.2864344120025635,-0.38763725757598877,0.031032724305987358,-0.9244117140769958,0.38013148307800293,-0.05544678121805191,0.5118904113769531,-0.012821853160858154
1.163832675083968,3.0407236697072224,2.4072861820478018,1.3345441818237305,-0.5084702372550964,-0.7852599620819092,0.039858657866716385,-0.9183269143104553,0.3938117027282715,-0.09228783845901489,0.5536416172981262,-0.05503588914871216
1.151370197009843,3.0198822087283084,2.428950869767193,0.9571162462234497,0.3046805262565613,-1.2298001050949097,0.04944273456931114,-0.9133228063583374,0.40422460436820984,-0.13774532079696655,0.5925217866897583,-0.07384103536605835
1.1417075688998022,2.9970438982362944,2.461336060994841,0.6142598390579224,1.0110323429107666,-1.673590064048767,0.05992930382490158,-0.909345269203186,0.4117041826248169,-0.1684803068637848,0.6276067495346069,-0.07166188955307007
1.1342546041739598,2.9717402325350832,2.503451016830113,0.30851584672927856,1.5589874982833862,-2.044344186782837,0.0714702308177948,-0.9062192440032959,0.4167241156101227,-0.1666545271873474,0.6652523875236511,-0.06740450859069824
1.1286743924413636,2.9448484574960805,2.552731224361613,0.025559507310390472,1.9780137538909912,-2.2744109630584717,0.08363671600818634,-0.9038457870483398,0.419604629278183,-0.14265769720077515,0.6942357420921326,-0.06746208667755127
1.1248145892636285,2.9180567942519917,2.606062647384095,-0.22575096786022186,2.289339780807495,-2.358739137649536,0.09561999887228012,-0.9021876454353333,0.4206126630306244,-0.10700303316116333,0.7096977829933167,-0.0806007981300354
1.1225692594245629,2.892668667312207,2.660554272821157,-0.4425048530101776,2.446319103240967,-2.321493625640869,0.10676538199186325,-0.9012168645858765,0.4200119078159332,-0.050353601574897766,0.7357808351516724,-0.09531992673873901
1.122083994203262,2.869112396738903,2.7138616863505374,-0.6557555794715881,2.4462175369262695,-2.1683506965637207,0.11674624681472778,-0.9010064601898193,0.4178010821342468,0.003691375255584717,0.7895563244819641,-0.10711678862571716
1.1233385260934512,2.8478150723744973,2.764127853522575,-0.7870917916297913,2.3539810180664062,-1.9483964443206787,0.12528973817825317,-0.9015499353408813,0.41413792967796326,0.04537983238697052,0.8172146677970886,-0.12985128164291382
1.1253764110303308,2.8288559204922206,2.80990053540749,-0.7710205316543579,2.092437267303467,-1.705971598625183,0.13255301117897034,-0.9024298191070557,0.4099395275115967,0.06359875202178955,0.7603704333305359,-0.17503023147583008
1.1274010683503635,2.8114079827918355,2.8498906505396513,-0.6997349262237549,1.6238385438919067,-1.4324482679367065,0.13909244537353516,-0.9033002853393555,0.40583536028862,0.062323614954948425,0.7066601514816284,-0.23194599151611328
1.1294311189268602,2.7948248352189067,2.8832498169837084,-0.63432377576828,1.0988609790802002,-1.1296428442001343,0.14517945051193237,-0.9041693210601807,0.4017474353313446,0.05454285442829132,0.7082922458648682,-0.28103500604629517
1.131715584167135,2.779653024367529,2.9095962160674613,-0.5757200717926025,0.6512262225151062,-0.8212972283363342,0.15052613615989685,-0.9051428437232971,0.39756637811660767,0.04702943563461304,0.732779324054718,-0.32108908891677856
1.1343685765506208,2.76678418331235,2.928959250318148,-0.5116992592811584,0.29249635338783264,-0.5247050523757935,0.1547500193119049,-0.9062674641609192,0.3933601975440979,0.03197179734706879,0.7505056262016296,-0.3431433439254761
1.1373385560415272,2.7566869625353077,2.941657174698615,-0.43443191051483154,0.0026701162569224834,-0.2550298571586609,0.15770266950130463,-0.9075188636779785,0.38928142189979553,0.013226345181465149,0.7569906115531921,-0.35439959168434143
1.1405165302086373,2.7497128165621723,2.948174522106619,-0.3614228069782257,-0.20693202316761017,-0.01452791877090931,0.15931130945682526,-0.9088490605354309,0.38550448417663574,-0.014200195670127869,0.7590075731277466,-0.3586793541908264
1.1439118046907075,2.7457657502998396,2.949279728310608,-0.30465540289878845,-0.3757346272468567,0.1854483038187027,0.15964104235172272,-0.9102600812911987,0.38202348351478577,-0.054630011320114136,0.7549406886100769,-0.35379451513290405
1.1475348343534089,2.7443503203135027,2.9460421239814325,-0.2586706578731537,-0.49167269468307495,0.33425965905189514,0.1589045375585556,-0.9117541909217834,0.3787532150745392,-0.10298106074333191,0.7410235404968262,-0.34170472621917725
1.151213338412498,2.7451999266774334,2.9395727863076866,-0.21342329680919647,-0.5055195689201355,0.4290756285190582,0.1572868824005127,-0.9132589101791382,0.37579211592674255,-0.13818281888961792,0.7212573289871216,-0.33373862504959106
1.154684483482494,2.7481140554506887,2.9311549262212897,-0.16203346848487854,-0.45085081458091736,0.45961424708366394,0.15497460961341858,-0.9146674871444702,0.3733184337615967,-0.15061055123806,0.7067968845367432,-0.34200727939605713
1.157655965576039,2.752491303783962,2.922002213554929,-0.08892304450273514,-0.34302476048469543,0.43986448645591736,0.1523071974515915,-0.9158645272254944,0.3714766204357147,-0.156045600771904,0.6987014412879944,-0.3408520519733429
1.1594398049161656,2.7583534558385234,2.912542225563924,0.05667498707771301,-0.22522321343421936,0.39186668395996094,0.14951573312282562,-0.9165792465209961,0.37084707617759705,-0.15786227583885193,0.6895590424537659,-0.3328372538089752
1.1593326126639072,2.7651974340915686,2.902826572643291,0.25950345396995544,-0.1923627406358719,0.3146837651729584,0.14701025187969208,-0.9165363907814026,0.37195292115211487,-0.15294592082500458,0.6643697619438171,-0.3227737843990326
1.1571139407908593,2.7719986627501543,2.8935726870694087,0.42467451095581055,-0.15490782260894775,0.21609096229076385,0.1452115774154663,-0.9156467914581299,0.37483999133110046,-0.13152439892292023,0.6497011184692383,-0.3115616738796234
1.1530017372436876,2.7779051873375917,2.885113889543513,0.5887787938117981,-0.21469499170780182,0.12470778822898865,0.14433328807353973,-0.9139860272407532,0.37920713424682617,-0.11340370774269104,0.6247096657752991,-0.28713542222976685
1.147124433692737,2.7827387861887263,2.877336382770844,0.7337943315505981,-0.22871248424053192,0.058850549161434174,0.14438249170780182,-0.9115855097770691,0.3849225640296936,-0.1216164082288742,0.5932110548019409,-0.26285216212272644
1.1397292174250362,2.787616369728594,2.8697168815462017,0.874579131603241,-0.17729005217552185,0.016632523387670517,0.14483642578125,-0.9085204005241394,0.3919358253479004,-0.1398620307445526,0.5814785361289978,-0.24116355180740356
1.1308953762157774,2.793180406222019,2.862084940404752,1.0075372457504272,-0.09300018846988678,-0.02199237421154976,0.1453879475593567,-0.9047938585281372,0.4002639353275299,-0.1586478054523468,0.5819481015205383,-0.2239636480808258
1.1206542244515638,2.7994319771027167,2.8545712168720203,1.1526027917861938,-0.014559175819158554,-0.07060332596302032,0.14598426222801208,-0.9003852605819702,0.4098726511001587,-0.1729007065296173,0.5937444567680359,-0.22189944982528687
1.1092684667663024,2.7989393613786233,2.849048753524355,1.113512635231018,-1.2478033304214478,-0.27576354146003723,0.14962100982666016,-0.8953731656074524,0.41942957043647766,-0.2579430937767029,0.6058374047279358,-0.11904484033584595
1.0980981354371853,2.7874205191385717,2.8481257074989017,1.034977674484253,-1.0523853302001953,-0.40289273858070374,0.15790121257305145,-0.8903430700302124,0.4270326793193817,-0.49138200283050537,0.6158677935600281,0.20037847757339478
1.0871283284736328,2.776236588869051,2.8507338314797965,0.9201835989952087,-0.7743281722068787,-0.5960139036178589,0.1661466509103775,-0.8852951526641846,0.4343360662460327,-0.2230314016342163,0.6015427112579346,-0.05172187089920044
1.076906063727361,2.7642358652999697,2.8572116721362257,0.7841549515724182,-0.4710146486759186,-0.7078632116317749,0.17467239499092102,-0.8804953098297119,0.4407012164592743,-0.19959001243114471,0.545061469078064,0.02406635880470276
1.0671607997317611,2.7532000714989713,2.8656435306760737,0.7364626526832581,-0.25847914814949036,-0.7615231275558472,0.18276628851890564,-0.8758338093757629,0.44666787981987,-0.049633294343948364,0.5747319459915161,-0.007290780544281006
1.0573288636409934,2.7444827054723673,2.874173455401071,0.7726677656173706,0.013564880937337875,-0.7594500780105591,0.1899743229150772,-0.8710465431213379,0.45297694206237793,-0.006426304578781128,0.6057723760604858,-0.02661573886871338
1.047120879790115,2.7394687339741792,2.8820327738391605,0.7974406480789185,0.36640995740890503,-0.7604847550392151,0.19571281969547272,-0.8659870624542236,0.4601769745349884,0.03004094958305359,0.6441396474838257,-0.06207510828971863
1.036826775981321,2.7378953166458526,2.8895885121973652,0.8026284575462341,0.5992975234985352,-0.7478528618812561,0.19992804527282715,-0.8607935309410095,0.4680420160293579,0.041206613183021545,0.6786799430847168,-0.07496017217636108
1.0265056190491237,2.7384525514092943,2.896165884726295,0.8392713069915771,0.6273468732833862,-0.684116005897522,0.20314201712608337,-0.8554947972297668,0.4763006567955017,0.02558724582195282,0.7064774036407471,-0.06892135739326477
1.0160752977767042,2.740153200193373,2.9011604255732766,0.8843508958816528,0.5685024857521057,-0.6124106645584106,0.20580734312534332,-0.8500474095344543,0.4848332107067108,0.019381940364837646,0.7163954973220825,-0.050613582134246826
1.0053778065468784,2.742937213019013,2.9044431468701912,0.9578971862792969,0.5541609525680542,-0.5465023517608643,0.20797480642795563,-0.8443644642829895,0.4937565326690674,0.032137542963027954,0.6929208636283875,-0.016507267951965332
0.994085531252251,2.746871183775864,2.906787664138086,1.033455491065979,0.6472517251968384,-0.5769087076187134,0.2096841037273407,-0.8382607102394104,0.5033406019210815,0.07179480791091919,0.6312141418457031,0.019272983074188232
0.982139082926512,2.752371642101303,2.9085016653940023,1.1052637100219727,0.7128262519836426,-0.4945758283138275,0.2106976956129074,-0.8316869735717773,0.5137156248092651,0.11217834055423737,0.553427517414093,0.03773719072341919
0.9699960424539186,2.760221197418945,2.907486591508311,1.189137578010559,0.6301356554031372,-0.30923259258270264,0.21040228009223938,-0.8248834609985352,0.5246889591217041,0.20643733441829681,0.5547112822532654,0.0961456298828125
0.958022609155423,2.770422167239589,2.902698766856496,1.2400683164596558,0.6845067143440247,-0.05067148059606552,0.20860666036605835,-0.8180558681488037,0.5359740853309631,0.27682122588157654,0.5789963603019714,0.1662660837173462
0.9469004898589123,2.7861638631718257,2.893366017089409,1.2119072675704956,0.9105813503265381,0.269148051738739,0.20329777896404266,-0.8116086721420288,0.5476876497268677,0.33547481894493103,0.608178436756134,0.13969039916992188
0.9378718864207132,2.8056431512032973,2.8802836164010053,0.9938613176345825,0.8711581230163574,0.5602698922157288,0.19499912858009338,-0.8063011169433594,0.5584390759468079,0.322487473487854,0.6324729323387146,0.18176496028900146
0.9324047812698825,2.825436848068596,2.8650933188129155,0.6021806597709656,0.6381691098213196,0.7931672930717468,0.18527597188949585,-0.8030552864074707,0.5663707256317139,0.3029137849807739,0.6353304982185364,0.2575889229774475
0.931869881113408,2.843611663484004,2.849140909904643,0.060969993472099304,0.4612634479999542,0.9888759255409241,0.1750783771276474,-0.8027364015579224,0.5700549483299255,0.26278790831565857,0.6049212217330933,0.34290921688079834
0.937349378989617,2.861450981563941,2.8328957758907136,-0.5704084634780884,0.5210908055305481,1.1829079389572144,0.1636628806591034,-0.8059919476509094,0.5688511729240417,0.2267790138721466,0.5486219525337219,0.4003719687461853
0.9495269877121206,2.8811932481770803,2.815648748965582,-1.246232271194458,0.632371187210083,1.4331685304641724,0.14986295998096466,-0.8131402730941772,0.5624446868896484,0.21300630271434784,0.506072461605072,0.4020940065383911
0.9689005586714083,2.904131772240813,2.7957998932240096,-1.9515191316604614,0.7030206322669983,1.7409591674804688,0.13319186866283417,-0.8242636919021606,0.5503178238868713,0.23300382494926453,0.5398092865943909,0.350347638130188
0.9948430029227495,2.930760637834058,2.7721028918851194,-2.498002052307129,0.6727242469787598,1.9565231800079346,0.11397765576839447,-0.83867347240448,0.5325749516487122,0.22522523999214172,0.6026047468185425,0.2398403286933899
1.0255436764276673,2.9611369261685883,2.744285878135778,-2.9623167514801025,0.6970218420028687,2.148033380508423,0.09308342635631561,-0.8549962639808655,0.5102128386497498,0.14800547063350677,0.5870671272277832,0.07929539680480957
1.0604609317814535,2.9971050740081346,2.7109574926977893,-3.3939976692199707,0.7603998780250549,2.284640073776245,0.07033254951238632,-0.8725807070732117,0.48338016867637634,0.08030222356319427,0.6097328662872314,-0.0667540431022644
1.0987749611102071,3.039770673348966,2.67246071536458,-3.7772228717803955,1.003592848777771,2.2481632232666016,0.046217262744903564,-0.8906510472297668,0.45233288407325745,-0.02366475760936737,0.5713149905204773,-0.175889253616333
1.1398375433137269,3.0882996698264593,2.6310203029031793,-4.140288352966309,1.2421475648880005,1.9709497690200806,0.02225220389664173,-0.9085656404495239,0.4171493649482727,-0.1715899556875229,0.42693716287612915,-0.2639509439468384
1.1833499942158172,3.1391047435688697,2.590241464287248,-4.486724376678467,1.4395930767059326,1.514780044555664,0.0009399958653375506,-0.9258769154548645,0.37782472372055054,-0.3217865526676178,0.2515298128128052,-0.30868691205978394
1.2293546564125022,-3.0922134658540146,2.5510938562143775,-4.783815860748291,1.6203547716140747,1.0779876708984375,-0.016527747735381126,-0.9422729015350342,0.3344387114048004,-0.3894475996494293,0.0674862265586853,-0.3641320765018463
1.277153281062975,-3.036541855028663,2.510027349514323,-4.945788860321045,1.7106962203979492,0.7650971412658691,-0.03035023994743824,-0.9571957588195801,0.28784656524658203,-0.3849329650402069,-0.11778610944747925,-0.4579208791255951
1.3249957550670495,-2.9710043272844877,2.4598992151509966,-4.88588809967041,1.7230231761932373,0.58315509557724,-0.041308846324682236,-0.9699428081512451,0.23980167508125305,-0.34177830815315247,-0.32272082567214966,-0.6193486452102661
1.3700069048162178,-2.8878739160642257,2.391870829859077,-4.534317970275879,1.632204294204712,0.47501954436302185,-0.05006157606840134,-0.9799094200134277,0.19305917620658875,-0.30353036522865295,-0.5263620615005493,-0.800663948059082
1.4091936059818426,-2.7791947577106697,2.297169730661986,-3.9550085067749023,1.4604215621948242,0.41295546293258667,-0.05704265087842941,-0.9869706630706787,0.15045157074928284,-0.2988991439342499,-0.7071671485900879,-0.9402768611907959
1.4402443135018752,-2.6367087315314373,2.1664099408625046,-3.3069543838500977,1.141833782196045,0.4661521315574646,-0.0629698634147644,-0.9914901852607727,0.11393938958644867,-0.2498810589313507,-0.9052841663360596,-0.9799518585205078
1.4617938297526119,-2.455636978503254,1.9936842166614328,-2.5605628490448,0.8125370144844055,0.5409192442893982,-0.06890752166509628,-0.9940651059150696,0.08418145030736923,-0.16052360832691193,-1.1071007251739502,-0.8697037696838379
1.4733132604642694,-2.2416439414406084,1.7859186580024762,-2.164400577545166,0.6531327366828918,0.8758029937744141,-0.07623831182718277,-0.9952523112297058,0.060505371540784836,-0.07576975226402283,-1.4166131019592285,-0.6837810277938843
1.4746010758566994,-1.9884394524447,1.5369295541455494,-2.113508939743042,0.4030745327472687,1.390496015548706,-0.0877944603562355,-0.9953768253326416,0.03895866870880127,0.08945763856172562,-1.6943970918655396,-0.3006925582885742
1.465721636993,-1.7370787815430937,1.2881832876570602,-2.158529758453369,0.3650171458721161,1.7158716917037964,-0.10343742370605469,-0.9944847226142883,0.017360126599669456,0.1557903289794922,-2.0231547355651855,0.09553980827331543
1.449180637527301,-1.5336403760202637,1.086186402586447,-2.1770217418670654,0.20299309492111206,1.8311456441879272,-0.12123394012451172,-0.9926139116287231,-0.004506636410951614,0.0024137496948242188,-2.1708078384399414,0.23473137617111206
1.4293710997054987,-1.390312734701201,0.9435222402871801,-1.9569318294525146,0.18385109305381775,1.68418550491333,-0.13866610825061798,-0.9900161027908325,-0.025302289053797722,-0.0703488141298294,-2.2437028884887695,0.22093534469604492
1.4104181306391443,-1.2969593846789496,0.8514027621530965,-1.5852525234222412,0.2700597047805786,1.3650178909301758,-0.15374194085597992,-0.9871669411659241,-0.04318509250879288,-0.16545668244361877,-2.345551013946533,0.13933080434799194
1.3954125586165333,-1.237156787371774,0.7937662839457023,-1.1597049236297607,0.32775044441223145,0.9166244268417358,-0.16486497223377228,-0.9846596717834473,-0.05714162439107895,-0.2560792565345764,-2.4820609092712402,0.053281307220458984
1.385607363765202,-1.1960977304844713,0.7556783075143827,-0.8214933276176453,0.3898159861564636,0.46186700463294983,-0.171358123421669,-0.9829014539718628,-0.06739146262407303,-0.35005003213882446,-2.5619900226593018,-0.08237344771623611
1.3806149321876375,-1.165473887020067,0.728733021717223,-0.47855091094970703,0.43481114506721497,0.09025987982749939,-0.17372064292430878,-0.981969952583313,-0.07454027235507965,-0.40165776014328003,-2.5342044830322266,-0.291243314743042
1.3801985921973983,-1.148063455907977,0.7152171844225056,-0.005844279658049345,0.3797101080417633,-0.21110494434833527,-0.17276965081691742,-0.9818911552429199,-0.07772119343280792,-0.41095536947250366,-2.42228364944458,-0.5172494053840637
1.3842692050857246,-1.1520817722471872,0.7225721938520899,0.6049565076828003,0.25833892822265625,-0.40515807271003723,-0.16942736506462097,-0.9826542139053345,-0.07540053874254227,-0.38773205876350403,-2.22758150100708,-0.7037131190299988
1.3921535985512783,-1.186871639164924,0.7597495082368657,1.2576688528060913,0.09951935708522797,-0.5154116153717041,-0.16475823521614075,-0.9840857982635498,-0.06655749678611755,-0.34195560216903687,-1.9709465503692627,-0.8148510456085205
1.402709217745937,-1.2610819120000594,0.835321176371932,1.9083635807037354,-0.050091702491045,-0.5759647488594055,-0.1593378484249115,-0.9859066009521484,-0.05099012702703476,-0.2905522584915161,-1.6914769411087036,-0.834004282951355
1.4136253640044247,-1.3824803042374658,0.9571532918125769,2.4423887729644775,-0.181645929813385,-0.5612116456031799,-0.15375787019729614,-0.9876740574836731,-0.02930227480828762,-0.24466437101364136,-1.3934752941131592,-0.7766515612602234
1.4216198552438046,-1.5510970590383975,1.125375059368058,2.8130686283111572,-0.2865779399871826,-0.49070629477500916,-0.1485954076051712,-0.9888938069343567,-0.0029275992419570684,-0.19332356750965118,-1.1280953884124756,-0.6485005021095276
1.4236789925615774,-1.750785991902119,1.3238834524425205,2.9713072776794434,-0.3830994665622711,-0.3825918138027191,-0.14421971142292023,-0.9891977310180664,0.026242053136229515,-0.14903897047042847,-0.9334707856178284,-0.47590315341949463
1.4187164597344726,-1.9532208539764973,1.524355287377422,3.039573907852173,-0.4492982029914856,-0.3382400572299957,-0.14055147767066956,-0.9884581565856934,0.0565335638821125,-0.12960541248321533,-0.7790590524673462,-0.31674158573150635
1.4079670238438275,-2.137774050446726,1.7063388589090236,3.007533073425293,-0.5188575387001038,-0.3697090446949005,-0.13674508035182953,-0.9867725968360901,0.08706734329462051,-0.16257134079933167,-0.6397227644920349,-0.23274290561676025
1.3934689663670967,-2.2953443725786173,1.8606335787327082,2.909148931503296,-0.576524555683136,-0.4737427532672882,-0.13208816945552826,-0.9843186736106873,0.11691742390394211,-0.20551255345344543,-0.4787856936454773,-0.17703700065612793
1.3770474154617411,-2.429566504390788,1.9912123025110389,2.8227546215057373,-0.6001822352409363,-0.6619585752487183,-0.12579910457134247,-0.9812893271446228,0.14575974643230438,-0.24736982583999634,-0.3491855263710022,-0.13468171656131744
1.359767004901533,-2.5478765484989503,2.1057343530168198,2.7274835109710693,-0.6307670474052429,-0.9090253710746765,-0.11718534678220749,-0.9778158068656921,0.17362049221992493,-0.2902548313140869,-0.24918925762176514,-0.11343967914581299
1.3423267182910184,-2.6558939227416616,2.209881888959782,2.6053218841552734,-0.6579213738441467,-1.1901957988739014,-0.10573037713766098,-0.974014163017273,0.20029406249523163,-0.31997454166412354,-0.16656512022018433,-0.09012545645236969
1.3249674741355235,-2.7563831643095247,2.306754793079941,2.463679552078247,-0.5953754186630249,-1.4798834323883057,-0.09144391119480133,-0.969935953617096,0.22552797198295593,-0.31907856464385986,-0.09326618909835815,-0.06743153929710388
1.3077321259128494,-2.8503354442591737,2.398302283555905,2.328549385070801,-0.4620571732521057,-1.7253260612487793,-0.07467246055603027,-0.9655976891517639,0.2490888237953186,-0.30334874987602234,-0.013818204402923584,-0.05957449972629547
1.2902687517689075,-2.9372635524898025,2.4847756176309796,2.2038867473602295,-0.2741146981716156,-1.918945550918579,-0.05617832392454147,-0.9609094858169556,0.2711034119129181,-0.27364039421081543,0.059466004371643066,-0.06039467453956604
1.2723540723004123,-3.01673751860754,2.5656252342845742,2.092414140701294,-0.12730039656162262,-2.0483691692352295,-0.03661615401506424,-0.9557956457138062,0.29174360632896423,-0.23708075284957886,0.13093584775924683,-0.06392976641654968
1.2538846569254811,-3.0884287204677614,2.6401197649721566,2.000032663345337,-0.021002450957894325,-2.1145622730255127,-0.01655988208949566,-0.9502023458480835,0.31119364500045776,-0.18900653719902039,0.19980555772781372,-0.06842613220214844
1.2347820356914143,3.131061588335658,2.7072769667028487,1.9202849864959717,-0.005992665886878967,-2.1123886108398438,0.003472321666777134,-0.9440763592720032,0.32970961928367615,-0.14444828033447266,0.24987757205963135,-0.07328543066978455
1.2151684678834966,3.074846272085929,2.7666068477270844,1.8479098081588745,-0.08841856569051743,-2.063871145248413,0.02322249487042427,-0.9374280571937561,0.3474045693874359,-0.11483626067638397,0.2854349613189697,-0.07703390717506409
1.1953654594359948,3.0245968099801983,2.81852086865085,1.7634761333465576,-0.27161210775375366,-2.0007872581481934,0.042801547795534134,-0.9303497076034546,0.3641674518585205,-0.11859192699193954,0.30409830808639526,-0.06956586241722107
1.1757411521645362,2.9794591494029543,2.8633771681191877,1.659510850906372,-0.4364846646785736,-1.8786795139312744,0.06212558597326279,-0.9229753017425537,0.3798120617866516,-0.118735671043396,0.3314988613128662,-0.05873647332191467
1.1571068148049735,2.940174436913698,2.9006706806856677,1.465469479560852,-0.5599682927131653,-1.6809723377227783,0.08042192459106445,-0.9156439304351807,0.3938641846179962,-0.07779740542173386,0.3772679567337036,-0.025379538536071777
1.140928177863939,2.9062209576977818,2.931002351577055,1.1460260152816772,-0.7019198536872864,-1.4519274234771729,0.09718825668096542,-0.909020721912384,0.40526050329208374,-0.05884290486574173,0.39998745918273926,0.0559365451335907
1.1283440263390123,2.875442037722376,2.956327790841546,0.7656299471855164,-0.872680127620697,-1.268024206161499,0.11261381208896637,-0.9037044048309326,0.4130823612213135,-0.047199346125125885,0.4120965600013733,0.12773507833480835
1.1187605301075323,2.8431208655171822,2.9814416320887127,0.4653409421443939,-1.0536253452301025,-1.3068983554840088,0.1284448355436325,-0.899559736251831,0.4174860119819641,-0.06882873177528381,0.3853232264518738,0.13563001155853271
1.112307689802685,2.8107702744214516,3.0048065231164363,0.12690536677837372,-1.2451210021972656,-1.0481994152069092,0.14376376569271088,-0.8967224359512329,0.41859447956085205,-0.0830337405204773,0.4394773840904236,0.09767156839370728
1.1088585496733219,2.7787525424135833,3.0255749518536303,-0.08493977785110474,-1.4065167903900146,-0.9371367692947388,0.15818698704242706,-0.8951905369758606,0.4166666269302368,-0.05235202610492706,0.5635101199150085,0.08727025985717773
1.106805051901093,2.746896089144992,3.045751963108162,-0.192088320851326,-1.3552765846252441,-0.9263030290603638,0.1720844954252243,-0.8942734599113464,0.4131128191947937,-0.0637776106595993,0.5397964715957642,0.03790661692619324
1.1051254679095863,2.7143047915202283,3.066893356616993,-0.24890048801898956,-1.4090631008148193,-0.943619430065155,0.18607667088508606,-0.8935205340385437,0.40865209698677063,-0.11187316477298737,0.4667322635650635,-0.024115264415740967
1.103380586598632,2.6814464894015204,3.0880815133999535,-0.2557351887226105,-1.3497387170791626,-0.9424114227294922,0.20009376108646393,-0.8927356600761414,0.4037153124809265,-0.08322663605213165,0.545628547668457,-0.06416124105453491
1.1015592551693967,2.6508087067387347,3.107667303130778,-0.22427208721637726,-1.3108677864074707,-0.7845152616500854,0.2131328135728836,-0.8919135332107544,0.39882969856262207,-0.07824507355690002,0.5085057616233826,-0.12740617990493774
1.1000249738619303,2.6239344918401084,3.123327501653668,-0.1909118890762329,-1.224249243736267,-0.6084938645362854,0.22444964945316315,-0.8912186622619629,0.39414718747138977,-0.03211258351802826,0.6037430167198181,-0.17477142810821533
1.0985485309839438,2.6031997698642595,3.1352377946153993,-0.092988520860672,-0.7928083539009094,-0.4882931709289551,0.23324772715568542,-0.890548050403595,0.3905380368232727,0.013624250888824463,0.5944969654083252,-0.23849931359291077
1.096496389636963,2.589284822534117,-3.1390988514013705,0.02760622836649418,-0.4372205138206482,-0.4240607023239136,0.23961761593818665,-0.8896126747131348,0.3888097107410431,0.02623628079891205,0.53927081823349,-0.29753148555755615
1.0934402438921509,2.58019903338609,-3.1323130444643006,0.16010968387126923,-0.17382748425006866,-0.44610339403152466,0.24458646774291992,-0.8882127404212952,0.38891610503196716,0.0015988349914550781,0.5470719933509827,-0.3047179579734802
1.0890508718870855,2.574381580078191,-3.1262890750587737,0.2843037247657776,0.07551571726799011,-0.49413400888442993,0.24893735349178314,-0.8861875534057617,0.39077141880989075,-0.04425588250160217,0.5673854947090149,-0.32616549730300903
1.0833867289223522,2.5718449016103837,-3.1210754403332954,0.4058181643486023,0.3485530912876129,-0.5200215578079224,0.25263142585754395,-0.8835490345954895,0.3943590223789215,-0.06177440285682678,0.6371193528175354,-0.3500015139579773
1.0771669114432054,2.5731776774587867,-3.117382254260569,0.44680255651474,0.5481252074241638,-0.44190168380737305,0.25505876541137695,-0.8806189298629761,0.3993188440799713,-0.07868242263793945,0.6816443204879761,-0.35604479908943176
1.0712663859184668,2.5771088836401583,-3.1153407958036583,0.4436142146587372,0.5978631973266602,-0.37817704677581787,0.25626248121261597,-0.8778077960014343,0.4047016203403473,-0.08450952172279358,0.695144772529602,-0.32268548011779785
1.065538124466489,2.5814599085910435,-3.113661291793984,0.4434727430343628,0.5497909784317017,-0.3660685122013092,0.2571662962436676,-0.8750495314598083,0.410065621137619,-0.1142982542514801,0.6709785461425781,-0.2933662533760071
1.0600047747368386,2.5856143726142276,-3.1124528319431075,0.4323556423187256,0.5014897584915161,-0.3243362307548523,0.2580122649669647,-0.8723578453063965,0.4152372479438782,-0.12799209356307983,0.7042363882064819,-0.27619898319244385
1.0547886635104282,2.589487941828548,-3.111500702990279,0.4088050127029419,0.4312185049057007,-0.31540966033935547,0.2587849199771881,-0.8697959780693054,0.4201020896434784,-0.15185129642486572,0.7248373627662659,-0.2770202159881592
1.049937702551333,2.592156068214411,-3.11025269013136,0.3427210748195648,0.328902006149292,-0.28285226225852966,0.2598632574081421,-0.8673922419548035,0.42438411712646484,-0.1753142774105072,0.7203280329704285,-0.27861684560775757
1.047564983880712,2.594522600733424,-3.109467970932132,-0.0022739118430763483,0.2770662009716034,-0.01582489348948002,0.25992822647094727,-0.866209089756012,0.4267547130584717,-0.16651389002799988,0.7209910750389099,-0.25164473056793213
1.0488361071013932,2.596893651641242,-3.110117895728627,-0.14750035107135773,0.05099178105592728,0.19312593340873718,0.258344829082489,-0.8668435215950012,0.42642760276794434,-0.15093818306922913,0.6562721729278564,-0.18794786930084229
1.052206346956601,2.5984585920594054,-3.1130170446056655,-0.2961460053920746,-0.21286222338676453,0.4088931679725647,0.25616589188575745,-0.8685189485549927,0.4243279993534088,-0.17440927028656006,0.6192512512207031,-0.20248031616210938
1.057934132904458,2.6002809360804178,-3.1178144372147747,-0.4298659861087799,-0.2443264126777649,0.5778521299362183,0.25282496213912964,-0.8713436722755432,0.420524001121521,-0.1761341691017151,0.6590631604194641,-0.20601573586463928
1.0651642196388884,2.603133549804572,-3.1241351785482836,-0.48571160435676575,-0.30060532689094543,0.6904247999191284,0.24838696420192719,-0.8748684525489807,0.4158238470554352,-0.1834302693605423,0.6701869964599609,-0.23782992362976074
1.0729295757157524,2.606632645609898,-3.1320917904189067,-0.44327041506767273,-0.3934452533721924,0.7566024661064148,0.2434595674276352,-0.8786032795906067,0.4108333885669708,-0.1875513345003128,0.6676657199859619,-0.2665919065475464
1.0802907433598803,2.6111172174168784,3.1411184076270398,-0.3238644301891327,-0.46724095940589905,0.7967429161071777,0.2383357733488083,-0.8820948004722595,0.4063309133052826,-0.1792690008878708,0.6682887077331543,-0.2987869381904602
1.08651936868123,2.6169056427325317,3.1289656302373277,-0.17901374399662018,-0.5204719305038452,0.8125146627426147,0.23322294652462006,-0.8850117921829224,0.40294069051742554,-0.16768643260002136,0.6824056506156921,-0.3205583691596985
1.0915985270993984,2.623855413590631,3.1152876672081575,-0.07397932559251785,-0.5077306628227234,0.7912971377372742,0.22818948328495026,-0.8873651027679443,0.4006408751010895,-0.16304969787597656,0.6905723810195923,-0.31114792823791504
1.0957288264966858,2.631503848912698,3.101306796423421,-0.018987445160746574,-0.44437915086746216,0.7296262979507446,0.2233271449804306,-0.8892618417739868,0.39917248487472534,-0.1620936095714569,0.6788278222084045,-0.2598443031311035
1.0991583653313846,2.6388102015155073,3.0884169122955814,-0.018296848982572556,-0.3905875086784363,0.6321109533309937,0.2189338505268097,-0.8908252716064453,0.39811885356903076,-0.1598212867975235,0.6515063643455505,-0.19152987003326416
1.102325620371524,2.6449491661942366,3.0775380915794908,-0.0707123875617981,-0.32172882556915283,0.5400976538658142,0.21514029800891876,-0.8922598361968994,0.3969728350639343,-0.15680593252182007,0.6302205920219421,-0.1332855224609375
1.1055958472051932,2.6498049514588256,3.0688814769165678,-0.13769397139549255,-0.2549704909324646,0.45911604166030884,0.21183109283447266,-0.8937316536903381,0.39543843269348145,-0.15247438848018646,0.6213927865028381,-0.09262755513191223
1.1090540759273382,2.653505288223712,3.062236769252243,-0.19048181176185608,-0.19701236486434937,0.39410775899887085,0.2089158445596695,-0.8952776789665222,0.39348751306533813,-0.1406480073928833,0.6190171837806702,-0.07038247585296631
1.1126013587594232,2.656454283153097,3.0569782050821566,-0.21101360023021698,-0.16126273572444916,0.35692277550697327,0.20627212524414062,-0.8968523740768433,0.3912898004055023,-0.12005998194217682,0.6274279952049255,-0.06708616018295288
1.1161070904804176,2.659468059943788,3.0518562040656527,-0.1966160088777542,-0.16161507368087769,0.37486210465431213,0.20363306999206543,-0.8983975648880005,0.389121949672699,-0.08560627698898315,0.6431788802146912,-0.05843323469161987
1.1195814077112647,2.663084993441425,3.04585651229689,-0.18107904493808746,-0.20018795132637024,0.4156246781349182,0.2007857859134674,-0.8999180197715759,0.38708269596099854,-0.03370203077793121,0.6445925831794739,-0.028226375579833984
1.1233161458550434,2.6672855073861337,3.0386801235099115,-0.2079993337392807,-0.25328579545021057,0.48485541343688965,0.19762182235717773,-0.9015402793884277,0.3849303424358368,0.011560976505279541,0.6357929706573486,0.011828958988189697
1.1279267208493995,2.6719363328696746,3.030426796710582,-0.30193647742271423,-0.3095988631248474,0.5756206512451172,0.19394612312316895,-0.9035256505012512,0.3821345269680023,0.03666001558303833,0.6340552568435669,0.05455702543258667
1.1340919695897365,2.6769876051512758,3.021006631855102,-0.4463304281234741,-0.3892713189125061,0.7043919563293457,0.1895139366388321,-0.9061505198478699,0.37812238931655884,0.05212432146072388,0.6361458897590637,0.08383771777153015
1.1423203319341793,2.68261874273586,3.0099685692089393,-0.6198704242706299,-0.4921436011791229,0.8633664846420288,0.1840718686580658,-0.909600019454956,0.37248584628105164,0.059946686029434204,0.6485678553581238,0.08805510401725769
1.1527118457988417,2.689107318268548,2.9968869829619242,-0.7716013789176941,-0.5958942770957947,1.0201276540756226,0.17750893533229828,-0.9138683080673218,0.3651515543460846,0.06374779343605042,0.662922203540802,0.08028316497802734
1.1648650600961141,2.6971452748654294,2.981059320468204,-0.8684936761856079,-0.7000218033790588,1.1792267560958862,0.1697801649570465,-0.9187350869178772,0.3565124571323395,0.06769242882728577,0.6694672703742981,0.06847551465034485
1.1782662842211507,2.70759068821942,2.961595918881509,-0.9131677150726318,-0.7967984080314636,1.3374296426773071,0.16085484623908997,-0.9239442348480225,0.3470636010169983,0.07768584787845612,0.6756683588027954,0.054700493812561035
1.1925613990352233,2.72170900724829,2.937417015829099,-0.9374528527259827,-0.8605891466140747,1.506689429283142,0.15053901076316833,-0.9293178915977478,0.3372040390968323,0.09842340648174286,0.682064414024353,0.04905712604522705
1.2076189525235679,2.7404243236875976,2.9079403038929925,-0.9777441024780273,-0.8932211399078369,1.6568735837936401,0.13872167468070984,-0.934772789478302,0.3270418047904968,0.11893825232982635,0.6854135990142822,0.0643463134765625
1.2235719728829968,2.7636467000418534,2.873416547459777,-1.0763270854949951,-0.9480329155921936,1.777134895324707,0.12557120621204376,-0.9403208494186401,0.3162740468978882,0.11478528380393982,0.6792579889297485,0.1034955084323883
1.240936828209634,2.7902037023980752,2.834709969001613,-1.2671763896942139,-1.0554826259613037,1.8676646947860718,0.11149060726165771,-0.9460878372192383,0.3041178286075592,0.09395375102758408,0.6653261780738831,0.14456698298454285
1.2603624701786322,2.819351828576438,2.7921775695977593,-1.5276508331298828,-1.1925238370895386,1.9562315940856934,0.09674070030450821,-0.9522011280059814,0.28974848985671997,0.08110049366950989,0.6613534092903137,0.16342228651046753
1.2823470383052167,2.852949815049137,2.7440986414122883,-1.8234055042266846,-1.2727382183074951,2.0902435779571533,0.08097399026155472,-0.9586861729621887,0.2726990282535553,0.07690875232219696,0.6583928465843201,0.14989334344863892
1.3070878314734766,2.8962014004628536,2.6858598204443225,-2.1160802841186523,-1.276902675628662,2.2970619201660156,0.06332448869943619,-0.965429961681366,0.25285452604293823,0.0846095085144043,0.6200166344642639,0.1029806137084961
1.334082996532625,2.9580161103475895,2.609540715140174,-2.3526341915130615,-1.13367760181427,2.5600507259368896,0.042809054255485535,-0.9721139669418335,0.23056907951831818,0.09558817744255066,0.5191109776496887,0.022482752799987793
1.3619941611423445,3.0490502951421843,2.505807780144462,-2.5456199645996094,-0.8872736096382141,2.7494893074035645,0.019155606627464294,-0.9782798886299133,0.20640161633491516,0.0858554020524025,0.35402756929397583,-0.053371086716651917
1.389075827298647,-3.1012898851856807,2.3633018514355113,-2.7230076789855957,-0.49133747816085815,2.927370548248291,-0.0072816768661141396,-0.9835342168807983,0.18057651817798615,0.04205647110939026,0.189924418926239,-0.09115980565547943
1.4129302947508657,-2.9085533022914,2.165365530910392,-2.90122127532959,0.018940038979053497,3.0554540157318115,-0.03630601242184639,-0.9875650405883789,0.15296296775341034,0.026601433753967285,0.1958472728729248,-0.1301814168691635
1.4296645825269212,-2.6443874677155352,1.901236017539989,-2.994603157043457,0.5799418091773987,3.0795912742614746,-0.06709346175193787,-0.9900574088096619,0.12363377213478088,-0.09074345231056213,0.26843857765197754,-0.16947101056575775
1.434939860936216,-2.3350799823651927,1.5977578971106752,-2.882079601287842,1.122780203819275,2.9191417694091797,-0.09777139127254486,-0.9907857179641724,0.09372738748788834,-0.38704609870910645,0.2492084503173828,-0.2941972017288208
1.4282679572394898,-2.0482329437436224,1.319683510919048,-2.605128526687622,1.0743194818496704,2.632345676422119,-0.12616227567195892,-0.9898599982261658,0.06527093797922134,-0.5536015033721924,0.11144202947616577,-0.4717954397201538
1.4137673124556163,-1.8292879793493353,1.1066402485988291,-2.2874510288238525,0.5649714469909668,2.3660390377044678,-0.15118972957134247,-0.9876962304115295,0.039975639432668686,-0.6497288346290588,-0.033879756927490234,-0.5283788442611694
1.395104486349241,-1.6769333322961817,0.9554927735259854,-1.9687036275863647,0.10970488935709,2.228201389312744,-0.17380693554878235,-0.9846058487892151,0.01851693168282509,-0.6423704624176025,-0.15768247842788696,-0.5516893863677979
1.3740032436852303,-1.5741798032745378,0.8504996654323124,-1.6984913349151611,-0.17141783237457275,2.2111120223999023,-0.19552546739578247,-0.9806986451148987,0.000661558355204761,-0.58134526014328,-0.3097221255302429,-0.5336356163024902
1.3512368710596994,-1.5033055675801517,0.7760981891688911,-1.5477691888809204,-0.18038789927959442,2.2507073879241943,-0.21730494499206543,-0.9759935140609741,-0.014688384719192982,-0.49810343980789185,-0.4808090925216675,-0.44283103942871094
1.3274135683382324,-1.4482620116699836,0.7187535586283466,-1.5493204593658447,0.03995537757873535,2.2400152683258057,-0.23918083310127258,-0.9705283045768738,-0.029455428943037987,-0.4469763934612274,-0.6343148946762085,-0.3131958246231079
1.3035057889483057,-1.398221651291887,0.6687368297868913,-1.6643991470336914,0.275375097990036,2.1136844158172607,-0.2601965665817261,-0.9644900560379028,-0.04535448178648949,-0.4647942781448364,-0.7906522750854492,-0.18454962968826294
1.2803402026104813,-1.3498857100353985,0.6219450638495735,-1.7711007595062256,0.380506306886673,1.930177092552185,-0.27943024039268494,-0.9581133723258972,-0.06275326013565063,-0.49646398425102234,-0.9622207283973694,-0.11394340544939041
1.2583097306063382,-1.3040149544798882,0.5779368678068318,-1.8215080499649048,0.3761584162712097,1.7131403684616089,-0.2965505123138428,-0.951572060585022,-0.08104608207941055,-0.5175364017486572,-1.1144222021102905,-0.10408871620893478
1.2380436329178897,-1.2638902468474618,0.5389547565700492,-1.6704181432724,0.23407746851444244,1.4906448125839233,-0.31138283014297485,-0.9451467394828796,-0.09868328273296356,-0.5457949042320251,-1.3044260740280151,-0.1252698302268982
1.2198330395729577,-1.2365848841988223,0.5106306727292486,-1.260665774345398,-0.1362380087375641,1.394266963005066,-0.32478025555610657,-0.9390419721603394,-0.11277580261230469,-0.5453064441680908,-1.4802240133285522,-0.20334048569202423
1.2031082363373273,-1.2271664528346888,0.49674575560326073,-0.7811054587364197,-0.5822945833206177,1.4559749364852905,-0.3384445011615753,-0.9331609010696411,-0.12110431492328644,-0.4779922664165497,-1.6776485443115234,-0.2890976071357727
1.1872860442237485,-1.2332398927632184,0.4955449265676205,-0.3839186728000641,-0.8120220303535461,1.48820960521698,-0.3530622124671936,-0.9273568987846375,-0.12392127513885498,-0.42165708541870117,-1.8623619079589844,-0.28255748748779297
1.1730069703028851,-1.2458335396442184,0.5007089713795129,-0.2011786550283432,-0.738895833492279,1.3119457960128784,-0.3671066164970398,-0.921919584274292,-0.12368053197860718,-0.5050704479217529,-1.949433445930481,-0.19730326533317566
1.1619043181675353,-1.2560385615923422,0.5046313458595543,-0.23010565340518951,-0.5811040997505188,0.8635736703872681,-0.37805965542793274,-0.9175618886947632,-0.12308923900127411,-0.6519238352775574,-2.0175576210021973,-0.05354641377925873
1.1556558939502926,-1.2583856196518672,0.5018153085186327,-0.38061797618865967,-0.40224489569664,0.2469996064901352,-0.38379618525505066,-0.9150596857070923,-0.1239614263176918,-0.784050464630127,-2.0453896522521973,0.045546650886535645
1.1549245036077498,-1.2505381237400583,0.48977351372690603,-0.5995146632194519,-0.23409585654735565,-0.4147050976753235,-0.3834465444087982,-0.9147644639015198,-0.12718001008033752,-0.8727179765701294,-1.9921722412109375,0.03260613977909088
1.1595734700862492,-1.231847497839219,0.4677311435928023,-0.7606329321861267,-0.0643201395869255,-1.037752628326416,-0.3769880533218384,-0.9166327118873596,-0.1329088807106018,-0.9156755208969116,-1.8910303115844727,-0.06186944246292114
1.1692561638848813,-1.2042624015365222,0.4380018278269706,-0.7532176375389099,0.11791811138391495,-1.58961820602417,-0.36487534642219543,-0.9204601049423218,-0.14006870985031128,-0.914360523223877,-1.7657735347747803,-0.22095412015914917
1.1836837424069508,-1.171900807137313,0.4048870792992123,-0.5090734958648682,0.22543305158615112,-2.025137424468994,-0.3478778302669525,-0.9260029792785645,-0.14662769436836243,-0.8469921350479126,-1.604453682899475,-0.4102112054824829
1.2023452211413546,-1.1405490522849842,0.37344285282793677,-0.08888369053602219,0.1864827275276184,-2.314532995223999,-0.3273460566997528,-0.9328863024711609,-0.15022577345371246,-0.7116249203681946,-1.4027765989303589,-0.5610473155975342
1.2246844064268192,-1.1163463800016313,0.34887193152847973,0.4566270709037781,0.037860509008169174,-2.4480321407318115,-0.3048110902309418,-0.9406988024711609,-0.1489170491695404,-0.5380539298057556,-1.224782943725586,-0.6430903077125549
1.2497654862431575,-1.1042978200530666,0.3356159322833353,0.9921192526817322,-0.129694402217865,-2.4285809993743896,-0.2818290591239929,-0.948910653591156,-0.1419202983379364,-0.38604819774627686,-1.0757019519805908,-0.6601120829582214
1.2764307875675331,-1.1069232774119644,0.33623247882452706,1.421891689300537,-0.2721268832683563,-2.327907085418701,-0.25947362184524536,-0.9569864273071289,-0.1298099309206009,-0.27408045530319214,-0.9562216997146606,-0.6113551259040833
1.303718975160945,-1.1242680902211368,0.3509491137953427,1.6922589540481567,-0.36017099022865295,-2.231149911880493,-0.23803779482841492,-0.9645463228225708,-0.11396781355142593,-0.22137384116649628,-0.873130738735199,-0.4975738525390625
1.3309378207620737,-1.1541680980699132,0.3779222354087219,1.8056129217147827,-0.3940733075141907,-2.165559768676758,-0.2172437608242035,-0.971371591091156,-0.09613783657550812,-0.20295272767543793,-0.7840147614479065,-0.3754807114601135
1.357683479359745,-1.1949179948738522,0.4157066615118898,1.824930191040039,-0.38219401240348816,-2.1296463012695312,-0.19673748314380646,-0.9773772954940796,-0.07764074206352234,-0.18509843945503235,-0.6811310648918152,-0.2919880151748657
1.3837989593666287,-1.2460400265474065,0.46443484670568974,1.7913987636566162,-0.2807477116584778,-2.126070261001587,-0.17619213461875916,-0.9825668931007385,-0.059319738298654556,-0.17591968178749084,-0.5643997192382812,-0.2439790964126587
1.4092406969280387,-1.3090381729084823,0.5264743306392434,1.7435728311538696,-0.0909077376127243,-2.1304779052734375,-0.15537528693675995,-0.9869782328605652,-0.041625816375017166,-0.16537974774837494,-0.4406799077987671,-0.21443182229995728
1.4336547207116328,-1.3891335535903073,0.6077473941255637,1.6928714513778687,0.1489015519618988,-2.104799509048462,-0.13446342945098877,-0.9906108379364014,-0.02469930239021778,-0.13258063793182373,-0.3245900869369507,-0.1980484127998352
1.4564075002958743,-1.4962641250742716,0.7183447392242173,1.6465106010437012,0.3712198734283447,-2.055398941040039,-0.11382410675287247,-0.9934647083282471,-0.008499305695295334,-0.09265783429145813,-0.2406967282295227,-0.1802976131439209
1.476638249914889,-1.6463392083613042,0.87398606569357,1.5964305400848389,0.5769387483596802,-1.988822340965271,-0.09375365078449249,-0.9955704212188721,0.007095924578607082,-0.0660211443901062,-0.18349170684814453,-0.1495366096496582
1.4929809691162819,-1.8606539180784065,1.0957849307105452,1.5572549104690552,0.7538514733314514,-1.9041719436645508,-0.07449498772621155,-0.9969739317893982,0.022218704223632812,-0.042951904237270355,-0.12564575672149658,-0.11685359477996826
1.5033570192433092,-2.151457658619249,1.3954584129917724,1.5142420530319214,0.8601022362709045,-1.7858225107192993,-0.056344226002693176,-0.9977268576622009,0.03696823865175247,-0.027823254466056824,-0.06478846073150635,-0.09478366374969482
1.5057691618852094,-2.4824890211865083,1.735973111424274,1.4621118307113647,0.8847330212593079,-1.6079585552215576,-0.03979705646634102,-0.9978864789009094,0.051372941583395004,-0.018583059310913086,0.004188239574432373,-0.08692574501037598
1.5006607045250666,-2.7734038236624117,2.0360154847679586,1.402477502822876,0.7888439893722534,-1.425162434577942,-0.025224199518561363,-0.9975414872169495,0.06538476794958115,-0.014875881373882294,0.08643901348114014,-0.09747385233640671
1.4908892786382217,-2.9835769220590156,2.253797771897589,1.3283188343048096,0.6213295459747314,-1.2207328081130981,-0.01256119180470705,-0.9968091249465942,0.07883056998252869,-0.03837263584136963,0.16064250469207764,-0.10567068308591843
1.4788950137540338,-3.120513578896961,2.3965141182387835,1.2879501581192017,0.42176559567451477,-1.0081822872161865,-0.001934377709403634,-0.9957800507545471,0.09175408631563187,-0.04645124077796936,0.17879372835159302,-0.11885356158018112
1.4658809639245247,3.076651949702723,2.486040414875074,1.2786633968353271,0.1999594271183014,-0.8110056519508362,0.006796082481741905,-0.9945014119148254,0.10450342297554016,-0.036398112773895264,0.24175477027893066,-0.12153208255767822
1.4526387157531166,3.0246147603896847,2.539559720329655,1.2507611513137817,0.034082796424627304,-0.6222471594810486,0.013758559711277485,-0.9930275082588196,0.11707977950572968,-0.030573740601539612,0.3183141350746155,-0.12475477159023285
1.4398384183112414,2.99472946282129,2.5692377193858014,1.1926709413528442,-0.12217578291893005,-0.44774699211120605,0.01910930685698986,-0.9914372563362122,0.12917953729629517,-0.03488687798380852,0.3724948763847351,-0.12162637710571289
1.427916394848092,2.979517936542631,2.5824629174329368,1.109259843826294,-0.3037242889404297,-0.2782146632671356,0.022977756336331367,-0.9898099899291992,0.140529066324234,-0.018430622294545174,0.42671483755111694,-0.09800267219543457
1.4170400894201547,2.9735622256992835,2.5843393943687367,1.0323243141174316,-0.5291217565536499,-0.1398775577545166,0.02561337687075138,-0.9882027506828308,0.1509956568479538,0.00935978814959526,0.4692206382751465,-0.06791137158870697
1.406878654111804,2.9715599123636873,2.579851365495778,1.0067660808563232,-0.7528679966926575,-0.07152728736400604,0.027613522484898567,-0.9865955710411072,0.16083312034606934,0.013569964095950127,0.4929124712944031,-0.04759751260280609
1.3968583341582916,2.9698050178993003,2.5734391419199745,1.011995792388916,-0.8501572608947754,-0.062246173620224,0.02958405576646328,-0.9849109053611755,0.17051555216312408,0.005114443600177765,0.5128496289253235,-0.05106961727142334
1.3867144522596702,2.966746517868756,2.567854565754563,1.027757167816162,-0.8523836135864258,-0.09666255861520767,0.03184192255139351,-0.9831047058105469,0.18025435507297516,-0.015347141772508621,0.5539053082466125,-0.05833648145198822
1.3763461464141178,2.960669290490676,2.5658351788701856,1.024259328842163,-0.7545020580291748,-0.20873503386974335,0.03476901724934578,-0.9811540842056274,0.19007395207881927,-0.043527547270059586,0.6063065528869629,-0.05834460258483887
1.3659296976869233,2.9484393146057046,2.571468622568281,0.9772561192512512,-0.5798671841621399,-0.41169142723083496,0.03905072808265686,-0.9790881276130676,0.199654221534729,-0.07185712456703186,0.6506120562553406,-0.04569292068481445
1.355765091467595,2.9280943595980182,2.5876727145200547,0.8774744272232056,-0.31407836079597473,-0.6689066886901855,0.04521073400974274,-0.9769697189331055,0.20853428542613983,-0.08294568955898285,0.6841534376144409,-0.0297316312789917
1.3460580516975424,2.8998965972623694,2.6149549899133446,0.7416963577270508,-0.0024914410896599293,-0.9277528524398804,0.05333941802382469,-0.974852442741394,0.21637386083602905,-0.0702003538608551,0.709990382194519,-0.02313639223575592
1.3370167245575006,2.865465079074397,2.6517860217436318,0.5756999254226685,0.2856319546699524,-1.1541417837142944,0.06315676867961884,-0.9727977514266968,0.2228802740573883,-0.04420536011457443,0.7441449165344238,-0.03106193244457245
1.3287763328532993,2.8271013415111805,2.6956999167454816,0.40511760115623474,0.5811789631843567,-1.3031295537948608,0.07413610070943832,-0.9708558320999146,0.22790992259979248,-0.010995201766490936,0.790878415107727,-0.05138090252876282
1.32121561859105,2.7879848407332246,2.743344761606989,0.2646273374557495,0.8376195430755615,-1.3833400011062622,0.08553174883127213,-0.9690160751342773,0.23171646893024445,0.031045421957969666,0.8086155652999878,-0.07209408283233643
1.3142727624192816,2.7505676023384824,2.791748235218199,0.14875805377960205,1.0470845699310303,-1.3759185075759888,0.09670194238424301,-0.9672778844833374,0.2345690280199051,0.06681126356124878,0.7953417301177979,-0.08770298957824707
1.3081900703611682,2.7172208685151658,2.8378821561669403,0.027520840987563133,1.1995021104812622,-1.2751092910766602,0.1068892776966095,-0.9657166600227356,0.2365715205669403,0.0877518579363823,0.7697022557258606,-0.10230936110019684
1.3035406487238796,2.689122198217577,2.879823137518013,-0.11724945157766342,1.276764988899231,-1.1054272651672363,0.11545559763908386,-0.9644992351531982,0.23751133680343628,0.08399205654859543,0.7448640465736389,-0.10569056868553162
1.3007264571784287,2.666462645606425,2.9167198515163597,-0.25343072414398193,1.306601643562317,-0.9006112217903137,0.12204856425523758,-0.963752269744873,0.23724707961082458,0.06981547921895981,0.7228463888168335,-0.10675370693206787
1.2997992306379236,2.6488296382344068,2.948480398709889,-0.3719962537288666,1.2888476848602295,-0.686454713344574,0.1266355663537979,-0.963504433631897,0.2358456701040268,0.039898887276649475,0.6984438300132751,-0.11160847544670105
1.300734229275241,2.6357980914238395,2.9749137003444406,-0.46767938137054443,1.193027138710022,-0.46951019763946533,0.12926138937473297,-0.9637543559074402,0.2333868443965912,0.016566872596740723,0.7051177620887756,-0.12565958499908447
1.3033592795905355,2.6265968888892046,2.9959132376438893,-0.5364971160888672,1.018985390663147,-0.25107210874557495,0.13015681505203247,-0.9644513726234436,0.2299850434064865,-0.000319749116897583,0.7529491782188416,-0.15396559238433838
1.3075264861663092,2.6207403127820696,3.011660953233006,-0.5964509844779968,0.8589383363723755,-0.06025662645697594,0.1295003443956375,-0.9655442237854004,0.22573064267635345,-0.021758005023002625,0.8049911260604858,-0.1857525110244751
1.3129160502876482,2.6181160697744006,3.0225690655517177,-0.6128787994384766,0.7261235117912292,0.10904712229967117,0.12748906016349792,-0.9669327735900879,0.22087986767292023,-0.04582399129867554,0.8347152471542358,-0.2140895128250122
1.319231007123547,2.6185400516340316,3.0293743280180703,-0.6631544828414917,0.6987254619598389,0.22320139408111572,0.12434310466051102,-0.9685239791870117,0.21564048528671265,-0.06603921204805374,0.8404718637466431,-0.22888489067554474
1.3260435738710175,2.6223729317205375,3.031546073945416,-0.556868851184845,0.4659212529659271,0.3530121147632599,0.1202383041381836,-0.9701972603797913,0.21038109064102173,-0.0730428472161293,0.834043025970459,-0.2133716344833374
1.3321361964369924,2.6298657908533607,3.0274444079658975,-0.40646064281463623,0.2641465663909912,0.414419025182724,0.11576227098703384,-0.9716556072235107,0.2061190903186798,-0.08667898178100586,0.7911286354064941,-0.20633253455162048
1.3372052790865363,2.641843673833465,3.017521392904234,-0.24980168044567108,0.2085004299879074,0.4849546551704407,0.11092313379049301,-0.9728414416313171,0.20316463708877563,-0.07715541124343872,0.7868977189064026,-0.2166990041732788
1.3411455247701825,2.659429014204438,3.0013803433552595,-0.08801545202732086,0.17345775663852692,0.5339965224266052,0.10555549710988998,-0.9737459421157837,0.2016865760087967,-0.0608472004532814,0.7928222417831421,-0.21775385737419128
1.3436892688384217,2.6817143397270686,2.9804615470891997,0.06715945899486542,0.21427921950817108,0.5345838665962219,0.09993534535169601,-0.9743218421936035,0.2017684429883957,-0.06667114794254303,0.7941001057624817,-0.20813116431236267
1.344592870919358,2.7068835664674435,2.957225744183189,0.22101080417633057,0.2971581220626831,0.482876181602478,0.09445459395647049,-0.9745249152183533,0.20341995358467102,-0.0674922987818718,0.803489089012146,-0.19498170912265778
1.3438313205884984,2.732971376527406,2.9340808909600087,0.3443179130554199,0.4046468436717987,0.40472611784935,0.08941128104925156,-0.9743537902832031,0.20649589598178864,-0.06418848782777786,0.8046759963035583,-0.1696915626525879
1.3415801671189234,2.7573181769088646,2.913071763310099,0.42413952946662903,0.3253762722015381,0.2907324433326721,0.08517974615097046,-0.9738447666168213,0.21064408123493195,-0.05566924810409546,0.7840101718902588,-0.12931455671787262
1.3382847260665345,2.7745784465622276,2.897311642834536,0.4492471218109131,0.048255596309900284,0.13265053927898407,0.08268274366855621,-0.9730907082557678,0.21507759392261505,-0.06977379322052002,0.7613139152526855,-0.08296680450439453
1.3342445544215724,2.7823030914152502,2.8883296279920514,0.4595320224761963,-0.23889149725437164,-0.024198733270168304,0.0824006125330925,-0.9721518754959106,0.21938863396644592,-0.09282232820987701,0.7314289808273315,-0.0450720489025116
1.3295322777090997,2.7828108174985915,2.884581724405584,0.49533477425575256,-0.35650303959846497,-0.13487067818641663,0.08389678597450256,-0.9710367321968079,0.22371715307235718,-0.10197841376066208,0.6863991618156433,-0.009468317031860352
1.3241425381356855,2.7810603239895384,2.883407110326713,0.5322738885879517,-0.1922062486410141,-0.18572160601615906,0.08613313734531403,-0.9697348475456238,0.22846336662769318,-0.07574188709259033,0.6537253260612488,0.024420708417892456
1.3184059393550513,2.7808240298153435,2.8830019971132863,0.5518685579299927,0.061323996633291245,-0.2019655406475067,0.08814927935600281,-0.9683182835578918,0.2336438000202179,-0.022673800587654114,0.6473344564437866,0.06017954647541046
1.3125262093036052,2.781712008870359,2.883836220446709,0.5272836089134216,0.24152252078056335,-0.24735964834690094,0.08994531631469727,-0.966833233833313,0.23904676735401154,0.024465106427669525,0.6219999194145203,0.0952582061290741
1.3071414822402618,2.7823940137350376,2.8856807407028837,0.44516536593437195,0.23817338049411774,-0.21125297248363495,0.09161125123500824,-0.9654439091682434,0.24397902190685272,0.07142893970012665,0.6451618671417236,0.10790407657623291
1.3029618206304066,2.7835937469087337,2.8864948460555317,0.32693806290626526,0.16185517609119415,-0.11543909460306168,0.09273158013820648,-0.9643462300300598,0.24786590039730072,0.1326560080051422,0.714773416519165,0.12702739238739014
1.3002053710742107,2.7873276251688814,2.884516627480416,0.23583397269248962,0.22951436042785645,0.026207076385617256,0.09272721409797668,-0.9636130928993225,0.2507025897502899,0.1713719367980957,0.7021231055259705,0.15582215785980225
1.2986413039682996,2.7967701407730097,2.87814064388302,0.1781909167766571,0.4283750057220459,0.19049108028411865,0.09086520969867706,-0.9631938338279724,0.2529851198196411,0.17979520559310913,0.6300486326217651,0.19566917419433594
1.2982210037553814,2.813255569571252,2.8664851031199428,0.10472062975168228,0.6425071954727173,0.3764517307281494,0.08681309968233109,-0.9630807638168335,0.25483205914497375,0.1767367124557495,0.5850441455841064,0.24606835842132568
1.2992258193214474,2.837559093032164,2.8493703548894485,-0.019686009734869003,0.9113383889198303,0.5595614314079285,0.08030488342046738,-0.9633508324623108,0.25594258308410645,0.17531037330627441,0.5620293021202087,0.3088616132736206
1.302384649736243,2.866686298694171,2.8284845430996053,-0.2910725176334381,0.8366220593452454,0.680702805519104,0.07199064642190933,-0.9641933441162109,0.2552429735660553,0.15315280854701996,0.5543421506881714,0.37920236587524414
1.3088812801298557,2.894495855255191,2.8068972076134235,-0.6817265152931213,0.5632158517837524,0.7408449649810791,0.06333208084106445,-0.9658958911895752,0.25106701254844666,0.09667158871889114,0.5858907699584961,0.40577831864356995
1.3189079527722507,2.9183177549043715,2.786825766979158,-1.021428108215332,0.32305899262428284,0.7078821659088135,0.055186495184898376,-0.9684435129165649,0.24304741621017456,0.012562543153762817,0.5776352882385254,0.33803796768188477
1.3312356180232634,2.936626101797809,2.7704837818977195,-1.2003049850463867,0.19312602281570435,0.5893675088882446,0.048293858766555786,-0.9714422821998596,0.23230941593647003,-0.06118753179907799,0.5559454560279846,0.2287961095571518
1.3441601811259438,2.9498775411197076,2.7587851023593233,-1.219495415687561,0.19321684539318085,0.45581531524658203,0.04281539097428322,-0.9744277596473694,0.22058536112308502,-0.09062115848064423,0.5551160573959351,0.12455335259437561
1.35671007172016,2.959319472257596,2.7514583300582327,-1.186911940574646,0.27699774503707886,0.3334401547908783,0.03851095959544182,-0.9771709442138672,0.20893649756908417,-0.07974020391702652,0.5414559841156006,0.026049047708511353
1.3686891958988052,2.9670496257634085,2.7471158886178366,-1.142754077911377,0.42870792746543884,0.2800479829311371,0.034859176725149155,-0.9796457886695862,0.19768454134464264,-0.05802202224731445,0.4858102798461914,-0.07143320143222809
1.3803274610401914,2.977762189329921,2.741454789405028,-1.1273343563079834,0.6045787930488586,0.34760916233062744,0.030877811834216118,-0.9819155931472778,0.18678490817546844,-0.016107292845845222,0.4244050979614258,-0.1391468048095703
1.3923483986741008,2.9988620158643196,2.726963436009006,-1.179965615272522,0.7693520188331604,0.5587555170059204,0.025249235332012177,-0.9841203689575195,0.175698384642601,0.04491069167852402,0.37175452709198,-0.1714409589767456
1.4054361869086984,3.038492781736137,2.6953026874375428,-1.2976274490356445,0.9110657572746277,0.8438138961791992,0.016941068693995476,-0.9863591194152832,0.16373443603515625,0.07264329493045807,0.2965092062950134,-0.1729201078414917
1.419952206704703,3.102712975794454,2.6398467125346046,-1.4896568059921265,0.9764993190765381,1.0978120565414429,0.005841107573360205,-0.9886445999145508,0.1501597911119461,0.037432823330163956,0.193875253200531,-0.16039825975894928
1.4359059510372718,-3.0884100622439234,2.5565153532029283,-1.7212575674057007,0.9271538853645325,1.248505711555481,-0.007148772943764925,-0.9909160733222961,0.13429266214370728,-0.05959315970540047,0.08434557914733887,-0.16580189764499664
1.4525522911572135,-2.9612965154224917,2.436949720328723,-1.9411624670028687,0.7624765634536743,1.36067795753479,-0.021154288202524185,-0.993017315864563,0.11605668067932129,-0.14515124261379242,-0.013360857963562012,-0.19949163496494293
1.4685914226796377,-2.783088177564791,2.264198726216806,-2.154135227203369,0.535070538520813,1.4521710872650146,-0.03579913452267647,-0.9947816133499146,0.09554170817136765,-0.21487224102020264,-0.093505859375,-0.2472292184829712
1.4814397945537374,-2.531608538950036,2.015926427388394,-2.311163902282715,0.34700286388397217,1.563262939453125,-0.051121342927217484,-0.9960103631019592,0.07314593344926834,-0.2675126791000366,-0.23728138208389282,-0.33265209197998047
1.4869995955323367,-2.20380664118769,1.6898449370199022,-2.3942666053771973,0.24185752868652344,1.691190242767334,-0.06748387962579727,-0.9964911341667175,0.049515318125486374,-0.2818050682544708,-0.3628383278846741,-0.42790257930755615
1.4820511797882625,-1.862856885490462,1.3495971583043855,-2.3943915367126465,0.14898920059204102,1.7819770574569702,-0.08487704396247864,-0.9960647225379944,0.025518981739878654,-0.2947158217430115,-0.4902939796447754,-0.49910593032836914
1.4679696094989274,-1.5891043969949368,1.075880870059176,-2.3355002403259277,0.11162771284580231,1.7743085622787476,-0.10262863337993622,-0.9947180151939392,0.0018791422480717301,-0.3242817521095276,-0.6165490746498108,-0.5249960422515869
1.44893372917429,-1.396840118032373,0.8836504770166033,-2.2575831413269043,0.13898545503616333,1.6665453910827637,-0.11972729861736298,-0.9925839304924011,-0.021039964631199837,-0.3615196645259857,-0.7448276281356812,-0.5116747617721558
1.4282838173705876,-1.261867540320021,0.7490567065003977,-2.1794049739837646,0.1710384637117386,1.4871509075164795,-0.13530810177326202,-0.9898622632026672,-0.04318314418196678,-0.39377516508102417,-0.8948119282722473,-0.49235445261001587
1.40795061213476,-1.162122977884414,0.6500592407211726,-2.06756329536438,0.2047678828239441,1.2644129991531372,-0.14877678453922272,-0.9867699146270752,-0.06442850828170776,-0.41299083828926086,-1.0480966567993164,-0.4846741557121277
1.3890551544930796,-1.0862200341201231,0.5749060528498288,-1.8840407133102417,0.1533433049917221,1.0372706651687622,-0.15993480384349823,-0.9835304617881775,-0.0841963067650795,-0.4003068804740906,-1.2051293849945068,-0.5021225810050964
1.372375522364038,-1.0308466935696121,0.5195352530756715,-1.5590051412582397,0.046868301928043365,0.8566737771034241,-0.16907833516597748,-0.9803791046142578,-0.10133898258209229,-0.35118532180786133,-1.3896008729934692,-0.5240576267242432
1.3582554947511623,-0.9954900540436287,0.48326632544008474,-1.1876449584960938,-0.0922432467341423,0.7593820691108704,-0.1769879013299942,-0.9774981141090393,-0.11477319896221161,-0.2642505168914795,-1.571070671081543,-0.5268740653991699
1.3473499022100817,-0.980592700153675,0.4662474782212167,-0.604184091091156,-0.2329329401254654,0.6606507301330566,-0.18410471081733704,-0.9751395583152771,-0.12332265079021454,-0.15589162707328796,-1.7587014436721802,-0.4690539240837097
1.340659150490069,-0.9881040451660915,0.47154340138785916,0.04673910513520241,-0.23308128118515015,0.5878769159317017,-0.19046925008296967,-0.9736351370811462,-0.1255236566066742,-0.05867624282836914,-1.8955971002578735,-0.43566399812698364
1.3376026621609407,-1.0134098131568023,0.49513173324707316,0.505499541759491,-0.23750874400138855,0.5080365538597107,-0.19610895216464996,-0.9729333519935608,-0.12223759293556213,0.0014068037271499634,-2.0077338218688965,-0.3428654670715332
1.3371041661871195,-1.047848035724511,0.528063344650611,0.729647696018219,-0.24596455693244934,0.3511098027229309,-0.20062190294265747,-0.9728180170059204,-0.11565517634153366,-0.005829542875289917,-2.118582248687744,-0.1619631052017212
1.3385205626880103,-1.0834125688784644,0.5619391076151588,0.7653640508651733,-0.27559787034988403,0.15977360308170319,-0.20338937640190125,-0.973145067691803,-0.10780292749404907,-0.04496265947818756,-2.2056422233581543,0.015014365315437317
1.3412712787719396,-1.1153687193835444,0.5918261328640837,0.6955338716506958,-0.2990856170654297,-0.03060033544898033,-0.20432570576667786,-0.9737745523452759,-0.10007195174694061,-0.062382712960243225,-2.232264995574951,0.12172429263591766
1.3452042943949123,-1.141051043317565,0.6150663351453162,0.5947174429893494,-0.3056844174861908,-0.23237311840057373,-0.20334525406360626,-0.9746618270874023,-0.09319572150707245,-0.09421643614768982,-2.1819088459014893,0.1276502013206482
1.3506191625182635,-1.161658190499254,0.6332016543257999,0.5954777598381042,-0.27211448550224304,-0.42659318447113037,-0.2003764510154724,-0.975858747959137,-0.08688461035490036,-0.1500263810157776,-2.0678882598876953,0.019395120441913605
1.357820317201395,-1.1827066459115119,0.6524129580491047,0.7412707209587097,-0.18173183500766754,-0.5672093033790588,-0.19565103948116302,-0.9774062037467957,-0.07998675107955933,-0.18201923370361328,-1.9131883382797241,-0.15130585432052612
1.3663144490445787,-1.2104078570653105,0.6793808222440338,0.9313408136367798,-0.08963731676340103,-0.6087218523025513,-0.19001510739326477,-0.9791663289070129,-0.07160651683807373,-0.18986772000789642,-1.7353264093399048,-0.2966794967651367
1.3759527772804043,-1.2494658966410248,0.7186014720553239,1.192017674446106,-0.034434229135513306,-0.6895350813865662,-0.18370327353477478,-0.9810779690742493,-0.06114868447184563,-0.21766391396522522,-1.581589937210083,-0.37482529878616333
1.386631231130425,-1.3053452471859748,0.7754204905527651,1.483400821685791,0.016597798094153404,-0.7354314923286438,-0.17671231925487518,-0.9830895066261292,-0.04804223030805588,-0.2624509334564209,-1.4187049865722656,-0.427207887172699
1.3975627761743337,-1.3836496535525027,0.8552996016351985,1.7787728309631348,0.04188697040081024,-0.7622570991516113,-0.16935995221138,-0.9850325584411621,-0.03207043930888176,-0.2710697650909424,-1.216597318649292,-0.4533420205116272
1.4077248759406336,-1.4885794448024041,0.9621297899181042,2.0402090549468994,0.032565638422966,-0.7722500562667847,-0.16180206835269928,-0.9867333173751831,-0.013332916423678398,-0.2778494358062744,-1.004859209060669,-0.4548218846321106
1.415839847731595,-1.6220294444219434,1.0972475612238042,2.267075538635254,-0.04564425349235535,-0.7847514748573303,-0.1541355699300766,-0.988018274307251,0.00790376216173172,-0.2900477945804596,-0.8100317716598511,-0.43307459354400635
1.4205456266019305,-1.7815058692400372,1.257534299878345,2.4395174980163574,-0.16451364755630493,-0.7846002578735352,-0.14637596905231476,-0.9887335896492004,0.03130752965807915,-0.29664772748947144,-0.6360833644866943,-0.397716760635376
1.4206502802808585,-1.9568340008270713,1.4325534450194106,2.5549263954162598,-0.28623026609420776,-0.7748506665229797,-0.13857516646385193,-0.9887492656707764,0.05632118880748749,-0.29570525884628296,-0.4672902822494507,-0.35148704051971436
1.415748831436371,-2.1325271891040156,1.6068926193272124,2.6079952716827393,-0.38409584760665894,-0.7750986218452454,-0.13069851696491241,-0.988004207611084,0.08225686103105545,-0.2947470545768738,-0.3134791851043701,-0.2949641942977905
1.406491908709159,-2.295362933497741,1.7676743180638006,2.5923874378204346,-0.43281564116477966,-0.820063591003418,-0.12247686088085175,-0.9865323901176453,0.10841405391693115,-0.29501885175704956,-0.1790713667869568,-0.2312471866607666
1.3942116619866685,-2.439829111576156,1.9095244829284048,2.5238399505615234,-0.5032325387001038,-0.9171562790870667,-0.1134052500128746,-0.9844493865966797,0.13415856659412384,-0.3073100745677948,-0.06791871786117554,-0.17033709585666656
1.3803377474712695,-2.5671107587063986,2.0335009307899226,2.4009933471679688,-0.5708093047142029,-1.075526475906372,-0.10287092626094818,-0.9819175004959106,0.15892063081264496,-0.3441810607910156,0.02767854928970337,-0.1239016056060791
1.3659478324501517,-2.68084795159331,2.1435926666847784,2.2409024238586426,-0.5821093320846558,-1.2692679166793823,-0.09044378995895386,-0.9790918231010437,0.18220798671245575,-0.37678033113479614,0.1285361647605896,-0.08679459989070892
1.35183823644925,-2.7837113839341425,2.2427730137223936,2.003365993499756,-0.6143897175788879,-1.4423314332962036,-0.07608778029680252,-0.9761242866516113,0.20345096290111542,-0.3805009722709656,0.22493404150009155,-0.04530872404575348
1.338516585195266,-2.8787581137809504,2.333797875016223,1.7844799757003784,-0.640616238117218,-1.6213054656982422,-0.05980951339006424,-0.9731441140174866,0.2222914695739746,-0.36090579628944397,0.3105159401893616,0.007979020476341248
1.325948030276903,-2.9679409446300578,2.4190513325617915,1.5527324676513672,-0.636201798915863,-1.7700175046920776,-0.04188356176018715,-0.9701741337776184,0.23876363039016724,-0.32252684235572815,0.3791859745979309,0.0353454053401947
1.3140088894081299,-3.0521521281380597,2.4992234762080017,1.3437553644180298,-0.6813693046569824,-1.8606626987457275,-0.02268536575138569,-0.9672108888626099,0.25295963883399963,-0.27847734093666077,0.42610371112823486,0.05989143252372742
1.3024716573071258,-3.131210260224455,2.5736192546663186,1.16107976436615,-0.7710408568382263,-1.8791756629943848,-0.002752500120550394,-0.964216411113739,0.2651027739048004,-0.23560504615306854,0.46650511026382446,0.06543326377868652
1.2911414855525611,3.0785307453277078,2.6411824642544817,1.0154235363006592,-0.916165292263031,-1.8384649753570557,0.017395058646798134,-0.9611507654190063,0.2754752039909363,-0.1916809231042862,0.5122830271720886,0.04923194646835327
1.2798868932521756,3.010683709293099,2.7015188941076445,0.9094181656837463,-1.0766072273254395,-1.7640568017959595,0.037440650165081024,-0.9579834342002869,0.28436964750289917,-0.15244615077972412,0.5561890006065369,0.02062317728996277
1.2684821790019696,2.948618695206942,2.7544091052678668,0.8538997769355774,-1.2245674133300781,-1.65605628490448,0.057098325341939926,-0.9546500444412231,0.2922041714191437,-0.11849968135356903,0.5893851518630981,-0.007383495569229126
1.2568631565822752,2.8930142573572137,2.7993166422246922,0.8224309682846069,-1.3402498960494995,-1.5199699401855469,0.07597357779741287,-0.9511263370513916,0.2993110418319702,-0.07621768862009048,0.6208496689796448,-0.034021586179733276
1.2451818131665569,2.843864220822867,2.836576748284041,0.7971159815788269,-1.4175255298614502,-1.3727648258209229,0.09383987635374069,-0.9474543333053589,0.30581769347190857,-0.0388777032494545,0.6530665159225464,-0.04881373047828674
1.233768266828673,2.800986167104446,2.8667278251332142,0.7545125484466553,-1.4582798480987549,-1.2077040672302246,0.11046800017356873,-0.9437416195869446,0.3116872310638428,-0.012582860887050629,0.688309371471405,-0.05901682376861572
1.2231842917458902,2.764014408116661,2.8904871991656695,0.660454511642456,-1.4650235176086426,-1.034835934638977,0.12558917701244354,-0.9401888847351074,0.31665876507759094,0.007757395505905151,0.7303802967071533,-0.06848964095115662
1.2141119414087664,2.731524961794583,2.9094702665339853,0.5113686323165894,-1.4788647890090942,-0.8801326751708984,0.1392039954662323,-0.9370597004890442,0.3202214241027832,0.013383924961090088,0.7637349963188171,-0.06452977657318115
1.2068339925498568,2.701646975308482,2.9254694817651075,0.34746307134628296,-1.5085399150848389,-0.757113516330719,0.15160860121250153,-0.9344936609268188,0.3220820724964142,-0.008710011839866638,0.7741847038269043,-0.054732680320739746
1.2013708313810516,2.6732224228141974,2.9397691264524175,0.18978305160999298,-1.5112411975860596,-0.6523547172546387,0.1630033701658249,-0.93253493309021,0.3221937119960785,-0.041192442178726196,0.7799622416496277,-0.06258046627044678
1.1975175168601693,2.6458517183924504,2.9530145535782966,0.053522951900959015,-1.4999715089797974,-0.5631526708602905,0.17346782982349396,-0.9311366677284241,0.32077035307884216,-0.06328409910202026,0.8038325905799866,-0.09567251801490784
1.1949807579185963,2.6192754762285944,2.9655290876206744,-0.05925112962722778,-1.4924192428588867,-0.4888906478881836,0.1831083595752716,-0.9302085638046265,0.31809374690055847,-0.07303142547607422,0.8281272053718567,-0.1333249807357788
1.1936001846460949,2.59316220816581,2.9777053101007818,-0.159785196185112,-1.4677032232284546,-0.4286837577819824,0.19202063977718353,-0.9297009706497192,0.314299613237381,-0.08819982409477234,0.8379804491996765,-0.16377153992652893
1.1932561672127862,2.5671572259435926,2.9902670763134487,-0.2752556800842285,-1.3958230018615723,-0.3956345319747925,0.20030201971530914,-0.9295742511749268,0.3094690442085266,-0.11091600358486176,0.835763156414032,-0.17867055535316467
1.1938785133863792,2.5409031322704525,3.0041831861120385,-0.3984676003456116,-1.269357442855835,-0.39604997634887695,0.20802997052669525,-0.9298034906387329,0.3036271035671234,-0.13255995512008667,0.8255400657653809,-0.1801375150680542
1.195331278397339,2.514102469961839,3.0203224696417883,-0.5229930281639099,-1.0849188566207886,-0.4087117910385132,0.21529832482337952,-0.9303371906280518,0.29684948921203613,-0.14585553109645844,0.8212519884109497,-0.17775452136993408
1.1975659189028642,2.48674901933309,3.039198198563925,-0.6604483723640442,-0.8759241104125977,-0.43246400356292725,0.2220703363418579,-0.9311543107032776,0.28920096158981323,-0.14733269810676575,0.8273332118988037,-0.18034452199935913
1.200477730281616,2.458614710319829,3.061128569939623,-0.7876018285751343,-0.6692759394645691,-0.4595322608947754,0.2284051477909088,-0.9322121143341064,0.28073444962501526,-0.15246212482452393,0.8304359316825867,-0.1847412884235382
1.203866280001544,2.4294402562265387,3.0863342193600483,-0.8995544910430908,-0.4712906777858734,-0.4983222782611847,0.23443184792995453,-0.9334331154823303,0.27156001329421997,-0.16830019652843475,0.8208687901496887,-0.18824681639671326
1.2074940175227862,2.399173426096416,3.1146096905998304,-0.9862672090530396,-0.30951955914497375,-0.5263605117797852,0.2402515709400177,-0.9347283840179443,0.2618444263935089,-0.17996403574943542,0.8031516671180725,-0.19258460402488708
1.2111644054432997,2.3682499777299006,-3.1381270439875713,-1.0279220342636108,-0.18262898921966553,-0.5308375358581543,0.2458343505859375,-0.9360264539718628,0.25183427333831787,-0.17901603877544403,0.7831789255142212,-0.20399782061576843
1.2147364453547393,2.3376940799824775,-3.1069511914128025,-1.0186046361923218,-0.09189212322235107,-0.5030707120895386,0.25100404024124146,-0.9372775554656982,0.24188438057899475,-0.18285825848579407,0.7596346139907837,-0.2222461700439453
1.217955350888574,2.308791271261728,-3.0768027044870467,-0.945980429649353,-0.036774542182683945,-0.4592739939689636,0.25565582513809204,-0.9383947849273682,0.2324984073638916,-0.19001251459121704,0.7408850193023682,-0.2427673637866974
1.2205935752040529,2.282792246123436,-3.0493748685030106,-0.8135620951652527,-0.01674286648631096,-0.4043389558792114,0.2597382068634033,-0.9393031597137451,0.22415539622306824,-0.19322511553764343,0.7258785367012024,-0.2555272877216339
1.2224026326896995,2.2609642068047147,-3.0263442352916616,-0.617107629776001,-0.025256725028157234,-0.3451129198074341,0.26325833797454834,-0.9399222731590271,0.21735092997550964,-0.18968042731285095,0.7118643522262573,-0.2648056745529175
1.2232352685919188,2.2445107765737107,-3.009294607226659,-0.3812750577926636,-0.06337928026914597,-0.2659074068069458,0.2661871314048767,-0.9402062296867371,0.21250195801258087,-0.18275204300880432,0.7024131417274475,-0.27054619789123535
1.223085114761156,2.23426474739763,-2.999348419425136,-0.13312169909477234,-0.11602944135665894,-0.18095844984054565,0.2684614062309265,-0.9401550889015198,0.2098502516746521,-0.175550639629364,0.7076568603515625,-0.2687947750091553
1.2220928708423249,2.2299239152345454,-2.996235098890176,0.08669405430555344,-0.17143036425113678,-0.11076641082763672,0.2701071500778198,-0.9398165345191956,0.2092541605234146,-0.16802582144737244,0.7233704924583435,-0.25168871879577637
1.220355704395311,2.2302017880716893,-2.998544612051585,0.24462616443634033,-0.19477590918540955,-0.07870115339756012,0.27133890986442566,-0.9392215609550476,0.2103290855884552,-0.16074317693710327,0.7268801331520081,-0.21248042583465576
1.2180028226064736,2.233385262714357,-3.004413166328822,0.3645939230918884,-0.2886016070842743,-0.039335303008556366,0.27240994572639465,-0.9384111762046814,0.2125510424375534,-0.15391013026237488,0.7089340090751648,-0.15960285067558289
1.2153603158834734,2.2381597042788797,-3.0132693486722415,0.438483864068985,-0.4130958616733551,-0.0012174769071862102,0.2733387053012848,-0.9374948740005493,0.2153831422328949,-0.13510927557945251,0.7031959295272827,-0.10359713435173035
1.212574403670844,2.243231148426922,-3.023534081372621,0.4657040536403656,-0.49236878752708435,0.006033848039805889,0.2742844521999359,-0.9365217089653015,0.21839211881160736,-0.11408239603042603,0.6816694736480713,-0.05732026696205139
1.209710764909903,2.2476304888762364,-3.033829282792765,0.4602842628955841,-0.5548747777938843,-0.000567861832678318,0.27541083097457886,-0.9355138540267944,0.2212757021188736,-0.08662906289100647,0.6576207280158997,-0.013298287987709045
1.2069488856033104,2.251558125606564,-3.0440574161191556,0.45139577984809875,-0.5701538324356079,0.031116444617509842,0.2765468657016754,-0.9345345497131348,0.22398142516613007,-0.05796465277671814,0.6379034519195557,0.023241668939590454
1.2045618497327,2.2559805617182525,-3.054872975844508,0.45157209038734436,-0.5713945627212524,0.09266289323568344,0.27727970480918884,-0.933682382106781,0.22661292552947998,-0.018841564655303955,0.6261261701583862,0.04423069953918457
1.2027356718782596,2.261482913847143,-3.0670631371625063,0.46029022336006165,-0.6125641465187073,0.18244729936122894,0.27734237909317017,-0.933026909828186,0.22922100126743317,0.02143999934196472,0.622708797454834,0.05259370803833008
1.2016010529913037,2.2680703890283445,-3.081050614182192,0.46255576610565186,-0.6842700242996216,0.28920915722846985,0.27663788199424744,-0.9326180219650269,0.23172272741794586,0.05261632800102234,0.6380928158760071,0.05059552192687988
1.2011816303352438,2.2755582327661887,-3.0966952568330743,0.45705446600914,-0.7333352565765381,0.3757087290287018,0.2751930058002472,-0.9324666261672974,0.23404105007648468,0.0664818286895752,0.6665363311767578,0.04141080379486084
1.2013457557985034,2.2837337170089342,-3.1134698328581027,0.44598478078842163,-0.7572182416915894,0.434084415435791,0.27315494418144226,-0.9325258731842041,0.23618318140506744,0.0637286901473999,0.6941069960594177,0.031822383403778076
1.201849266358396,2.2924551604278083,-3.1309098849330073,0.4434971213340759,-0.755974531173706,0.468199759721756,0.27073216438293457,-0.9327076077461243,0.23824621737003326,0.06470188498497009,0.7069230675697327,0.023365885019302368
1.202510066322884,2.3018083689656006,3.134163799675413,0.45003700256347656,-0.7611820697784424,0.5019451975822449,0.26803258061408997,-0.9329456686973572,0.24035599827766418,0.08020350337028503,0.6996235847473145,0.028427690267562866
1.2033576714307819,2.3118993781289814,3.1151433293429482,0.45172837376594543,-0.7743703722953796,0.5463400483131409,0.26501038670539856,-0.9332504868507385,0.24251480400562286,0.10541203618049622,0.6891096830368042,0.040444403886795044
1.2045209189899555,2.3225548404629524,3.0952098324691146,0.4410562813282013,-0.8271505236625671,0.5997801423072815,0.2616179883480072,-0.9336677193641663,0.2445831298828125,0.13364571332931519,0.686002254486084,0.05686962604522705
1.2061500288421434,2.333485293332495,3.0743894504621063,0.4194852113723755,-0.8758309483528137,0.6640350222587585,0.25782889127731323,-0.9342499375343323,0.24637681245803833,0.16285595297813416,0.6898041367530823,0.0757974237203598
1.2084616503991499,2.345315021828765,3.052528553719815,0.37492677569389343,-0.8347690105438232,0.7508543133735657,0.2533521354198456,-0.9350718259811401,0.24789857864379883,0.2019854187965393,0.6907784938812256,0.09679758548736572
1.2116727054098149,2.358596861146193,3.0301795669869227,0.2832512855529785,-0.6777039766311646,0.8145784735679626,0.2479182779788971,-0.9362052083015442,0.2491123378276825,0.24127857387065887,0.6945210099220276,0.1191892921924591
1.2159714847840761,2.372629841244737,3.0093804023542887,0.11179725080728531,-0.3992196023464203,0.8213537931442261,0.24159736931324005,-0.9377073645591736,0.2496722936630249,0.2516278028488159,0.699044406414032,0.12720468640327454
1.2214947154578883,2.3862665377443597,2.99287883764231,-0.1315544992685318,0.05119650810956955,0.7596296072006226,0.23461635410785675,-0.9396119713783264,0.24916917085647583,0.2335996925830841,0.6845914721488953,0.12715858221054077
1.2283517381268345,2.3991980001679853,2.982849441500925,-0.42158764600753784,0.670687198638916,0.6740331649780273,0.2270130068063736,-0.9419366121292114,0.24742822349071503,0.2049480825662613,0.6532250046730042,0.12265859544277191
1.237087248489895,2.4113443022574845,2.9809908778137446,-0.8025451898574829,1.4241687059402466,0.5912595987319946,0.21849389374256134,-0.9448339343070984,0.2440277636051178,0.17196330428123474,0.6087437868118286,0.10666513442993164
1.248366676991962,2.421802601840463,2.989103313964165,-1.2338778972625732,2.207773447036743,0.5254461765289307,0.20889076590538025,-0.9484683275222778,0.2382703274488449,0.13365380465984344,0.5319338440895081,0.07584725320339203
1.2628863829170878,2.4312451684739504,3.006176600671126,-1.6570062637329102,2.9262542724609375,0.6080092787742615,0.19762961566448212,-0.9529690742492676,0.22976632416248322,0.13447794318199158,0.4472775459289551,0.04904244840145111
1.281896546877787,2.4425709464868626,3.0279481502885,-2.0780067443847656,3.487247943878174,0.9065365791320801,0.1833234280347824,-0.9585579037666321,0.21808187663555145,0.20600461959838867,0.39761412143707275,0.04708555340766907
1.3066835956190639,2.4576231883790753,3.049929171187674,-2.523622512817383,3.717372179031372,1.3499292135238647,0.16495302319526672,-0.9653245210647583,0.20233483612537384,0.24228882789611816,0.33786773681640625,0.04798579216003418
1.3382644980862337,2.4763012890965936,3.068556352649803,-2.9936094284057617,3.6099696159362793,1.8979004621505737,0.14224903285503387,-0.9730860590934753,0.18129706382751465,0.19298656284809113,0.2281826138496399,0.007561042904853821
1.3770467412094591,2.5028228859004944,3.076775606792035,-3.3849241733551025,3.2938637733459473,2.5471508502960205,0.11479434370994568,-0.9812892079353333,0.15457741916179657,0.11993163079023361,0.1215173602104187,-0.08421897888183594
1.4221661924332576,2.5525052013018814,3.057433420338468,-3.606369972229004,2.8260066509246826,3.1877617835998535,0.08227597922086716,-0.9889748692512512,0.12312435358762741,0.016509458422660828,0.05585402250289917,-0.22508347034454346
1.4706047738607566,2.6708236212655585,2.963962727297339,-3.5555412769317627,2.2846570014953613,3.695258617401123,0.04536847397685051,-0.994985044002533,0.08914416283369064,-0.16829326748847961,-0.030207335948944092,-0.4284842014312744
1.5147446646483993,3.0401526961788936,2.6135420892511485,-3.2250399589538574,1.6955723762512207,3.9656484127044678,0.005673189181834459,-0.998429536819458,0.05573461204767227,-0.3877990245819092,-0.159834623336792,-0.652856707572937
1.5269258027633337,-2.2224891246986225,1.6061560640905657,-2.535055160522461,1.152881383895874,4.0310587882995605,-0.03487237170338631,-0.9990378618240356,0.026603396981954575,-0.5793548822402954,-0.29329025745391846,-0.8168864250183105
1.4958379048168526,-1.6412781873055533,1.0331751326104683,-1.6412900686264038,0.6823526620864868,3.913804054260254,-0.07470250874757767,-0.9971919059753418,0.005273907445371151,-0.7054488658905029,-0.4080052375793457,-0.9206943511962891
1.4580060001356603,-1.5053686316890673,0.9014583588426576,-0.8419195413589478,0.2790279984474182,3.646592855453491,-0.112311951816082,-0.9936459064483643,-0.007358815521001816,-0.7802051305770874,-0.5352848768234253,-0.8983265161514282
1.4229654011828823,-1.4814506563448595,0.8786889728175791,-0.3397493064403534,0.010067379102110863,3.2999308109283447,-0.14670582115650177,-0.9890928864479065,-0.013142519630491734,-0.8029859662055969,-0.671170175075531,-0.7273664474487305
1.392161983097252,-1.4841703952588068,0.8811079043787758,-0.16665223240852356,-0.0497170090675354,2.8432815074920654,-0.1770205944776535,-0.9840872883796692,-0.01537304650992155,-0.8061184287071228,-0.8299998641014099,-0.476173460483551
1.3665002104396418,-1.484046076462943,0.8807273391183398,-0.3268682658672333,0.006201915442943573,2.264516830444336,-0.2021157592535019,-0.9792040586471558,-0.01757770963013172,-0.8253806233406067,-1.0547621250152588,-0.19929534196853638
1.3468086631376375,-1.4700986581368476,0.866582030206426,-0.6847835183143616,0.034133706241846085,1.630051851272583,-0.2209949940443039,-0.9750194549560547,-0.02232920378446579,-0.8499888777732849,-1.3882771730422974,0.05997276306152344
1.3325830918864967,-1.4348036086920923,0.830775130107715,-1.258808970451355,0.03642988204956055,1.0260770320892334,-0.23378869891166687,-0.971761167049408,-0.03199101984500885,-0.795065701007843,-1.5367991924285889,0.2588436007499695
1.3228714326777176,-1.3796357952583955,0.7739124376798636,-1.7520884275436401,-0.050630487501621246,0.47376203536987305,-0.24092347919940948,-0.9694237112998962,-0.04662436991930008,-0.721738338470459,-1.768445611000061,0.39461642503738403
1.315834205545125,-1.3085751209508047,0.6995903194500679,-2.162121057510376,-0.12511031329631805,0.0710926204919815,-0.2435876727104187,-0.9676728248596191,-0.06537926197052002,-0.6471289396286011,-1.9701628684997559,0.38253331184387207
1.310295557536025,-1.226186864841169,0.6128671932326242,-2.356142997741699,-0.16782017052173615,-0.3487156927585602,-0.24242204427719116,-0.9662611484527588,-0.08701293915510178,-0.6089420914649963,-2.0823230743408203,0.2672346234321594
1.3066114716649373,-1.1409424050473462,0.5225999315375386,-2.2311789989471436,-0.21757733821868896,-0.732384204864502,-0.237367182970047,-0.9653056859970093,-0.1088196188211441,-0.5996689200401306,-2.2887988090515137,0.09131791442632675
1.3049030565311055,-1.061104011574812,0.43730777314559,-1.8954521417617798,-0.28451254963874817,-0.9687802195549011,-0.22937162220478058,-0.9648581743240356,-0.12820838391780853,-0.47424161434173584,-2.338303565979004,-0.09295235574245453
1.3049063052074614,-0.9933372292864535,0.3635678065275524,-1.4114370346069336,-0.39984339475631714,-1.0235425233840942,-0.22016146779060364,-0.9648590087890625,-0.14344464242458344,-0.31964874267578125,-2.2761993408203125,-0.2273896336555481
1.3069648178045412,-0.9431689946095867,0.3065000993907325,-0.8148513436317444,-0.5918682217597961,-1.0055623054504395,-0.21108268201351166,-0.9653978943824768,-0.15313774347305298,-0.21715521812438965,-2.202204704284668,-0.33404475450515747
1.3114691715932238,-0.9140549629780963,0.2690110931883518,-0.2102605253458023,-0.83216792345047,-0.8693968653678894,-0.20308947563171387,-0.9665627479553223,-0.1565609872341156,-0.19073988497257233,-2.0936179161071777,-0.43709737062454224
1.3179708411123001,-0.9063038272630864,0.2510172010491077,0.27646902203559875,-1.1052888631820679,-0.7386079430580139,-0.1969182938337326,-0.9682095050811768,-0.15425173938274384,-0.1786004900932312,-1.9655826091766357,-0.4929344654083252
1.3268199966996015,-0.9158663224197912,0.2483564755449474,0.6971933245658875,-1.3069894313812256,-0.7622101902961731,-0.1915815770626068,-0.9703851342201233,-0.1471371203660965,-0.2203599363565445,-1.826962947845459,-0.47652000188827515
1.33854336186395,-0.937297617679131,0.25670031688135053,1.015487551689148,-1.3437528610229492,-0.8883228898048401,-0.1855085790157318,-0.9731503129005432,-0.13625365495681763,-0.2758867144584656,-1.612924575805664,-0.4355388283729553
1.3528568117923536,-0.9653982461588222,0.27182228575572775,1.1815577745437622,-1.3363157510757446,-1.0674651861190796,-0.17779159545898438,-0.9763450622558594,-0.12304794043302536,-0.2846565246582031,-1.3811379671096802,-0.36398202180862427
1.3695177878693487,-0.9939678598199955,0.28745086841099415,1.207531452178955,-1.31752347946167,-1.3544028997421265,-0.16757507622241974,-0.9798117876052856,-0.10903187841176987,-0.30140382051467896,-1.224427342414856,-0.2625195384025574
1.3886595376360504,-1.0161191165964032,0.29703549022280606,1.1542762517929077,-1.2285383939743042,-1.690120816230774,-0.153974711894989,-0.9834588766098022,-0.09539643675088882,-0.354997456073761,-1.1032415628433228,-0.19111768901348114
1.4101484092124106,-1.0261299247423519,0.2954525459897479,1.04356050491333,-1.086277723312378,-2.008823871612549,-0.13681256771087646,-0.9871238470077515,-0.08287975937128067,-0.38073503971099854,-0.9515817165374756,-0.1658841371536255
1.4336047419238658,-1.0168822311050194,0.27585833040176383,0.91190105676651,-0.9478146433830261,-2.301380157470703,-0.11631239950656891,-0.9906039834022522,-0.07193963974714279,-0.3715416193008423,-0.7943081855773926,-0.16209954023361206
1.458611510932419,-0.9772526577228989,0.2270425246067326,0.7879456281661987,-0.82404625415802,-2.563136339187622,-0.09280246496200562,-0.9937138557434082,-0.0626138374209404,-0.3600936532020569,-0.6623225212097168,-0.16332292556762695
1.484402446920564,-0.8843620600445198,0.12595381593861693,0.686913251876831,-0.7274113297462463,-2.769888401031494,-0.06674378365278244,-0.9962703585624695,-0.054687123745679855,-0.35098081827163696,-0.5484989285469055,-0.1703798770904541
1.5091488459658091,-0.6804483258696731,-0.08508591156154183,0.5869173407554626,-0.5943455100059509,-2.913074493408203,-0.03876185417175293,-0.9981003999710083,-0.04788942635059357,-0.33544468879699707,-0.44149017333984375,-0.19425219297409058
1.527600947750667,-0.2120830792709858,-0.5592235721145534,0.5407602787017822,-0.4304031431674957,-3.09063458442688,-0.009089721366763115,-0.9990672469139099,-0.04221472144126892,-0.34015342593193054,-0.36245930194854736,-0.23166513442993164
1.5275890251602826,0.5463112838528977,-1.3214037759893456,0.538260281085968,-0.19418583810329437,-3.2569007873535156,0.022441338747739792,-0.9990667104721069,-0.036907587200403214,-0.3462023138999939,-0.30575817823410034,-0.30372947454452515
1.507128888565323,1.0590575890153535,-1.8354810586448358,0.6277965903282166,0.06770621985197067,-3.3685600757598877,0.05547467991709709,-0.9979739189147949,-0.031157005578279495,-0.3001188337802887,-0.20261818170547485,-0.37078994512557983
1.4783046463503835,1.308518518291357,-2.083726089645192,0.7972313761711121,0.32039570808410645,-3.3866689205169678,0.08920256048440933,-0.995725691318512,-0.023947499692440033,-0.25036588311195374,-0.08203321695327759,-0.4320460557937622
1.4470659124821827,1.4526307379650225,-2.2243391774583974,1.0103095769882202,0.53665691614151,-3.3123815059661865,0.12255571037530899,-0.9923551678657532,-0.014549650251865387,-0.198819100856781,0.019576728343963623,-0.46903181076049805
1.4155073772979472,1.5546337788928368,-2.3212564110020786,1.2621408700942993,0.6531535387039185,-3.163790225982666,0.15464647114276886,-0.9879668951034546,-0.0024996986612677574,-0.15791183710098267,0.07796311378479004,-0.4808833599090576
1.3846434927259794,1.6370279505633416,-2.398275850222662,1.5181753635406494,0.6315651535987854,-2.9410910606384277,0.18467466533184052,-0.9827235341072083,0.012249219231307507,-0.13180294632911682,0.1225702166557312,-0.4748650789260864
1.3551670355034968,1.7084863414125582,-2.465415873473751,1.7548964023590088,0.49314987659454346,-2.6521754264831543,0.21193741261959076,-0.976841926574707,0.029367489740252495,-0.11235855519771576,0.17426013946533203,-0.45916175842285156
1.3276195454420814,1.772951066591912,-2.527626361190203,1.9688645601272583,0.278516948223114,-2.3015270233154297,0.23588404059410095,-0.9705779552459717,0.04834544658660889,-0.08997948467731476,0.22797846794128418,-0.44218993186950684
1.3023903202708915,1.8329024110783454,-2.5879713479290705,2.169234275817871,0.035650305449962616,-1.9130208492279053,0.25613823533058167,-0.9641948342323303,0.06871623545885086,-0.05789598822593689,0.28043311834335327,-0.4209195375442505
1.2794837846559974,1.8899261910255776,-2.648142784498646,2.339775323867798,-0.19542072713375092,-1.527060627937317,0.2727086842060089,-0.9578677415847778,0.09010948985815048,-0.03252005577087402,0.3332185745239258,-0.38266611099243164
1.2588070370371818,1.9451547045965072,-2.70925880803606,2.486574411392212,-0.42879241704940796,-1.1305005550384521,0.2856942415237427,-0.9517248272895813,0.11224519461393356,-0.011570066213607788,0.395953893661499,-0.3390669822692871
1.240340103617058,1.9988407056622273,-2.771506607184583,2.5710906982421875,-0.6464784145355225,-0.7375913262367249,0.2952004671096802,-0.9458944201469421,0.13468703627586365,0.010631442070007324,0.47184956073760986,-0.297513484954834
1.2240145520323757,2.0497428620098668,-2.833276245849026,2.546654462814331,-0.824558675289154,-0.41092488169670105,0.30163097381591797,-0.940471351146698,0.15662869811058044,0.01784232258796692,0.5396991968154907,-0.24310016632080078
1.2093761906975138,2.0959486037862063,-2.8920820449077236,2.4378304481506348,-0.9631040096282959,-0.2073129117488861,0.30595436692237854,-0.9353955984115601,0.17727713286876678,-0.005630850791931152,0.5824902653694153,-0.17683446407318115
1.1957993399143285,2.1359243903452576,-2.94570078549701,2.279057502746582,-1.0422254800796509,-0.1284501999616623,0.3093225657939911,-0.9305087327957153,0.19614651799201965,-0.0446740984916687,0.6062898635864258,-0.12064588069915771
1.1826522923068794,2.1691980601923477,-2.992861242902032,2.113186836242676,-1.0536906719207764,-0.15149107575416565,0.31270745396614075,-0.9256131052970886,0.21320176124572754,-0.08353561162948608,0.621917188167572,-0.0830746591091156
1.1695143339175462,2.196020598349784,-3.0329792848492776,1.9288251399993896,-0.9806398749351501,-0.23469525575637817,0.31671035289764404,-0.9205610156059265,0.2286096215248108,-0.11933788657188416,0.647733747959137,-0.06918561458587646
1.1563398077327063,2.216954719813054,-3.0656207380295504,1.7266329526901245,-0.8186262249946594,-0.3515622317790985,0.3215109407901764,-0.9153352975845337,0.24247080087661743,-0.1422506868839264,0.6936098337173462,-0.0775078684091568
1.143254360794257,2.2328040335362176,-3.090553658610319,1.4862464666366577,-0.550208568572998,-0.4874855577945709,0.32704800367355347,-0.9099876880645752,0.25487732887268066,-0.1521669328212738,0.7435446381568909,-0.10076341032981873
1.130586132538459,2.2444367487897416,-3.107463290306553,1.2008432149887085,-0.18715952336788177,-0.6191322803497314,0.3330443501472473,-0.9046621322631836,0.26583489775657654,-0.15009140968322754,0.780302882194519,-0.11729037761688232
1.1188548212699256,2.2526803479594086,-3.1167098700149234,0.8962439298629761,0.1593916267156601,-0.7057929039001465,0.3390585780143738,-0.8996009230613708,0.2752417325973511,-0.144631028175354,0.7890660762786865,-0.10928699374198914
1.1084915546049467,2.2580966582993796,-3.1194281941886772,0.6084707379341125,0.42623528838157654,-0.7514203190803528,0.3447505831718445,-0.8950269222259521,0.28297388553619385,-0.1540156602859497,0.7712780833244324,-0.0985865592956543
1.0995146225829822,2.2608767395226397,-3.1165983166564315,0.3506241738796234,0.6326634287834167,-0.7995105385780334,0.35014450550079346,-0.8909870982170105,0.28903424739837646,-0.18339648842811584,0.7504537105560303,-0.10504370927810669
1.091673399896521,2.2614599285742307,-3.1091624512725677,0.13174670934677124,0.8029547333717346,-0.844373345375061,0.35535064339637756,-0.8873996138572693,0.2936803698539734,-0.22064602375030518,0.7501009702682495,-0.13646891713142395
1.0847697229629572,2.260384844634103,-3.09823978594281,-0.024661347270011902,0.9130052924156189,-0.8702203035354614,0.360384076833725,-0.884195864200592,0.29718875885009766,-0.2507953941822052,0.7693428993225098,-0.1782768964767456
1.0785380311481585,2.258371823939904,-3.085374598296043,-0.10544833540916443,0.9530131220817566,-0.8621351718902588,0.3652326762676239,-0.881267786026001,0.29995399713516235,-0.271162211894989,0.7782556414604187,-0.21868550777435303
1.0727885805192336,2.256248169628867,-3.0723015677241388,-0.11922165006399155,0.9204903244972229,-0.8140202164649963,0.3697851598262787,-0.8785359859466553,0.30238011479377747,-0.2839544415473938,0.7846638560295105,-0.2564815580844879
1.0674657642578838,2.2545196696389054,-3.0603203168221396,-0.09308032691478729,0.8293988108634949,-0.7397326827049255,0.3739273250102997,-0.8759809136390686,0.30469024181365967,-0.2835037112236023,0.7973217964172363,-0.2882716655731201
1.0625484051093301,2.253206966000918,-3.0501543871944925,-0.049007169902324677,0.6856805086135864,-0.6504572033882141,0.377665251493454,-0.8735985159873962,0.30691200494766235,-0.2775522768497467,0.8063986897468567,-0.305599570274353
1.0580780984711133,2.2521543556124506,-3.042047772250927,-0.000593832228332758,0.5203759670257568,-0.5462969541549683,0.38101765513420105,-0.871414303779602,0.30897101759910583,-0.2761286795139313,0.8099518418312073,-0.3091844320297241
1.0541643081532222,2.251322539169794,-3.0361009093319975,0.035922762006521225,0.35167333483695984,-0.43105459213256836,0.3839223086833954,-0.8694877624511719,0.31079742312431335,-0.2780109941959381,0.8055227994918823,-0.3049074411392212
1.050978076189011,2.2506955131329844,-3.0322605211369655,0.07131537795066833,0.19217342138290405,-0.30276691913604736,0.3862696588039398,-0.8679094910621643,0.31229695677757263,-0.27384278178215027,0.8003433346748352,-0.2965955436229706
1.0485812138340198,2.25066236230146,-3.0308178719603576,0.12342055886983871,0.0563550665974617,-0.15833328664302826,0.3878965675830841,-0.8667163848876953,0.31359103322029114,-0.25686928629875183,0.7975329756736755,-0.2873305082321167
1.0468893503786827,2.252070242894956,-3.0323240255270956,0.2167004495859146,-0.030049331486225128,-0.011408013291656971,0.38859325647354126,-0.865871250629425,0.31505995988845825,-0.2396063208580017,0.7927814722061157,-0.27602776885032654
1.0455681533034307,2.2558935993036973,-3.037444415767308,0.36064034700393677,-0.0882638692855835,0.127012699842453,0.3882710635662079,-0.8652095794677734,0.3172667324542999,-0.2359272837638855,0.7890986800193787,-0.2702848017215729
1.0442153232640157,2.2627948349329032,-3.0466942376262893,0.5430186986923218,-0.13156181573867798,0.24889227747917175,0.38697338104248047,-0.8645304441452026,0.32068541646003723,-0.2370709776878357,0.7932565212249756,-0.2722996473312378
1.042485095696473,2.27319694162548,-3.060541906568368,0.7697177529335022,-0.18112307786941528,0.37231820821762085,0.3847575783729553,-0.8636595606803894,0.32565897703170776,-0.23503834009170532,0.813183605670929,-0.2738247513771057
1.039942245239391,2.2873428836381886,-3.079406272068039,1.0129168033599854,-0.24915805459022522,0.4795895218849182,0.38176771998405457,-0.8623749613761902,0.33251065015792847,-0.2209705114364624,0.8426756858825684,-0.26798102259635925
1.0363270596556926,2.3044842148135367,-3.1027029261304944,1.237328052520752,-0.3458525538444519,0.5423148274421692,0.37832531332969666,-0.8605390787124634,0.3410909175872803,-0.2178790271282196,0.864201009273529,-0.2503466308116913
1.031486649314756,2.3228895531547167,-3.1287882572701204,1.3798069953918457,-0.4574853479862213,0.5428056716918945,0.3750210702419281,-0.8580633997917175,0.35083743929862976,-0.23715779185295105,0.8684391975402832,-0.21762797236442566
1.0256042076133682,2.3405951552665543,3.1278249971977394,1.4122377634048462,-0.5502806901931763,0.49124693870544434,0.3723687529563904,-0.8550276756286621,0.36092886328697205,-0.2621696889400482,0.8675702214241028,-0.17170450091362
1.0191499290321613,2.356003459349776,3.103071203738796,1.3237839937210083,-0.58279949426651,0.39432570338249207,0.37065884470939636,-0.851662814617157,0.3705172538757324,-0.2677534818649292,0.8786401748657227,-0.11549696326255798
1.0127583936013602,2.3681930035728995,3.082100590173058,1.1309677362442017,-0.5396348237991333,0.2794947624206543,0.3699101507663727,-0.8482956886291504,0.3788951337337494,-0.2401951253414154,0.8905165791511536,-0.05255526304244995
1.0071071373022313,2.376817838067451,3.0659927377552143,0.8715611100196838,-0.45755672454833984,0.16897836327552795,0.36994171142578125,-0.8452897071838379,0.3855241537094116,-0.19445031881332397,0.8746626973152161,0.016926586627960205
1.0026449268417765,2.382271683758097,3.0549850683609128,0.5895925164222717,-0.30180442333221436,0.0715947225689888,0.37042632699012756,-0.8428971171379089,0.39026758074760437,-0.13545623421669006,0.8236253261566162,0.08911782503128052
0.9997321457728195,2.3855805177118166,3.0486439659029827,0.3091302216053009,-0.10436590760946274,0.0376623272895813,0.3708159327507019,-0.8413262367248535,0.39327600598335266,-0.06074202060699463,0.7426628470420837,0.16048085689544678
0.9988658066405951,2.387813216460886,3.0457208407525185,0.03872457519173622,0.04325949773192406,0.08101043105125427,0.3704354763031006,-0.8408576250076294,0.39463403820991516,0.021990090608596802,0.6710578799247742,0.2106059193611145
1.0003936360973689,2.389019677460266,3.0451947022675268,-0.22287267446517944,0.10175449401140213,0.177381694316864,0.36908090114593506,-0.8416836261749268,0.39414286613464355,0.0806872546672821,0.6453790664672852,0.22820228338241577
1.00435763430511,2.3898245087051873,3.045133193164456,-0.3902537226676941,0.09023097902536392,0.35165655612945557,0.36648207902908325,-0.843817412853241,0.3919994533061981,0.11941885948181152,0.6677918434143066,0.20024019479751587
1.0109115343582769,2.3906245508216464,3.046106797032104,-0.6331806182861328,0.23551121354103088,0.4768267273902893,0.3623867332935333,-0.847316324710846,0.38824111223220825,0.12619972229003906,0.6985888481140137,0.1492041051387787
1.0200222216018935,2.392057964999361,3.0477485686440944,-0.8033555746078491,0.31979092955589294,0.6434263586997986,0.3565555214881897,-0.8521196246147156,0.3830932676792145,0.1277126967906952,0.7365648150444031,0.11957713961601257
1.0310336119046042,2.3948189140846634,3.0485613353863794,-0.8610635995864868,0.3673749566078186,0.7918989062309265,0.34910133481025696,-0.8578306436538696,0.3771669864654541,0.12953639030456543,0.7366759181022644,0.10429364442825317
1.0430546134979783,2.399170772678414,3.047746080901435,-0.8447125554084778,0.3507970869541168,0.8971388936042786,0.34046024084091187,-0.8639464974403381,0.3710574805736542,0.12024840712547302,0.6906371116638184,0.10773301124572754
1.055461832650019,2.4046789630182546,3.0449461037241625,-0.8050380945205688,0.2582367956638336,0.9871819615364075,0.33118218183517456,-0.8701279163360596,0.36496078968048096,0.1269020438194275,0.6474409103393555,0.13581761717796326
1.0683100116183244,2.4109029074599935,3.040051207952617,-0.7927275896072388,0.12785696983337402,1.0920361280441284,0.32141610980033875,-0.8763878345489502,0.35865911841392517,0.14538079500198364,0.6374809145927429,0.15981948375701904
1.0819101247068827,2.417715116414621,3.0329675628641204,-0.7912535071372986,-0.005107739474624395,1.2317564487457275,0.3110426068305969,-0.8828564882278442,0.3518773913383484,0.15961483120918274,0.6564005017280579,0.1564999520778656
1.0964884069660712,2.426300422400309,3.022794727048221,-0.7861080169677734,-0.0692659541964531,1.4054073095321655,0.2995367646217346,-0.8896090388298035,0.34478142857551575,0.16776373982429504,0.6874451041221619,0.12117639183998108
1.1120885210567988,2.4376066106199517,3.0093113814328714,-0.8034590482711792,-0.06772025674581528,1.551214575767517,0.28660112619400024,-0.8966253995895386,0.3375251293182373,0.14589408040046692,0.7151677012443542,0.06861832737922668
1.128648181477403,2.4515892179575207,2.9934933072457275,-0.8579221367835999,0.03750248998403549,1.6276073455810547,0.2723643183708191,-0.9038345813751221,0.3300018310546875,0.09493005275726318,0.7460432648658752,0.011276394128799438
1.145790652431531,2.468325510660943,2.976958280676109,-0.9313039183616638,0.3375949263572693,1.6055030822753906,0.25710368156433105,-0.9110363721847534,0.3223523795604706,0.02905973792076111,0.7626902461051941,-0.05239364504814148
1.162859820432463,2.4881814348227165,2.96143133395984,-0.9907384514808655,0.8091238737106323,1.4809446334838867,0.24116361141204834,-0.9179413914680481,0.3149990737438202,-0.029341012239456177,0.7301359176635742,-0.09280028939247131
1.179472594615727,2.51059842949387,2.948751592058463,-1.088117241859436,1.3460017442703247,1.3035975694656372,0.22501371800899506,-0.9244049787521362,0.3079685568809509,-0.061241090297698975,0.6515167355537415,-0.0850985050201416
1.196030002884431,2.534714786602235,2.9401901511971693,-1.2562744617462158,1.8959312438964844,1.156040906906128,0.2087634950876236,-0.9305931925773621,0.3006899058818817,-0.052009910345077515,0.5404868721961975,-0.03300487995147705
1.2137666241835579,2.5599413701177185,2.9362288000745194,-1.551906943321228,2.408010959625244,1.0780011415481567,0.1920132040977478,-0.9369390606880188,0.2920214831829071,-0.033794790506362915,0.41852158308029175,0.03108346462249756
1.23442966295616,2.5838563339070215,2.9382671704192624,-2.0309576988220215,2.728469133377075,1.043740153312683,0.1746901124715805,-0.9439601302146912,0.2800416052341461,-0.06984691321849823,0.31453484296798706,0.09340217709541321
1.2597711772010871,2.6015978421278736,2.948192662176329,-2.6478090286254883,2.6660821437835693,1.0723669528961182,0.15734270215034485,-0.9520203471183777,0.262490451335907,-0.14586803317070007,0.23235458135604858,0.13097289204597473
1.2911640530278494,2.6076616003733126,2.9678405584187106,-3.34964656829834,2.288111448287964,1.1657534837722778,0.1404634565114975,-0.9611570239067078,0.23758646845817566,-0.21506367623806,0.14569681882858276,0.10173866152763367
1.3289318420095773,2.596739234802285,3.0001038965302342,-3.984928846359253,1.7658897638320923,1.2914003133773804,0.12413810193538666,-0.9708930850028992,0.20483271777629852,-0.28716298937797546,0.03096693754196167,0.0007185637950897217
1.3717129197412716,2.563466910299183,3.049492002101539,-4.392923355102539,1.2311440706253052,1.4413493871688843,0.10807330161333084,-0.9802482724189758,0.16563136875629425,-0.35956865549087524,-0.12685322761535645,-0.13702096045017242
1.4171999768791275,2.5016571245963455,3.122285958357571,-4.514423370361328,0.7589049339294434,1.6878236532211304,0.09135967493057251,-0.9882272481918335,0.1227220892906189,-0.3610587418079376,-0.29755473136901855,-0.2853044271469116
1.463634300122144,2.398508801181335,-3.050923797104788,-4.4574480056762695,0.45118269324302673,2.0389468669891357,0.07236364483833313,-0.9942636489868164,0.07876225560903549,-0.28729891777038574,-0.41448885202407837,-0.4302026033401489
1.5091820900446733,2.193546336354258,-2.8413870171081577,-4.1772847175598145,0.3509194552898407,2.409297466278076,0.05001574382185936,-0.9981024265289307,0.035914745181798935,-0.22919970750808716,-0.4881035089492798,-0.5370438098907471
1.546081532618203,1.4343763468693356,-2.0780255364548084,-3.7150232791900635,0.38932010531425476,2.675801992416382,0.024488428607583046,-0.9996945858001709,-0.003361590439453721,-0.2209605872631073,-0.5744784474372864,-0.6245527267456055
1.5329128352689765,-0.0666087349307227,-0.5726626546555967,-3.198103666305542,0.37074801325798035,2.7305490970611572,-0.0025211027823388577,-0.9992824792861938,-0.037793442606925964,-0.2808498740196228,-0.7345280051231384,-0.6523767709732056
1.4973118402438275,-0.40990211756544215,-0.22634657380346304,-2.7377078533172607,0.10751673579216003,2.6500742435455322,-0.029259169474244118,-0.9973012208938599,-0.06733756512403488,-0.35962632298469543,-0.9468516707420349,-0.6042168736457825
1.4629426270898707,-0.535087579490227,-0.1014760318963019,-2.364781618118286,-0.265500009059906,2.4876952171325684,-0.05489042028784752,-0.994189441204071,-0.09259960800409317,-0.4142105281352997,-1.1706514358520508,-0.5329648852348328
1.4315524666946167,-0.604605389172621,-0.035597397343295825,-2.058051347732544,-0.556691586971283,2.255629062652588,-0.07889673858880997,-0.9903212189674377,-0.11419098824262619,-0.465781033039093,-1.4407856464385986,-0.49974626302719116
1.4038680638028418,-0.6516924589943746,0.005022904284379187,-1.7153793573379517,-0.8169732689857483,2.0159642696380615,-0.10077843070030212,-0.9860997796058655,-0.1321028769016266,-0.486181378364563,-1.7473444938659668,-0.49007415771484375
1.3801895290083837,-0.6904375996934631,0.035176992085197735,-1.3334892988204956,-0.9897076487541199,1.757915735244751,-0.12065930664539337,-0.9818894267082214,-0.146063894033432,-0.3746257722377777,-1.7658370733261108,-0.47689133882522583
1.3609090371493429,-0.7229939959766996,0.05799374197714594,-1.0148849487304688,-1.0207135677337646,1.4492961168289185,-0.13785088062286377,-0.978054404258728,-0.15622639656066895,-0.30735480785369873,-1.9617191553115845,-0.4110953211784363
