attitudeX,attitudeY,attitudeZ,gyroX,gyroY,gyroZ,gravityX,gravityY,gravityZ,accX,accY,accZ
1.1938734395983432,-0.49327969302524005,-0.46447363861848345,-0.17992641031742096,-0.07524578273296356,-1.3104373216629028,-0.17428332567214966,-0.9298015832901001,-0.3241827189922333,0.16265608370304108,0.3242260217666626,-0.1274011731147766
1.1987756230668702,-0.471885984199984,-0.49065362891772135,0.16118164360523224,-0.5303696393966675,-0.8400912880897522,-0.16523434221744537,-0.931594729423523,-0.3237725496292114,0.18671868741512299,0.3131561279296875,-0.06898871064186096
1.2045620574774771,-0.46783342216251944,-0.503256625192734,0.44380736351013184,-0.9896993637084961,-0.5133514404296875,-0.16148725152015686,-0.9336825013160706,-0.3196227550506592,0.09222756326198578,0.2993595004081726,-0.002673417329788208
1.2112080167226495,-0.47543634068506263,-0.5073032586414563,0.5857357382774353,-1.2326393127441406,-0.3600277006626129,-0.161068856716156,-0.9360417723655701,-0.31286197900772095,-0.03061211109161377,0.27831172943115234,0.04507023096084595
1.218038654727394,-0.48634879254362623,-0.5084948946024553,0.5663474202156067,-1.124901533126831,-0.3605182468891144,-0.16148097813129425,-0.9384235143661499,-0.30542606115341187,-0.10986611247062683,0.24166148900985718,0.05547186732292175
1.2244170045962501,-0.4920240088849987,-0.5124366604826354,0.4132547676563263,-0.7204930186271667,-0.48507294058799744,-0.16038082540035248,-0.9406080842018127,-0.2992230951786041,-0.1487927883863449,0.17614275217056274,0.035398662090301514
1.2298213388598738,-0.48672231281800427,-0.5231714319608183,0.19354692101478577,-0.24490146338939667,-0.659220814704895,-0.1564123034477234,-0.9424290657043457,-0.2955719232559204,-0.1562098264694214,0.1057744026184082,0.017602503299713135
1.234021560831639,-0.4697389482075629,-0.5417069699153764,-0.007395234890282154,0.12624011933803558,-0.8079679608345032,-0.14957697689533234,-0.9438253045082092,-0.29465311765670776,-0.14304086565971375,0.050987839698791504,0.007116496562957764
1.2371737257108844,-0.44434459864324166,-0.5660043468466941,-0.11815615743398666,0.3323216140270233,-0.8875315189361572,-0.1407674252986908,-0.9448622465133667,-0.29566842317581177,-0.12284348905086517,0.046562135219573975,0.006193876266479492
1.2397838428263075,-0.4159597356489428,-0.5924957415843521,-0.11014989763498306,0.3004739284515381,-0.8894692659378052,-0.13132242858409882,-0.9457137584686279,-0.29728764295578003,-0.11004114151000977,0.08345484733581543,0.032715439796447754
1.2427438105564852,-0.3901773089081155,-0.6181537992264936,0.018217144533991814,-0.0360218770802021,-0.8665823340415955,-0.12254954129457474,-0.9466716051101685,-0.29798397421836853,-0.10393670946359634,0.11932486295700073,0.07592281699180603
1.2469265275092734,-0.37074125700115707,-0.6417772295999624,0.1993701457977295,-0.5601903200149536,-0.8450070023536682,-0.11529955267906189,-0.9480109810829163,-0.2966163158416748,-0.09948320686817169,0.11909258365631104,0.11932438611984253
1.2523923614771453,-0.3580920507001473,-0.6639133990113809,0.3060222268104553,-1.087828278541565,-0.8406087160110474,-0.10972069948911667,-0.9497362971305847,-0.2931935489177704,-0.0785270482301712,0.10316342115402222,0.1744343638420105
1.2581695497036427,-0.35074593408501514,-0.6855984934182553,0.28997641801834106,-1.5623657703399658,-0.8111879825592041,-0.10567676275968552,-0.9515289664268494,-0.28883370757102966,-0.015600144863128662,0.10236215591430664,0.24479681253433228
1.262906805428099,-0.3487385643870908,-0.7063768706702961,0.15121929347515106,-1.951901912689209,-0.680507481098175,-0.10355526953935623,-0.9529752731323242,-0.2848057448863983,0.07412102073431015,0.110598623752594,0.3065190017223358
1.265160496458497,-0.3531603291586553,-0.7229746872601531,-0.09010517597198486,-2.0246145725250244,-0.3970017433166504,-0.1040705144405365,-0.9536558389663696,-0.2823292016983032,0.18585756421089172,0.0826994776725769,0.29105719923973083
1.263415291765562,-0.36164562088514507,-0.7332874963692002,-0.46078523993492126,-1.562811255455017,-0.06770161539316177,-0.10705111175775528,-0.953129231929779,-0.28299227356910706,0.1901046633720398,-0.004985332489013672,0.26103493571281433
1.2569944494655194,-0.36716982261206416,-0.7399319985638796,-0.8696800470352173,-0.7928247451782227,0.1238933876156807,-0.11080750823020935,-0.9511668682098389,-0.2881029546260834,0.10253718495368958,-0.07152289152145386,0.225328266620636
1.2468401655585348,-0.36464681214993167,-0.747594377365615,-1.1745579242706299,-0.20330236852169037,0.13259819149971008,-0.11351881921291351,-0.9479835033416748,-0.2973897457122803,-0.033759064972400665,-0.06991499662399292,0.17769977450370789
1.2348202183438233,-0.35448360366129694,-0.7590633327229382,-1.3044637441635132,0.0377587154507637,0.002247908152639866,-0.11443764716386795,-0.9440889358520508,-0.309192419052124,-0.18025536835193634,-0.06022918224334717,0.1393010914325714
1.2231535541175185,-0.33818885535072696,-0.7753600690234425,-1.2252992391586304,0.1368165910243988,-0.24965111911296844,-0.1130312979221344,-0.940178394317627,-0.3213851749897003,-0.2803250551223755,-0.04407447576522827,0.12932279706001282
1.2141627553081695,-0.31670912785278443,-0.7969792201391552,-0.9212930202484131,0.07022851705551147,-0.5895634293556213,-0.10873078554868698,-0.9370774030685425,-0.33175814151763916,-0.3000980019569397,-0.037318289279937744,0.13116613030433655
1.2096868291847698,-0.2924804710396568,-0.8237059071080473,-0.48610782623291016,-0.258146733045578,-0.9168716073036194,-0.10186992585659027,-0.9355053901672363,-0.3383077383041382,-0.233136847615242,-0.047313153743743896,0.15485131740570068
1.209824303764855,-0.2697213050852208,-0.8536873420712643,-0.08559209108352661,-0.8127127289772034,-1.0918519496917725,-0.09411029517650604,-0.9355539679527283,-0.3404143154621124,-0.08232712000608444,-0.06267589330673218,0.18698719143867493
1.2130864873522467,-0.2532428864915602,-0.8829527279214101,0.15963639318943024,-1.3425418138504028,-1.0311421155929565,-0.08772313594818115,-0.9367011189460754,-0.33896228671073914,0.12817412614822388,-0.08394378423690796,0.20447111129760742
1.2171925175302887,-0.24540240236202643,-0.907232792870968,0.1895146667957306,-1.5840489864349365,-0.7882182002067566,-0.08412784337997437,-0.9381308555603027,-0.33590638637542725,0.2747252881526947,-0.10834747552871704,0.24368223547935486
1.2198378244537935,-0.24442354436202673,-0.9246592258849053,0.006909819319844246,-1.4392884969711304,-0.5078328847885132,-0.08319815993309021,-0.9390436410903931,-0.33357954025268555,0.26415207982063293,-0.1464056372642517,0.27797645330429077
1.2195807737452566,-0.2451221923175486,-0.9372205609746945,-0.2619498670101166,-1.030213713645935,-0.3342731297016144,-0.08348971605300903,-0.9389551877975464,-0.3337552845478058,0.09551360458135605,-0.20777326822280884,0.2576597034931183
1.2169288510928438,-0.24229950735446695,-0.9483103872000644,-0.4059533476829529,-0.465981662273407,-0.2887337803840637,-0.08314450830221176,-0.9380395412445068,-0.3364059329032898,-0.08664008975028992,-0.22469544410705566,0.1572982668876648
1.2137977961139381,-0.23399140586362518,-0.9592263744764111,-0.3562915027141571,0.05550655722618103,-0.3088046908378601,-0.0810273066163063,-0.9369499683380127,-0.3399401605129242,-0.18307188153266907,-0.1679847240447998,0.05214416980743408
1.2119343482299818,-0.22191066663829595,-0.970129389876634,-0.15856695175170898,0.268705815076828,-0.3493559956550598,-0.07729897648096085,-0.9362971186637878,-0.3425970673561096,-0.17291471362113953,-0.08068603277206421,0.012961655855178833
1.2126109156717741,-0.21051532252066057,-0.979789254197861,0.15625250339508057,0.16183766722679138,-0.3063352704048157,-0.07325755804777145,-0.9365345239639282,-0.3428357243537903,-0.05674738436937332,-0.006840050220489502,0.012009888887405396
1.2163890828873205,-0.20793187092323434,-0.9831827813436368,0.5347551107406616,-0.3358957767486572,-0.0716404840350151,-0.07164070010185242,-0.9378523826599121,-0.3395594656467438,0.15147463977336884,-0.03762674331665039,0.09847056865692139
1.223413205896341,-0.21996700814881426,-0.9781853409447265,0.8958046436309814,-1.1437422037124634,0.08139460533857346,-0.07428276538848877,-0.9402667880058289,-0.33223533630371094,0.235751211643219,-0.11768597364425659,0.17281147837638855
1.2334292650603509,-0.24389065824333503,-0.9691585689374845,1.1747066974639893,-1.9024152755737305,0.03371037542819977,-0.07993069291114807,-0.9436294436454773,-0.3212076425552368,0.12813317775726318,-0.06633442640304565,0.2401529848575592
1.2458830345398146,-0.2751362335199828,-0.9592912531900419,1.3817133903503418,-2.4297678470611572,-0.04805053025484085,-0.08672685921192169,-0.9476783871650696,-0.30721989274024963,0.06490674614906311,-0.013091206550598145,0.23837220668792725
1.2600369277366843,-0.310971372914375,-0.9480749849326314,1.5104150772094727,-2.524141550064087,-0.09793654084205627,-0.09356411546468735,-0.9521016478538513,-0.29111525416374207,0.10578636080026627,-0.031113624572753906,0.16890761256217957
1.2750259068318048,-0.34668216655627604,-0.9355884699078941,1.5434595346450806,-2.1845407485961914,-0.1719742864370346,-0.09903787821531296,-0.9565778374671936,-0.2741357684135437,0.12163609266281128,-0.041377484798431396,0.1253625750541687
1.2898847427957398,-0.3771604094569317,-0.9242737746694448,1.4330213069915771,-1.7357897758483887,-0.28260764479637146,-0.10209948569536209,-0.9608030915260315,-0.2577463686466217,0.09674358367919922,0.03454875946044922,0.1612040102481842
1.303346021065451,-0.399182781602191,-0.9179551043186788,1.1622636318206787,-1.4916361570358276,-0.4206153154373169,-0.10271376371383667,-0.9644478559494019,-0.24349549412727356,0.08380807936191559,0.1413583755493164,0.26896247267723083
1.3142929416890685,-0.4128846884503153,-0.9206790836054093,0.7803745865821838,-1.8457788228988647,-0.5719314813613892,-0.1017979085445404,-0.9672829508781433,-0.23238076269626617,0.09537390619516373,0.23740935325622559,0.395039439201355
1.3222618065810288,-0.42266268800108875,-0.93515419348334,0.38743582367897034,-2.9704604148864746,-0.7335086464881897,-0.10090018808841705,-0.9692739248275757,-0.22433727979660034,0.08590073883533478,0.30765289068222046,0.5182673335075378
1.3276843275641057,-0.43377764579972017,-0.9622275600029377,0.06319236010313034,-4.496100425720215,-0.9115373492240906,-0.10117693990468979,-0.9705935716629028,-0.2184297889471054,0.10860789567232132,0.3807039260864258,0.5792238712310791
1.331700577147391,-0.44759525559803615,-1.001657642973717,-0.12090902775526047,-5.841948509216309,-1.128652572631836,-0.10249737650156021,-0.9715524911880493,-0.21349500119686127,0.15663549304008484,0.5121104121208191,0.5419098734855652
1.3357024463831777,-0.4624990037241902,-1.0507766672986296,-0.14833061397075653,-6.547305107116699,-1.2664670944213867,-0.103932224214077,-0.9724924564361572,-0.2084627002477646,0.16794276237487793,0.6854745745658875,0.4412202537059784
1.3404264525153293,-0.479640067191564,-1.1006674441058866,-0.057195380330085754,-6.477640151977539,-1.1713107824325562,-0.10536869615316391,-0.9735820293426514,-0.20257233083248138,0.23363402485847473,0.7806956768035889,0.21125459671020508
1.3446308248067278,-0.5027293898042763,-1.1419060646290504,-0.1069885790348053,-6.109574317932129,-0.8374784588813782,-0.10804442316293716,-0.9745334386825562,-0.1964973658323288,0.2878234088420868,0.7908938527107239,0.09517902135848999
1.3457280752739902,-0.533128562887969,-1.1714630889048474,-0.3808198571205139,-5.708986759185791,-0.4117569923400879,-0.11342344433069229,-0.9747788906097412,-0.1922016441822052,0.2962847054004669,0.8123184442520142,0.1889362633228302
1.341788655853896,-0.5671264911735916,-1.1939805673980302,-0.8336780667304993,-5.452509880065918,-0.04773738235235214,-0.12195262312889099,-0.9738921523094177,-0.1914718598127365,0.24962285161018372,0.869140625,0.3237197995185852
1.3320209017197804,-0.5965891679182412,-1.217908379378726,-1.405648112297058,-5.023380756378174,0.1777532696723938,-0.1328788548707962,-0.9716283082962036,-0.1956571787595749,0.19609595835208893,0.9154301881790161,0.5080809593200684
1.3168710902794916,-0.6133427611571122,-1.2498255274448902,-1.9455792903900146,-4.514909744262695,0.25177860260009766,-0.1445949822664261,-0.9679338335990906,-0.20541797578334808,0.1446864753961563,0.9654771089553833,0.6991313695907593
1.2978216650956917,-0.620331400655495,-1.2894994957056367,-2.3211066722869873,-4.625931739807129,0.2601398527622223,-0.15671806037425995,-0.9629731774330139,-0.21936729550361633,0.12311817705631256,0.9720979928970337,0.7520211338996887
1.2765316330716006,-0.6286566412354969,-1.3331993770563453,-2.5249814987182617,-5.461430549621582,0.2405836433172226,-0.17055848240852356,-0.9570156931877136,-0.23458677530288696,0.09528683125972748,0.8894954919815063,0.6512585878372192
1.2546436577018742,-0.6465857564929659,-1.3770139073650054,-2.514301300048828,-6.39889669418335,0.25782307982444763,-0.1873134821653366,-0.9504386186599731,-0.24815288186073303,0.024685248732566833,0.8076775074005127,0.4399406611919403
1.2335265838774152,-0.6761388523025117,-1.4147977357884445,-2.258512496948242,-6.4509501457214355,0.44490519165992737,-0.2070799171924591,-0.943661630153656,-0.2581093907356262,0.03319072723388672,0.7308474183082581,0.1256326138973236
1.2140160094792767,-0.7136555622569494,-1.4379511581993534,-1.7021229267120361,-5.3050971031188965,0.8708000183105469,-0.22862540185451508,-0.9370262026786804,-0.2640306055545807,0.18281853199005127,0.6027519702911377,-0.24607065320014954
1.196059353969515,-0.7590786310253751,-1.4388077133272543,-0.9600204229354858,-3.881138324737549,1.4974719285964966,-0.2519199848175049,-0.9306039214134216,-0.26554250717163086,0.3011905252933502,0.4371803402900696,-0.39536115527153015
1.1798148887713371,-0.8123239306215404,-1.4161573783695198,-0.13975562155246735,-2.6270251274108887,1.9363547563552856,-0.27663296461105347,-0.9245354533195496,-0.2621230483055115,0.3214327096939087,0.19801867008209229,-0.3736191689968109
1.1662720280030545,-0.8711563949916855,-1.3779641023161782,0.5045469999313354,-2.1846513748168945,1.9974000453948975,-0.3011191189289093,-0.9192897081375122,-0.2534438371658325,0.08189603686332703,-0.1722782850265503,-0.3018845319747925
1.1558339611517494,-0.9335019467754964,-1.334597681037565,0.8778801560401917,-2.36952543258667,1.7339403629302979,-0.32401949167251587,-0.9151315093040466,-0.2398867905139923,-0.24099823832511902,-0.6624746918678284,-0.2165035605430603
1.1487351597287774,-0.9968261436896685,-1.2932230293283316,1.0500081777572632,-2.707750082015991,1.3454351425170898,-0.3439974784851074,-0.9122465252876282,-0.22242331504821777,-0.5715756416320801,-1.184478998184204,-0.29106539487838745
1.1437533273498943,-1.0591436381383628,-1.2552561335328491,1.0929529666900635,-2.765291452407837,1.1525999307632446,-0.36113983392715454,-0.910194456577301,-0.2027910351753235,-0.8235526084899902,-1.7342910766601562,-0.5024549961090088
1.1384555508770893,-1.1179064103516327,-1.2196061796523145,1.0240741968154907,-2.4549167156219482,1.178368330001831,-0.3767566978931427,-0.9079874753952026,-0.1833389699459076,-0.9926128387451172,-2.2314929962158203,-0.6976271867752075
1.1311746553707052,-1.1690229421572487,-1.1878968231012001,0.7769757509231567,-1.9930495023727417,1.2337099313735962,-0.3917064368724823,-0.9049127697944641,-0.1664302498102188,-1.2543050050735474,-2.7095587253570557,-0.7556888461112976
1.1224278077893277,-1.206404380900899,-1.1656656920887294,0.32029199600219727,-1.4510735273361206,1.0602073669433594,-0.40503278374671936,-0.9011555314064026,-0.15448978543281555,-1.636989951133728,-3.102689743041992,-0.6368920207023621
1.114784977003364,-1.2256666016625064,-1.15720953963331,-0.14222635328769684,-0.8578524589538574,0.5938418507575989,-0.41440245509147644,-0.8978161215782166,-0.14898556470870972,-2.0000109672546387,-3.349544048309326,-0.4920971393585205
1.1113219213913272,-1.2277481560707997,-1.1607440330940626,-0.34720146656036377,-0.19543081521987915,-0.06297726929187775,-0.4176371395587921,-0.8962857127189636,-0.1491675227880478,-2.1225545406341553,-3.4154818058013916,-0.5065789222717285
1.1140498553207727,-1.2177450889615407,-1.1709705536143322,-0.28590402007102966,0.3341294527053833,-0.7496536374092102,-0.41382867097854614,-0.8974921703338623,-0.15249179303646088,-1.9995472431182861,-3.2889244556427,-0.6584670543670654
1.1234268770858307,-1.2013694811294575,-1.1834682942534405,-0.06059720367193222,0.6699734926223755,-1.369362711906433,-0.4034101963043213,-0.9015882015228271,-0.1562020182609558,-1.7401597499847412,-3.0531389713287354,-0.8091146945953369
1.1387694155174324,-1.1818858547395998,-1.1962098489653157,0.1815858632326126,0.9150391817092896,-1.8480392694473267,-0.3874441087245941,-0.9081189036369324,-0.15876756608486176,-1.4625924825668335,-2.771843194961548,-0.867172360420227
1.1583686716673125,-1.1596637688736329,-1.209243566132413,0.34992387890815735,1.138097882270813,-2.1471004486083984,-0.3674326241016388,-0.9161504507064819,-0.16019266843795776,-1.215071678161621,-2.459078311920166,-0.7772005200386047
1.1806068106431449,-1.1346226428701938,-1.223214775254235,0.4805886745452881,1.2797836065292358,-2.330151319503784,-0.3447521924972534,-0.9248369932174683,-0.16069400310516357,-1.0505419969558716,-2.1421031951904297,-0.6199456453323364
1.2045409625055872,-1.1073737605442813,-1.2383064243116269,0.5907465219497681,1.3446813821792603,-2.4383184909820557,-0.32034966349601746,-0.9336749315261841,-0.16008473932743073,-0.9752130508422852,-1.8685100078582764,-0.4843549132347107
1.2293959130598242,-1.0783158859869721,-1.255034093793194,0.6630657315254211,1.3012689352035522,-2.4882445335388184,-0.2950195074081421,-0.9422867298126221,-0.15830112993717194,-0.9159638285636902,-1.6058547496795654,-0.375954806804657
1.2549386036937682,-1.048565682251099,-1.274018230406377,0.7493460178375244,1.002221703529358,-2.5666048526763916,-0.26922738552093506,-0.9505302906036377,-0.15494777262210846,-0.8463274836540222,-1.3293616771697998,-0.28111791610717773
1.2819515745561216,-1.0199542739505616,-1.2965431013970807,0.8573904633522034,0.37786412239074707,-2.760220527648926,-0.24271203577518463,-0.958573579788208,-0.14908936619758606,-0.8107243180274963,-1.053694486618042,-0.18217892944812775
1.311318091656439,-0.9916338725570915,-1.3261186230629034,0.9205029606819153,-0.41969767212867737,-3.0447702407836914,-0.21473437547683716,-0.9665240049362183,-0.14043028652668,-0.7915828227996826,-0.8045027256011963,-0.06522764265537262
1.342989054233074,-0.9570849375996011,-1.3701345393286637,0.8576731085777283,-1.1917309761047363,-3.363234519958496,-0.1846296638250351,-0.9741639494895935,-0.13006377220153809,-0.762071430683136,-0.564791738986969,0.07630711793899536
1.3757102576762907,-0.902850509062681,-1.4408946886260772,0.6520407199859619,-1.7546974420547485,-3.6174533367156982,-0.15219168365001678,-0.9810310006141663,-0.12006646394729614,-0.7069544792175293,-0.32664722204208374,0.21816527843475342
1.4068199970359458,-0.8089009126156691,-1.5555055692380573,0.31410396099090576,-1.9565716981887817,-3.7136621475219727,-0.11811051517724991,-0.9865859746932983,-0.1126851812005043,-0.6037675738334656,-0.09501802921295166,0.34448152780532837
1.4326491866773239,-0.6524018001240789,-1.7332583207591017,-0.04333552345633507,-1.8515429496765137,-3.65895938873291,-0.0836021676659584,-0.9904728531837463,-0.10942675173282623,-0.4963691830635071,0.17110639810562134,0.4540618062019348
1.4497225312946675,-0.42481170270716473,-1.9798273172557188,-0.28656071424484253,-1.5003821849822998,-3.503347873687744,-0.0497782863676548,-0.9926795363426208,-0.11004220694303513,-0.3783528506755829,0.4557228684425354,0.4957844913005829
1.4562610704785566,-0.15351809617990916,-2.2656630945806175,-0.3593715727329254,-0.9956352710723877,-3.250007152557373,-0.01747584529221058,-0.99344801902771,-0.11294004321098328,-0.24682167172431946,0.7231234312057495,0.46509766578674316
1.4536419502377758,0.10655654912854795,-2.534656406029195,-0.2870427668094635,-0.4190954864025116,-2.906237840652466,0.012431489303708076,-0.9931452870368958,-0.1162237673997879,-0.10813465714454651,0.9520991444587708,0.380094051361084
1.4457149092753017,0.3203129384158747,-2.7514525136156287,-0.1402948945760727,0.1086680069565773,-2.516900062561035,0.039280965924263,-0.9921875,-0.11841005086898804,-0.008915990591049194,1.134796142578125,0.2681751251220703
1.4361186305208309,0.48578287155221306,-2.915585150627397,0.04818794131278992,0.4020625948905945,-2.1277146339416504,0.06269126385450363,-0.9909446835517883,-0.11873719096183777,0.026984602212905884,1.3126304149627686,0.20386600494384766
1.4271206641922733,0.6147627151622388,-3.0412225025452324,0.24121031165122986,0.48983246088027954,-1.7766780853271484,0.08258185535669327,-0.9896963834762573,-0.11696618795394897,0.042082421481609344,1.4801750183105469,0.19055940210819244
1.419692286733852,0.7204511302791538,3.1397702377125194,0.45266902446746826,0.3974394202232361,-1.492783784866333,0.09930764883756638,-0.9886054992675781,-0.11312387883663177,0.04349931329488754,1.6109809875488281,0.18879228830337524
1.4145944723051944,0.8133834131523399,3.048334895914324,0.7577242255210876,0.10071323812007904,-1.232869029045105,0.11303772032260895,-0.9878252744674683,-0.10688161849975586,0.06597837805747986,1.7063616514205933,0.19931942224502563
1.4112275215662777,0.9030521956262252,2.9565870136856027,0.948081374168396,-0.3003569543361664,-1.1830437183380127,0.1247653216123581,-0.9872958660125732,-0.09838855266571045,0.08897977322340012,1.7476871013641357,0.22584527730941772
1.4067574880389198,0.9865785682239742,2.8661886811505637,0.8530088663101196,-0.8524699807167053,-1.2331653833389282,0.13621897995471954,-0.9865757822990417,-0.09006981551647186,0.09307478368282318,1.7397496700286865,0.28858673572540283
1.400015338152491,1.0501597538228673,2.7902437348652214,0.5758547782897949,-1.3698146343231201,-1.2358982563018799,0.14743420481681824,-0.9854523539543152,-0.08453986048698425,0.10258102416992188,1.750665307044983,0.3293214440345764
1.390884247823759,1.088544615104065,2.735917977056441,0.20047657191753387,-1.610168695449829,-1.271390438079834,0.15853554010391235,-0.9838594198226929,-0.08298958092927933,0.04681722819805145,1.7906067371368408,0.310910165309906
1.3793754874486275,1.1038104455150353,2.703911003971059,-0.20081865787506104,-1.58151113986969,-1.2992048263549805,0.16988354921340942,-0.9817349314689636,-0.08565185964107513,-0.03218826651573181,1.856689214706421,0.28476381301879883
1.3661840762776885,1.1004083349768305,2.692682128275037,-0.5887588262557983,-1.262930989265442,-1.2302467823028564,0.18111975491046906,-0.9791398644447327,-0.09209108352661133,-0.08761392533779144,1.9634690284729004,0.2609449028968811
1.3526705651689002,1.0839182204056126,2.699334246515497,-0.884150505065918,-0.6989720463752747,-1.0135509967803955,0.19125396013259888,-0.9763047695159912,-0.1012469232082367,-0.10798679292201996,2.080400228500366,0.18034851551055908
1.3405197403585416,1.0610402529819591,2.7194578608667026,-1.0368518829345703,0.07097566872835159,-0.6754376888275146,0.19922828674316406,-0.9736033082008362,-0.11137628555297852,-0.07811930775642395,2.179459571838379,0.03801208734512329
1.3310575952079942,1.0383781545165705,2.747961822570575,-1.034738302230835,0.9298773407936096,-0.29998868703842163,0.20458154380321503,-0.9714000225067139,-0.1205333024263382,-0.03835234045982361,2.2462260723114014,-0.13517343997955322
1.324993043815904,1.0204104475142852,2.779497315405991,-0.8600714206695557,1.5277739763259888,0.03298502042889595,0.207400381565094,-0.9699421525001526,-0.12726838886737823,0.014080926775932312,2.2782154083251953,-0.2934163808822632
1.3225986668784695,1.0097909775816898,2.806942836915082,-0.5103070139884949,1.5953991413116455,0.250592976808548,0.2080029994249344,-0.9693567752838135,-0.13069887459278107,0.06912709772586823,2.2835047245025635,-0.39283013343811035
1.32334026724388,1.0081508233291794,2.8234882070068874,-0.09172225743532181,1.2369781732559204,0.27899599075317383,0.20718005299568176,-0.969538688659668,-0.13065624237060547,0.11366644501686096,2.2558393478393555,-0.41864490509033203
1.3260317484801216,1.0163284058605417,2.824626329265627,0.3275943100452423,0.5721383094787598,0.20404747128486633,0.20602241158485413,-0.970194399356842,-0.12758339941501617,0.1390245407819748,2.1739907264709473,-0.40532976388931274
1.330043999178035,1.0322476547784925,2.8097335399172643,0.6814068555831909,-0.2740872800350189,0.10289320349693298,0.2046840786933899,-0.9711588621139526,-0.1222902461886406,0.1637546271085739,2.0682811737060547,-0.35054904222488403
1.3342756257335224,1.0532589575678144,2.7814982572660485,0.8701837062835693,-0.9746618866920471,-0.048841461539268494,0.20363521575927734,-0.9721591472625732,-0.11592881381511688,0.13071537017822266,1.9608675241470337,-0.24253059923648834
1.3375010944934742,1.0764131150591034,2.7455124031695695,0.8807849884033203,-1.3476183414459229,-0.19685453176498413,0.20350317656993866,-0.9729098677635193,-0.10969464480876923,0.04576437175273895,1.8518009185791016,-0.11869889497756958
1.339074524916564,1.097973093824133,2.7083570512309834,0.7655332684516907,-1.5500993728637695,-0.3107776343822479,0.20445702970027924,-0.973272442817688,-0.10458441078662872,-0.047566235065460205,1.757436990737915,0.012482419610023499
1.3392734056718367,1.114100522273016,2.6756496046383065,0.5898427367210388,-1.5463308095932007,-0.30275288224220276,0.20594337582588196,-0.9733180999755859,-0.10118825733661652,-0.13912519812583923,1.6901607513427734,0.1484447866678238
1.3396411931318055,1.1233537911117875,2.6516944929278177,0.43342119455337524,-1.2062016725540161,-0.0746355727314949,0.20654816925525665,-0.9734023809432983,-0.09912344068288803,-0.16536477208137512,1.6216721534729004,0.2002740055322647
1.342460132683847,1.1265089843721274,2.63946674438014,0.31659048795700073,-0.5042812824249268,0.36164557933807373,0.20438197255134583,-0.9740443825721741,-0.09729169309139252,-0.07488065958023071,1.5347437858581543,0.2155779004096985
1.349359649983451,1.1255513322121573,2.6393647334881645,0.2912566363811493,0.27365416288375854,0.8763171434402466,0.19821852445602417,-0.9755828976631165,-0.09459065645933151,0.06585004925727844,1.4537169933319092,0.23365932703018188
1.360468249813495,1.1222813143457768,2.648031007526883,0.3340004086494446,0.6939016580581665,1.2476627826690674,0.188130721449852,-0.9779624938964844,-0.09053318202495575,0.16974887251853943,1.3780021667480469,0.2529172897338867
1.373857220093741,1.1163985981530873,2.6607547635424758,0.3600839376449585,0.547653079032898,1.345269799232483,0.175813227891922,-0.9806700944900513,-0.08588310331106186,0.17312473058700562,1.2802611589431763,0.3058539032936096
1.3869827149909408,1.1060450558906791,2.6743224661009677,0.32984620332717896,0.015068266540765762,1.1905803680419922,0.1633930206298828,-0.9831538200378418,-0.08192204684019089,0.1159953624010086,1.1580653190612793,0.370297908782959
1.3980767173702318,1.0896530588924291,2.688737915952639,0.21721525490283966,-0.3874373733997345,1.0520976781845093,0.15234991908073425,-0.9851210117340088,-0.07953653484582901,0.02263784408569336,1.0039961338043213,0.3754807710647583
1.4088882927003685,1.0620371626619458,2.7137793502330085,0.05531144142150879,-0.14233015477657318,1.270782470703125,0.14078527688980103,-0.986921489238739,-0.0785202831029892,0.1512068510055542,0.9809553027153015,0.2638840675354004
1.4211797224291474,1.0082118028090148,2.7685070090046433,-0.2550602853298187,0.1721353679895401,1.7284374237060547,0.1260860711336136,-0.9888283014297485,-0.07950430363416672,0.3051425516605377,1.0046058893203735,0.17066031694412231
1.4356718307067402,0.9106933928976502,2.869167246441807,-0.3955518305301666,0.20723865926265717,2.2568421363830566,0.10641428083181381,-0.99088454246521,-0.08260620385408401,0.3570409119129181,0.9493959546089172,0.10586065798997879
1.451366612497204,0.7591617439395759,3.022661200163321,-0.36317577958106995,-0.09510629624128342,2.6401617527008057,0.0820096880197525,-0.9928767681121826,-0.08642996102571487,0.3519349694252014,0.8643977642059326,-0.057460419833660126
1.4662399178368493,0.5456534609418282,-3.0486722065386562,-0.12348463386297226,-0.4845137298107147,2.876680612564087,0.05416317284107208,-0.9945389628410339,-0.08921024948358536,0.34390807151794434,0.6666886806488037,-0.19223809242248535
1.4789166592516536,0.2720042860859547,-2.7799741716787794,0.36885663866996765,-0.7420701384544373,2.884187936782837,0.024649936705827713,-0.9957820177078247,-0.08837727457284927,0.3389517068862915,0.365304172039032,-0.27360695600509644
1.4889364329558212,-0.04376713645105188,-2.4710932011360636,0.9870780110359192,-0.8329735994338989,2.597733497619629,-0.003577654482796788,-0.9966513514518738,-0.08169074356555939,0.15900364518165588,0.06910008192062378,-0.22556018829345703
1.496169723197396,-0.38700188398109525,-2.1351498089810383,1.4865365028381348,-0.8322665691375732,2.179596185684204,-0.02813914604485035,-0.9972167015075684,-0.06904388219118118,-0.0749797523021698,-0.19989627599716187,-0.0009786486625671387
1.499129861622866,-0.741852905712321,-1.7884649333336644,1.644384741783142,-1.019243597984314,1.7666600942611694,-0.04838130623102188,-0.997433066368103,-0.052789606153964996,-0.2083173394203186,-0.371448278427124,0.3286227583885193
1.4962400633924797,-1.0596158527758677,-1.4825448120532043,1.4321212768554688,-1.530149221420288,1.4486627578735352,-0.06496580690145493,-0.9972219467163086,-0.03643994405865669,-0.24046939611434937,-0.4518442153930664,0.6123982071876526
1.4883718153557948,-1.2840703808392437,-1.2751967964907516,0.9207807183265686,-1.9614075422286987,1.267345666885376,-0.07897060364484787,-0.9966050386428833,-0.023284532129764557,-0.2978604733943939,-0.6093062162399292,0.7190243601799011
1.4777035049503449,-1.410373640646771,-1.1683964557968198,0.4610695540904999,-1.94511878490448,1.2343498468399048,-0.09176484495401382,-0.9956700205802917,-0.014848762191832066,-0.3957229554653168,-0.8689082264900208,0.6953755617141724
1.4656380303775463,-1.4834555756258088,-1.11277696134874,0.3967926800251007,-1.56804621219635,1.2962942123413086,-0.1045658141374588,-0.9944759607315063,-0.009156150743365288,-0.4759090542793274,-0.9860539436340332,0.5221261978149414
1.452279390870211,-1.5538282061367097,-1.0554917059464994,0.7785406112670898,-1.1126621961593628,1.435533046722412,-0.11822117865085602,-0.9929850697517395,-0.0020061838440597057,-0.5404397249221802,-1.0116686820983887,0.21247071027755737
1.4368257628907468,-1.6417264778250527,-0.9760746768079861,1.2918163537979126,-0.7300106287002563,1.574410080909729,-0.1332336962223053,-0.9910393357276917,0.00946616567671299,-0.5523589849472046,-1.078082799911499,-0.0010433206334710121
1.4193155714883958,-1.7377149593936838,-0.8860818084926446,1.6169015169143677,-0.7004111409187317,1.568804144859314,-0.14880509674549103,-0.9885486960411072,0.02507162280380726,-0.5465989708900452,-1.1774821281433105,0.02978372573852539
1.4007155656368755,-1.8239403695965175,-0.8075735780091547,1.5469011068344116,-1.077887773513794,1.5468924045562744,-0.1638679951429367,-0.9855710864067078,0.042391613125801086,-0.5441856384277344,-1.2738436460494995,0.23728680610656738
1.3814039590543887,-1.8834293804246065,-0.7606994761401756,1.0909188985824585,-1.5736290216445923,1.715865969657898,-0.17913706600666046,-0.9821187853813171,0.057903043925762177,-0.48486441373825073,-1.3961313962936401,0.4529154300689697
1.360811734061603,-1.90691772160314,-0.7539934539281643,0.46812883019447327,-1.7347673177719116,2.118480920791626,-0.19678063690662384,-0.9780341386795044,0.0687510073184967,-0.45232823491096497,-1.5478142499923706,0.5330404043197632
1.337607664975529,-1.8963408752664976,-0.7814300087923001,-0.08212710916996002,-1.4379278421401978,2.6512703895568848,-0.21894434094429016,-0.9729344844818115,0.0739055871963501,-0.5206797122955322,-1.7718164920806885,0.4676135778427124
1.3109589534875359,-1.8618615346768272,-0.828857121183795,-0.48034054040908813,-0.8298532962799072,3.081813335418701,-0.2461167871952057,-0.9664317965507507,0.0737299993634224,-0.6800764203071594,-2.0499866008758545,0.3484044075012207
1.2816087454850575,-1.8155280547145807,-0.8819117601978744,-0.7176761031150818,-0.1167815625667572,3.2918078899383545,-0.27667611837387085,-0.9584758877754211,0.06909643858671188,-0.8916893601417542,-2.3448994159698486,0.19509434700012207
1.2511468907664312,-1.7651788019425674,-0.932407588433392,-0.9088336825370789,0.5522939562797546,3.2487218379974365,-0.3083159923553467,-0.9493456482887268,0.060697637498378754,-1.0847046375274658,-2.674220085144043,-0.0004863739013671875
1.2227059070025867,-1.712138661129986,-0.9792201966569599,-1.1610901355743408,1.192217469215393,2.8065552711486816,-0.3377017378807068,-0.940025806427002,0.04805196821689606,-1.3375911712646484,-2.9352030754089355,-0.08809101581573486
1.199673349125447,-1.6563334994438537,-1.023590407313232,-1.3997324705123901,1.6179827451705933,2.078535556793213,-0.3613360524177551,-0.9319206476211548,0.03098326548933983,-1.5915294885635376,-3.042337656021118,-0.08222222328186035
1.1839885707922306,-1.59958308386843,-1.0660413235966328,-1.5314455032348633,1.8119029998779297,1.218196153640747,-0.37707749009132385,-0.926118016242981,0.010857837274670601,-1.6678749322891235,-3.0201404094696045,-0.13582730293273926
1.1759848528937218,-1.5429806481287573,-1.1069442206499265,-1.5622450113296509,1.9324941635131836,0.3958393931388855,-0.38448500633239746,-0.9230691194534302,-0.010697470046579838,-1.5789549350738525,-2.9166982173919678,-0.26058846712112427
1.1745561938257032,-1.485756141951494,-1.1474961098007586,-1.5583056211471558,2.0039284229278564,-0.2660059332847595,-0.3845577538013458,-0.9225186705589294,-0.032781925052404404,-1.372171401977539,-2.741971015930176,-0.3717743158340454
1.1780391347970505,-1.4271215937215918,-1.1890960120555962,-1.5285214185714722,2.0207934379577637,-0.7715625166893005,-0.3787934184074402,-0.9238572716712952,-0.05480063706636429,-1.18184494972229,-2.514146089553833,-0.3985837697982788
1.1851232665458051,-1.3665820801739867,-1.232986296986368,-1.5015952587127686,1.9346147775650024,-1.1859536170959473,-0.3683657646179199,-0.9265454411506653,-0.07628900557756424,-1.05088472366333,-2.290266513824463,-0.3819476366043091
1.194844805230673,-1.3034796625079887,-1.2810732496141455,-1.5170018672943115,1.735854983329773,-1.5186625719070435,-0.35411757230758667,-0.9301586747169495,-0.0969826802611351,-0.9619835019111633,-2.0695667266845703,-0.3113424777984619
1.2059538487700905,-1.236510551503568,-1.3355140281616893,-1.580944538116455,1.493377685546875,-1.7454915046691895,-0.3370514512062073,-0.934179961681366,-0.11706488579511642,-0.8681640625,-1.8612911701202393,-0.2108616828918457
1.217115227341359,-1.1647975058060864,-1.3974384484277886,-1.6591236591339111,1.2510372400283813,-1.8920514583587646,-0.31819793581962585,-0.9381040930747986,-0.13678769767284393,-0.8017362356185913,-1.6951967477798462,-0.1441875845193863
1.2274101725754398,-1.0875837612893777,-1.4670193711763677,-1.7356252670288086,1.1245285272598267,-1.9945132732391357,-0.2981302738189697,-0.9416200518608093,-0.1564292460680008,-0.7931630611419678,-1.533599615097046,-0.08635330200195312
1.2361957501683531,-1.0037005845268572,-1.543997022156819,-1.7971469163894653,1.1359707117080688,-2.0771892070770264,-0.2769871652126312,-0.9445415735244751,-0.17640723288059235,-0.7987574934959412,-1.361687183380127,-0.030074670910835266
1.243181902071011,-0.9134864607171712,-1.6268914669080803,-1.787367582321167,1.2301640510559082,-2.150848865509033,-0.2547377943992615,-0.9468126893043518,-0.19660748541355133,-0.8095932602882385,-1.1810407638549805,0.013563096523284912
1.2486091642258692,-0.8187786230114407,-1.7131414118768038,-1.6796009540557861,1.3512524366378784,-2.22634220123291,-0.23124749958515167,-0.9485451579093933,-0.2163025289773941,-0.8182825446128845,-0.991594672203064,0.03403639793395996
1.2531069330441182,-0.7225207161036458,-1.7999271137491477,-1.4545849561691284,1.4019914865493774,-2.299267053604126,-0.20656485855579376,-0.9499596953392029,-0.2343233823776245,-0.8155909776687622,-0.7770452499389648,0.04114717245101929
1.257492226238165,-0.62780133189735,-1.8849270567062337,-1.1403392553329468,1.3579367399215698,-2.345999002456665,-0.181028351187706,-0.9513204097747803,-0.24943535029888153,-0.7947101593017578,-0.5542489290237427,0.034896865487098694
1.2625512746772658,-0.537054148749298,-1.9667232631543887,-0.755966305732727,1.1939411163330078,-2.368834972381592,-0.15521492063999176,-0.9528674483299255,-0.26067599654197693,-0.7549718618392944,-0.3365001678466797,0.029886841773986816
1.2689337061404153,-0.4513805317713918,-2.0453622414392223,-0.3539872467517853,0.9208282828330994,-2.3805978298187256,-0.1296842396259308,-0.9547843933105469,-0.2675231993198395,-0.6971437931060791,-0.13241952657699585,0.03189703822135925
1.2771012657150835,-0.3698977447124343,-2.122612824134561,0.03823591768741608,0.6030042171478271,-2.4160096645355225,-0.10465684533119202,-0.9571807384490967,-0.26991117000579834,-0.6524385213851929,0.06707453727722168,0.04629361629486084
1.2870618161416618,-0.2893122293100166,-2.2017960657404254,0.38120976090431213,0.3421687185764313,-2.485027313232422,-0.07986576110124588,-0.960016667842865,-0.26830849051475525,-0.6137682795524597,0.2700905203819275,0.08083903789520264
1.298454758570309,-0.20470687472329865,-2.287053091778806,0.6731998324394226,0.19868133962154388,-2.5971834659576416,-0.05467979609966278,-0.9631437063217163,-0.263371080160141,-0.573097288608551,0.4554990530014038,0.11577287316322327
1.3106500543664998,-0.11037927375239996,-2.382784936358332,0.9344642162322998,0.21756473183631897,-2.740384340286255,-0.028334343805909157,-0.9663523435592651,-0.25565651059150696,-0.5267651677131653,0.6292094588279724,0.14940962195396423
1.3228241548383948,-0.0013542323114085922,-2.4922071459282424,1.178617000579834,0.4181004762649536,-2.8608124256134033,-0.00033238125615753233,-0.9694121479988098,-0.24543872475624084,-0.4463839530944824,0.8293516635894775,0.175980806350708
1.3341821429697736,0.12469695207110602,-2.6166389021336802,1.4465312957763672,0.6104714870452881,-2.9337780475616455,0.02915486879646778,-0.9721372127532959,-0.23259268701076508,-0.3284865617752075,1.041137456893921,0.17174065113067627
1.3440882140620098,0.2673911694786797,-2.7565815751232727,1.7337777614593506,0.6646692156791687,-2.9560546875,0.059388168156147,-0.9744116067886353,-0.21678350865840912,-0.1855631172657013,1.2222143411636353,0.16958816349506378
1.3516855218268056,0.424352158948593,-2.9107202150483777,1.9787064790725708,0.6582100987434387,-2.9057106971740723,0.08949437737464905,-0.9760910868644714,-0.1980828195810318,-0.03186199814081192,1.3533952236175537,0.16846556961536407
1.3559887685310765,0.5893855504117493,-3.072780463748778,2.1241183280944824,0.6899963021278381,-2.74056077003479,0.11848483979701996,-0.9770174622535706,-0.17719581723213196,0.15087856352329254,1.4472322463989258,0.17743997275829315
1.3566271789716375,0.7516755715035541,3.051141447742382,2.1534292697906494,0.6175826787948608,-2.4528825283050537,0.14513280987739563,-0.9771533012390137,-0.1552669107913971,0.3118830919265747,1.5193285942077637,0.19544340670108795
1.3543719692057516,0.8983826607882923,2.906146960799505,2.06257700920105,0.37567466497421265,-2.0536444187164307,0.16799458861351013,-0.9766715168952942,-0.1337556689977646,0.417378306388855,1.5785086154937744,0.20240503549575806
1.3505590397563803,1.0211121035952047,2.7829155333413835,1.8419550657272339,0.10282357782125473,-1.6211798191070557,0.1862795054912567,-0.9758456349372864,-0.11412801593542099,0.4503324031829834,1.6263736486434937,0.20885461568832397
1.3463188529946362,1.1164288531143027,2.6847650813941986,1.5245637893676758,-0.17980705201625824,-1.1905956268310547,0.20001156628131866,-0.97491055727005,-0.09769626706838608,0.41577208042144775,1.6591606140136719,0.23551370203495026
1.3429263077253415,1.184699140622426,2.6117466108844605,1.1775758266448975,-0.3809509873390198,-0.7588710784912109,0.2092735916376114,-0.974149763584137,-0.08506970852613449,0.34651249647140503,1.6876201629638672,0.2782765030860901
1.3412669830413972,1.2294253252256926,2.561279701947239,0.8421294093132019,-0.4989425837993622,-0.37413352727890015,0.21439054608345032,-0.9737735986709595,-0.07616870850324631,0.2678939700126648,1.699802041053772,0.3210723400115967
1.3412638502037757,1.2549031389829257,2.529284382848383,0.5328985452651978,-0.631391704082489,-0.10956881940364838,0.2162640541791916,-0.9737728834152222,-0.07068325579166412,0.17895381152629852,1.6648740768432617,0.3625229001045227
1.3421572048414745,1.2640364087295959,2.5130358198662144,0.22361710667610168,-0.6875362396240234,0.04592515900731087,0.21607142686843872,-0.9739757180213928,-0.06844249367713928,0.08474032580852509,1.6093822717666626,0.39159315824508667
1.3431990726758969,1.2590317304585987,2.5113170225844947,-0.08398847281932831,-0.632667601108551,0.12087683379650116,0.2147606462240219,-0.9742113351821899,-0.06921183317899704,-0.0017174780368804932,1.5655046701431274,0.37400615215301514
1.3437703368171674,1.2420594284101074,2.522857537746686,-0.36587101221084595,-0.4993111491203308,0.14641015231609344,0.21302767097949982,-0.9743400812149048,-0.07266675680875778,-0.057601675391197205,1.5423943996429443,0.31706684827804565
1.3434156793657837,1.2164865649923609,2.545092834587342,-0.5925628542900085,-0.2715549170970917,0.11459312587976456,0.21142424643039703,-0.9742602109909058,-0.07821010798215866,-0.08618015050888062,1.5330981016159058,0.22844815254211426
1.3416361933894483,1.1871059839434943,2.5738561206736943,-0.7349572777748108,0.0014092326164245605,0.017034079879522324,0.21064291894435883,-0.9738575220108032,-0.08503615111112595,-0.11533653736114502,1.5276142358779907,0.12216079235076904
1.3382831464788232,1.158728090438893,2.604330031330681,-0.7934607863426208,0.25450602173805237,-0.09580110013484955,0.21113596856594086,-0.9730903506278992,-0.09228591620922089,-0.12886059284210205,1.519232988357544,0.012650370597839355
1.3337504631128152,1.134535843658846,2.6329301666619838,-0.779698371887207,0.4573052227497101,-0.17601124942302704,0.2128370851278305,-0.9720359444618225,-0.09922894835472107,-0.0788954645395279,1.5018516778945923,-0.08535658568143845
1.3288841544643581,1.114944184353406,2.6583685136595943,-0.7217589020729065,0.5510889887809753,-0.16630566120147705,0.2150970697402954,-0.9708817005157471,-0.10546065121889114,0.0322936475276947,1.504023790359497,-0.15087169408798218
1.32484335028118,1.0978153103120187,2.6816724751259877,-0.6384445428848267,0.5309163928031921,-0.0475395992398262,0.21674981713294983,-0.9699057340621948,-0.11091560870409012,0.1449139565229416,1.5389366149902344,-0.1691594123840332
1.3223031241124235,1.0820027452777998,2.7028792076071686,-0.50765061378479,0.4008953869342804,0.07952887564897537,0.21714353561401367,-0.9692841172218323,-0.11548550426959991,0.21730464696884155,1.5701600313186646,-0.1769643872976303
1.3214923779284664,1.067302207487496,2.7211966482208356,-0.36142680048942566,0.20915734767913818,0.20471209287643433,0.21611106395721436,-0.9690843820571899,-0.11904437094926834,0.24848853051662445,1.57363760471344,-0.17108619213104248
1.3223370545456818,1.0534188088899477,2.7371435997121294,-0.24230316281318665,0.12397381663322449,0.32788270711898804,0.21372579038143158,-0.9692924618721008,-0.12162810564041138,0.23401282727718353,1.549858808517456,-0.14857453107833862
1.3247962334981893,1.0399273021002933,2.752625108188584,-0.17257601022720337,0.19695882499217987,0.48084667325019836,0.21000906825065613,-0.969894289970398,-0.12329316884279251,0.2013373225927353,1.5215911865234375,-0.11758201569318771
1.3288980642742674,1.0252148792711702,2.7705516713646707,-0.15434671938419342,0.34485822916030884,0.6682329177856445,0.20477013289928436,-0.9708849787712097,-0.12430410087108612,0.17949189245700836,1.502760648727417,-0.07856147736310959
1.334637763412766,1.0072918729967246,2.7933872373852595,-0.16282887756824493,0.49942487478256226,0.8755120635032654,0.1977953165769577,-0.9722439050674438,-0.12497543543577194,0.1623120903968811,1.4881283044815063,-0.04456496238708496
1.3420046272636286,0.9841669158047345,2.822737562343245,-0.16935700178146362,0.5766494870185852,1.0856432914733887,0.18888181447982788,-0.9739411473274231,-0.1255469024181366,0.15056514739990234,1.463916301727295,-0.03268669545650482
1.3507790953580041,0.9546875338330152,2.859021413281615,-0.1684749573469162,0.5929072499275208,1.2594149112701416,0.17811784148216248,-0.9758936762809753,-0.12611648440361023,0.14690957963466644,1.4220607280731201,-0.02238200604915619
1.3606047801971166,0.9182878328465076,2.902454371727067,-0.1528385579586029,0.6115444302558899,1.4096096754074097,0.1657833307981491,-0.977990984916687,-0.1266866773366928,0.14587737619876862,1.366266131401062,-0.005088135600090027
1.3714074035736727,0.8752646663388971,2.952683298213385,-0.0834653303027153,0.6057986617088318,1.5378166437149048,0.1520611196756363,-0.9801877737045288,-0.126922145485878,0.14911682903766632,1.2886595726013184,-0.016159459948539734
1.383267087329497,0.8268040427263845,3.0079010958075383,0.05360526964068413,0.5258666276931763,1.6316051483154297,0.13717086613178253,-0.9824678897857666,-0.12625716626644135,0.1660059541463852,1.1991121768951416,-0.05098889768123627
1.3962202033583715,0.772742582799172,3.067419221614972,0.2082238644361496,0.353322833776474,1.7046079635620117,0.12125349789857864,-0.9848002791404724,-0.12436207383871078,0.19277234375476837,1.1209239959716797,-0.06901250779628754
1.410144978696979,0.7095676672725743,3.134023942671386,0.33567187190055847,0.14824283123016357,1.808506965637207,0.1042153388261795,-0.9871233105659485,-0.12135317921638489,0.22105622291564941,1.0592211484909058,-0.05691521614789963
1.4249508114436427,0.6292725698766278,-3.067223734385572,0.4230627119541168,-0.003962690010666847,1.9837809801101685,0.08553417772054672,-0.9893833994865417,-0.11749181151390076,0.2699650526046753,1.004962682723999,-0.05520706623792648
1.4400681693759587,0.5201530855378865,-2.957647210848977,0.45784664154052734,-0.11087307333946228,2.174621343612671,0.06478903442621231,-0.9914672374725342,-0.11311624199151993,0.3082578182220459,0.9455381631851196,-0.0461701899766922
1.453856529666235,0.37058141728547184,-2.8084006461630464,0.4281907379627228,-0.17319424450397491,2.318725347518921,0.04225407540798187,-0.9931703209877014,-0.10875308513641357,0.28834280371665955,0.8622041940689087,-0.010601095855236053
1.4642633604025566,0.17237855591572873,-2.6107982876188296,0.39071905612945557,-0.19006715714931488,2.4591245651245117,0.018238550052046776,-0.9943307042121887,-0.10475515574216843,0.2692827880382538,0.7713999152183533,0.023197002708911896
1.4694182782191607,-0.07017543041409055,-2.368987645342981,0.3797343075275421,-0.2137298732995987,2.5677599906921387,-0.0070962198078632355,-0.9948656558990479,-0.10095509141683578,0.25666895508766174,0.6992266774177551,0.0026732757687568665
1.4681966247542557,-0.33074653649503577,-2.1095124884274368,0.4420589804649353,-0.27693283557891846,2.6219167709350586,-0.033260244876146317,-0.9947412610054016,-0.09686720371246338,0.16913971304893494,0.6386318206787109,-0.005641326308250427
1.46120680267735,-0.579170074336554,-1.8630872102609612,0.6094700694084167,-0.4129018783569336,2.6387112140655518,-0.05986214429140091,-0.9940010905265808,-0.09153471887111664,0.09759712219238281,0.566724419593811,0.014950871467590332
1.4500670030061786,-0.8013099286653422,-1.6452067480164643,0.862105131149292,-0.7400233149528503,2.6016767024993896,-0.08650567382574081,-0.9927210807800293,-0.08379565179347992,0.04590201377868652,0.4767756462097168,0.022485852241516113
1.4361965366151521,-0.9968217674577606,-1.4576411815252617,1.1430693864822388,-1.1502190828323364,2.5035624504089355,-0.1126892939209938,-0.990955114364624,-0.07286381721496582,-0.03219294548034668,0.344135046005249,0.02666020393371582
1.4207298705750504,-1.1683033852472946,-1.2979875598765689,1.3828144073486328,-1.509436845779419,2.318531036376953,-0.1375562697649002,-0.9887611269950867,-0.0585625022649765,-0.17170891165733337,0.17229390144348145,0.057311296463012695
1.404374146749933,-1.3156334148336128,-1.1649150144503069,1.5065107345581055,-1.631964087486267,2.11159348487854,-0.16029053926467896,-0.986183762550354,-0.041811589151620865,-0.35068053007125854,-0.03810805082321167,0.16391247510910034
1.3875243739825867,-1.4380828770915803,-1.0571531849524287,1.4912885427474976,-1.620901107788086,1.900324821472168,-0.18064439296722412,-0.9832526445388794,-0.02411568909883499,-0.4837538003921509,-0.24492716789245605,0.32515639066696167
1.3707169396972927,-1.5349908561364614,-0.9749269125358612,1.325469732284546,-1.603420615196228,1.7021068334579468,-0.19861909747123718,-0.980050802230835,-0.007114691194146872,-0.5796096324920654,-0.4286404252052307,0.5160564184188843
1.3540848404097865,-1.6088021461880015,-0.9157313373040796,1.1194337606430054,-1.5608341693878174,1.6375846862792969,-0.21486392617225647,-0.9766098260879517,0.008170013315975666,-0.6408032178878784,-0.5780776739120483,0.6191493272781372
1.3362263873400675,-1.6641941252192376,-0.8746616888751297,0.9523241519927979,-1.503498911857605,1.822873592376709,-0.23141154646873474,-0.9726144075393677,0.02167639508843422,-0.6163362860679626,-0.726161777973175,0.6049563884735107
1.3153652349208962,-1.7053172677853226,-0.8476501930827429,0.8196017146110535,-1.4622011184692383,2.1731410026550293,-0.25037989020347595,-0.9675544500350952,0.033885981887578964,-0.5573441386222839,-0.8681999444961548,0.5280494689941406
1.2909189666890266,-1.7331895825074117,-0.8331724709642961,0.6476752161979675,-1.2947942018508911,2.5186092853546143,-0.27260369062423706,-0.9610893130302429,0.044662296772003174,-0.5608009099960327,-1.0488289594650269,0.4829409122467041
1.2641012079467078,-1.748300266775954,-0.8299221223175555,0.43915340304374695,-1.1067698001861572,2.6937971115112305,-0.29716628789901733,-0.9533365368843079,0.05330925062298775,-0.6775804758071899,-1.2878592014312744,0.49666333198547363
1.2367666313026255,-1.7538456845745136,-0.8350995576057969,0.21825270354747772,-0.9802443385124207,2.7079145908355713,-0.32237568497657776,-0.9447288513183594,0.059678710997104645,-0.8330808877944946,-1.5133857727050781,0.5144485235214233
1.21019902770359,-1.7526841481691502,-0.8461004260086483,0.013143917545676231,-0.8471675515174866,2.6327357292175293,-0.34701257944107056,-0.9356862306594849,0.06382273882627487,-0.9523953199386597,-1.7234933376312256,0.46620655059814453
1.184732422723091,-1.7469323837459505,-0.8606685916334704,-0.14702683687210083,-0.7128837704658508,2.5550405979156494,-0.37071895599365234,-0.9263983368873596,0.06598071753978729,-1.0467462539672852,-1.957527995109558,0.3435347080230713
1.16030638552064,-1.7380182271502513,-0.8775054942862722,-0.3053998649120331,-0.6040074825286865,2.4602718353271484,-0.3934924006462097,-0.9169254302978516,0.06642081588506699,-1.11276376247406,-2.1895503997802734,0.2129218578338623
1.1373304203288415,-1.726371980902196,-0.8962975203988817,-0.4714956283569336,-0.48517754673957825,2.2971596717834473,-0.4149462878704071,-0.9075154662132263,0.06508146226406097,-1.183274507522583,-2.4015514850616455,0.10973859578371048
1.1165427837850004,-1.7119217112769824,-0.9166876723980468,-0.6451302170753479,-0.2938280999660492,2.046638250350952,-0.434429407119751,-0.8985888361930847,0.06171930581331253,-1.278186559677124,-2.6013195514678955,0.012041687965393066
1.098967522212653,-1.6934688184434823,-0.9389060828794534,-0.8570339679718018,0.028485773131251335,1.6726881265640259,-0.45110076665878296,-0.8907385468482971,0.05561692267656326,-1.4136453866958618,-2.77639102935791,-0.057386867702007294
1.0857984700238412,-1.669608459168657,-0.9633010017112016,-1.0731090307235718,0.40449926257133484,1.1756449937820435,-0.4639323055744171,-0.884675920009613,0.0459919236600399,-1.5753591060638428,-2.8794689178466797,-0.07650947570800781
1.0777941003450222,-1.6407466586873247,-0.9895827897489042,-1.2324475049972534,0.7117734551429749,0.6167073845863342,-0.47211503982543945,-0.8809159398078918,0.033078573644161224,-1.6513895988464355,-2.8807873725891113,-0.09609735757112503
1.0751261133305055,-1.6084628437832467,-1.016922271061665,-1.3109395503997803,0.92193603515625,0.060071226209402084,-0.4752838611602783,-0.8796501159667969,0.017910759896039963,-1.6388366222381592,-2.7869606018066406,-0.12611079216003418
1.07730855162316,-1.5736932183695187,-1.0450091750274835,-1.3487508296966553,1.0805163383483887,-0.4301892817020416,-0.47369852662086487,-0.8806860446929932,0.001372257131151855,-1.554911732673645,-2.605336904525757,-0.15507400035858154
1.0834595610425997,-1.5363529938681613,-1.0741009336289846,-1.3632936477661133,1.2531076669692993,-0.8261829018592834,-0.467996746301651,-0.883583128452301,-0.016125746071338654,-1.4381310939788818,-2.3904342651367188,-0.18167388439178467
1.0926204585683281,-1.495523662166219,-1.104954426352768,-1.392318844795227,1.4396517276763916,-1.1445822715759277,-0.4588570296764374,-0.8878358006477356,-0.03460477292537689,-1.3280081748962402,-2.160412311553955,-0.18170380592346191
1.1038745637773584,-1.4498171927794616,-1.1390757065525172,-1.4758734703063965,1.6073077917099,-1.383558988571167,-0.4468492865562439,-0.8929581642150879,-0.05432473123073578,-1.2244153022766113,-1.918641448020935,-0.13869893550872803
1.116364558940334,-1.3982694762405798,-1.1781573063307342,-1.5822832584381104,1.677093744277954,-1.5834691524505615,-0.43243515491485596,-0.8985105752944946,-0.07535582780838013,-1.127623438835144,-1.6889984607696533,-0.0783001109957695
1.129667771151966,-1.3410639619615787,-1.223018243037932,-1.680596947669983,1.6543570756912231,-1.7871383428573608,-0.41574305295944214,-0.9042704105377197,-0.0972261130809784,-1.0656260251998901,-1.4994313716888428,-0.03541851043701172
1.1435728174121802,-1.2782789221726814,-1.274315434808504,-1.7554855346679688,1.5797123908996582,-1.9975435733795166,-0.39674443006515503,-0.9101196527481079,-0.1194821372628212,-1.0386345386505127,-1.3313963413238525,-0.0014895126223564148
1.1577258463156404,-1.2099115919734722,-1.3321685678224295,-1.786300539970398,1.518667221069336,-2.180351972579956,-0.3755654990673065,-0.9158926010131836,-0.14174340665340424,-1.0061330795288086,-1.1729135513305664,0.0056960731744766235
1.171719849253332,-1.1366815477082886,-1.3957859280873464,-1.7444233894348145,1.4233512878417969,-2.3279690742492676,-0.3525250554084778,-0.9214202165603638,-0.16343440115451813,-0.9678941965103149,-1.0223662853240967,-0.015337511897087097
1.1854240710926172,-1.0599822685055271,-1.463909437275389,-1.624184250831604,1.3179348707199097,-2.4674253463745117,-0.3279186189174652,-0.926658570766449,-0.18377476930618286,-0.9553760290145874,-0.8544540405273438,-0.03074847161769867
1.1990752281716812,-0.9807667246318934,-1.5354622571921703,-1.4376252889633179,1.2232402563095093,-2.6087563037872314,-0.3018077313899994,-0.9317035675048828,-0.20209001004695892,-0.9609638452529907,-0.6900920271873474,-0.04014323651790619
1.2129445027932577,-0.8992461492222689,-1.6099286637838297,-1.2029109001159668,1.1615824699401855,-2.7404117584228516,-0.27420589327812195,-0.9366514086723328,-0.21793347597122192,-0.9586431980133057,-0.5271546244621277,-0.03829203546047211
1.2271350970977999,-0.8154594885521901,-1.687043049251844,-0.9368288516998291,1.1017769575119019,-2.847898483276367,-0.24530352652072906,-0.9415273666381836,-0.23098145425319672,-0.9397703409194946,-0.3544321060180664,-0.023413002490997314
1.2416726375354257,-0.7295568537989324,-1.7667596995363055,-0.6443628072738647,1.0194050073623657,-2.923884391784668,-0.21543467044830322,-0.946325957775116,-0.24094609916210175,-0.8985790014266968,-0.17405062913894653,-0.004186272621154785
1.2566570929552705,-0.6421064803155333,-1.8487679317445962,-0.30845215916633606,0.8964588642120361,-2.9580752849578857,-0.18505403399467468,-0.9510626792907715,-0.24745693802833557,-0.8218429684638977,0.007565975189208984,-0.011286318302154541
1.2724191792565587,-0.554329834872263,-1.9322976689541917,0.08101693540811539,0.7180562615394592,-2.955958604812622,-0.1547379046678543,-0.9558148384094238,-0.24994875490665436,-0.7232528328895569,0.19137990474700928,-0.023549705743789673
1.2891951189505522,-0.46562162134672014,-2.018229800322057,0.4332010746002197,0.5687240362167358,-2.9548373222351074,-0.12476857006549835,-0.9606117010116577,-0.24831050634384155,-0.6355769038200378,0.3810523748397827,0.004475116729736328
1.3064222320117107,-0.3710476269248498,-2.110695171109453,0.6681908369064331,0.5566097497940063,-2.9780659675598145,-0.09474722295999527,-0.9652562141418457,-0.2435230016708374,-0.5566505193710327,0.5744175910949707,0.07563060522079468
1.3228294016170277,-0.2651889755647254,-2.2137460861800697,0.7953767776489258,0.6816635131835938,-2.9798290729522705,-0.06432602554559708,-0.9694133996963501,-0.2368537187576294,-0.4380086064338684,0.7523114085197449,0.12419809401035309
1.3373584917297026,-0.14689884088086935,-2.3276953104465687,0.9357920289039612,0.8386614322662354,-2.900686740875244,-0.033859025686979294,-0.9728769063949585,-0.22883178293704987,-0.257217675447464,0.9048075079917908,0.11092717945575714
1.3502325342574555,-0.019139767676150245,-2.4496350500168287,1.178180456161499,0.925804853439331,-2.754509687423706,-0.004187135025858879,-0.9757742285728455,-0.21873950958251953,-0.02787160873413086,1.0512900352478027,0.053288549184799194
1.3625668132176225,0.11567280424588952,-2.5786703353572564,1.5489085912704468,0.7828602194786072,-2.588787794113159,0.02385948970913887,-0.9783984422683716,-0.20534628629684448,0.20682284235954285,1.1759846210479736,0.0036556273698806763
1.3751641177072211,0.2582179991425147,-2.717861061977402,1.9402621984481812,0.4292404055595398,-2.4034361839294434,0.049638211727142334,-0.9809249639511108,-0.18794213235378265,0.4105973541736603,1.3088058233261108,0.03848230838775635
1.3875090276953348,0.40967321832386716,-2.8701119719669683,2.227907419204712,-0.050746627151966095,-2.1814687252044678,0.07259681820869446,-0.983249843120575,-0.16718026995658875,0.5736586451530457,1.4631998538970947,0.15195204317569733
1.3981297572493483,0.5668071183550178,-3.032517291935527,2.2943525314331055,-0.4699803590774536,-1.8731049299240112,0.092251718044281,-0.9851301312446594,-0.14494206011295319,0.6624784469604492,1.5675275325775146,0.28098946809768677
1.4058886815392497,0.7184513790694776,3.0908582700263936,2.114102840423584,-0.6726820468902588,-1.476333737373352,0.10805439949035645,-0.9864335060119629,-0.12358512729406357,0.674523115158081,1.596388339996338,0.36098140478134155
1.4105922204929993,0.849401422819636,2.9514112102878904,1.695798397064209,-0.6227245926856995,-1.049551248550415,0.11978127807378769,-0.9871947169303894,-0.10535228252410889,0.6142885684967041,1.5994840860366821,0.40279191732406616
1.4128218269407433,0.9467183167814517,2.8477148833542016,1.131234049797058,-0.3721185624599457,-0.644100546836853,0.12766458094120026,-0.9875479340553284,-0.09192914515733719,0.5214137434959412,1.619307518005371,0.45577502250671387
1.4137514947942642,1.0042254930115717,2.7873980115490404,0.5363587141036987,-0.03122570365667343,-0.2646876573562622,0.13196194171905518,-0.9876937866210938,-0.08394642174243927,0.44482025504112244,1.6388168334960938,0.48310112953186035
1.4143547850834997,1.022950176578398,2.770012076098984,-0.002004010137170553,0.33774930238723755,0.07814978808164597,0.13300131261348724,-0.9877879619598389,-0.08115016669034958,0.4012088179588318,1.6140087842941284,0.4574013948440552
1.4153007268773181,1.0079468426868523,2.790442562224581,-0.4189160168170929,0.6897678375244141,0.4140537679195404,0.13097843527793884,-0.9879348874092102,-0.082637719810009,0.3783751428127289,1.5635881423950195,0.3825035095214844
1.417067536011925,0.9650646599948626,2.8421653346933113,-0.6977196931838989,0.9265007376670837,0.7486501336097717,0.1258816421031952,-0.9882069826126099,-0.08718366175889969,0.3505740165710449,1.5246448516845703,0.2858225703239441
1.4194801433521238,0.8981662341305959,2.9194075337348346,-0.8860139846801758,0.928805410861969,1.023345708847046,0.11790595948696136,-0.9885735511779785,-0.09391728788614273,0.30599841475486755,1.484316349029541,0.2032465934753418
1.421653734647856,0.8099957551317274,3.017062651322173,-1.0220026969909668,0.7215131521224976,1.200600266456604,0.10762138664722443,-0.9888988733291626,-0.10245301574468613,0.2509906589984894,1.4337841272354126,0.1521051526069641
1.4223620812587099,0.7067879680694923,3.127296472549134,-1.1136964559555054,0.4397472143173218,1.2474937438964844,0.09603890776634216,-0.9890038371086121,-0.11246313899755478,0.17797839641571045,1.3766839504241943,0.10983866453170776
1.4206610582389707,0.5990744364001958,-3.043621369296745,-1.1695033311843872,0.2378966212272644,1.1730936765670776,0.08434009552001953,-0.9887508749961853,-0.1235247552394867,0.09791084378957748,1.3293118476867676,0.05444825440645218
1.4163719266709818,0.5005304022225658,-2.941800918652184,-1.159585952758789,0.20126430690288544,0.996368408203125,0.07381279021501541,-0.9881002306938171,-0.13494323194026947,0.024133354425430298,1.292391061782837,-0.027364492416381836
1.4101900792867208,0.4220484455277699,-2.859886033884681,-1.071515440940857,0.2886960804462433,0.7422111630439758,0.06550661474466324,-0.9871305227279663,-0.14588415622711182,-0.03128117322921753,1.2593015432357788,-0.12302142381668091
1.4033481467188889,0.3693551118333558,-2.8035526381334748,-0.8843843936920166,0.25435516238212585,0.413369357585907,0.06016915291547775,-0.9860132932662964,-0.15542706847190857,-0.05153271555900574,1.2270411252975464,-0.20661818981170654
1.3969344503090024,0.3433781218453016,-2.775633908827371,-0.6402709484100342,0.04297371581196785,0.024500468745827675,0.05823970586061478,-0.9849240779876709,-0.1628890186548233,-0.05608823895454407,1.190490484237671,-0.23570102453231812
1.3916488207631381,0.3414153902077836,-2.7744823734103994,-0.3616808354854584,-0.20715303719043732,-0.33225685358047485,0.059662025421857834,-0.9839959740638733,-0.16790588200092316,-0.055740535259246826,1.1818718910217285,-0.24751466512680054
1.3879717554082693,0.3586248188159536,-2.795198988178617,-0.0775580033659935,-0.4104483425617218,-0.6014240384101868,0.06381189823150635,-0.9833340644836426,-0.170240581035614,-0.04454009234905243,1.2083709239959717,-0.2646958529949188
1.3858154480551321,0.38926787546146946,-2.8310831536517274,0.15101179480552673,-0.4952591061592102,-0.7589414715766907,0.06980269402265549,-0.9829397797584534,-0.1701677441596985,-0.03458544611930847,1.229811668395996,-0.2639448046684265
1.3847818828188287,0.4285915463280706,-2.8758320543661635,0.3062679171562195,-0.4182584881782532,-0.820279061794281,0.07686085999011993,-0.9827491641044617,-0.16821607947349548,-0.02945183962583542,1.2502965927124023,-0.23359359800815582
1.3844757977077249,0.47228398546373845,-2.92380207250706,0.4112454652786255,-0.2663746774196625,-0.7849450707435608,0.08427156507968903,-0.9826924800872803,-0.16496582329273224,-0.03344458341598511,1.2869527339935303,-0.18996882438659668
1.384921713919843,0.5158128733355593,-2.970144504250458,0.4754227101802826,-0.14412595331668854,-0.6719123125076294,0.09115389734506607,-0.9827749729156494,-0.16076090931892395,-0.026944942772388458,1.3345359563827515,-0.14330093562602997
1.386006369265443,0.5557767495172623,-3.011921356709761,0.4863954782485962,-0.07952671498060226,-0.5385769009590149,0.09694202989339828,-0.9829748868942261,-0.1560857743024826,-0.04898366332054138,1.360813021659851,-0.0794031023979187
1.3872660478750343,0.5905527923698389,-3.0479357684705355,0.43138569593429565,-0.04907691478729248,-0.43723663687705994,0.10162077844142914,-0.9832055568695068,-0.15159212052822113,-0.08920016884803772,1.3573663234710693,-0.0110970139503479
1.3881311427254728,0.6201761853771806,-3.078528673714292,0.33889859914779663,-0.0434616394340992,-0.3796764016151428,0.10557211190462112,-0.9833630323410034,-0.14782385528087616,-0.13135947287082672,1.3222453594207764,0.051312074065208435
1.388399436598257,0.6447235919757826,-3.1042886712298547,0.2617330551147461,-0.1278609037399292,-0.34514954686164856,0.10900954902172089,-0.9834117293357849,-0.14497649669647217,-0.14360123872756958,1.2651500701904297,0.10161107778549194
1.388338196842331,0.6649343319580389,-3.126910440258538,0.2355179786682129,-0.27055492997169495,-0.30451664328575134,0.11195438355207443,-0.9834006428718567,-0.14279133081436157,-0.10566779971122742,1.1859915256500244,0.15167194604873657
1.388692563327662,0.6823789284807624,3.1356585130482197,0.2994467318058014,-0.26865607500076294,-0.23025986552238464,0.11420848220586777,-0.9834648966789246,-0.14054636657238007,-0.02927807718515396,1.1021630764007568,0.17147596180438995
1.3902321892502412,0.701587714581904,3.11396331071232,0.44366225600242615,-0.156962051987648,-0.18521037697792053,0.11590967327356339,-0.9837425351142883,-0.13717021048069,0.053218692541122437,1.0311057567596436,0.14360946416854858
1.3928551571657048,0.7275388989519879,3.0867044281381286,0.5773804783821106,-0.008161000907421112,-0.20709377527236938,0.11771338433027267,-0.984210193157196,-0.13218869268894196,0.08493858575820923,0.9719574451446533,0.11033815145492554
1.3959688621306137,0.759551707929109,3.0555170261457065,0.5972177982330322,0.2845720648765564,-0.15809348225593567,0.11977352201938629,-0.984756588935852,-0.12613068521022797,0.08928711712360382,0.9447021484375,0.12481848895549774
1.3994945752473886,0.7874313666068019,3.0315387365061968,0.46705424785614014,0.5462073683738708,0.0844854936003685,0.12078212201595306,-0.9853637218475342,-0.12029196321964264,0.15917083621025085,0.9315001368522644,0.20917445421218872
1.4042512261103453,0.7970872006629047,3.0281573420010526,0.2766542136669159,0.7204955220222473,0.5325682163238525,0.11858401447534561,-0.9861633777618408,-0.11584366112947464,0.2645488679409027,0.9110443592071533,0.24354451894760132
1.4113855152731487,0.7777937067804548,3.056220236722103,0.08935225009918213,0.9498222470283508,1.1250426769256592,0.11138731986284256,-0.9873209595680237,-0.11309441924095154,0.39811891317367554,0.8771066665649414,0.19877253472805023
1.4211808425297818,0.7221957879734349,3.122951619701053,-0.05077582597732544,1.097156286239624,1.6852596998214722,0.09853247553110123,-0.9888284802436829,-0.1118466705083847,0.4707271456718445,0.8291451930999756,0.13365155458450317
1.4323710793125923,0.6263628053373884,-3.051781515735125,-0.1305217295885086,1.200456142425537,2.1121795177459717,0.08088604360818863,-0.9904345273971558,-0.11178920418024063,0.4055183529853821,0.806672990322113,0.09930754452943802
1.4433106502535042,0.48897300530996807,-2.900575514343825,-0.1303214579820633,1.261901617050171,2.4107682704925537,0.05972018092870712,-0.991884708404541,-0.11224127560853958,0.3286769986152649,0.8387017846107483,0.04522473365068436
1.4520319608969314,0.31059672672687305,-2.709089861999912,-0.09899585694074631,1.0247089862823486,2.5563347339630127,0.036212045699357986,-0.9929558038711548,-0.11281517893075943,0.29279792308807373,0.8732202053070068,-0.032509490847587585
1.4567080010094182,0.10023588429356058,-2.4893615799609243,-0.023475006222724915,0.5189230442047119,2.599905014038086,0.01139180175960064,-0.9934989809989929,-0.11326906085014343,0.25571325421333313,0.8642113208770752,-0.04768060892820358
1.457193822397692,-0.12919171347680528,-2.2569847805347623,0.2249620258808136,-0.25557741522789,2.64884090423584,-0.01460407953709364,-0.9935541749000549,-0.11241231113672256,0.2670759856700897,0.7648708820343018,-0.038680173456668854
1.4550951398271674,-0.36883074950209593,-2.022370229117187,0.709962010383606,-1.0372090339660645,2.6076180934906006,-0.04162006080150604,-0.9933140873908997,-0.10767931491136551,0.24656081199645996,0.5861486196517944,-0.060472480952739716
1.451857771698098,-0.610721159712022,-1.7920319347502562,1.2311029434204102,-1.5146770477294922,2.410804271697998,-0.06804497539997101,-0.9929351210594177,-0.09720809757709503,0.08635549247264862,0.36505138874053955,-0.019506320357322693
1.4472260408179383,-0.8432746590036663,-1.572753956459084,1.5582671165466309,-1.373541235923767,2.14304780960083,-0.09205014258623123,-0.9923748970031738,-0.08196735382080078,-0.17920538783073425,0.08385145664215088,0.14657306671142578
1.439942802721454,-1.0496393242535198,-1.3759245155642814,1.5944318771362305,-0.8313940763473511,1.9542806148529053,-0.1131579577922821,-0.9914509057998657,-0.06496388465166092,-0.4151318669319153,-0.1107524037361145,0.3693157434463501
1.4285024851551826,-1.2175517118951094,-1.2129553600684546,1.4400265216827393,-0.5110176801681519,2.019951820373535,-0.13305702805519104,-0.9898933172225952,-0.0490594319999218,-0.5884090662002563,-0.18883275985717773,0.5003229379653931
1.4113696421227242,-1.3515854390660962,-1.0826232167122558,1.3642412424087524,-0.5369877219200134,2.3749260902404785,-0.15495242178440094,-0.9873184561729431,-0.034522004425525665,-0.5590368509292603,-0.30742019414901733,0.47270870208740234
1.388275403334141,-1.462787538280847,-0.975524748106704,1.4947165250778198,-0.5787268877029419,2.7354142665863037,-0.18045102059841156,-0.9833892583847046,-0.01956644281744957,-0.41461125016212463,-0.48220205307006836,0.32750409841537476
1.3610999227612182,-1.5580614723968704,-0.8840635330833879,1.723280429840088,-0.5294432640075684,2.835087299346924,-0.20814554393291473,-0.9780941605567932,-0.0026508464943617582,-0.44207724928855896,-0.7850740551948547,0.19691050052642822
1.3330627041484522,-1.637949199020472,-0.8076698249873976,1.7663885354995728,-0.5634824633598328,2.6277592182159424,-0.2349698692560196,-0.9718741774559021,0.015802662819623947,-0.6262972354888916,-1.1962471008300781,0.26355528831481934
1.306564496578188,-1.698551684477573,-0.7519684407445183,1.4464735984802246,-0.7842788696289062,2.3766074180603027,-0.2590397596359253,-0.9652934074401855,0.03327494487166405,-0.805306613445282,-1.5103079080581665,0.5179488658905029
1.2815482390055153,-1.7367863495688511,-0.7220966836569941,0.8800862431526184,-1.1120191812515259,2.3565549850463867,-0.28131103515625,-0.9584586024284363,0.04712846130132675,-0.85577392578125,-1.7222206592559814,0.7091734409332275
1.2563242912703618,-1.7543603466282072,-0.7166438276542193,0.3271012306213379,-1.298798680305481,2.555725574493408,-0.30411797761917114,-0.9509598016738892,0.05646070837974548,-0.8526813387870789,-1.9933456182479858,0.6500213146209717
1.229854247125809,-1.7546881114062636,-0.7286075163375964,-0.09851076453924179,-0.9580509066581726,2.7599942684173584,-0.32873761653900146,-0.9424400925636292,0.06114291399717331,-0.894879937171936,-2.3495216369628906,0.3869009017944336
1.2027381745327637,-1.7419339206706206,-0.7491263015461671,-0.31361228227615356,-0.33284884691238403,2.777843713760376,-0.3545483648777008,-0.9330278038978577,0.061275944113731384,-1.027882695198059,-2.736253261566162,0.08908414840698242
1.1769243417722381,-1.7228357156762693,-0.7701188914952293,-0.3901587128639221,0.23914942145347595,2.5198147296905518,-0.3793400526046753,-0.9234300255775452,0.05812317878007889,-1.2357265949249268,-3.0972304344177246,-0.16444635391235352
1.1548871256458573,-1.69973224396451,-0.7898357669363179,-0.5431424975395203,0.7448604702949524,2.0208580493927,-0.4006681740283966,-0.9147493839263916,0.05194871127605438,-1.4419527053833008,-3.379089117050171,-0.2687608003616333
1.138776531982014,-1.6715750538847363,-0.8108060754849785,-0.8023083209991455,1.0103490352630615,1.358616590499878,-0.41658154129981995,-0.9081218838691711,0.04212526977062225,-1.592894196510315,-3.5280351638793945,-0.22301816940307617
1.1297173360693167,-1.6388340728003157,-0.8356629148613008,-1.1299071311950684,1.0099117755889893,0.6155039668083191,-0.42592743039131165,-0.904291570186615,0.029023941606283188,-1.7183902263641357,-3.5489859580993652,-0.11755537986755371
1.1279097047287867,-1.6010801484885049,-0.8660647512986289,-1.4352623224258423,1.0688214302062988,-0.12402096390724182,-0.428352952003479,-0.9035183787345886,0.012976131401956081,-1.7739022970199585,-3.464996576309204,-0.03609311580657959
1.1327645505583754,-1.5559246214969746,-0.9027481229930742,-1.6742867231369019,1.3382819890975952,-0.8073638081550598,-0.4241110384464264,-0.9055882692337036,-0.006307719275355339,-1.739219069480896,-3.291158676147461,-0.04014003276824951
1.1429341786634364,-1.5023849777312586,-0.94528534272895,-1.7737805843353271,1.6311546564102173,-1.3451851606369019,-0.4139557182788849,-0.9098548889160156,-0.028363531455397606,-1.620391845703125,-2.9956166744232178,-0.13101446628570557
1.156615992828988,-1.4420712164554934,-0.9920722317954231,-1.7368501424789429,1.8745696544647217,-1.7266441583633423,-0.3991101384162903,-0.9154465198516846,-0.05166115611791611,-1.4288623332977295,-2.6732070446014404,-0.2399953007698059
1.1723355327376872,-1.3759475535837098,-1.0424467122505845,-1.6801987886428833,2.0720603466033936,-1.9877172708511353,-0.38065773248672485,-0.9216592907905579,-0.07512382417917252,-1.2405885457992554,-2.369661331176758,-0.2658337354660034
1.1887351581244556,-1.3033555828564583,-1.0977804929560084,-1.6610068082809448,2.1847264766693115,-2.146275043487549,-0.35957998037338257,-0.927898108959198,-0.09852664172649384,-1.0762568712234497,-2.0808451175689697,-0.19045954942703247
1.2048255147670255,-1.2234507525386342,-1.1597946606159524,-1.6799546480178833,2.2279603481292725,-2.274695873260498,-0.3364846706390381,-0.9337767958641052,-0.1218152791261673,-0.9822562336921692,-1.80780029296875,-0.09763658046722412
1.2199761464575396,-1.135464221648158,-1.2299216473999723,-1.6904332637786865,2.213672399520874,-2.3827013969421387,-0.31161418557167053,-0.939091145992279,-0.14492879807949066,-0.9380196332931519,-1.5471758842468262,-0.039488911628723145
1.2339479283155321,-1.0414181130915634,-1.306652858961801,-1.5675779581069946,2.1162822246551514,-2.477491617202759,-0.2852739095687866,-0.9438009858131409,-0.1669086366891861,-0.8854109644889832,-1.2912911176681519,-0.03713184595108032
1.2474059351262863,-0.9443339306396482,-1.3879230777447447,-1.3598532676696777,1.897143840789795,-2.6500799655914307,-0.25743815302848816,-0.9481634497642517,-0.18631067872047424,-0.8437429070472717,-1.0766167640686035,-0.06249910593032837
1.2612661671598462,-0.8436092827062911,-1.4754660180085735,-1.1430690288543701,1.585731863975525,-2.9055681228637695,-0.22755903005599976,-0.9524767994880676,-0.2024966925382614,-0.862223744392395,-0.8739849925041199,-0.025759458541870117
1.2754225028880977,-0.7368496503168752,-1.572363982092415,-0.9612764120101929,1.2662677764892578,-3.135333299636841,-0.19560506939888,-0.9566934108734131,-0.21558335423469543,-0.8634769916534424,-0.6130543947219849,0.06252250075340271
1.2888066576194095,-0.6221515325148854,-1.6798141014891796,-0.7953351140022278,1.0769178867340088,-3.2635433673858643,-0.16216981410980225,-0.9605036973953247,-0.22612714767456055,-0.7600103616714478,-0.3362186551094055,0.13994552195072174
1.3004135409461144,-0.5016716858002034,-1.7948924923807412,-0.5704039931297302,0.8505645990371704,-3.2392454147338867,-0.12844634056091309,-0.963668704032898,-0.23418810963630676,-0.5910055637359619,-0.08959966897964478,0.16061027348041534
1.3101323726320107,-0.3819651666971335,-1.9118546878041232,-0.2876061201095581,0.5023088455200195,-3.1099159717559814,-0.09606444835662842,-0.9662190675735474,-0.2391488254070282,-0.40413394570350647,0.11999726295471191,0.12495209276676178
1.318541967847286,-0.2669978304295146,-2.0276167130295044,0.013634600676596165,0.0846680998802185,-2.9769153594970703,-0.0658503919839859,-0.968352198600769,-0.2407439947128296,-0.24960985779762268,0.30660903453826904,0.09882205724716187
1.326399954534323,-0.15630494225162947,-2.143222542010813,0.3288170397281647,-0.3535763621330261,-2.890645980834961,-0.037667423486709595,-0.970283567905426,-0.23902104794979095,-0.12607470154762268,0.4802170395851135,0.09026312828063965
1.334075471116919,-0.04637513006019472,-2.261632528514448,0.6058900356292725,-0.6194302439689636,-2.86128568649292,-0.010871834121644497,-0.972112238407135,-0.2342643439769745,0.009269624948501587,0.6238455772399902,0.08572006225585938
1.340510342892771,0.06881283888583012,-2.3862077771194103,0.715535581111908,-0.5363265872001648,-2.8669464588165283,0.015694528818130493,-0.9736011624336243,-0.22771549224853516,0.13710695505142212,0.7484883069992065,0.13481999933719635
1.3439266892258603,0.19048920105414413,-2.515233228364597,0.7000475525856018,-0.2730991244316101,-2.810807704925537,0.0425877682864666,-0.9743752479553223,-0.22085978090763092,0.2615351378917694,0.861307680606842,0.2051585465669632
1.3436416321935696,0.31028612594112587,-2.6410381664534253,0.6388441324234009,-0.34202679991722107,-2.65449857711792,0.06876248121261597,-0.974311113357544,-0.2144518345594406,0.35192227363586426,0.9572365283966064,0.2022295594215393
1.340287479457907,0.41556951229158273,-2.7547550661702442,0.5664862990379333,-0.7781033515930176,-2.371429443359375,0.09223709255456924,-0.9735502600669861,-0.20902693271636963,0.38722455501556396,1.0521788597106934,0.2034117579460144
1.3354802951441065,0.4978483745170896,-2.8499679352194884,0.5116456747055054,-1.267216444015503,-1.9699395895004272,0.11133779585361481,-0.9724407196044922,-0.20484882593154907,0.4002283215522766,1.1385631561279297,0.22665369510650635
1.331031688868076,0.5561059262023172,-2.924577307551523,0.4877791404724121,-1.5379302501678467,-1.4966524839401245,0.1253584325313568,-0.971393883228302,-0.2016907036304474,0.3858567476272583,1.1944010257720947,0.2516937851905823
1.3282755722645043,0.5945737864328955,-2.9802717606318723,0.4988669455051422,-1.5495365858078003,-1.0379797220230103,0.13452158868312836,-0.9707357287406921,-0.19893749058246613,0.32644641399383545,1.2012808322906494,0.2773066759109497
1.327576555622563,0.6196724943172783,-3.0212013478489292,0.5018803477287292,-1.3321130275726318,-0.6604664325714111,0.13986577093601227,-0.9705675840377808,-0.19605115056037903,0.17872245609760284,1.1970995664596558,0.3340822458267212
1.3285670073566835,0.6358603413397402,-3.049302449621095,0.4382108449935913,-0.8600786328315735,-0.32073843479156494,0.14245016872882843,-0.9708056449890137,-0.19298815727233887,0.015203595161437988,1.2351336479187012,0.43247491121292114
1.3304394701655675,0.6450362910162986,-3.0652982399299593,0.31522953510284424,-0.4494099020957947,-0.09154998511075974,0.14312176406383514,-0.9712530970573425,-0.1902199387550354,-0.07346543669700623,1.3069770336151123,0.5159950852394104
1.3320259275544537,0.6484747273631515,-3.073212696227437,0.1598777323961258,-0.4424779415130615,-0.0389552116394043,0.142844095826149,-0.9716295003890991,-0.18849830329418182,-0.10405626893043518,1.3496202230453491,0.5681523084640503
1.332223174145395,0.6477948693469063,-3.0780787928244915,0.01083063893020153,-0.6460733413696289,-0.13442549109458923,0.14260035753250122,-0.9716761708259583,-0.188442662358284,-0.12836392223834991,1.345440149307251,0.5658231377601624
1.3304842741477556,0.6451584656380751,-3.0832487922518865,-0.14295226335525513,-0.8739123344421387,-0.26224446296691895,0.1431187093257904,-0.9712637662887573,-0.19016751646995544,-0.1498783975839615,1.3631857633590698,0.5004398226737976
1.326836137696695,0.6398772662725455,-3.087407999560126,-0.3247189223766327,-0.9544253945350647,-0.32107898592948914,0.14422695338726044,-0.9703890085220337,-0.19376148283481598,-0.1450509876012802,1.4180209636688232,0.4333397448062897
1.3216539915538241,0.6307770433214476,-3.087444556520718,-0.5023658871650696,-0.8516627550125122,-0.2829265296459198,0.14542168378829956,-0.9691242575645447,-0.19912445545196533,-0.12505124509334564,1.477165699005127,0.34760782122612
1.3156270162164978,0.6166968001209928,-3.0807264739034887,-0.6627036333084106,-0.6486676931381226,-0.13726292550563812,0.14597918093204498,-0.9676205515861511,-0.20591363310813904,-0.09445026516914368,1.511321783065796,0.23966610431671143
1.3094520076265648,0.5972096762989605,-3.0659461228270475,-0.7689406275749207,-0.3898313641548157,0.057433854788541794,0.14529633522033691,-0.9660435318946838,-0.21365590393543243,-0.0693075954914093,1.515359878540039,0.12164545059204102
1.3037817292163938,0.5737277091878308,-3.0446590617017835,-0.7807943224906921,-0.20912550389766693,0.23338836431503296,0.14321057498455048,-0.9645628929138184,-0.22160573303699493,-0.04682081937789917,1.5011839866638184,0.0037255287170410156
1.298905495375215,0.5482229911690362,-3.0200059976456464,-0.7326411604881287,-0.1558188647031784,0.34511837363243103,0.1399623602628708,-0.9632648229598999,-0.2291974127292633,-0.03423422574996948,1.4718097448349,-0.0804186463356018
1.2949044950014712,0.5229072521442599,-2.9957248001920833,-0.6118326187133789,-0.24516913294792175,0.3640596568584442,0.1360393762588501,-0.9621826410293579,-0.23600387573242188,-0.04962891340255737,1.428521752357483,-0.13655465841293335
1.2920007870722148,0.5009026435256495,-2.9760189434332176,-0.4096558392047882,-0.35456299781799316,0.2785796523094177,0.13215482234954834,-0.961387574672699,-0.241389662027359,-0.06834261119365692,1.3779067993164062,-0.1837354153394699
1.2904891634147702,0.4867138865124383,-2.9652075175837473,-0.12456909567117691,-0.399057000875473,0.09178517758846283,0.12939628958702087,-0.9609705209732056,-0.2445247918367386,-0.09556758403778076,1.3117852210998535,-0.24522125720977783
1.2907495933379758,0.48423731456436325,-2.967010697861069,0.22557400166988373,-0.4452194273471832,-0.15735593438148499,0.1286737322807312,-0.9610425233840942,-0.24462288618087769,-0.11848089098930359,1.2352582216262817,-0.29401230812072754
1.2930177554185325,0.4948482404243831,-2.9830366402049617,0.5830118656158447,-0.5088930130004883,-0.4037473797798157,0.1302264928817749,-0.9616669416427612,-0.24132464826107025,-0.12134592235088348,1.1768007278442383,-0.29425883293151855
1.2968606699006753,0.5179457060594831,-3.0125864209883333,0.8472900986671448,-0.5474364161491394,-0.6236554980278015,0.13393445312976837,-0.9627136588096619,-0.2350398302078247,-0.11911822855472565,1.1499238014221191,-0.23670080304145813
1.3009664509593823,0.5519318062929092,-3.0536248581920478,0.9569257497787476,-0.557439386844635,-0.8482521176338196,0.13977013528347015,-0.9638162851333618,-0.22698567807674408,-0.14701807498931885,1.1434121131896973,-0.13348788022994995
1.3038182824454825,0.5943630365231393,-3.103323337468653,0.9381579160690308,-0.5309507846832275,-1.0436503887176514,0.14773307740688324,-0.964572548866272,-0.21857458353042603,-0.18920648097991943,1.1393160820007324,-0.007011294364929199
1.3047497293173773,0.6419041899627428,3.1252324561670637,0.8913314938545227,-0.49332618713378906,-1.1740078926086426,0.15741541981697083,-0.9648178815841675,-0.21058699488639832,-0.2012234330177307,1.1342819929122925,0.0735020637512207
1.304176148854024,0.6920365042841125,3.068377720699235,0.8656823635101318,-0.4431634247303009,-1.2335858345031738,0.1681237667798996,-0.9646669030189514,-0.20286044478416443,-0.2116723507642746,1.1414551734924316,0.11164340376853943
1.3024046201921993,0.7426250001511107,3.011761036973016,0.8228635191917419,-0.3439967632293701,-1.2403385639190674,0.17932164669036865,-0.964198648929596,-0.19535765051841736,-0.2590336203575134,1.1510273218154907,0.14495792984962463
1.2996409681834276,0.7915737975684722,2.958550129039098,0.7358617782592773,-0.10298202186822891,-1.1665804386138916,0.1905607134103775,-0.9634620547294617,-0.18822145462036133,-0.3214353919029236,1.1535255908966064,0.1766706109046936
1.2962974583162237,0.8366358581443331,2.912335955814283,0.6059339046478271,0.21759669482707977,-1.0098873376846313,0.20123648643493652,-0.9625611305236816,-0.18160346150398254,-0.3557470440864563,1.1488099098205566,0.2056056410074234
1.292922119412624,0.8752899604657343,2.8762998048204254,0.42861050367355347,0.5755156874656677,-0.7747525572776794,0.2105974406003952,-0.9616407155990601,-0.17577213048934937,-0.3585161566734314,1.1311811208724976,0.25697946548461914
1.290075563684544,0.9059784029790696,2.8521018842537553,0.24972300231456757,0.9013779163360596,-0.4998980760574341,0.2180451899766922,-0.960856020450592,-0.17091557383537292,-0.3143281638622284,1.0945992469787598,0.3158283233642578
1.2883483032567176,0.9285584605516589,2.8396753454619503,0.08774794638156891,1.2229934930801392,-0.1923983097076416,0.22317732870578766,-0.9603760242462158,-0.16694290935993195,-0.24887312948703766,1.0632811784744263,0.3467830419540405
1.2880842424738328,0.9436011412240043,2.838216498912215,-0.04364696517586708,1.4692436456680298,0.0962442010641098,0.2258683145046234,-0.9603024125099182,-0.16371558606624603,-0.1812211573123932,1.0420894622802734,0.324116051197052
1.2892664219548884,0.9518223567120188,2.8446647911729803,-0.10543549805879593,1.3576021194458008,0.28664901852607727,0.226282000541687,-0.9606314897537231,-0.16119451820850372,-0.1265047937631607,1.0281363725662231,0.2975165843963623
1.2911569704114008,0.9534144468617226,2.8555015974751803,-0.16561292111873627,1.0356380939483643,0.36041101813316345,0.22505678236484528,-0.9611550569534302,-0.15978218615055084,-0.10497015714645386,0.9971810579299927,0.3323438763618469
1.293193220146479,0.9483258501193293,2.870576557782794,-0.2815834879875183,0.8707469701766968,0.4545742869377136,0.22265049815177917,-0.961715042591095,-0.15978406369686127,-0.057153716683387756,0.9272912740707397,0.38553792238235474
1.295198282289565,0.9355483925566551,2.892913416527064,-0.47827285528182983,0.8787931799888611,0.5781617164611816,0.21903787553310394,-0.9622626304626465,-0.16147109866142273,0.037447065114974976,0.8503852486610413,0.4224116802215576
1.2967015094437069,0.9137379498405311,2.9254918330051347,-0.758077085018158,1.0431582927703857,0.7402576804161072,0.21431869268417358,-0.962670624256134,-0.16532590985298157,0.08315134048461914,0.8073667287826538,0.46345216035842896
1.2980600981569015,0.8800721292998397,2.9725940885950703,-1.0532599687576294,1.3028565645217896,1.0735387802124023,0.20762422680854797,-0.9630374312400818,-0.1716127097606659,0.12884727120399475,0.8053379058837891,0.4507112503051758
1.3001666039860944,0.8324279224098007,3.037303632383134,-1.2693440914154053,1.625151515007019,1.5167125463485718,0.197714701294899,-0.9636027216911316,-0.17994055151939392,0.19805246591567993,0.8447062969207764,0.3603758215904236
1.3036136747672242,0.7711525093054499,3.118612795627122,-1.321316123008728,1.7391564846038818,1.9677104949951172,0.18400868773460388,-0.9645185470581055,-0.18932747840881348,0.24041447043418884,0.8702192306518555,0.16898751258850098
1.3088980142909645,0.6970358154092903,-3.0705618197371702,-1.1578925848007202,1.543318510055542,2.3636138439178467,0.1662096232175827,-0.9659002423286438,-0.19852234423160553,0.3120160400867462,0.7927281856536865,-0.02707880735397339
1.3162184936206138,0.6118300959883419,-2.968447644960172,-0.8369969129562378,1.131702184677124,2.626210927963257,0.14464642107486725,-0.9677696824073792,-0.20615285634994507,0.36354750394821167,0.6643792986869812,-0.16115663945674896
1.325255197751742,0.5178224055283667,-2.86267204702232,-0.43120867013931274,0.5302507281303406,2.717047691345215,0.1203225702047348,-0.9700059294700623,-0.21121303737163544,0.373329758644104,0.5315751433372498,-0.17939668893814087
1.335368813410473,0.4176633196845578,-2.7578803775973104,-0.023274453356862068,-0.1996505707502365,2.6115522384643555,0.0946156233549118,-0.9724147319793701,-0.21320736408233643,0.3244059383869171,0.4115322232246399,-0.08095155656337738
1.3457039512986881,0.31465426563382193,-2.6570164636995357,0.28686052560806274,-0.7290217876434326,2.4003121852874756,0.06907645612955093,-0.9747734665870667,-0.21223795413970947,0.2325592339038849,0.3457757234573364,0.08711589872837067
1.3553188516480854,0.21074948169270782,-2.560576518610022,0.45137327909469604,-1.236428141593933,2.1532504558563232,0.04472822695970535,-0.9768744111061096,-0.20908261835575104,0.15749645233154297,0.33687514066696167,0.19692137837409973
1.363528595973341,0.10338771018430468,-2.465912522667041,0.5461522340774536,-1.6979156732559204,2.0337886810302734,0.021237915381789207,-0.9785968065261841,-0.2046876698732376,0.14422836899757385,0.27916455268859863,0.20955529808998108
1.3706811654563493,-0.014283560911573357,-2.3648132611712662,0.7060357928276062,-1.9943631887435913,2.1344783306121826,-0.0028392162639647722,-0.9800437092781067,-0.19876158237457275,0.20672711730003357,0.16053998470306396,0.05749578773975372
1.377147375112931,-0.15324713242942586,-2.2436898857438607,0.9800193905830383,-1.9616992473602295,2.4828577041625977,-0.02937571331858635,-0.9813085794448853,-0.1901855617761612,0.30072271823883057,-0.10052430629730225,-0.19836419820785522
1.3816400817501666,-0.3200981281018142,-2.091364536891718,1.2353123426437378,-1.4515761137008667,2.9121830463409424,-0.05916541814804077,-0.9821632504463196,-0.17847879230976105,0.2622903883457184,-0.45143043994903564,-0.31930863857269287
1.3812472389660886,-0.5067069277934464,-1.9134313689194744,1.3463648557662964,-0.9260087013244629,3.1993935108184814,-0.0914381593465805,-0.9820892810821533,-0.16474060714244843,0.05243668705224991,-0.6673094034194946,-0.09868709743022919
1.3739899860943416,-0.68924368030419,-1.7354376794164637,1.2836296558380127,-0.6870085597038269,3.185946226119995,-0.12435301393270493,-0.9806960821151733,-0.15090186893939972,-0.20815128087997437,-0.7475448250770569,0.3114091157913208
1.3619769600717748,-0.8442157433829356,-1.5849271349519047,1.1813783645629883,-0.8594293594360352,2.773634910583496,-0.15495048463344574,-0.9782763719558716,-0.1377166360616684,-0.5144068598747253,-0.7965192198753357,0.6241363286972046
1.3498952453572242,-0.9650558260036732,-1.471985393419844,1.1160600185394287,-1.2357239723205566,2.061981678009033,-0.18012484908103943,-0.9757004380226135,-0.12475401163101196,-0.7511190176010132,-0.8975447416305542,0.6385327577590942
1.3415121485791506,-1.0603633141203963,-1.3881350965984998,1.183584451675415,-1.430346131324768,1.3466782569885254,-0.19830965995788574,-0.9738293290138245,-0.11103900521993637,-0.7883236408233643,-1.0803545713424683,0.34150779247283936
1.3374844622036344,-1.1444976449008446,-1.3160481878649644,1.4110090732574463,-1.321211576461792,0.9082229733467102,-0.21050912141799927,-0.9729060530662537,-0.09560246020555496,-0.7156841158866882,-1.219614028930664,-0.09102773666381836
1.3347782226264924,-1.2319193754095927,-1.2384750646501295,1.7284373044967651,-1.0568478107452393,1.0039445161819458,-0.22053495049476624,-0.9722768068313599,-0.07773279398679733,-0.5946658849716187,-1.2658824920654297,-0.4292098879814148
1.3281613162132457,-1.328120053271015,-1.1488011452250493,1.9243074655532837,-0.7511020302772522,1.4948416948318481,-0.23322135210037231,-0.9707082509994507,-0.0577351376414299,-0.4315430819988251,-1.3281807899475098,-0.497516930103302
1.314618866263143,-1.4219575965240767,-1.058476780644205,1.8883709907531738,-0.5317347645759583,2.004523515701294,-0.25058355927467346,-0.9673656225204468,-0.0375744104385376,-0.3688012659549713,-1.4289662837982178,-0.3078997731208801
1.2939101368154915,-1.5020097834443877,-0.9813294693043557,1.653098464012146,-0.6264837980270386,2.5422871112823486,-0.27271535992622375,-0.9619113206863403,-0.018788790330290794,-0.41977429389953613,-1.7896145582199097,-0.11622089147567749
1.2672088513529536,-1.5592430450826844,-0.9291047602030509,1.0633553266525269,-0.7762905955314636,2.832310438156128,-0.29892587661743164,-0.9542701840400696,-0.003453728510066867,-0.6028228998184204,-2.3244011402130127,0.07191991806030273
1.2397095849569708,-1.5858327295053538,-0.9086200077203289,0.20832553505897522,-0.5920611619949341,2.5903890132904053,-0.32503432035446167,-0.9456896185874939,0.004887715447694063,-1.201958417892456,-2.7819714546203613,0.3143109083175659
1.2164907388778228,-1.5826407913586815,-0.9158065445396446,-0.6055369973182678,-0.07186564058065414,2.0213117599487305,-0.34691479802131653,-0.9378876090049744,0.004109212197363377,-1.8061614036560059,-3.189004421234131,0.34040379524230957
1.1997580248351518,-1.5550371917898043,-0.941762467111334,-1.1999982595443726,0.7713067531585693,1.2959599494934082,-0.36253821849823,-0.9319514036178589,-0.005713761784136295,-2.1356611251831055,-3.440958023071289,0.1135324239730835
1.1903814219774462,-1.5088090691097453,-0.9780711096649827,-1.48296320438385,1.6973068714141846,0.4683319628238678,-0.37059229612350464,-0.9285106658935547,-0.023001467809081078,-2.168088674545288,-3.4470386505126953,-0.2172328233718872
1.188288820715516,-1.452302494343184,-1.0170149974364884,-1.3799539804458618,2.3117921352386475,-0.29268839955329895,-0.3706305921077728,-0.9277316331863403,-0.044124145060777664,-1.9311882257461548,-3.1673460006713867,-0.5284923315048218
1.1924029876841864,-1.3960609302459333,-1.0511838719658386,-0.9829352498054504,2.5344576835632324,-0.863847553730011,-0.36380255222320557,-0.9292593598365784,-0.06422416120767593,-1.546643614768982,-2.756882667541504,-0.7511597275733948
1.2014647179571685,-1.3456889287787641,-1.078021025779778,-0.5870547890663147,2.5057222843170166,-1.2839434146881104,-0.3518843352794647,-0.9325688481330872,-0.08057743310928345,-1.1462388038635254,-2.394289493560791,-0.8000224828720093
1.214547942554388,-1.2999122744220886,-1.101026808435577,-0.3727630376815796,2.3126583099365234,-1.6382533311843872,-0.33604297041893005,-0.937211811542511,-0.09332253783941269,-0.8632978796958923,-2.0348949432373047,-0.6124421954154968
1.2307666413693474,-1.255589302960605,-1.1252836070663164,-0.27833738923072815,1.959513783454895,-1.9182628393173218,-0.3170833885669708,-0.942744791507721,-0.10339406132698059,-0.6435031890869141,-1.7179759740829468,-0.38214051723480225
1.2488253653024344,-1.211930513853782,-1.1529605733524426,-0.22555193305015564,1.5245639085769653,-2.0574960708618164,-0.29627853631973267,-0.9486135840415955,-0.11113660037517548,-0.4100203514099121,-1.4753823280334473,-0.24175333976745605
1.2675131572404081,-1.1681466888647352,-1.1853588400660051,-0.24396418035030365,1.0526632070541382,-2.139429807662964,-0.2747703790664673,-0.954361081123352,-0.11703020334243774,-0.23237073421478271,-1.303680181503296,-0.13263404369354248
1.2861721187466362,-1.1206301137686523,-1.2262882994735071,-0.3829556107521057,0.6281339526176453,-2.2239224910736084,-0.25282204151153564,-0.95976722240448,-0.12217880040407181,-0.17866602540016174,-1.1664228439331055,-0.011411838233470917
1.3039432433261229,-1.06271892075909,-1.2807035680828975,-0.6125619411468506,0.5295788049697876,-2.2747931480407715,-0.23038744926452637,-0.9646055102348328,-0.12828832864761353,-0.16257217526435852,-1.015634298324585,0.1084977388381958
1.319753938978809,-0.9886841822120165,-1.3508602076743028,-0.8032932877540588,0.7203977704048157,-2.264177083969116,-0.20750106871128082,-0.9686539769172668,-0.13657543063163757,-0.11784686148166656,-0.8420302271842957,0.19184279441833496
1.3327781693249448,-0.9007026713363656,-1.4330286063341464,-0.8763805627822876,0.9122728705406189,-2.145585536956787,-0.18479320406913757,-0.9718071818351746,-0.1464313566684723,-0.06329946219921112,-0.6670019626617432,0.15010876953601837
1.3424607950286678,-0.8069492242691332,-1.5194258371032037,-0.8400150537490845,1.01399827003479,-1.9066237211227417,-0.16346995532512665,-0.9740445017814636,-0.1565716564655304,0.015932708978652954,-0.5121309757232666,0.05171334743499756
1.3490225633753707,-0.7179046232255744,-1.5998087499451306,-0.6653230786323547,1.1179332733154297,-1.5801008939743042,-0.14469128847122192,-0.9755088090896606,-0.16567057371139526,0.11086255311965942,-0.37121647596359253,-0.07340410351753235
1.3540607786596037,-0.6418082377925433,-1.665762142156301,-0.3347427546977997,1.2090445756912231,-1.2791695594787598,-0.1287342607975006,-0.9766046404838562,-0.17225241661071777,0.18026316165924072,-0.2514837384223938,-0.17981362342834473
1.3597953172637145,-0.5819494601544529,-1.7147637372177968,0.0803917720913887,1.1437196731567383,-1.094866394996643,-0.11511862277984619,-0.9778217673301697,-0.17496339976787567,0.1913057267665863,-0.15224409103393555,-0.21163319051265717
1.3679664835775303,-0.535040779094585,-1.75329933555556,0.44980815052986145,0.6099276542663574,-1.1495637893676758,-0.10271050035953522,-0.9795004725456238,-0.17329010367393494,0.18045398592948914,-0.10146266222000122,-0.17068874835968018
1.37934357091084,-0.48941237828581735,-1.7985524054709527,0.631129264831543,-0.38787421584129333,-1.5358741283416748,-0.08945425599813461,-0.9817288517951965,-0.16794708371162415,0.07213550806045532,-0.11168533563613892,-0.005026489496231079
1.3927685130056533,-0.4257565066103077,-1.8720675633088713,0.5440468192100525,-1.2824581861495972,-2.062547445297241,-0.0731392502784729,-0.9841948747634888,-0.16127909719944,-0.07433696836233139,-0.10279542207717896,0.22428269684314728
1.4048261452669648,-0.3266084910460762,-1.9877221322136642,0.21795208752155304,-1.5750092267990112,-2.4546523094177246,-0.05300438404083252,-0.9862585067749023,-0.15647520124912262,-0.12292951345443726,-0.021813273429870605,0.4058038592338562
1.4114709592873016,-0.19130523031786523,-2.1393824611427954,-0.1975359320640564,-1.2294172048568726,-2.5769405364990234,-0.03016607090830803,-0.9873345494270325,-0.15575720369815826,-0.08221495151519775,0.10586494207382202,0.47814494371414185
1.4106837468926308,-0.04170541704613318,-2.300253538957137,-0.5318899750709534,-0.596881628036499,-2.427851438522339,-0.006647164933383465,-0.9872093200683594,-0.1592913120985031,-0.05263328552246094,0.23405075073242188,0.4426317811012268
1.4039146985604982,0.09067488773452134,-2.4373355843959503,-0.6788411140441895,0.002012445591390133,-2.021348476409912,0.015041154809296131,-0.9861075282096863,-0.16542518138885498,-0.01980191469192505,0.38858872652053833,0.35576331615448
1.3951091052543672,0.187716693286507,-2.5334507735240845,-0.572190523147583,0.43965306878089905,-1.438410997390747,0.03261769562959671,-0.9846066832542419,-0.17171445488929749,0.055715411901474,0.5640743970870972,0.22583740949630737
1.388727349026963,0.24857563534803107,-2.5894633437726906,-0.21728834509849548,0.6843522787094116,-0.7779390811920166,0.04454627260565758,-0.983471155166626,-0.1754997819662094,0.17530232667922974,0.7083856463432312,0.07097707688808441
1.3874998687709519,0.28248286713079523,-2.6165652819028486,0.23881348967552185,0.738154947757721,-0.2609529495239258,0.050806738436222076,-0.9832481741905212,-0.1750481128692627,0.24657177925109863,0.7780937552452087,-0.05403202772140503
1.3916248610277204,0.3021448518895102,-2.629735500543256,0.6779053807258606,0.5597193837165833,0.01327619981020689,0.053031131625175476,-0.9839916825294495,-0.1701417714357376,0.22541123628616333,0.792051374912262,-0.07827126979827881
1.400035486058892,0.3189517785056154,-2.6432172500340636,1.0476781129837036,0.12149345874786377,0.023894330486655235,0.05328581482172012,-0.9854557514190674,-0.161361426115036,0.1669900119304657,0.7782567143440247,0.00022865831851959229
1.4108355804327537,0.3451617542105011,-2.6713601056522402,1.2615238428115845,-0.4326038062572479,-0.22385527193546295,0.053892068564891815,-0.9872335195541382,-0.1498853862285614,0.0499439537525177,0.7994893789291382,0.1507246494293213
1.421085658355567,0.3931199557916275,-2.7269924553633493,1.2286213636398315,-0.9574544429779053,-0.6446096897125244,0.05713610351085663,-0.9888142943382263,-0.13777472078800201,-0.09537467360496521,0.8829488158226013,0.3182404637336731
1.4276680178452974,0.46604720977840547,-2.812949764772447,0.9832728505134583,-1.4583364725112915,-1.0731655359268188,0.06409671902656555,-0.9897746443748474,-0.1274280846118927,-0.20322638750076294,0.9961985349655151,0.4134235978126526
1.4286384725588401,0.5517137890073555,-2.9167676236755082,0.6073838472366333,-1.942280650138855,-1.3785682916641235,0.07426094263792038,-0.9899125695228577,-0.12065813690423965,-0.25562694668769836,1.0768418312072754,0.4241860508918762
1.4238486446582663,0.6294117039600767,-3.0165281627737035,0.1916138082742691,-2.203627347946167,-1.5079880952835083,0.08619221299886703,-0.9892225861549377,-0.11836109310388565,-0.2913771867752075,1.1280319690704346,0.39962637424468994
1.4146093377882656,0.6856371646838478,-3.0951252427869433,-0.19504056870937347,-2.0183260440826416,-1.4677802324295044,0.098490871489048,-0.9878275990486145,-0.12040041387081146,-0.3452865481376648,1.1874735355377197,0.34751224517822266
1.4031541647261478,0.7181492099204633,3.1374748282411247,-0.47881263494491577,-1.4130042791366577,-1.2173131704330444,0.1097913458943367,-0.9859809279441833,-0.12564831972122192,-0.384373277425766,1.2436866760253906,0.2602919340133667
1.3925029464250371,0.7296984350650269,3.1154737376798343,-0.5922548174858093,-0.587709903717041,-0.7217696309089661,0.1182294711470604,-0.9841477870941162,-0.13219234347343445,-0.3449140787124634,1.2759568691253662,0.1406610757112503
1.385553409896433,0.7230115946247123,3.1207871918702854,-0.5524560213088989,0.2907862961292267,-0.03573693707585335,0.12186507135629654,-0.9828915596008301,-0.13810478150844574,-0.27179795503616333,1.30338716506958,0.021619275212287903
1.3839591078341629,0.6989480933766118,-3.131055078628886,-0.4399888217449188,1.01824951171875,0.6994598507881165,0.11951545625925064,-0.9825966358184814,-0.14219705760478973,-0.19609934091567993,1.323523759841919,-0.06892353296279907
1.3874077141842962,0.6560574853594738,-3.074669180376782,-0.3235378563404083,1.4363878965377808,1.326653242111206,0.11124107986688614,-0.9832313656806946,-0.14450517296791077,-0.13638757169246674,1.3118903636932373,-0.09160931408405304
1.3944746815557776,0.5926203582124239,-2.9949811399001702,-0.19838473200798035,1.5012351274490356,1.7785791158676147,0.09797291457653046,-0.9844955801963806,-0.145499125123024,-0.11246876418590546,1.2659437656402588,-0.07610423862934113
1.403008286055521,0.5081901635788996,-2.89469911171101,-0.16160354018211365,1.354973554611206,1.992390513420105,0.08126252889633179,-0.985956609249115,-0.14589716494083405,-0.12282749265432358,1.1998848915100098,-0.04126729071140289
1.409874681782697,0.40780879236169504,-2.7796750749925563,-0.29372456669807434,1.276215672492981,1.9373732805252075,0.06354641914367676,-0.9870800375938416,-0.14708846807479858,-0.15758636593818665,1.1145670413970947,0.00782148540019989
1.4122267917303128,0.3064109384039763,-2.6638066997202308,-0.5581066608428955,1.3162702322006226,1.6409986019134521,0.04763049632310867,-0.9874541759490967,-0.15055090188980103,-0.19129204750061035,1.0393950939178467,0.0405350923538208
1.409497679441306,0.2226708750095952,-2.565798140949872,-0.7665335536003113,1.2572746276855469,1.207715630531311,0.03546629473567009,-0.9870195388793945,-0.156635582447052,-0.18204227089881897,1.0000505447387695,0.05009877681732178
1.4035697831089706,0.16705864987953603,-2.497774202739075,-0.7923914790153503,1.0153522491455078,0.7418617010116577,0.027677536010742188,-0.9860501885414124,-0.16413143277168274,-0.13888362050056458,0.9903684258460999,0.03781920671463013
1.3972090405345796,0.13855889287711717,-2.460490140618383,-0.63528972864151,0.6060891151428223,0.31907525658607483,0.02385501004755497,-0.9849715232849121,-0.1710619479417801,-0.09341984987258911,1.016648769378662,-0.0002942085266113281
1.3922290336894276,0.13034049313099233,-2.448257899875208,-0.4073716104030609,0.1745438426733017,-0.015706723555922508,0.02308552712202072,-0.9840992093086243,-0.17611294984817505,-0.060606926679611206,1.0619494915008545,-0.032123684883117676
1.3888866987253667,0.13578654517887587,-2.4534370020285485,-0.2371545135974884,-0.0805431455373764,-0.24707980453968048,0.024489380419254303,-0.9835000038146973,-0.17924222350120544,-0.05416777729988098,1.1110483407974243,-0.055117473006248474
1.3866345431644942,0.15103328542564437,-2.4702221843012353,-0.12495100498199463,-0.1516609936952591,-0.4105696976184845,0.027552545070648193,-0.9830901026725769,-0.18103773891925812,-0.08385753631591797,1.1565520763397217,-0.0625535100698471
1.3850048326743476,0.17350320087962526,-2.494369774065296,-0.05122379586100578,-0.09258803725242615,-0.507662296295166,0.0318896658718586,-0.9827903509140015,-0.1819506734609604,-0.12423589825630188,1.204103946685791,-0.06255613267421722
1.3838658667249002,0.2013847391329139,-2.523289114677483,0.04604949429631233,-0.015153968706727028,-0.5812060236930847,0.037173617631196976,-0.9825792908668518,-0.18208786845207214,-0.16247883439064026,1.2247973680496216,-0.06388378143310547
1.3838566907058991,0.23458050333928027,-2.556742021271964,0.23175972700119019,0.09117935597896576,-0.6260697841644287,0.04319870099425316,-0.9825776219367981,-0.1807626634836197,-0.17265430092811584,1.1995422840118408,-0.06995445489883423
1.3858961316690337,0.2741390055037783,-2.5952040916822297,0.5306345820426941,0.25361618399620056,-0.640765368938446,0.04977106302976608,-0.9829546213150024,-0.1769830882549286,-0.14991453289985657,1.1713396310806274,-0.06940054893493652
1.390778355557768,0.32226497750235034,-2.641589799755246,0.8901181817054749,0.21244287490844727,-0.6860411167144775,0.056707076728343964,-0.9838404655456543,-0.16982996463775635,-0.10530635714530945,1.1521296501159668,-0.027267739176750183
1.397657733658923,0.38285396760478746,-2.7018491570595176,1.0910001993179321,0.0449521467089653,-0.8350383043289185,0.06435667723417282,-0.9850488901138306,-0.15980271995067596,-0.1009930670261383,1.118487000465393,0.11318719387054443
1.4035655616956337,0.45864655784231106,-2.7784767871080565,1.0129026174545288,0.04109083116054535,-1.0460104942321777,0.07369421422481537,-0.986049473285675,-0.14924980700016022,-0.14141276478767395,1.0851858854293823,0.2840765118598938
1.4059613401165114,0.5444726324746789,-2.863815961352385,0.7453857660293579,0.3040628135204315,-1.1740506887435913,0.08499277383089066,-0.986445426940918,-0.1403619647026062,-0.14433425664901733,1.055949330329895,0.354686975479126
1.4043343872756724,0.6271525675121834,-2.9434403740324155,0.43011999130249023,0.5077859163284302,-1.1693649291992188,0.09723656624555588,-0.9861771464347839,-0.13416333496570587,-0.06685635447502136,0.9847732782363892,0.35546159744262695
1.399782286993262,0.6942816961353839,-3.0054739114901796,0.134892076253891,0.6870107650756836,-1.0047866106033325,0.10888784378767014,-0.9854127168655396,-0.13078679144382477,0.01631048321723938,0.934463620185852,0.38382333517074585
1.3943212775279974,0.7394221144996813,-3.043078593848513,-0.09251553565263748,0.9386732578277588,-0.6625369787216187,0.11830297857522964,-0.9844686388969421,-0.12971384823322296,0.10099630057811737,0.9625723958015442,0.39599502086639404
1.390344340701475,0.7622156253763346,-3.055411272830917,-0.17031925916671753,1.1663818359375,-0.19449493288993835,0.12393128871917725,-0.9837626814842224,-0.12981481850147247,0.21414241194725037,1.0077495574951172,0.35065531730651855
1.389314465019931,0.7681705704541969,-3.0495769518314235,-0.11453256756067276,1.125873327255249,0.17816661298274994,0.12540635466575623,-0.983577311038971,-0.12980343401432037,0.2963160276412964,0.984248697757721,0.27306824922561646
1.390629465694672,0.765305597499263,-3.0365014128198213,-0.019959725439548492,0.8492313027381897,0.3116554319858551,0.12413815408945084,-0.9838138222694397,-0.12922964990139008,0.2754284739494324,0.8929018378257751,0.24850760400295258
1.3928585678871546,0.7613371272545972,-3.025570080902199,0.06777400523424149,0.5098228454589844,0.25881555676460266,0.12211082130670547,-0.9842107892036438,-0.1281331181526184,0.22627782821655273,0.8101843595504761,0.2145588994026184
1.3948443706875422,0.7593931661563367,-3.0194735117163223,0.055245429277420044,0.32502955198287964,0.17443250119686127,0.1205158680677414,-0.9845603704452515,-0.12695273756980896,0.23751632869243622,0.7161581516265869,0.15219078958034515
1.3960042779516328,0.7539268179455159,-3.010697793471035,-0.11508738249540329,0.32609063386917114,0.23006805777549744,0.11903762072324753,-0.9847627282142639,-0.12677627801895142,0.2678031325340271,0.6394869685173035,0.1459108144044876
1.3965489490488845,0.7338600031251268,-2.986564642249867,-0.3740992546081543,0.4130191504955292,0.48166513442993164,0.11611079424619675,-0.9848573207855225,-0.12874120473861694,0.32820984721183777,0.6394593715667725,0.19157689809799194
1.397401877308354,0.6906577737370847,-2.938205001749594,-0.567044734954834,0.46205073595046997,0.9157549738883972,0.10990748554468155,-0.9850047826766968,-0.13298866152763367,0.41900789737701416,0.6863292455673218,0.20049357414245605
1.4002522260921466,0.6194033257582044,-2.861765462498805,-0.5289368033409119,0.3048209249973297,1.5059823989868164,0.09853005409240723,-0.9854925870895386,-0.1381891518831253,0.506908118724823,0.7292517423629761,0.1377619504928589
1.4066924964975809,0.518326023327261,-2.7582707416636008,-0.21840821206569672,-0.12483751773834229,2.061706304550171,0.08093699812889099,-0.9865651726722717,-0.14190979301929474,0.5890001058578491,0.6839986443519592,0.01433110237121582
1.416471588787847,0.38775678304391076,-2.629416125243256,0.1871158480644226,-0.5236245393753052,2.4209322929382324,0.058120451867580414,-0.9881155490875244,-0.14230035245418549,0.5512697696685791,0.5135368704795837,-0.09851381182670593
1.4276332348015799,0.22899111580560583,-2.4754506963663743,0.5282175540924072,-0.7462296485900879,2.559976577758789,0.03238653391599655,-0.9897696375846863,-0.1389506310224533,0.42891713976860046,0.3205496668815613,-0.1234089732170105
1.4375113024225028,0.0436903744961899,-2.2964947665976423,0.7256821990013123,-0.8581185936927795,2.559528112411499,0.005804226268082857,-0.9911307096481323,-0.1327645480632782,0.34548357129096985,0.19436240196228027,-0.07426668703556061
1.443569096678655,-0.16318201660114842,-2.097392018263625,0.7528626918792725,-1.0318138599395752,2.4982454776763916,-0.020613543689250946,-0.9919175505638123,-0.12519915401935577,0.26548653841018677,0.14008039236068726,0.06102067232131958
1.443435650228754,-0.37420836832941956,-1.8960968797081643,0.5434194207191467,-1.2320294380187988,2.4169890880584717,-0.04642920196056366,-0.9919005632400513,-0.11822693049907684,0.10992099344730377,0.13374632596969604,0.28338807821273804
1.4358347446465978,-0.5631722373347294,-1.7189821097393922,0.1805352121591568,-1.42620849609375,2.3899738788604736,-0.07183368504047394,-0.9909064769744873,-0.11377295851707458,-0.042485207319259644,0.09802323579788208,0.4951053857803345
1.4215142649664119,-0.713732147674489,-1.582064403764084,-0.144835963845253,-1.5632051229476929,2.415151357650757,-0.09736660122871399,-0.9888781309127808,-0.11242750287055969,-0.1497037559747696,0.013414263725280762,0.5785072445869446
1.402931573393937,-0.8313117938293142,-1.4791837695968535,-0.20473214983940125,-1.605539083480835,2.4886903762817383,-0.12343959510326385,-0.9859437942504883,-0.11259477585554123,-0.23775124549865723,-0.14622783660888672,0.4806826114654541
1.3826018156110653,-0.9329694188720141,-1.3919865234656263,0.04329364001750946,-1.5473219156265259,2.5919079780578613,-0.15030284225940704,-0.9823436141014099,-0.11140018701553345,-0.31437307596206665,-0.3176136016845703,0.2776600122451782
1.3620565278850194,-1.0314351597285885,-1.3074151145369277,0.45374494791030884,-1.5709688663482666,2.6427054405212402,-0.17780834436416626,-0.9782928228378296,-0.10642924159765244,-0.35223621129989624,-0.42147207260131836,0.06846548616886139
1.342079425106696,-1.1297995848921754,-1.2237569981765843,0.8553701639175415,-1.7851141691207886,2.549022674560547,-0.205036461353302,-0.9739581346511841,-0.09677694737911224,-0.3841512203216553,-0.5441235303878784,-0.03507423400878906
1.3233287844943085,-1.2262463659921081,-1.1446112188634596,1.1160228252410889,-2.106462240219116,2.3070974349975586,-0.23055288195610046,-0.9695358276367188,-0.08273723721504211,-0.4730146527290344,-0.7061690092086792,-0.036052338778972626
1.305890602791244,-1.3128788847569641,-1.077872474506589,1.025894045829773,-2.264413833618164,2.0154247283935547,-0.2531583905220032,-0.9651172161102295,-0.06678137183189392,-0.5897066593170166,-0.9534925222396851,0.06813942641019821
1.289215127506554,-1.3802313794452945,-1.0311977585344354,0.6586157083511353,-2.1696901321411133,1.797156810760498,-0.2728446125984192,-0.9606172442436218,-0.052633289247751236,-0.7490060329437256,-1.304412603378296,0.26605796813964844
1.273157557239355,-1.424793165027992,-1.0059897958672381,0.223186194896698,-1.8910777568817139,1.5914688110351562,-0.29014334082603455,-0.9560316205024719,-0.04266544058918953,-0.9481226801872253,-1.5405350923538208,0.4676990509033203
1.2587253938399297,-1.4499540919314293,-0.9980124945393326,-0.12018382549285889,-1.5981794595718384,1.3143041133880615,-0.30479103326797485,-0.9516997933387756,-0.03701196610927582,-1.1716036796569824,-1.695623755455017,0.500421404838562
1.2463605073351576,-1.4622116071530986,-1.0000813665489796,-0.2577454149723053,-1.2275031805038452,1.1650406122207642,-0.3168964982032776,-0.9478307366371155,-0.03454599902033806,-1.2677592039108276,-2.003753185272217,0.18013012409210205
1.2337277431492475,-1.46853844121557,-1.0041327516300835,-0.26954519748687744,-0.7945606708526611,1.3235834836959839,-0.3289947211742401,-0.9437282085418701,-0.033760059624910355,-1.0771636962890625,-2.51934552192688,-0.36135101318359375
1.2196717138522721,-1.4693190002941792,-1.0091831077206972,-0.3662120997905731,-0.3076535761356354,1.4118214845657349,-0.34218481183052063,-0.9389864802360535,-0.03484368324279785,-0.997826874256134,-2.903481960296631,-0.6383587718009949
1.2051889133046962,-1.4621050528120894,-1.0178209537147758,-0.5561674237251282,0.12271370738744736,1.3886381387710571,-0.35540685057640076,-0.9339067935943604,-0.03878246620297432,-1.058762550354004,-3.145911931991577,-0.71121746301651
1.1912987700141606,-1.4452581287989856,-1.033562633030198,-0.9267199039459229,0.2733873724937439,1.1986006498336792,-0.3675386607646942,-0.9288508892059326,-0.046384066343307495,-1.051330327987671,-3.483365297317505,-0.7567164897918701
1.1801858826425502,-1.4161079455481926,-1.0620429426757334,-1.5065083503723145,0.2736254036426544,0.6497153639793396,-0.37620648741722107,-0.924676775932312,-0.05866342782974243,-1.277006983757019,-3.5123653411865234,-0.5686863660812378
1.174474358929852,-1.371680020056878,-1.1063741542969752,-1.998906135559082,0.47261759638786316,-0.13401807844638824,-0.3784007430076599,-0.9224870800971985,-0.07635755836963654,-1.5981159210205078,-3.2784101963043213,-0.3319675922393799
1.1744205221890751,-1.3122812421230032,-1.1626507528421468,-2.181323528289795,1.0495578050613403,-0.8073444366455078,-0.37324875593185425,-0.9224662780761719,-0.09869898110628128,-1.640224814414978,-2.9462623596191406,-0.37491846084594727
1.1781160284022856,-1.2409921215739808,-1.225127248207793,-2.1752896308898926,1.639613389968872,-1.2630165815353394,-0.3620426654815674,-0.9238867163658142,-0.12392941862344742,-1.4214351177215576,-2.610231876373291,-0.5537591576576233
1.1838547857037085,-1.1608930699931936,-1.2918934827773438,-2.1209652423858643,1.985170602798462,-1.6277471780776978,-0.34609735012054443,-0.9260675311088562,-0.15038490295410156,-1.1874414682388306,-2.2475621700286865,-0.6145229339599609
1.191057907315017,-1.074282496733286,-1.362898699362172,-2.0020077228546143,2.1379590034484863,-1.9750093221664429,-0.32591766119003296,-0.9287616014480591,-0.1765771210193634,-0.9856668710708618,-1.9191997051239014,-0.6194280982017517
1.1992916600095036,-0.9829772996384791,-1.437597663626868,-1.821488857269287,2.196319818496704,-2.2314677238464355,-0.30208611488342285,-0.9317821860313416,-0.2013106495141983,-0.7882459163665771,-1.6658587455749512,-0.6382583975791931
1.2075975016276652,-0.8899925909864899,-1.5137246269106235,-1.5791555643081665,2.167252540588379,-2.3046722412109375,-0.2760655879974365,-0.9347651600837708,-0.2236107885837555,-0.5646631717681885,-1.4486881494522095,-0.6362829208374023
1.215241177538578,-0.7992351763915144,-1.5879861428503264,-1.3101370334625244,2.0579919815063477,-2.289702892303467,-0.24953384697437286,-0.9374533891677856,-0.2427220493555069,-0.3981102406978607,-1.2606209516525269,-0.590453565120697
1.2223088160700433,-0.7104994173298821,-1.6613502473113182,-1.1329540014266968,1.9016486406326294,-2.364001512527466,-0.22271548211574554,-0.9398902654647827,-0.25885188579559326,-0.36905092000961304,-1.1388452053070068,-0.48249635100364685
1.2290850077382223,-0.6198993651558651,-1.7384065262357777,-1.0154318809509277,1.6950089931488037,-2.574995517730713,-0.19467750191688538,-0.9421826004981995,-0.2727503478527069,-0.405145525932312,-1.0467243194580078,-0.3224186897277832
1.2358401694356091,-0.5243279485095518,-1.8232861412161985,-0.8885109424591064,1.383345365524292,-2.8717901706695557,-0.16457141935825348,-0.9444247484207153,-0.2845666706562042,-0.4447883367538452,-0.9349697828292847,-0.1720373034477234
1.2423604801878327,-0.42403667019948643,-1.916688416428354,-0.7198877930641174,1.0064022541046143,-3.1051487922668457,-0.13271626830101013,-0.9465480446815491,-0.29399535059928894,-0.44550031423568726,-0.7888950705528259,-0.05533933639526367
1.2478242383138773,-0.3202757878057348,-2.0169950398814143,-0.6041334867477417,0.7598609328269958,-3.2367055416107178,-0.09992216527462006,-0.948296308517456,-0.30124667286872864,-0.41779330372810364,-0.6223213076591492,0.04808816313743591
1.2504409594185792,-0.2133725126601457,-2.1218471491416713,-0.6603282690048218,0.750277042388916,-3.2543818950653076,-0.06668317317962646,-0.9491235613822937,-0.3077627420425415,-0.3836342692375183,-0.4702795147895813,0.16135472059249878
1.2482499325997254,-0.10645057893829907,-2.2257093891162327,-0.8077797889709473,0.9375907778739929,-3.115570306777954,-0.033679328858852386,-0.9484313130378723,-0.3151886761188507,-0.3038298785686493,-0.34099751710891724,0.2599824368953705
1.2415059381720974,-0.0056463409545683095,-2.3206866398994768,-0.8490816354751587,1.2260637283325195,-2.8406624794006348,-0.0018258548807352781,-0.946272075176239,-0.3233661353588104,-0.23506686091423035,-0.1615006923675537,0.2850666344165802
1.2325927951705964,0.08405461522825448,-2.4008395531177698,-0.7005680799484253,1.5585297346115112,-2.447770595550537,0.027855893597006798,-0.943352222442627,-0.3306214511394501,-0.17344003915786743,0.05272728204727173,0.22454240918159485
1.2242363287816778,0.16169214564901732,-2.46558644964836,-0.4121154546737671,1.7238527536392212,-2.066067695617676,0.05468207225203514,-0.9405467510223389,-0.3352339565753937,-0.08916696906089783,0.2345072627067566,0.13883817195892334
1.217989460141893,0.22911633983747867,-2.519353060850923,-0.09948750585317612,1.6217786073684692,-1.7944363355636597,0.07847649604082108,-0.9384065270423889,-0.33650362491607666,-0.05102597177028656,0.3605561852455139,0.10557711124420166
1.2138654755404525,0.28922304995800535,-2.5676482378412437,0.1506814956665039,1.296115756034851,-1.6681413650512695,0.09965155273675919,-0.9369735717773438,-0.33488795161247253,-0.052257783710956573,0.4311752915382385,0.1418643295764923
1.2107752087092891,0.34420841607813124,-2.61565570428458,0.2919824421405792,0.6793395280838013,-1.7388099431991577,0.11888209730386734,-0.9358893632888794,-0.33162921667099,-0.10925385355949402,0.46808552742004395,0.24840781092643738
1.2067751463716023,0.3960233825606469,-2.667257290990535,0.26064440608024597,0.05515049397945404,-1.9549567699432373,0.13734127581119537,-0.9344726800918579,-0.3284783959388733,-0.26493531465530396,0.5069519877433777,0.4343744218349457
1.1999179691174937,0.4462196640050555,-2.7222307891798017,0.09011794626712799,-0.21961289644241333,-2.1907074451446533,0.15641143918037415,-0.9320093393325806,-0.3269462287425995,-0.4125607907772064,0.5701167583465576,0.5943260192871094
1.189403086070218,0.49534925769024846,-2.77717809306648,-0.13291797041893005,-0.14256125688552856,-2.3250534534454346,0.1769278198480606,-0.9281469583511353,-0.3274749219417572,-0.4497244954109192,0.6469732522964478,0.6273559331893921
1.1758126451968882,0.5421544979310592,-2.8275956027395908,-0.32129719853401184,0.19691213965415955,-2.3063607215881348,0.19854652881622314,-0.9230028390884399,-0.32961326837539673,-0.3931266665458679,0.7335650324821472,0.5685964822769165
