attitudeX,attitudeY,attitudeZ,gyroX,gyroY,gyroZ,gravityX,gravityY,gravityZ,accX,accY,accZ
1.5450152345748913,2.407537771947647,-2.7388656696911227,0.4965338110923767,-0.20892459154129028,-0.23424935340881348,0.017273256555199623,-0.9996677041053772,0.01914471946656704,-0.05181916058063507,0.14654862880706787,0.041707515716552734
1.5407307553395784,2.4603796734666545,-2.794560740010963,0.34526148438453674,-0.3447197377681732,-0.0798424705862999,0.018931828439235687,-0.999548077583313,0.023353325203061104,0.006489308550953865,0.1964169144630432,0.11087846755981445
1.538772969056977,2.5072412644907986,-2.8451303309227756,0.15229414403438568,-0.37649428844451904,0.0825904905796051,0.018978318199515343,-0.9994872808456421,0.025792745873332024,0.05118159204721451,0.23100876808166504,0.14989709854125977
1.539183113319647,2.551042495211153,-2.8923193714931177,-0.043785884976387024,-0.2751873731613159,0.20310811698436737,0.01760372705757618,-0.9995003342628479,0.026260394603013992,0.06903567910194397,0.26120370626449585,0.15548717975616455
1.5414830049770272,2.5949027843388053,-2.9379992083836717,-0.18514461815357208,-0.0879288911819458,0.27216172218322754,0.015242009423673153,-0.999570369720459,0.025046024471521378,0.06855925917625427,0.2863590717315674,0.1284881830215454
1.5448967945186982,2.6462568587799224,-2.989571635295911,-0.25341978669166565,0.040568359196186066,0.31014347076416016,0.01231340691447258,-0.9996646046638489,0.022791562601923943,0.04812665283679962,0.3110658526420593,0.07214891910552979
1.5486857053705678,2.720726058553851,-3.0630315517675335,-0.2580934762954712,0.166818767786026,0.3363974690437317,0.009036596864461899,-0.9997555613517761,0.02018844336271286,0.026668965816497803,0.3319697976112366,0.0062552690505981445
1.5520039230687597,2.840086826652923,3.102922497063641,-0.18295584619045258,0.25315871834754944,0.3388129472732544,0.005583180580288172,-0.9998234510421753,0.01795310340821743,0.019425969570875168,0.34665554761886597,-0.046868324279785156
1.5539003681480281,3.009594905194092,2.9360922402668317,-0.053864702582359314,0.2776185870170593,0.3209279775619507,0.0022246839944273233,-0.9998572468757629,0.016755955293774605,0.005801435559988022,0.36770081520080566,-0.07576143741607666
1.5537251673174106,-3.0856612758392354,2.750796465576457,0.11310724169015884,0.2474801242351532,0.30810484290122986,-0.0009546225774101913,-0.9998542666435242,0.017049944028258324,0.0013360865414142609,0.3946906328201294,-0.08336436748504639
1.55136546383767,-2.9249875818910014,2.592331883352907,0.27170947194099426,0.19290104508399963,0.3331868350505829,-0.004177125636488199,-0.9998112320899963,0.01898198202252388,0.030574824661016464,0.4200686812400818,-0.06489551067352295
1.5470971491556376,-2.798964425996736,2.467723266627246,0.39222443103790283,0.0877104327082634,0.42221394181251526,-0.00796340499073267,-0.9997192025184631,0.0223254207521677,0.0967848151922226,0.4418119788169861,-0.02627718448638916
1.5412628779682973,-2.6931100863848085,2.3618668478798464,0.4577968716621399,-0.08478264510631561,0.546676754951477,-0.012805708684027195,-0.9995639324188232,0.026612862944602966,0.14981436729431152,0.4605776071548462,0.02223074436187744
1.5342319336433725,-2.599783935428343,2.2667611564277395,0.4711044132709503,-0.2499052882194519,0.6702138781547546,-0.018851013854146004,-0.9993315935134888,0.03131965175271034,0.17067596316337585,0.47320860624313354,0.0646277591586113
1.5263474246738264,-2.5162133595875726,2.180067209222257,0.45198869705200195,-0.34962669014930725,0.7788969278335571,-0.026014506816864014,-0.999012291431427,0.03602811321616173,0.16125313937664032,0.47989290952682495,0.08445549011230469
1.5178564534129029,-2.4431643936542002,2.1031295972058084,0.4236052632331848,-0.3996959626674652,0.8428900241851807,-0.034027066081762314,-0.9985989928245544,0.04052746668457985,0.13059993088245392,0.4982784390449524,0.082672119140625
1.5092387338928668,-2.383788473970233,2.0395746367809697,0.37173163890838623,-0.40564224123954773,0.8343595266342163,-0.04228651523590088,-0.9981059432029724,0.044687073677778244,0.08554517477750778,0.5237710475921631,0.07735300064086914
1.5011715449035468,-2.3353750789592005,1.9872687050466555,0.2814669907093048,-0.3387433588504791,0.7754448056221008,-0.050208382308483124,-0.9975771903991699,0.048160113394260406,0.03290490806102753,0.5457337498664856,0.07000410556793213
1.4943774443656068,-2.2924201752008146,1.941536273365737,0.13655279576778412,-0.17691025137901306,0.6696481704711914,-0.05731603503227234,-0.9970815181732178,0.050434958189725876,-0.013179585337638855,0.5656543970108032,0.07738804817199707
1.4894750736016913,-2.2471907745711315,1.8955165106655592,-0.06513159722089767,0.05222386121749878,0.5424164533615112,-0.06334903091192245,-0.9966952204704285,0.0508512407541275,-0.04187558591365814,0.5990815758705139,0.10350692272186279
1.4867552175863825,-2.1926207517290126,1.842420837035702,-0.30885156989097595,0.2723226547241211,0.41793474555015564,-0.06823128461837769,-0.9964706301689148,0.048899102956056595,-0.05631095916032791,0.6476393342018127,0.1311854124069214
1.4862132831897765,-2.121794807553343,1.7749413812561452,-0.5789397954940796,0.4300779402256012,0.29606902599334717,-0.07197973132133484,-0.9964249730110168,0.04423009604215622,-0.06008509546518326,0.6985734105110168,0.15816271305084229
1.4877108263429983,-2.0279994816615523,1.685485310227974,-0.8608376383781433,0.47983184456825256,0.15348881483078003,-0.07446656376123428,-0.9965503811836243,0.03663533180952072,-0.05086912959814072,0.7417133450508118,0.185929536819458
1.4908532374073513,-1.9060218158148907,1.5679253749058577,-1.1463991403579712,0.47886112332344055,0.014015072956681252,-0.07541351020336151,-0.996806263923645,0.02627210132777691,-0.058131419122219086,0.7831221222877502,0.20172500610351562
1.494467437981255,-1.7408311428815533,1.4070555470232797,-1.4574781656265259,0.47452953457832336,-0.08403655886650085,-0.07515519857406616,-0.9970883727073669,0.01290359627455473,-0.043176718056201935,0.8360013365745544,0.2055109739303589
1.4968461303949334,-1.5213224054125238,1.1912110884027407,-1.7888898849487305,0.351015567779541,-0.20501811802387238,-0.0737939104437828,-0.997266948223114,-0.003653855761513114,0.0012231022119522095,0.8902416825294495,0.21816211938858032
1.4959805736443406,-1.254149930633487,0.9257043587069194,-2.1008946895599365,0.12232481688261032,-0.33782321214675903,-0.0710337907075882,-0.9972026348114014,-0.02327575907111168,0.009540848433971405,0.8962196707725525,0.2457338571548462
1.4892095010979882,-0.970892213423311,0.6419265283025485,-2.4412877559661865,-0.02890997752547264,-0.3965056836605072,-0.06726651638746262,-0.9966736435890198,-0.046010032296180725,0.06848721206188202,0.9264679551124573,0.25008130073547363
1.4746523382932744,-0.722694833420652,0.3924040928796795,-2.769113063812256,-0.03458040580153465,-0.350789338350296,-0.06349287182092667,-0.9953817129135132,-0.07199986279010773,0.15312299132347107,0.9362233281135559,0.20899343490600586
1.4521889052099217,-0.5370736030592529,0.2056727925917962,-3.191901683807373,0.03271474689245224,-0.2388439178466797,-0.06054072454571724,-0.9929744005203247,-0.10167074203491211,0.18641047179698944,0.9118432998657227,0.17401283979415894
1.422166226755973,-0.4073932004859743,0.07563090687066389,-3.7109646797180176,0.121862031519413,-0.11814428865909576,-0.058673664927482605,-0.9889748692512512,-0.13596487045288086,0.1851690113544464,0.9124060869216919,0.20542305707931519
1.3848537433277408,-0.3178266041052533,-0.013322771479050304,-4.284580707550049,0.25615590810775757,-0.009034578688442707,-0.05777367949485779,-0.9827624559402466,-0.17561505734920502,0.1704140305519104,0.9563491940498352,0.21467773616313934
1.3408572349605463,-0.25410833533571275,-0.07446898692762899,-4.8260297775268555,0.5278223156929016,0.06607384234666824,-0.05729474872350693,-0.9736802577972412,-0.22059966623783112,0.12388409674167633,1.0108659267425537,0.15141649544239044
1.2914403220674597,-0.20641660566143819,-0.11699463992239309,-5.236955642700195,0.7483488321304321,0.0955590307712555,-0.05651339516043663,-0.9612331986427307,-0.2698836624622345,0.06829316914081573,1.041189193725586,0.0259721577167511
1.2381140515058267,-0.16842868342323614,-0.14823793018359438,-5.534483432769775,0.8811084032058716,0.034316882491111755,-0.05474568530917168,-0.9451697468757629,-0.32195836305618286,0.009671207517385483,1.0330145359039307,-0.08804512023925781
1.1825236110687918,-0.13594868948521088,-0.17280222745818,-5.663670063018799,1.0031834840774536,-0.05554722622036934,-0.05131050944328308,-0.9255643486976624,-0.37509748339653015,-0.006825491786003113,0.9642757773399353,-0.2366882562637329
1.1260961329970633,-0.10829361713237694,-0.1917178996183378,-5.673495292663574,1.0467702150344849,-0.07495271414518356,-0.04649556428194046,-0.9027397036552429,-0.4276675283908844,0.023515816777944565,0.8600912094116211,-0.39957231283187866
1.0697308725871533,-0.08607443082253627,-0.20525643904112004,-5.62571382522583,0.9609369039535522,-0.061837710440158844,-0.04129572957754135,-0.8770712614059448,-0.4785822331905365,0.024663634598255157,0.7537800669670105,-0.5221805572509766
1.0136608397386715,-0.06845959755649805,-0.21541950597455653,-5.597893714904785,0.7935677170753479,-0.10487605631351471,-0.03617022931575775,-0.8487732410430908,-0.5275185108184814,-0.005760934203863144,0.6572753190994263,-0.6058889031410217
0.9576985779639632,-0.05414790070855541,-0.22414272631406704,-5.59722375869751,0.6000462174415588,-0.17050141096115112,-0.03114169090986252,-0.8178694844245911,-0.5745605826377869,-0.013154590502381325,0.5493451952934265,-0.6277555823326111
0.9018132767629202,-0.04346447478758107,-0.23165531384092045,-5.55800199508667,0.315516859292984,-0.16701650619506836,-0.026947688311338425,-0.7844527959823608,-0.6196029186248779,0.02156132087111473,0.4103071093559265,-0.6549941301345825
0.847064920412247,-0.037887263060491,-0.23672548426155124,-5.341519832611084,0.03567081689834595,-0.019382311031222343,-0.025082390755414963,-0.7493400573730469,-0.6617102026939392,0.07105711102485657,0.24346530437469482,-0.7760338187217712
0.7954524869385683,-0.037286529261845745,-0.23808412555777062,-4.926047325134277,-0.09558763355016708,0.2236919403076172,-0.026093097403645515,-0.7141804099082947,-0.6994752287864685,0.12190301716327667,0.05278801918029785,-1.0179777145385742
0.74818308116158,-0.039705405024981,-0.2359689659810407,-4.479298114776611,-0.0785660445690155,0.43014124035835266,-0.029093485325574875,-0.6803082227706909,-0.7323485016822815,0.12697860598564148,-0.16209912300109863,-1.2219817638397217
0.7049965549681882,-0.04248377224978584,-0.2320430961614088,-4.114702224731445,0.050090257078409195,0.4900487959384918,-0.03234649822115898,-0.6480312347412109,-0.7609266638755798,0.08874297142028809,-0.4384710192680359,-1.3054795265197754
0.6647599558724057,-0.044005063185687754,-0.22851687812949317,-3.8971755504608154,0.07799139618873596,0.3820544183254242,-0.03462366387248039,-0.6168702244758606,-0.7863029837608337,0.004029780626296997,-0.7925384640693665,-1.3195013999938965
0.6260620916993698,-0.04421751241755669,-0.2270152492958067,-3.808659315109253,0.060913149267435074,0.19137032330036163,-0.03581959754228592,-0.5859582424163818,-0.8095492124557495,-0.07151073962450027,-1.1791328191757202,-1.311971664428711
0.5881753097156733,-0.04341323263269603,-0.2277129610210508,-3.7370944023132324,0.016564592719078064,0.04199282452464104,-0.03610648959875107,-0.5548439025878906,-0.8311706185340881,-0.07398568093776703,-1.5266228914260864,-1.2963621616363525
0.5516077468709785,-0.0426417498463584,-0.22915215775527473,-3.5236620903015137,-0.009128814563155174,0.04947417229413986,-0.03630625456571579,-0.5240572094917297,-0.8509089350700378,-0.0487615130841732,-1.77004075050354,-1.3304569721221924
0.5186740187028095,-0.042570461798939946,-0.22929164954585704,-2.989779472351074,0.01014954224228859,0.2195066213607788,-0.03696031495928764,-0.495728999376297,-0.8676904439926147,-0.0007441714406013489,-1.94955313205719,-1.4900517463684082
0.49283219671661516,-0.04354138648702984,-0.22682231613945372,-2.0926942825317383,0.026826102286577225,0.4273156523704529,-0.03834768757224083,-0.4731229245662689,-0.880161464214325,0.018923230469226837,-2.1151950359344482,-1.7429463863372803
0.4772747972830427,-0.045899079370930206,-0.22184317273713747,-0.9465500712394714,-0.04654691368341446,0.5842775702476501,-0.04075554758310318,-0.4593602120876312,-0.8873146176338196,-0.053955767303705215,-2.224630355834961,-1.9572135210037231
0.4737652934331002,-0.0505154513766602,-0.2144333055058329,0.32123807072639465,-0.21457572281360626,0.7649203538894653,-0.044932398945093155,-0.45624008774757385,-0.8887215852737427,-0.15723131597042084,-2.286222219467163,-2.0545613765716553
0.48300101323012273,-0.058282989240288,-0.20435949969109315,1.613142490386963,-0.4018212556838989,0.900342583656311,-0.05158649757504463,-0.4644389748573303,-0.884101390838623,-0.24251142144203186,-2.333702564239502,-2.070183277130127
0.5047642717401543,-0.06831420188873691,-0.19266303262484266,2.829385757446289,-0.47678104043006897,0.845221221446991,-0.05974813923239708,-0.4836011230945587,-0.8732469081878662,-0.382329523563385,-2.297297954559326,-2.016950845718384
0.5377515441075049,-0.07859967831294375,-0.18132419070584185,3.832197666168213,-0.4380589425563812,0.6120473146438599,-0.0674368292093277,-0.5122061967849731,-0.8562108874320984,-0.5586923360824585,-2.182267189025879,-1.8693597316741943
0.5791925807725052,-0.08781330084062455,-0.17171007520927556,4.486556053161621,-0.3912028968334198,0.31990131735801697,-0.0733969658613205,-0.5473483800888062,-0.8336802124977112,-0.6611459255218506,-2.0401151180267334,-1.618620753288269
0.6254939488680595,-0.09615621760416487,-0.16422077558115292,4.779364109039307,-0.4382748007774353,0.06634069234132767,-0.07783128321170807,-0.5854977965354919,-0.8069292306900024,-0.6449928283691406,-1.8864567279815674,-1.2786877155303955
0.6736605976586186,-0.10445412080385529,-0.15860691981893765,4.845071315765381,-0.538375198841095,-0.1321655660867691,-0.08148705214262009,-0.6238510608673096,-0.7772836089134216,-0.5501047372817993,-1.7219284772872925,-0.9651937484741211
0.7221535416672148,-0.11269843033593231,-0.15460840779555882,4.8319830894470215,-0.5847315192222595,-0.3037024438381195,-0.08438820391893387,-0.6610021591186523,-0.745623767375946,-0.44477134943008423,-1.5510187149047852,-0.7879912257194519
0.7709185615005923,-0.12031007854728411,-0.15212286540126332,4.880964756011963,-0.601176917552948,-0.4630469083786011,-0.08608689904212952,-0.6967943906784058,-0.7120861411094666,-0.37578141689300537,-1.3551161289215088,-0.7589220404624939
0.820979868021393,-0.12770926720246206,-0.15081566504783323,5.056021690368652,-0.7034782767295837,-0.5810773968696594,-0.0867980569601059,-0.7318139672279358,-0.6759545803070068,-0.3083130419254303,-1.1210761070251465,-0.8276463747024536
0.8732783949303472,-0.13657437107983872,-0.14959504989790406,5.300416946411133,-0.8827566504478455,-0.6232818365097046,-0.08745164424180984,-0.7664388418197632,-0.6363363265991211,-0.20650896430015564,-0.8738964796066284,-0.9307717680931091
0.9280978194531113,-0.1482068256031577,-0.1471921085703335,5.557188034057617,-1.0474684238433838,-0.6359363794326782,-0.08850409835577011,-0.8004813194274902,-0.5927874445915222,-0.11114192008972168,-0.6297404170036316,-1.022507905960083
0.9853232586726628,-0.1622814357031184,-0.1433714675741309,5.772216320037842,-1.1169614791870117,-0.7023525834083557,-0.08928264677524567,-0.8334507942199707,-0.5453335046768188,-0.06390035897493362,-0.3952481746673584,-1.0930025577545166
1.044406028823661,-0.17709085226116902,-0.13882421957396465,5.904921531677246,-1.0537664890289307,-0.8188717365264893,-0.08850893378257751,-0.8646262884140015,-0.49455827474594116,-0.06180542707443237,-0.18729960918426514,-1.1329288482666016
1.1045225847777698,-0.19134488095287427,-0.13418446145640758,5.947546482086182,-0.9810424447059631,-0.9424545764923096,-0.08549724519252777,-0.8932496905326843,-0.44135621190071106,-0.029966026544570923,-0.005599915981292725,-1.1253855228424072
1.1648313205253107,-0.20496975407111745,-0.12990197479348947,5.896572589874268,-0.9671450257301331,-1.0697946548461914,-0.08037819713354111,-0.9187217354774475,-0.38663947582244873,0.011301636695861816,0.1411030888557434,-1.1131772994995117
1.2244730938870088,-0.2173702735453942,-0.12680596959465776,5.77222204208374,-0.9205493330955505,-1.197861671447754,-0.0732048824429512,-0.9406270980834961,-0.3314540684223175,0.025414355099201202,0.25631606578826904,-1.1205415725708008
1.2830821567999295,-0.2271650309451515,-0.1256093240155555,5.641847133636475,-0.7985142469406128,-1.3002344369888306,-0.06390772759914398,-0.9588950276374817,-0.27647140622138977,0.05220422148704529,0.35724079608917236,-1.1423821449279785
1.3406845425174356,-0.23335246725149578,-0.12649877051012517,5.52861213684082,-0.5893404483795166,-1.3623878955841064,-0.05274282023310661,-0.9736409187316895,-0.22190460562705994,0.047936294227838516,0.4696888327598572,-1.1800117492675781
1.397280134750972,-0.23330205810425353,-0.13097582517730633,5.397729396820068,-0.2696455121040344,-1.4226975440979004,-0.039914678782224655,-0.9849838018417358,-0.1679704636335373,0.004605833441019058,0.5885756015777588,-1.2009410858154297
1.4525064547050803,-0.21812785758899966,-0.14754229439129285,5.208581447601318,0.012699457816779613,-1.515051245689392,-0.02553880400955677,-0.9930118918418884,-0.11521898210048676,-0.045261986553668976,0.7024539113044739,-1.1419525146484375
1.5056227981823458,-0.15031535888128972,-0.21434643421903612,4.969907760620117,0.24197393655776978,-1.621288776397705,-0.009752893820405006,-0.9978769421577454,-0.06439347565174103,-0.07282767444849014,0.7993600368499756,-1.0149672031402588
1.5536221838593456,0.41919013271720235,-0.7806449362027011,4.74785041809082,0.4482281804084778,-1.686753273010254,0.006996948271989822,-0.9998525381088257,-0.015702253207564354,-0.07120592892169952,0.8691301941871643,-0.9033801555633545
1.531791255173281,2.479617762952089,-2.8363212638088338,4.492789268493652,0.5390851497650146,-1.700957179069519,0.02397337183356285,-0.9992393851280212,0.030763717368245125,-0.07975950837135315,0.9563314318656921,-0.8235338926315308
1.4859089927574185,2.6424370190479034,-2.9939243338957,4.197329998016357,0.5498837232589722,-1.6645336151123047,0.0405866838991642,-0.9963992238044739,0.07444275170564651,-0.0802747905254364,1.0469970703125,-0.7107645273208618
1.4423017605720638,2.68814106554601,-3.0343688791037517,3.926370859146118,0.5371775031089783,-1.5477979183197021,0.05613595247268677,-0.9917559027671814,0.11519339680671692,-0.044661328196525574,1.112025499343872,-0.6116073131561279
1.4013576539958355,2.713601749215881,-3.0548932980822836,3.724761724472046,0.48676103353500366,-1.3809082508087158,0.06998895108699799,-0.985679566860199,0.1534200757741928,-0.005306936800479889,1.1690900325775146,-0.5689624547958374
1.3625375376450077,2.733848812990846,-3.0709185789809883,3.6013193130493164,0.41498246788978577,-1.2086273431777954,0.08198748528957367,-0.9783924221992493,0.18980716168880463,0.014036081731319427,1.206770658493042,-0.5545988082885742
1.3251981233414063,2.7530788380634066,-3.08666206342649,3.5360615253448486,0.3570966422557831,-1.0274207592010498,0.09210382401943207,-0.9699920415878296,0.22501739859580994,0.01638617366552353,1.22591233253479,-0.5507769584655762
1.2890370943550908,2.7714656643410636,-3.1023110250686803,3.453366756439209,0.29389023780822754,-0.891775369644165,0.1005786806344986,-0.9605677723884583,0.259217232465744,0.0010753646492958069,1.2362483739852905,-0.5171821713447571
1.2543945311402642,2.787368033304881,-3.1161727427537076,3.278243064880371,0.23849718272686005,-0.7976934909820557,0.1079263985157013,-0.9503611326217651,0.29183223843574524,-0.022599242627620697,1.224332571029663,-0.4364243745803833
1.222114574184341,2.7997897011042965,-3.1269930369320913,3.0040721893310547,0.1991865485906601,-0.737521767616272,0.11451975256204605,-0.9398239254951477,0.3218955993652344,-0.051912933588027954,1.2000930309295654,-0.3194844722747803
1.1926501952438457,2.8084448404063442,-3.1344547622446415,2.716827154159546,0.12425637245178223,-0.7095546126365662,0.1207350641489029,-0.9293506741523743,0.34889906644821167,-0.0739973857998848,1.169783353805542,-0.20587816834449768
1.1657744903050424,2.8134278674033593,-3.1393566959306054,2.484768867492676,-0.03988569974899292,-0.671009361743927,0.1270015388727188,-0.9190937876701355,0.37301212549209595,-0.08731339871883392,1.1532244682312012,-0.12938997149467468
1.140873610990568,2.81590816349628,3.1397013805861533,2.335310935974121,-0.2121785581111908,-0.5999612212181091,0.13335846364498138,-0.9089979529380798,0.39489030838012695,-0.07151460647583008,1.149491786956787,-0.10501891374588013
1.11750419692073,2.8176227978497272,3.1349742530537186,2.205495834350586,-0.2813911736011505,-0.5032272338867188,0.13940668106079102,-0.8990102410316467,0.4151466488838196,-0.05716179311275482,1.137657642364502,-0.1103367805480957
1.0959750927657321,2.819660180474749,3.1299866734964614,1.9926021099090576,-0.17322227358818054,-0.4444122016429901,0.14465199410915375,-0.8893744349479675,0.43369296193122864,-0.07198961079120636,1.1237797737121582,-0.10138672590255737
1.0772276736133588,2.8223513340090847,3.126464602904536,1.641476035118103,0.09555352479219437,-0.4272651970386505,0.14869163930416107,-0.8806477189064026,0.44983425736427307,-0.10582970082759857,1.1032733917236328,-0.04700195789337158
1.0623468227734136,2.825345282572909,3.125783782745904,1.190529227256775,0.3780214786529541,-0.4396003186702728,0.1514032632112503,-0.8735003471374512,0.46268174052238464,-0.130544513463974,1.0875811576843262,0.04812178015708923
1.0516835532335709,2.8277656954298096,3.128632657203396,0.7533321380615234,0.5880252718925476,-0.4837544858455658,0.15314960479736328,-0.8682596683502197,0.4718795418739319,-0.13250450789928436,1.0686229467391968,0.13557299971580505
1.0447158586936778,2.8292683028935968,3.1344249414220813,0.4030136168003082,0.7022489905357361,-0.48170554637908936,0.15429571270942688,-0.86478191614151,0.47785505652427673,-0.10085940361022949,1.0461478233337402,0.17441272735595703
1.040793229833655,2.8308239479586836,3.141131369005365,0.14576876163482666,0.7509182095527649,-0.3881215453147888,0.15458835661411285,-0.8628054857254028,0.4813208281993866,-0.06512606143951416,1.0512208938598633,0.16519445180892944
1.039382167331727,2.8333412401799816,-3.136446408777611,-0.04200863838195801,0.7033059000968933,-0.22952303290367126,0.15374544262886047,-0.8620913028717041,0.4828679859638214,-0.01714874804019928,1.0834197998046875,0.15014320611953735
1.0400917231951072,2.837335971250761,-3.1333726336992367,-0.1810898333787918,0.6196943521499634,-0.018106648698449135,0.15163205564022064,-0.8624506592750549,0.48289474844932556,0.022638604044914246,1.106224775314331,0.14840751886367798
1.0426491699166618,2.8434534915837926,-3.1337662683822853,-0.2937113642692566,0.5316945314407349,0.20464441180229187,0.14802667498588562,-0.8637422919273376,0.48170316219329834,0.040846630930900574,1.1164886951446533,0.14969050884246826
1.046839812749462,2.851573366052988,-3.137385429318003,-0.39741456508636475,0.4726506173610687,0.37770673632621765,0.14307411015033722,-0.8658464550971985,0.4794166088104248,0.030906617641448975,1.1254135370254517,0.16398578882217407
1.0523837790260149,2.8615072002972575,3.139884001638378,-0.5007644295692444,0.49510878324508667,0.48678556084632874,0.13697564601898193,-0.8686068654060364,0.4761938154697418,0.00462593138217926,1.1251068115234375,0.18257421255111694
1.059278017467576,2.8730503462736454,3.132853282137287,-0.6406629085540771,0.5965549945831299,0.5438634753227234,0.12987785041332245,-0.8720023036003113,0.4719580411911011,-0.018580228090286255,1.1002888679504395,0.2025417685508728
1.0680006700266567,2.8860834151457317,3.125639234940211,-0.8683376908302307,0.7507984638214111,0.5778976678848267,0.12178883701562881,-0.8762388229370117,0.4662332236766815,-0.023033946752548218,1.0848875045776367,0.2556755542755127
1.0794976014587936,2.9003232824845258,3.118918782991662,-1.2105456590652466,0.8991309404373169,0.6018357276916504,0.11272292584180832,-0.8817209005355835,0.4581068754196167,-0.00992448627948761,1.0925211906433105,0.34832027554512024
1.0948095423896458,2.9147366942157675,3.1130941961037317,-1.647916316986084,0.9265952110290527,0.6325198411941528,0.10305967926979065,-0.8888409733772278,0.4464755356311798,0.015699483454227448,1.1138317584991455,0.458004355430603
1.114817404308522,2.9281153027028237,3.1079355599326908,-2.1468865871429443,0.8054019808769226,0.6944167613983154,0.09329058974981308,-0.8978304266929626,0.43034589290618896,0.043336592614650726,1.1435275077819824,0.5575998425483704
1.1399273445232887,2.940064760228902,3.1023168559909937,-2.6507728099823,0.5479804873466492,0.8112906217575073,0.08360164612531662,-0.9086031317710876,0.4092077910900116,0.06775026023387909,1.179187297821045,0.6123835444450378
1.1701122987510892,2.9503090224478745,3.0948503455258702,-3.1241183280944824,0.1164112538099289,0.9526557326316833,0.07415582239627838,-0.9207944273948669,0.3829348683357239,0.08484075963497162,1.2237269878387451,0.6301116347312927
1.2047131166826832,2.958322814915479,3.084848930982717,-3.4958138465881348,-0.3536783456802368,1.0600062608718872,0.06523685157299042,-0.9337365627288818,0.35196638107299805,0.06130426377058029,1.2618310451507568,0.5975577235221863
1.2424081923864434,2.9649454404665363,3.072098660759113,-3.7253003120422363,-0.6946545839309692,1.13608717918396,0.05667612701654434,-0.9465634226799011,0.31749939918518066,-0.008641466498374939,1.2958675622940063,0.45958516001701355
1.2819807622951274,2.9724712609058535,3.0560655275393205,-3.8699827194213867,-0.824117124080658,1.173065185546875,0.047939568758010864,-0.9585819244384766,0.28075477480888367,-0.09910228848457336,1.34208083152771,0.24986985325813293
1.322902069476529,2.9837113972432343,3.036089368690422,-4.00658655166626,-0.7535414695739746,1.1869959831237793,0.03857763856649399,-0.9694312214851379,0.24231229722499847,-0.19032630324363708,1.4055273532867432,0.06928765773773193
1.3650968693395873,3.0001089617456125,3.0122404293829024,-4.165279388427734,-0.6105967164039612,1.1305102109909058,0.028802134096622467,-0.9789183735847473,0.20221194624900818,-0.24889491498470306,1.40181565284729,-0.055849432945251465
1.4094105814798572,3.0249211721504308,2.9814314436337024,-4.461677074432373,-0.4839157164096832,1.1186351776123047,0.018705027177929878,-0.9870055317878723,0.1595940738916397,-0.2777077257633209,1.35225510597229,-0.1345694214105606
1.4567188109298443,3.068159277996699,2.9333207158117376,-4.7979254722595215,-0.4092986285686493,1.087693691253662,0.008351472206413746,-0.9935002326965332,0.11352405697107315,-0.27048221230506897,1.3026432991027832,-0.16013944149017334
1.5067546818046098,-3.1086568934171135,2.8226383920936997,-5.1105451583862305,-0.37664321064949036,1.0778203010559082,-0.0021075259428471327,-0.99795001745224,0.06396584957838058,-0.26748478412628174,1.2641699314117432,-0.2584083080291748
1.5537050398807026,-2.3047276891280988,2.014520034145444,-5.3564605712890625,-0.3816872835159302,1.0475999116897583,-0.012693666853010654,-0.9998539686203003,0.011449972167611122,-0.2660386562347412,1.2302463054656982,-0.4358118772506714
1.5225460665057304,-0.4936834174982882,0.19906907706461424,-5.4248857498168945,-0.42496153712272644,0.9719821810722351,-0.022857164964079857,-0.9988361597061157,-0.04247526451945305,-0.2776646912097931,1.1686358451843262,-0.6464436054229736
1.4678178140349445,-0.32613417996832106,0.02715382283789317,-5.574405670166016,-0.3262234628200531,1.0006242990493774,-0.03293449804186821,-0.9947023987770081,-0.09737849980592728,-0.2660004496574402,1.0905275344848633,-0.898104727268219
1.4104200689391568,-0.27396313488756446,-0.027129459381764625,-5.738714218139648,0.021691113710403442,1.0076230764389038,-0.0432041697204113,-0.987167239189148,-0.15373533964157104,-0.2166987955570221,0.9442288875579834,-1.0652738809585571
1.351094307863415,-0.24189341803004133,-0.05716412616021999,-6.0170087814331055,0.5208583474159241,0.9085267186164856,-0.05220554769039154,-0.9759624600410461,-0.21159455180168152,-0.23395779728889465,0.8114725351333618,-1.1998738050460815
1.2894041969047816,-0.2105482520212003,-0.08090776849138318,-6.195748329162598,1.1143922805786133,0.6924210786819458,-0.058036841452121735,-0.960669755935669,-0.27156099677085876,-0.25481411814689636,0.6347877383232117,-1.2375178337097168
1.2276153485817294,-0.17746079471022394,-0.10240724439036718,-6.111424446105957,1.358207106590271,0.39386048913002014,-0.059399884194135666,-0.9416890740394592,-0.3312000632286072,-0.28622695803642273,0.4170154929161072,-1.344657301902771
1.1682241455961146,-0.14634910467403556,-0.12128654242137216,-5.766063690185547,1.2973512411117554,0.18199406564235687,-0.057133130729198456,-0.9200562834739685,-0.3875982165336609,-0.26165351271629333,0.25573426485061646,-1.4793602228164673
1.113004128601278,-0.12213337184407873,-0.1353700944796833,-5.290496826171875,0.9554386734962463,0.1523497998714447,-0.053845059126615524,-0.8970304727554321,-0.4386766850948334,-0.12268389016389847,0.0793728232383728,-1.5217571258544922
1.062579152097477,-0.10721020666645059,-0.14370240611203955,-4.779145240783691,0.5427693128585815,0.22926588356494904,-0.05207081511616707,-0.8736134767532349,-0.48382672667503357,0.030845820903778076,-0.11959654092788696,-1.493208646774292
1.0172177625983725,-0.10036936923574802,-0.14792943001633896,-4.264610290527344,0.09815824031829834,0.27394306659698486,-0.05267912894487381,-0.8506485819816589,-0.5230889916419983,0.11993984878063202,-0.3069748282432556,-1.4031803607940674
0.976278855274615,-0.09908449468061353,-0.1502504017757127,-3.9098284244537354,-0.20367510616779327,0.2847435176372528,-0.05540737882256508,-0.8284188508987427,-0.5573620200157166,0.11810572445392609,-0.4696464538574219,-1.3482470512390137
0.9376637536755303,-0.10037748337639829,-0.15201099779278276,-3.800095558166504,-0.3186265826225281,0.28254082798957825,-0.05929097905755043,-0.8061780333518982,-0.5886949300765991,0.09040363132953644,-0.6653339862823486,-1.2496380805969238
0.8992376730973061,-0.10194486601184731,-0.15358873174075544,-3.8468830585479736,-0.21244050562381744,0.29755866527557373,-0.06332099437713623,-0.782852828502655,-0.6189765334129333,0.08076178282499313,-0.9164421558380127,-1.1520652770996094
0.8602836764875706,-0.10101415314888244,-0.15559696968412196,-3.8931009769439697,0.11527576297521591,0.21763479709625244,-0.06577171385288239,-0.7580276131629944,-0.6488977074623108,0.013342492282390594,-1.138838291168213,-1.1665470600128174
0.8215055816202268,-0.09477085280560026,-0.1595711586359407,-3.8346190452575684,0.5351678729057312,0.0025182145182043314,-0.06445370614528656,-0.7321721315383911,-0.6780632138252258,-0.11788883805274963,-1.289815902709961,-1.2220220565795898
0.7840821594326871,-0.08339717171411855,-0.1660689064240441,-3.659858226776123,0.7690591812133789,-0.2258407473564148,-0.05897983908653259,-0.7061756253242493,-0.7055759429931641,-0.1724502444267273,-1.455949068069458,-1.2240046262741089
0.7488821837838344,-0.06988433671720772,-0.17389789909717096,-3.4149153232574463,0.8299688696861267,-0.33676594495773315,-0.05114515870809555,-0.6808204650878906,-0.7306625843048096,-0.11673206090927124,-1.582271695137024,-1.1639602184295654
0.7165289549850188,-0.05715486022342625,-0.1809140850789178,-3.0727360248565674,0.7436017990112305,-0.27157387137413025,-0.043076448142528534,-0.656771183013916,-0.7528586387634277,0.006607919931411743,-1.6452462673187256,-1.0529426336288452
0.6880522006485935,-0.0479041598625017,-0.18553562482166863,-2.6234679222106934,0.4974724054336548,-0.1316244900226593,-0.03699106350541115,-0.6350337266921997,-0.771598219871521,0.13640205562114716,-1.7022619247436523,-0.9657673835754395
0.6644195553792177,-0.04270715602153533,-0.18775856718569364,-2.0891880989074707,0.26617667078971863,-0.004866990260779858,-0.033612050116062164,-0.6166022419929504,-0.7865569591522217,0.17026974260807037,-1.7559258937835693,-0.9051238298416138
0.6464105696561837,-0.04062728984098083,-0.18805634670599033,-1.4914904832839966,0.12352070957422256,0.10388772189617157,-0.03242185339331627,-0.6023250222206116,-0.797592282295227,0.12756039202213287,-1.7780156135559082,-0.8599088191986084
0.6345676749989826,-0.04063109315084672,-0.186429215488859,-0.8589543104171753,0.07815050333738327,0.25902268290519714,-0.032712358981370926,-0.5928294062614441,-0.8046634793281555,0.06904351711273193,-1.7934317588806152,-0.8681727647781372
0.6289294631858281,-0.04202623162951075,-0.1823730568825845,-0.24185943603515625,0.11647658795118332,0.44457897543907166,-0.03397483751177788,-0.5882794260978699,-0.8079437613487244,0.034829311072826385,-1.784111499786377,-0.8799223303794861
0.6291222471374801,-0.045029553006103215,-0.17556737368867734,0.3195326328277588,0.07524124532938004,0.6452280879020691,-0.0363960899412632,-0.5884352922439575,-0.8077247738838196,0.0041847676038742065,-1.7770586013793945,-0.8496084809303284
0.6346828257487741,-0.04993007620895263,-0.16640522332360813,0.8539121747016907,0.022934366017580032,0.7587160468101501,-0.04018998146057129,-0.5929221510887146,-0.80425626039505,-0.0293290838599205,-1.7856943607330322,-0.8073616623878479
0.6453949370561782,-0.05598806948535906,-0.1563798244634256,1.3557984828948975,-0.0365818627178669,0.7100991606712341,-0.044703394174575806,-0.6015139818191528,-0.7976105809211731,-0.13510620594024658,-1.7437772750854492,-0.7871214151382446
0.6608385498064583,-0.06238515301362811,-0.1471791913849387,1.7894710302352905,-0.13013657927513123,0.5555402040481567,-0.049219757318496704,-0.6137790679931641,-0.7879420518875122,-0.2589315176010132,-1.686285138130188,-0.7565371990203857
0.6802544236962911,-0.06891457893623174,-0.1395354182193252,2.1415257453918457,-0.21603022515773773,0.3786431849002838,-0.053532674908638,-0.6289908289909363,-0.7755674123764038,-0.3167371153831482,-1.6325602531433105,-0.7043672204017639
0.7029315654864138,-0.07484735428596201,-0.1337669913182595,2.418429374694824,-0.2260703444480896,0.1781143695116043,-0.057051513344049454,-0.6464570760726929,-0.7608143091201782,-0.33502310514450073,-1.5488708019256592,-0.684070885181427
0.7282839888620644,-0.07921811955652017,-0.1301969812140078,2.664236068725586,-0.1709090620279312,-0.032987095415592194,-0.05906006693840027,-0.6655899286270142,-0.7439771890640259,-0.3477545380592346,-1.439680576324463,-0.6871140003204346
0.7563884540216751,-0.08113965830157087,-0.12923987272946638,2.9321980476379395,-0.08221860229969025,-0.28115829825401306,-0.05894971266388893,-0.686299204826355,-0.7249264717102051,-0.34415701031684875,-1.3393051624298096,-0.7472413778305054
0.7872566761562179,-0.0798788808199069,-0.13145311342252866,3.166637420654297,0.03149200603365898,-0.5200879573822021,-0.05631789565086365,-0.7084197402000427,-0.7035409212112427,-0.33957141637802124,-1.227813959121704,-0.8407094478607178
0.8202707591163323,-0.07539541076653099,-0.13638297035760438,3.331956624984741,0.1416613906621933,-0.6540237069129944,-0.0513727180659771,-0.7313305139541626,-0.6800857186317444,-0.2754400372505188,-1.102562427520752,-0.8805983662605286
0.8546964542439761,-0.06915259115638947,-0.14273614370839632,3.450469493865967,0.15080633759498596,-0.6759319305419922,-0.04535887390375137,-0.754371702671051,-0.654878556728363,-0.15704898536205292,-0.974922239780426,-0.8895244002342224
0.8904880916174196,-0.06289944880127973,-0.14923068381026927,3.6240806579589844,0.1012267917394638,-0.6140235662460327,-0.039539724588394165,-0.7773788571357727,-0.627788782119751,-0.044810883700847626,-0.8301194310188293,-0.918765664100647
0.9283613454036704,-0.05812148746949146,-0.15454201823822356,3.883566379547119,0.01260256115347147,-0.4914426803588867,-0.03480370342731476,-0.8006392121315002,-0.5981351137161255,0.04347067326307297,-0.6812182068824768,-1.0060365200042725
0.9690982856277168,-0.05571521119034447,-0.15803901395100534,4.202617645263672,-0.10184865444898605,-0.3783118724822998,-0.03152089938521385,-0.8243756294250488,-0.5651648044586182,0.08452991396188736,-0.5226550698280334,-1.0965933799743652
1.013220180936636,-0.05578814866566359,-0.15973122118038913,4.577159404754639,-0.18684056401252747,-0.297220379114151,-0.029503941535949707,-0.8485401272773743,-0.5283080339431763,0.08854018151760101,-0.37245309352874756,-1.1476409435272217
1.0613476091269651,-0.05780967626191636,-0.15964387684013753,5.005524635314941,-0.19523803889751434,-0.24210253357887268,-0.028177866712212563,-0.8730134963989258,-0.48688164353370667,0.07696019113063812,-0.22174382209777832,-1.2282519340515137
1.1137682074580855,-0.06143130009000042,-0.15767924089334898,5.427619457244873,-0.18009920418262482,-0.20127075910568237,-0.027091573923826218,-0.8973678946495056,-0.44045114517211914,0.06583362072706223,-0.07130604982376099,-1.3093503713607788
1.1698559145846303,-0.0669756488619699,-0.15359030711193464,5.729865550994873,-0.18270111083984375,-0.17953376471996307,-0.026120033115148544,-0.9206943511962891,-0.3894096612930298,0.06942445784807205,0.06150233745574951,-1.3036901950836182
1.2280759000989037,-0.0745804586462987,-0.14726096094625987,5.8609113693237305,-0.15116716921329498,-0.1877371221780777,-0.025039607658982277,-0.9418439269065857,-0.33511680364608765,0.07218924909830093,0.17089349031448364,-1.218075156211853
1.2869974407499631,-0.08438357150574229,-0.13850620760168947,5.876553535461426,-0.1512630432844162,-0.2080107033252716,-0.023599769920110703,-0.9599986672401428,-0.2790084481239319,0.07880605757236481,0.27378028631210327,-1.0964491367340088
1.3457040971128191,-0.09841724097290994,-0.1259504201442266,5.825247764587402,-0.22694160044193268,-0.23494847118854523,-0.021930981427431107,-0.9747735261917114,-0.2221168577671051,0.09474590420722961,0.3703422546386719,-0.9886831045150757
1.403764114664398,-0.11975396146417457,-0.10703340710573257,5.757884979248047,-0.3269973695278168,-0.3003634512424469,-0.019862430170178413,-0.9860824942588806,-0.1650666892528534,0.10140538215637207,0.43903952836990356,-0.9031704068183899
1.4611243402376042,-0.15390574996456327,-0.07628751982174835,5.682240009307861,-0.3979179859161377,-0.43248453736305237,-0.016779134050011635,-0.993992030620575,-0.10815998166799545,0.06972711533308029,0.5139656662940979,-0.870508074760437
1.517691606492773,-0.22447557322741069,-0.009466578926168923,5.588107109069824,-0.3776542544364929,-0.6259485483169556,-0.011816566810011864,-0.9985902905464172,-0.051753606647253036,0.013479757122695446,0.5919279456138611,-0.87726229429245
1.5648570096289776,-2.2517208790030305,2.0147117150503036,5.470261573791504,-0.24916072189807892,-0.818510115146637,-0.004621587693691254,-0.9999823570251465,0.0037443717010319233,-0.03976624086499214,0.6669135093688965,-0.8911800384521484
1.5127384291281998,3.0680302243715594,2.9769325242860813,5.325473308563232,-0.012609169818460941,-0.9347906708717346,0.004264959134161472,-0.9983150959014893,0.057872794568538666,-0.06644453853368759,0.7607507705688477,-0.9004170894622803
1.4595196707467148,3.0185364470900784,3.0277112686713976,5.139923095703125,0.2305683195590973,-0.9505230784416199,0.013630765490233898,-0.9938151240348816,0.11020892858505249,-0.06084147095680237,0.8803507089614868,-0.8842413425445557
1.4083453733361673,3.003220951206644,3.046402179381082,4.89667272567749,0.39214202761650085,-0.878413200378418,0.02230866439640522,-0.9868338108062744,0.16019245982170105,-0.035843223333358765,0.9814320802688599,-0.8125360012054443
1.3598721011866481,2.9994752042663597,3.054298539095519,4.628970623016357,0.3863808810710907,-0.7604365944862366,0.029654432088136673,-0.977837860584259,0.20725475251674652,0.00995737686753273,1.0464410781860352,-0.6965122222900391
1.3141312011625963,3.0000374396226386,3.057001995909638,4.388383388519287,0.23657725751399994,-0.6538614630699158,0.035814981907606125,-0.9672419428825378,0.25131848454475403,0.04499556124210358,1.0789971351623535,-0.598318338394165
1.2705899085897372,3.000913963760122,3.0574814858234958,4.209336280822754,0.027995366603136063,-0.5991979241371155,0.041464075446128845,-0.9552754759788513,0.29279619455337524,0.03885817527770996,1.0951223373413086,-0.5392253994941711
1.228663338351411,3.0001161503770803,3.05773747122528,4.060986518859863,-0.12051714211702347,-0.5960857272148132,0.04730693995952606,-0.9420412182807922,0.3321462869644165,-0.000416681170463562,1.1082854270935059,-0.5214769840240479
1.1884392272013418,2.9979542438271873,3.0586308726682643,3.8566489219665527,-0.13034315407276154,-0.6065388917922974,0.0534086711704731,-0.9277877807617188,0.369266539812088,-0.045535147190093994,1.1126784086227417,-0.508807897567749
1.1507005681401952,2.995385848948868,3.0604264046779415,3.5564088821411133,-0.041283056139945984,-0.6169974207878113,0.05941794812679291,-0.9130498766899109,0.40349671244621277,-0.0862734317779541,1.1289465427398682,-0.4468619227409363
1.1163407545458317,2.9930708934245844,3.0632784672558384,3.1766159534454346,0.09629565477371216,-0.6248231530189514,0.0649576410651207,-0.8985001444816589,0.43414050340652466,-0.11035256087779999,1.1385667324066162,-0.362225741147995
1.0858729609027131,2.99131542682772,3.0670813159491637,2.779940128326416,0.22710134088993073,-0.6139164566993713,0.06978707760572433,-0.8847106695175171,0.4608878493309021,-0.12070564925670624,1.1196956634521484,-0.28104734420776367
1.05919199254457,2.9904646359654903,3.0712730298619055,2.4271998405456543,0.33089566230773926,-0.5804434418678284,0.07370749115943909,-0.8719601631164551,0.48399683833122253,-0.1274184286594391,1.11088228225708,-0.2212860882282257
1.0356779175778623,2.9903336744660094,3.075527262930104,2.1487247943878174,0.36861586570739746,-0.5428417325019836,0.07683967053890228,-0.86020827293396,0.5041205286979675,-0.12766671180725098,1.1102389097213745,-0.1866765022277832
1.014699514707633,2.9906562270016837,3.07942856513555,1.9316504001617432,0.3589569330215454,-0.47961610555648804,0.07937351614236832,-0.8493219614028931,0.5218743085861206,-0.11675754934549332,1.097445011138916,-0.16071373224258423
0.9957736835833481,2.9917108588940233,3.0823306421044414,1.7576011419296265,0.3345487713813782,-0.3938647210597992,0.08120904117822647,-0.8391799926757812,0.5377572774887085,-0.10804923623800278,1.0937116146087646,-0.13413143157958984
0.9786261612633413,2.993045119127899,3.08438980493151,1.5865546464920044,0.26413923501968384,-0.34477290511131287,0.08260916918516159,-0.8297313451766968,0.5520161986351013,-0.11861992627382278,1.0994914770126343,-0.07844418287277222
0.9632725911742124,2.9934027523514337,3.0865587526744735,1.405471682548523,0.15958912670612335,-0.35299623012542725,0.08428297936916351,-0.8210640549659729,0.5645804405212402,-0.14864453673362732,1.085056185722351,0.007624566555023193
0.9497516878442533,2.9922594499799637,3.0893498923159637,1.211637258529663,0.07435410469770432,-0.3607860207557678,0.08657223731279373,-0.8132710456848145,0.5754095315933228,-0.17206722497940063,1.0575335025787354,0.09359711408615112
0.9383662092261791,2.99022349259995,3.092670720761936,0.9668543338775635,0.060875847935676575,-0.36338019371032715,0.08913415670394897,-0.8065934181213379,0.5843485593795776,-0.1803053915500641,1.0538771152496338,0.16427862644195557
0.9297521423596816,2.9877747678875086,3.0965707024928673,0.6517014503479004,0.07848017662763596,-0.35474923253059387,0.09162586182355881,-0.8014717102050781,0.5909721851348877,-0.1817290186882019,1.0533485412597656,0.2414712905883789
0.9246374669227404,2.9852628192387742,3.100886025297627,0.2682536840438843,0.11745234578847885,-0.30812421441078186,0.09374711662530899,-0.7984025478363037,0.5947819948196411,-0.1679506003856659,1.057206630706787,0.32729166746139526
0.923578464109187,2.983353497936689,3.105139387894977,-0.14320331811904907,0.1816023886203766,-0.23026399314403534,0.09501570463180542,-0.7977644205093384,0.5954362154006958,-0.15081709623336792,1.0654034614562988,0.3884507417678833
0.926718102942102,2.982189459697269,3.109137660306373,-0.5431286096572876,0.2191881239414215,-0.14775392413139343,0.09531072527170181,-0.7996535897254944,0.5928494334220886,-0.1439557522535324,1.072404384613037,0.42800962924957275
0.9335790992737847,2.9814189057556395,3.1128006809678155,-0.86851567029953,0.20277397334575653,-0.06660590320825577,0.09489020705223083,-0.8037545084953308,0.5873454809188843,-0.14336740970611572,1.0810983180999756,0.44550687074661255
0.9433941367266477,2.980660561718675,3.115854089627628,-1.111881971359253,0.13572542369365692,0.026989297941327095,0.09406692534685135,-0.8095552921295166,0.5794582962989807,-0.14019426703453064,1.088958978652954,0.4317876696586609
0.9555241032582067,2.979963178422891,3.1178666128880193,-1.306748867034912,0.0498938113451004,0.13145452737808228,0.09288380295038223,-0.8166163563728333,0.5696582198143005,-0.13609671592712402,1.093105673789978,0.40472251176834106
0.9696608477607658,2.979128858490286,3.118793965054171,-1.4935322999954224,-0.06942485272884369,0.2139001339673996,0.09148252755403519,-0.8246939182281494,0.5581319332122803,-0.14057007431983948,1.090547800064087,0.3868299126625061
0.9858005835039388,2.97726149166997,3.119293148875523,-1.6912245750427246,-0.21932563185691833,0.24848590791225433,0.09033515304327011,-0.8337144255638123,0.5447568297386169,-0.1650269329547882,1.088871955871582,0.3941013216972351
1.0040376694902005,2.9734788460850594,3.1203884624120377,-1.9200133085250854,-0.35137447714805603,0.22909782826900482,0.08983588963747025,-0.8436456918716431,0.5293317437171936,-0.19998908042907715,1.0890679359436035,0.397350013256073
1.0248286056834681,2.9669851324843526,3.123236835864282,-2.2290425300598145,-0.46094855666160583,0.18327470123767853,0.09020426869392395,-0.8546252250671387,0.5113508105278015,-0.22171977162361145,1.090663194656372,0.40005701780319214
1.0490408260263078,2.957566222652865,3.1282792657520133,-2.6170730590820312,-0.5452623963356018,0.1823606938123703,0.09120257943868637,-0.8669455647468567,0.4899877607822418,-0.20507892966270447,1.0981923341751099,0.4144466519355774
1.0771821823323182,2.945733625180743,3.1350832096965413,-3.0161962509155273,-0.6292544603347778,0.2348872870206833,0.09220824390649796,-0.8806262016296387,0.4647534489631653,-0.16781553626060486,1.121394395828247,0.39704805612564087
1.1091557482688816,2.9317219762956666,-3.139875355322343,-3.37245774269104,-0.6957511901855469,0.30760568380355835,0.09279542416334152,-0.8953229784965515,0.4356444478034973,-0.14385133981704712,1.1641371250152588,0.3250522017478943
1.144331536213405,2.915819379916637,-3.1300580807518057,-3.643820285797119,-0.6992258429527283,0.38731101155281067,0.09260101616382599,-0.9104337692260742,0.4031577408313751,-0.1498672366142273,1.2183101177215576,0.21499142050743103
1.18184372154687,2.8976508992853742,-3.118082111795469,-3.8410699367523193,-0.7385801672935486,0.42516544461250305,0.09159291535615921,-0.9253067374229431,0.36799293756484985,-0.1650182157754898,1.2796919345855713,0.07767081260681152
1.2209697488479254,2.874906255165837,-3.1020520048693268,-3.995375156402588,-0.8150656819343567,0.42564043402671814,0.0903232991695404,-0.9394321441650391,0.3306196331977844,-0.1885593831539154,1.317392110824585,-0.05136832594871521
1.2615826569575816,2.8448058209992197,-3.0792899332365744,-4.193458557128906,-0.8901828527450562,0.4111270010471344,0.0889953225851059,-0.9525731801986694,0.2910064160823822,-0.1903899759054184,1.3058598041534424,-0.13956260681152344
1.3042138330608106,2.8032253211881577,-3.0454562610686606,-4.484408855438232,-0.9175614714622498,0.41863977909088135,0.08744725584983826,-0.9646767973899841,0.24849961698055267,-0.17590245604515076,1.2981116771697998,-0.18660974502563477
1.348973870997485,2.7415094858603917,-2.9910357146115603,-4.785221576690674,-0.8407516479492188,0.3565034568309784,0.085692398250103,-0.9754981398582458,0.20263460278511047,-0.1766958236694336,1.2808568477630615,-0.2437414824962616
1.395524988475896,2.642736300208731,-2.8979972105486405,-5.156784534454346,-0.6500565409660339,0.3905664384365082,0.08342558890581131,-0.9846792817115784,0.15312547981739044,-0.1944027543067932,1.277510404586792,-0.3487429618835449
1.4427638581699094,2.46587871784277,-2.724775879266161,-5.537620544433594,-0.4691906273365021,0.4743926227092743,0.07986138761043549,-0.9918150305747986,0.09962785243988037,-0.1415831744670868,1.2985165119171143,-0.42795097827911377
1.4846630861089203,2.0856644752698315,-2.346333078846614,-5.867399215698242,-0.28656408190727234,0.5849960446357727,0.07487493008375168,-0.9962928295135498,0.042361803352832794,-0.08142095804214478,1.2960212230682373,-0.5231812000274658
1.4999994302021689,1.3183616475496596,-1.5793402536457857,-6.041024684906006,-0.22156566381454468,0.6866084337234497,0.06849727779626846,-0.9974949359893799,-0.0176679790019989,-0.01065121591091156,1.2508060932159424,-0.6311812996864319
1.4714558659862966,0.6632954061604258,-0.9252528301405636,-6.0315141677856445,-0.4127086102962494,0.7746440172195435,0.061065733432769775,-0.9950698018074036,-0.07814925163984299,0.016601495444774628,1.1835310459136963,-0.7781585454940796
1.421907292452498,0.3621846313077694,-0.6263226447080547,-6.093377113342285,-0.4191635549068451,0.8281876444816589,0.05255987495183945,-0.9889364838600159,-0.13871735334396362,0.004721619188785553,1.093901515007019,-0.931930661201477
1.3650576862064712,0.2176754399232334,-0.4833912728168664,-6.156815052032471,-0.337981253862381,0.7368396520614624,0.04411879554390907,-0.9789103269577026,-0.19947019219398499,-0.03502456098794937,0.9447152614593506,-1.0068131685256958
1.3052426316991241,0.14149276955620319,-0.40856454761384514,-6.228081703186035,-0.3268337845802307,0.5583434104919434,0.037010155618190765,-0.9649473428726196,-0.259821355342865,-0.10225674510002136,0.8191799521446228,-1.1129659414291382
1.243641674264071,0.09884095162298213,-0.3664086011185818,-6.233554840087891,-0.1241728737950325,0.4218023121356964,0.031710896641016006,-0.9469605088233948,-0.3197820484638214,-0.12199714779853821,0.6630247235298157,-1.183681607246399
1.1821935953982097,0.07332788366053535,-0.3397454320635146,-6.123698711395264,0.008268793113529682,0.39686286449432373,0.027758758515119553,-0.9254393577575684,-0.3778779208660126,-0.05360715091228485,0.48810696601867676,-1.2790586948394775
1.121907505703747,0.05589520403915227,-0.3199013396230821,-5.963462829589844,0.1252293586730957,0.4400503635406494,0.024243928492069244,-0.900929868221283,-0.4332871735095978,0.05096663534641266,0.3712514042854309,-1.366013765335083
1.0634486599478765,0.04217126343643069,-0.30292585648104825,-5.743746757507324,0.12065670639276505,0.55402672290802,0.020483296364545822,-0.8740362524986267,-0.48542895913124084,0.13311167061328888,0.21859478950500488,-1.346358060836792
1.0080211324270059,0.02847915653747725,-0.28658104905082793,-5.320191860198975,-0.07196149975061417,0.7153931856155396,0.015192587859928608,-0.845777690410614,-0.5333191752433777,0.20045986771583557,0.06277281045913696,-1.33882737159729
0.9577872200928216,0.012747708851811009,-0.27050011869837665,-4.718817234039307,-0.4022368788719177,0.8445703387260437,0.007333958521485329,-0.8179205060005188,-0.5752846598625183,0.22919252514839172,-0.13358718156814575,-1.413820505142212
0.9135347675069916,-0.004979835239329095,-0.255392000387923,-4.12267541885376,-0.6958110332489014,0.8972212076187134,-0.0030424243304878473,-0.7916682362556458,-0.6109437346458435,0.18851299583911896,-0.3913000226020813,-1.4688596725463867
0.8744223577155833,-0.02350962101542993,-0.24162857682249736,-3.6739113330841064,-0.8413783311843872,0.9299639463424683,-0.015078628435730934,-0.7671731114387512,-0.6412630081176758,0.12376696616411209,-0.6401757597923279,-1.4446897506713867
0.8385133425605197,-0.04143987151183356,-0.22935525907160026,-3.455400228500366,-0.8616729378700256,0.8870171904563904,-0.0276974905282259,-0.7436500191688538,-0.6679951548576355,0.07937899231910706,-0.8912988901138306,-1.3695108890533447
0.8035706485322032,-0.056007572250464224,-0.22001031010153546,-3.4659626483917236,-0.649896502494812,0.7109508514404297,-0.03885682672262192,-0.7198392152786255,-0.6930525302886963,-0.002174071967601776,-1.1840763092041016,-1.2526565790176392
0.7677793188127477,-0.06447841981982741,-0.21467447974212692,-3.613100051879883,-0.2664142847061157,0.4695664644241333,-0.0463571734726429,-0.6945392489433289,-0.7179598212242126,-0.0952901840209961,-1.475398063659668,-1.161205768585205
0.7307773146086116,-0.0657038727741475,-0.2133823356084191,-3.723437547683716,0.18798117339611053,0.2069297730922699,-0.048891581594944,-0.6674486398696899,-0.743049144744873,-0.1591925472021103,-1.6865248680114746,-1.136207938194275
0.6934123300091739,-0.06072123049330289,-0.21526851088005455,-3.7001259326934814,0.5408489108085632,-0.011318239383399487,-0.046670157462358475,-0.6391652226448059,-0.767652153968811,-0.17070657014846802,-1.8560588359832764,-1.1490347385406494
0.6578760858875967,-0.05214967859515079,-0.2189567599999245,-3.351836919784546,0.6719254851341248,-0.14475485682487488,-0.04124695807695389,-0.6114376187324524,-0.7902169823646545,-0.1305517554283142,-2.0027289390563965,-1.1801198720932007
0.6279420587313248,-0.04365605491463163,-0.22279271993300212,-2.5888185501098633,0.5383279919624329,-0.1638210415840149,-0.03531692922115326,-0.5874806642532349,-0.8084672689437866,-0.07961228489875793,-2.1061229705810547,-1.3169751167297363
0.6072786521435257,-0.037952506751463465,-0.2252652130501086,-1.5179321765899658,0.31562674045562744,-0.055893514305353165,-0.03115926869213581,-0.5706347823143005,-0.8206126093864441,-0.026656297966837883,-2.153944253921509,-1.4978382587432861
0.5979500632946303,-0.0359419205732449,-0.22508399519031685,-0.3355063796043396,0.10285057872533798,0.16336622834205627,-0.02969929203391075,-0.5629494190216064,-0.8259575963020325,0.0024318192154169083,-2.155388832092285,-1.6158910989761353
0.6001992481204715,-0.038001392168071246,-0.22151495939226412,0.7815093994140625,-0.1087263822555542,0.3981294631958008,-0.03135208040475845,-0.5648069381713867,-0.8246273398399353,0.0047559961676597595,-2.142483711242676,-1.603503704071045
0.6124403288449111,-0.04327793752607189,-0.21522136891907676,1.6641515493392944,-0.21138060092926025,0.5155650973320007,-0.03540101647377014,-0.5748659372329712,-0.8174814581871033,-0.04885803163051605,-2.115182399749756,-1.483543872833252
0.6321108252293914,-0.04951154451481094,-0.20788939503999973,2.2763469219207764,-0.1590673327445984,0.46208006143569946,-0.03992871195077896,-0.5908490419387817,-0.8057934641838074,-0.16461536288261414,-2.0697498321533203,-1.3033373355865479
0.6567997619308028,-0.054018091377488024,-0.20170623837016444,2.664665460586548,0.00357923936098814,0.2507246434688568,-0.042758841067552567,-0.6105855703353882,-0.7907951474189758,-0.3102532625198364,-2.0014445781707764,-1.1271581649780273
0.6845740569259309,-0.05521910668600367,-0.19824147306080148,2.878674030303955,0.18792591989040375,-0.01241831574589014,-0.042755868285894394,-0.6323431134223938,-0.7735077142715454,-0.4225609302520752,-1.8850061893463135,-0.9617827534675598
0.7141872834268138,-0.0527389207924164,-0.1977663967714293,3.0224647521972656,0.36026179790496826,-0.22620470821857452,-0.039832424372434616,-0.655003547668457,-0.7545753121376038,-0.4291922450065613,-1.749049425125122,-0.8290733098983765
0.7455005546736262,-0.04745057118817888,-0.199714871457409,3.207693099975586,0.41266828775405884,-0.36952459812164307,-0.034851156175136566,-0.6783396601676941,-0.7339215278625488,-0.3826598525047302,-1.5777945518493652,-0.7701982855796814
0.7792181910019573,-0.04098359054635423,-0.20360512778748727,3.4959843158721924,0.32920846343040466,-0.48683682084083557,-0.029150154441595078,-0.7027233839035034,-0.7108657956123352,-0.318292498588562,-1.3743183612823486,-0.7688552141189575
0.8162734668793559,-0.03442890590003951,-0.20926002903377766,3.8611879348754883,0.16668960452079773,-0.5725988149642944,-0.023577118292450905,-0.728598415851593,-0.6845353245735168,-0.24474871158599854,-1.1803219318389893,-0.8045393228530884
0.857131204709941,-0.028573376729100878,-0.21602060641541498,4.254621505737305,0.006460404023528099,-0.5723906755447388,-0.018701842054724693,-0.7559677362442017,-0.6543416976928711,-0.16090938448905945,-0.9638810157775879,-0.8523720502853394
0.901966593011297,-0.02404096812144633,-0.22265978687044055,4.654627323150635,-0.1232919991016388,-0.49744346737861633,-0.014905606396496296,-0.7845478653907776,-0.6198891401290894,-0.056490279734134674,-0.747587263584137,-0.9124440550804138
0.9506397813914935,-0.021461713023854995,-0.2283486106499739,5.0209641456604,-0.262643963098526,-0.40125569701194763,-0.012471788562834263,-0.8137874603271484,-0.5810288190841675,0.03725204989314079,-0.5471593141555786,-0.9668988585472107
1.002575890543504,-0.020703490182106935,-0.23292424260073927,5.30570650100708,-0.337886244058609,-0.3347722887992859,-0.011140436865389347,-0.8428599238395691,-0.538017749786377,0.09629972279071808,-0.37923187017440796,-0.9924233555793762
1.0566592514665156,-0.020586824758229937,-0.23711991934250257,5.44929838180542,-0.34265589714050293,-0.32513099908828735,-0.010123549960553646,-0.8707174062728882,-0.49167951941490173,0.11524133384227753,-0.2359568476676941,-0.9945874214172363
1.1115175384039289,-0.01967818707971515,-0.24168359481419924,5.458080768585205,-0.2730746865272522,-0.3147667646408081,-0.008722816593945026,-0.8963724374771118,-0.4432161748409271,0.12447597831487656,-0.10516881942749023,-0.9722194671630859
1.1659468114239961,-0.017833179931835735,-0.2462818709871562,5.377720832824707,-0.19633255898952484,-0.26603084802627563,-0.0070237754844129086,-0.9191616773605347,-0.393818199634552,0.15582747757434845,0.005053222179412842,-0.939448893070221
1.2193674367671345,-0.015866241095702834,-0.25008078987087556,5.266208648681641,-0.1171189621090889,-0.19642911851406097,-0.005461567081511021,-0.9388818144798279,-0.34419676661491394,0.19554029405117035,0.09551310539245605,-0.9074662923812866
1.2717862412143885,-0.014533284557451277,-0.2523853389333201,5.187605381011963,-0.057205796241760254,-0.10936074703931808,-0.00428099324926734,-0.9556285738945007,-0.2945440113544464,0.21445554494857788,0.17970359325408936,-0.8979606628417969
1.323722995116749,-0.01575760615491046,-0.2518629725870133,5.170534610748291,-0.10412909835577011,-0.0204633679240942,-0.0038536391220986843,-0.9696323275566101,-0.2445371448993683,0.21340258419513702,0.26368433237075806,-0.895904541015625
1.3756563851091936,-0.02232814435138832,-0.2470817078424347,5.188216209411621,-0.2812793552875519,0.024831362068653107,-0.004329150542616844,-0.9810205698013306,-0.1938553899526596,0.2008776068687439,0.3337121605873108,-0.8767925500869751
1.4277726233148411,-0.035388459609606904,-0.23752513544103826,5.19956111907959,-0.42365139722824097,-0.015609007328748703,-0.005043139681220055,-0.9897895455360413,-0.1424485296010971,0.1695328801870346,0.38726550340652466,-0.8541790843009949
1.4797449503670912,-0.05308833945515165,-0.22395475799819772,5.151841640472412,-0.4005235433578491,-0.1365840882062912,-0.004824839532375336,-0.9958577156066895,-0.09079782664775848,0.09889526665210724,0.4299091696739197,-0.8528207540512085
1.5308174360706024,-0.07071972749834712,-0.20986217480698163,5.004356861114502,-0.3045235276222229,-0.31673362851142883,-0.002824417781084776,-0.9992009401321411,-0.03987158462405205,0.018495185300707817,0.47889137268066406,-0.8292993903160095
1.5617234191490679,3.007099102422455,2.99310476714971,4.724332809448242,-0.1720515489578247,-0.49398741126060486,0.0012182979844510555,-0.9999588131904602,0.00900372862815857,-0.03556584194302559,0.5191695690155029,-0.7636574506759644
1.5157755978185978,3.0166289570950884,2.9827101720706586,4.354394435882568,0.003675260581076145,-0.6262826323509216,0.006854519248008728,-0.9984867572784424,0.054566267877817154,-0.06128263100981712,0.5542728304862976,-0.6639715433120728
1.4735001463337059,3.0007247841217906,2.999443471701971,3.9677228927612305,0.14574915170669556,-0.7380797863006592,0.01363924890756607,-0.9952704310417175,0.0961817055940628,-0.06998996436595917,0.5952764749526978,-0.5677696466445923
1.4346324507098394,2.9852678528450554,3.016944949983235,3.6443233489990234,0.23326514661312103,-0.8066524267196655,0.021133992820978165,-0.9907439947128296,0.13408978283405304,-0.07350216805934906,0.6517088413238525,-0.5050764083862305
1.3981907939524236,2.97280202899001,3.032228408306652,3.463474750518799,0.2880011200904846,-0.8257380127906799,0.02885248139500618,-0.9851406216621399,0.1693100929260254,-0.07035639882087708,0.7199274897575378,-0.4989302158355713
1.3628603290688113,2.9645572747485134,3.043577927774799,3.4140536785125732,0.2831032872200012,-0.8039131164550781,0.036356836557388306,-0.9784591197967529,0.2032148241996765,-0.0631970539689064,0.7904707789421082,-0.5339640378952026
1.327690596253238,2.960351399320797,3.050490283701041,3.432985305786133,0.21215982735157013,-0.7444586157798767,0.043389927595853806,-0.9705950617790222,0.2367771565914154,-0.05219424143433571,0.8696120381355286,-0.5622619986534119
1.292456454339553,2.9592185018935835,3.0530326058930464,3.448873519897461,0.04034944996237755,-0.6508679389953613,0.049831848591566086,-0.9615129232406616,0.270203560590744,-0.03463410586118698,0.9325669407844543,-0.5302283763885498
1.2573822679405031,2.959268462444268,3.0521962583441615,3.432502508163452,-0.1907009482383728,-0.5766902565956116,0.055901214480400085,-0.9512865543365479,0.3031984567642212,-0.028908420354127884,0.9684830904006958,-0.4611114263534546
1.2228169681099286,2.958048236249784,3.0503699837998877,3.3515281677246094,-0.38482701778411865,-0.5651614665985107,0.06223771348595619,-0.9400636553764343,0.3352716565132141,-0.05610368773341179,0.9803773164749146,-0.4072624742984772
1.1896447768074698,2.954952599218368,3.0490145802058684,3.1525213718414307,-0.4729712903499603,-0.5564393997192383,0.06902594864368439,-0.9282369017601013,0.36553025245666504,-0.08619207888841629,0.9761645197868347,-0.35103413462638855
1.1587872094653344,2.9505006229147033,3.0487983104675003,2.8867595195770264,-0.4409334659576416,-0.5886330008506775,0.07605825364589691,-0.9163181185722351,0.39316242933273315,-0.10797964036464691,0.9578982591629028,-0.2986491918563843
1.1306649058606797,2.944788528228639,3.05086189022343,2.57993745803833,-0.3131353557109833,-0.659317135810852,0.0833098515868187,-0.9046956896781921,0.4178341329097748,-0.1474883258342743,0.9385854601860046,-0.27273815870285034
1.1056096152662735,2.9385962527363927,3.055194992498752,2.2369613647460938,-0.14387363195419312,-0.6971122026443481,0.09043805301189423,-0.8937378525733948,0.43937915563583374,-0.17603985965251923,0.9419555068016052,-0.24040424823760986
1.0839505322444898,2.932681760974224,3.0610017987631495,1.8826184272766113,-0.011753992177546024,-0.7016347050666809,0.0970277339220047,-0.8838129043579102,0.45766907930374146,-0.1698731929063797,0.9520653486251831,-0.18613862991333008
1.065692069889427,2.9271562668814144,3.067751235887408,1.5492125749588013,0.09087225049734116,-0.6869732141494751,0.10297218710184097,-0.8751240372657776,0.47281622886657715,-0.14719215035438538,0.946351945400238,-0.13404035568237305
1.0503449310532078,2.9222615682527495,3.074871593398282,1.2974623441696167,0.1596849113702774,-0.6492511630058289,0.10819489508867264,-0.8675947785377502,0.48535919189453125,-0.12732940912246704,0.9372053146362305,-0.10678839683532715
1.0369617970943623,2.9177991917568233,3.081911588085986,1.1657365560531616,0.15945295989513397,-0.6299073100090027,0.11292653530836105,-0.8608622550964355,0.4961492419242859,-0.11335377395153046,0.9438394904136658,-0.11716651916503906
1.0242850675831945,2.9132394969763085,3.0889453186376166,1.142731785774231,0.13041329383850098,-0.6370851397514343,0.11764878034591675,-0.8543428778648376,0.5062189698219299,-0.12070053070783615,0.9370606541633606,-0.14489054679870605
1.0116888407949818,2.9087371026326987,3.0956153820273857,1.134979009628296,0.1062653437256813,-0.6135068535804749,0.12240039557218552,-0.8477288484573364,0.5161144137382507,-0.1285344362258911,0.9274408221244812,-0.15966886281967163
0.999580797857455,2.9046802203491975,3.101715249627294,1.048435091972351,0.1259663850069046,-0.5796129107475281,0.1268930286169052,-0.8412443995475769,0.5255529880523682,-0.1162729412317276,0.929943859577179,-0.12317860126495361
0.9889424918407355,2.90144369022663,3.10743360545164,0.8529850840568542,0.1831633597612381,-0.5212385058403015,0.1307147890329361,-0.8354452848434448,0.5338029861450195,-0.09523807466030121,0.9239002466201782,-0.03706800937652588
0.980710130492507,2.899331042438363,3.112709482032783,0.5977920293807983,0.2728084325790405,-0.42999815940856934,0.13348768651485443,-0.8308927416801453,0.5401842594146729,-0.06985850632190704,0.9171504378318787,0.044395506381988525
0.9752435396325294,2.8988214692141017,3.117306019885646,0.3387027084827423,0.3800150454044342,-0.3315541446208954,0.13485287129878998,-0.8278385400772095,0.5445172190666199,-0.054011762142181396,0.9189180135726929,0.08954691886901855
0.9724369118691231,2.8996025754882746,3.1214255129567126,0.09453844279050827,0.4516805112361908,-0.25269240140914917,0.13498367369174957,-0.8262608647346497,0.5468756556510925,-0.05792677402496338,0.9280368685722351,0.11691248416900635
0.9721057598495986,2.9012334497327035,3.125331731039346,-0.13040226697921753,0.5150653719902039,-0.18701618909835815,0.13415661454200745,-0.8260742425918579,0.5473603010177612,-0.07055801153182983,0.93448805809021,0.14447331428527832
0.9739776561716169,2.9036701153462183,3.128975382324475,-0.32356202602386475,0.566255509853363,-0.12036242336034775,0.13245789706707,-0.8271277546882629,0.5461822152137756,-0.06893555819988251,0.9361517429351807,0.17113375663757324
0.9777676213458676,2.906922638661049,3.1320516057218732,-0.48743030428886414,0.5861514806747437,-0.0374012254178524,0.12995097041130066,-0.8292518258094788,0.5435577034950256,-0.056739285588264465,0.9325231313705444,0.19035989046096802
0.983369494347041,2.9107813643615406,3.1342505586508493,-0.6531956791877747,0.5359659194946289,0.06290257722139359,0.12678776681423187,-0.8323695659637451,0.5395240783691406,-0.03526555001735687,0.9231745004653931,0.22996163368225098
0.9909039553380431,2.9147617654384392,3.1350719754831045,-0.8319020867347717,0.3849063515663147,0.19052870571613312,0.1232253834605217,-0.8365216255187988,0.5338985919952393,-0.005030781030654907,0.9185526967048645,0.2997809052467346
1.000557961760705,2.9181698707237214,3.134344820380193,-1.0247596502304077,0.16740119457244873,0.3129329979419708,0.11961010098457336,-0.8417723178863525,0.5264155268669128,0.006015509366989136,0.9228422045707703,0.35830461978912354
1.012314308054133,2.9201932180244112,3.132481551453416,-1.2179948091506958,-0.0812661424279213,0.3886229693889618,0.11636350303888321,-0.8480604887008667,0.516965925693512,-0.013076722621917725,0.9292522668838501,0.38812482357025146
1.0260616320312776,2.91985009839955,3.1304961756834833,-1.4125020503997803,-0.3215951919555664,0.4147298336029053,0.11396589130163193,-0.8552647829055786,0.5055044293403625,-0.05131327360868454,0.928399920463562,0.39606142044067383
1.0418211340552441,2.9169427877727268,3.128905063055285,-1.6206400394439697,-0.5209359526634216,0.4420972764492035,0.1124182790517807,-0.8633247017860413,0.4919688105583191,-0.08360965549945831,0.9290288090705872,0.3661552667617798
1.0599701836862245,2.9118535493938835,3.1279536268760824,-1.8976742029190063,-0.6442179679870605,0.46634119749069214,0.1113336980342865,-0.8723409175872803,0.4760532081127167,-0.1087702214717865,0.942516028881073,0.3178161382675171
1.0813332295011937,2.9049288144230587,3.128480410922507,-2.2661211490631104,-0.6221326589584351,0.4663388133049011,0.11023233830928802,-0.8825854063034058,0.45704734325408936,-0.15053080022335052,0.9563310742378235,0.27461183071136475
1.1065259436144335,2.8962624860317745,3.131944366167605,-2.6844050884246826,-0.48675546050071716,0.4164860248565674,0.10875307023525238,-0.8941485285758972,0.43436333537101746,-0.20192325115203857,0.9782549142837524,0.23635217547416687
1.1354420192984631,2.8846835151438746,3.1400366458162523,-3.05987286567688,-0.3698035478591919,0.3391294777393341,0.10715895146131516,-0.9067206978797913,0.40789103507995605,-0.23885756731033325,0.9977697730064392,0.18450117111206055
1.1673596700225102,2.86916593348165,-3.12982869397883,-3.3548483848571777,-0.3066078722476959,0.2898954451084137,0.10563169419765472,-0.9197172522544861,0.3781034052371979,-0.24135863780975342,1.0040373802185059,0.09992405772209167
1.201663425851838,2.8487327760579824,-3.1110417883467556,-3.602083206176758,-0.300808310508728,0.262639582157135,0.10416190326213837,-0.932640552520752,0.34544458985328674,-0.21709221601486206,1.0115437507629395,0.02377256751060486
1.2381120610197909,2.8216032455514517,-3.085616782195304,-3.850095748901367,-0.3601635992527008,0.2637503445148468,0.10272842645645142,-0.9451690912246704,0.3100040853023529,-0.19437271356582642,1.0302214622497559,-0.010855317115783691
1.2765638120012008,2.783770257500494,-3.0501983680587648,-4.102688789367676,-0.4694184362888336,0.24211643636226654,0.10157022625207901,-0.9570249915122986,0.2716371417045593,-0.1848221868276596,1.0276885032653809,-0.028366029262542725
1.3167336061093455,2.729328809496954,-2.999289179390443,-4.338624000549316,-0.6212295293807983,0.20159654319286346,0.10070764273405075,-0.9678993225097656,0.2302808314561844,-0.18951380252838135,1.039768099784851,-0.049494385719299316
1.35776721869409,2.6467044981406076,-2.9215023042572374,-4.593943119049072,-0.7383151650428772,0.16863806545734406,0.10041148960590363,-0.9773949980735779,0.18605627119541168,-0.20490367710590363,1.0237815380096436,-0.08974255621433258
1.3989648685459624,2.5178077746761924,-2.7974551334595374,-4.8557353019714355,-0.6630074381828308,0.17369849979877472,0.09987638145685196,-0.9852732419967651,0.1387868970632553,-0.21041102707386017,1.0346505641937256,-0.1307300180196762
1.4375717038869036,2.303353595866258,-2.5866101477419385,-5.0989603996276855,-0.5356143116950989,0.19349031150341034,0.09875638782978058,-0.9911386966705322,0.08883467316627502,-0.19304043054580688,1.0697060823440552,-0.20654082298278809
1.4669392561311005,1.9285083450032652,-2.214128440841545,-5.351644515991211,-0.4469410479068756,0.19606152176856995,0.0971093624830246,-0.9946116805076599,0.03629879653453827,-0.1636834442615509,1.074826955795288,-0.27404582500457764
1.473499667528281,1.3753637491131043,-1.6626878400515568,-5.581720352172852,-0.4295460879802704,0.17326486110687256,0.09529557079076767,-0.9952704310417175,-0.018864644691348076,-0.14044632017612457,1.0311131477355957,-0.28231310844421387
1.450031104915304,0.8878905832119081,-1.1771833599237989,-5.805220603942871,-0.5170475840568542,0.15442989766597748,0.09345690906047821,-0.9927167296409607,-0.07602519541978836,-0.13854661583900452,1.0141551494598389,-0.33455806970596313
1.4067958120731845,0.5940198775567938,-0.886001580311984,-6.012966632843018,-0.5860471725463867,0.14479830861091614,0.09138032048940659,-0.9865820407867432,-0.13529939949512482,-0.11641999334096909,1.0024356842041016,-0.3881073594093323
1.354195041181141,0.42683425460233004,-0.722577677719407,-6.0445990562438965,-0.7428463101387024,0.11894772946834564,0.08897151798009872,-0.9766334891319275,-0.19562995433807373,-0.08964291214942932,0.927362859249115,-0.4659450948238373
1.297932093824851,0.32501371203493257,-0.6261530611818699,-6.090304851531982,-0.8630797266960144,0.10546387732028961,0.08605430275201797,-0.9630029797554016,-0.2553820312023163,-0.08680199086666107,0.8887994289398193,-0.6488230228424072
1.23978394282286,0.2571206511883045,-0.5636280641494615,-6.065828800201416,-0.7701626420021057,0.1274559050798416,0.08264677226543427,-0.9457138180732727,-0.31431707739830017,-0.05765286833047867,0.8037152886390686,-0.7557663917541504
1.181244045272655,0.20757010079156385,-0.5190529242482842,-6.002647876739502,-0.7972221970558167,0.2449018359184265,0.07826502621173859,-0.9250791668891907,-0.3716226816177368,0.005109012126922607,0.6830134987831116,-0.8439838886260986
1.1233838260184748,0.16738399583829022,-0.48409890199642935,-5.843329906463623,-0.8519511818885803,0.38550347089767456,0.0720783919095993,-0.9015695452690125,-0.42658787965774536,0.0795481950044632,0.5969581604003906,-0.9433003067970276
1.0671801656190891,0.1325847773163985,-0.45549148623449714,-5.617829322814941,-1.0420894622802734,0.5267971754074097,0.06379758566617966,-0.8758431673049927,-0.47836053371429443,0.11790406703948975,0.4917488098144531,-1.019564151763916
1.013405201808909,0.09901567238661417,-0.43084430476981644,-5.305747032165527,-1.4242331981658936,0.700897216796875,0.05229118838906288,-0.8486379981040955,-0.5263832211494446,0.14126655459403992,0.3652699589729309,-1.0728750228881836
0.9632811291952621,0.06425209743340181,-0.4089068483552737,-4.820993900299072,-1.86104416847229,0.8790472745895386,0.03665173426270485,-0.8210689425468445,-0.569651186466217,0.14830005168914795,0.21445566415786743,-1.1704151630401611
0.918394096226345,0.027058412864228,-0.38865147680627615,-4.227929592132568,-2.2680299282073975,1.0884199142456055,0.016425076872110367,-0.7946277260780334,-0.6068747639656067,0.13991647958755493,0.045512616634368896,-1.3302130699157715
0.8787773391485982,-0.012044408977601982,-0.36883436236029915,-3.707836627960205,-2.3994593620300293,1.304361343383789,-0.007685267832130194,-0.7699592709541321,-0.6380467414855957,0.13444001972675323,-0.15679866075515747,-1.4609063863754272
0.8427059512640017,-0.05002289085921501,-0.34940413121308506,-3.4348738193511963,-2.1876230239868164,1.4272477626800537,-0.03327362984418869,-0.7464464902877808,-0.6646131277084351,0.0684603899717331,-0.3910353183746338,-1.5054001808166504
0.8076085800185115,-0.08271288920788926,-0.331529545580014,-3.408722400665283,-1.6845632791519165,1.4362258911132812,-0.05710834637284279,-0.7226362228393555,-0.6888654232025146,-0.04433209076523781,-0.6291095614433289,-1.4443742036819458
0.7717614573943323,-0.10717835952197965,-0.3165839016674091,-3.518794298171997,-1.0700615644454956,1.3158247470855713,-0.0766659751534462,-0.6973987221717834,-0.7125709652900696,-0.1385592520236969,-0.8433728814125061,-1.3477164506912231
0.7346268167359915,-0.12273952332526825,-0.30546683010170567,-3.6379051208496094,-0.5373222231864929,1.1399810314178467,-0.09085414558649063,-0.6703102588653564,-0.7364982962608337,-0.21198704838752747,-1.042427897453308,-1.2672553062438965
0.6971738423331674,-0.13133667289362078,-0.2976144600570843,-3.592837333679199,-0.1668323427438736,0.9851353764533997,-0.10040132701396942,-0.6420535445213318,-0.7600571513175964,-0.22233733534812927,-1.2090513706207275,-1.2139112949371338
0.6612324423263914,-0.13553287640237865,-0.29175477879788847,-3.3709070682525635,0.04946081340312958,0.8773204684257507,-0.10664024949073792,-0.6140900254249573,-0.781998336315155,-0.18710669875144958,-1.355926513671875,-1.2306053638458252
0.6284741698336792,-0.13766203752863237,-0.28652324023542225,-2.959380865097046,0.13421675562858582,0.8428133726119995,-0.1110069528222084,-0.5879111886024475,-0.8012727499008179,-0.1409309357404709,-1.4770761728286743,-1.23734712600708
0.6008554651806668,-0.13992107608162546,-0.28069517834619206,-2.342608690261841,0.06621374189853668,0.8685504198074341,-0.11503800004720688,-0.5653483271598816,-0.8167910575866699,-0.08984178304672241,-1.5571951866149902,-1.2318387031555176
0.5799773498521729,-0.14414884416599616,-0.27310177189363677,-1.5851552486419678,-0.06757539510726929,0.9739919900894165,-0.12015978246927261,-0.5480049848556519,-0.8277996182441711,-0.048785559833049774,-1.6137230396270752,-1.220311164855957
0.5667598981958891,-0.15145881060448393,-0.2626362093715126,-0.7696692943572998,-0.269852876663208,1.15131413936615,-0.12728950381278992,-0.5369013547897339,-0.8339869976043701,-0.03861932456493378,-1.6809332370758057,-1.1921511888504028
0.5610978405620435,-0.16216242046354665,-0.24900590514092202,0.007250971160829067,-0.3937188982963562,1.2778350114822388,-0.13669733703136444,-0.5321160554885864,-0.8355635404586792,-0.03662726283073425,-1.7573127746582031,-1.1424942016601562
0.5624114643651807,-0.17479817231813483,-0.23329494275714896,0.6741480231285095,-0.4465554654598236,1.273499608039856,-0.14712242782115936,-0.533227801322937,-0.833080530166626,-0.10074137151241302,-1.812124490737915,-1.0584752559661865
0.5695280522018433,-0.1877488230273576,-0.2170779138417073,1.1942440271377563,-0.38792890310287476,1.1419835090637207,-0.15718644857406616,-0.5392346382141113,-0.8273563385009766,-0.23336228728294373,-1.8149677515029907,-0.9531001448631287
0.5812179072609128,-0.1994419572344469,-0.20174932856265507,1.5714387893676758,-0.27368730306625366,0.9153274893760681,-0.1655896157026291,-0.549042284488678,-0.8192269206047058,-0.3361346423625946,-1.8123623132705688,-0.8365652561187744
0.5963085957820442,-0.20897487497039116,-0.18846766629591588,1.8034892082214355,-0.1590297967195511,0.6313843131065369,-0.17165304720401764,-0.5615919828414917,-0.8094131946563721,-0.42722392082214355,-1.7638475894927979,-0.7168013453483582
0.613561378821902,-0.2162222472384819,-0.17760789507602562,1.9232888221740723,-0.06068672239780426,0.3894965946674347,-0.17540960013866425,-0.5757828950881958,-0.7985647320747375,-0.47632384300231934,-1.6750564575195312,-0.5919991731643677
0.6324014455404504,-0.22173554185277822,-0.16882460792389678,2.0574028491973877,-0.02141924761235714,0.1837819218635559,-0.17739219963550568,-0.5910834670066833,-0.7868623733520508,-0.4591587483882904,-1.5778467655181885,-0.5041378736495972
0.6533076505779727,-0.2262441454325178,-0.16185515082838012,2.2696681022644043,-0.05042320489883423,-0.027161475270986557,-0.17812670767307281,-0.6078162789344788,-0.7738412618637085,-0.43780961632728577,-1.460741639137268,-0.49617815017700195
0.6772235045739832,-0.23035235889201744,-0.1565382922137439,2.572206974029541,-0.11778952926397324,-0.2401064783334732,-0.17793379724025726,-0.6266316771507263,-0.7587307095527649,-0.4219655394554138,-1.335374116897583,-0.5505190491676331
0.7047680640190948,-0.2342718957790348,-0.1526695930258302,2.905423402786255,-0.16814245283603668,-0.44091150164604187,-0.1768314689397812,-0.6478571891784668,-0.7409533262252808,-0.3949764370918274,-1.1888434886932373,-0.6139965653419495
0.7356864851421171,-0.237982452523045,-0.1497592863551412,3.171138286590576,-0.19265200197696686,-0.5651174783706665,-0.17477241158485413,-0.6710962653160095,-0.7204751372337341,-0.3428667485713959,-1.0385900735855103,-0.6501454710960388
0.7688535288284047,-0.24190604555290132,-0.14702802619540006,3.334568977355957,-0.21773391962051392,-0.6154972910881042,-0.17216917872428894,-0.6953117251396179,-0.6977818012237549,-0.26101261377334595,-0.8970498442649841,-0.6498895883560181
0.8032731737271297,-0.24633051025329047,-0.14403418318499883,3.414820671081543,-0.23419591784477234,-0.6321242451667786,-0.16931629180908203,-0.7196326851844788,-0.6733949780464172,-0.18578626215457916,-0.7798638939857483,-0.6463680863380432
0.8381851524395401,-0.2506570257808729,-0.14078688278453885,3.4377503395080566,-0.14209023118019104,-0.6547086238861084,-0.16589277982711792,-0.7434305548667908,-0.6479126214981079,-0.15173421800136566,-0.675041913986206,-0.6655486226081848
0.8734451731768881,-0.25382554050412987,-0.1376443574508718,3.4757707118988037,-0.018447808921337128,-0.7053807377815247,-0.16125942766666412,-0.7665459513664246,-0.6216131448745728,-0.15746618807315826,-0.5554451942443848,-0.7102196216583252
0.9093605119497935,-0.25556239240049355,-0.13492958603901492,3.5430073738098145,0.09106350690126419,-0.768101155757904,-0.1552761197090149,-0.7891110777854919,-0.5943004488945007,-0.1594821810722351,-0.44389069080352783,-0.7759844064712524
0.9460150437826291,-0.2560224338803121,-0.1325332882962746,3.5939886569976807,0.1980728805065155,-0.7937646508216858,-0.14812199771404266,-0.8110910654067993,-0.5658544301986694,-0.13323484361171722,-0.34915685653686523,-0.8321404457092285
0.9830892905848068,-0.2561149744941114,-0.12970441707030886,3.6385977268218994,0.24092741310596466,-0.7601180076599121,-0.14045670628547668,-0.8322142362594604,-0.5363689661026001,-0.08573959767818451,-0.22924834489822388,-0.8360979557037354
1.0206563852763881,-0.25725466072058834,-0.12543733033386945,3.7291722297668457,0.24479399621486664,-0.69283527135849,-0.13301591575145721,-0.8524513840675354,-0.5056023001670837,-0.03542587161064148,-0.11693966388702393,-0.8329747915267944
1.059177511554679,-0.2609022069290132,-0.1186258245259319,3.8736541271209717,0.1914737969636917,-0.6088750958442688,-0.12629075348377228,-0.8719530701637268,-0.47302061319351196,0.015588238835334778,-0.02210521697998047,-0.8490006923675537
1.0989452061075264,-0.26845531037443604,-0.10832331520336679,4.028759479522705,0.11426825821399689,-0.5311897397041321,-0.12056220322847366,-0.8907284140586853,-0.438255250453949,0.04159794747829437,0.07818257808685303,-0.8569563627243042
1.1398628778483317,-0.2805019959251045,-0.09404364402243699,4.154425144195557,0.0466652512550354,-0.4838882386684418,-0.1156405657529831,-0.908576250076294,-0.40139326453208923,0.042703546583652496,0.1682502031326294,-0.8238873481750488
1.181437640793509,-0.2976130861383483,-0.07529532615334067,4.200231075286865,-0.03256561607122421,-0.45452776551246643,-0.11131222546100616,-0.9251527190208435,-0.36290815472602844,0.044173531234264374,0.2525756359100342,-0.7629767060279846
1.2227305559375807,-0.3201543719739745,-0.05199924964884128,4.134012222290039,-0.12189096957445145,-0.45750120282173157,-0.10734255611896515,-0.9400342106819153,-0.323749303817749,0.04711608588695526,0.3291636109352112,-0.6728173494338989
1.26268090881398,-0.34777835756856273,-0.024529475279660352,3.9518520832061768,-0.19238562881946564,-0.4912049174308777,-0.10335531085729599,-0.9529067873954773,-0.2851080000400543,0.041267283260822296,0.37731456756591797,-0.5658134818077087
1.3004411514982699,-0.37882177646360166,0.005834004791973275,3.6903462409973145,-0.17966876924037933,-0.5752830505371094,-0.0987708568572998,-0.9636760950088501,-0.24813856184482574,0.012329816818237305,0.4052653908729553,-0.48489347100257874
1.3357561277757974,-0.4102476133922671,0.03690597030746875,3.397728443145752,-0.07890444993972778,-0.7079223990440369,-0.09288202971220016,-0.9725049734115601,-0.21355842053890228,-0.032011158764362335,0.442277193069458,-0.4376865029335022
1.368711993302718,-0.4390293479585092,0.06627784867195247,3.1145269870758057,0.057260580360889435,-0.8431358933448792,-0.08531499654054642,-0.9796503782272339,-0.1816777139902115,-0.06367183476686478,0.48750853538513184,-0.4042138457298279
1.3995836009564282,-0.4642857108264042,0.09320743067889989,2.861602783203125,0.17760072648525238,-0.9447895288467407,-0.0762929916381836,-0.9853788614273071,-0.15234288573265076,-0.0696573406457901,0.5320246815681458,-0.3840644359588623
1.4287606770266117,-0.48643429545135525,0.11780257910725812,2.6707329750061035,0.23571833968162537,-1.0352349281311035,-0.06617587059736252,-0.9899298548698425,-0.1251395344734192,-0.06360014528036118,0.5823674201965332,-0.3573126792907715
1.4569391002713037,-0.508054998586178,0.14187293663136746,2.5645253658294678,0.20881260931491852,-1.100030541419983,-0.05527029559016228,-0.9935252666473389,-0.0992627665400505,-0.06600657105445862,0.6321207284927368,-0.33774876594543457
1.4845093857462235,-0.5365576552768236,0.17242912412122338,2.505629777908325,0.17348258197307587,-1.1081053018569946,-0.044054362922906876,-0.9962795972824097,-0.07407082617282867,-0.05256430059671402,0.6869685649871826,-0.3388775587081909
1.511590096277875,-0.5905403616333138,0.22811602916383303,2.4931766986846924,0.13302898406982422,-1.0890624523162842,-0.032948922365903854,-0.9982478022575378,-0.04915266111493111,-0.04125458002090454,0.7446313500404358,-0.3346056342124939
1.5381706083145643,-0.7468931825019769,0.3855882368192958,2.5480268001556396,0.05704260990023613,-1.0496008396148682,-0.022166935727000237,-0.9994678497314453,-0.023943286389112473,-0.03027752973139286,0.7977310419082642,-0.3378271460533142
1.558648106447784,-1.738449365735406,1.3773349748023809,2.6279776096343994,-0.05518418923020363,-0.9716703295707703,-0.012000960297882557,-0.9999262094497681,0.0020310627296566963,-0.002601703628897667,0.8388694524765015,-0.3548750877380371
1.5421051214538093,-3.0463060134038935,2.68432537464733,2.6461610794067383,-0.14590397477149963,-0.8727949261665344,-0.002729939529672265,-0.9995884299278259,0.0285630002617836,0.027678053826093674,0.8631289601325989,-0.3522474765777588
1.515748997796522,3.0382587973487656,2.8813779418355043,2.560516595840454,-0.1891845166683197,-0.7955756187438965,0.005675870925188065,-0.998485267162323,0.054731860756874084,0.019501127302646637,0.8779863715171814,-0.3079969882965088
1.4900643080257454,2.973340694307819,2.944727659415625,2.3817250728607178,-0.14438429474830627,-0.7483335137367249,0.013505266979336739,-0.9967429637908936,0.07950925081968307,-0.006654070690274239,0.8797078132629395,-0.25078892707824707
1.4663359195278436,2.9394744762324634,2.9775764035164465,2.150563955307007,-0.08382890373468399,-0.7257134318351746,0.02093213051557541,-0.9945489764213562,0.10214971005916595,-0.03979199752211571,0.8641014695167542,-0.20276594161987305
1.4448667206789974,2.9150536920792725,3.0016554910117326,1.9179878234863281,-0.01292383298277855,-0.7257256507873535,0.028210042044520378,-0.992081344127655,0.12238867580890656,-0.05918538570404053,0.8471533060073853,-0.16206133365631104
1.4255578924064507,2.8950707767654107,3.022042070566659,1.6971409320831299,0.05216808617115021,-0.70641028881073,0.035318583250045776,-0.989471435546875,0.14035345613956451,-0.050455302000045776,0.8306578993797302,-0.1378202587366104
1.408323212193419,2.8794419059120626,3.0385877305202165,1.502560019493103,0.0890888199210167,-0.6429426074028015,0.04192153364419937,-0.9868302345275879,0.15623369812965393,-0.023473653942346573,0.8212569952011108,-0.11198294162750244
1.392907320809602,2.8683508195611944,3.050881473334527,1.3586950302124023,0.1171945184469223,-0.5693625211715698,0.04775180295109749,-0.9842194318771362,0.17038916051387787,0.0034261830151081085,0.8132139444351196,-0.08645032346248627
1.37883594545013,2.861826449421641,3.0588774763062827,1.265411376953125,0.14972157776355743,-0.4757659435272217,0.05268131196498871,-0.9816321134567261,0.18336611986160278,0.012702595442533493,0.8038824796676636,-0.08940233290195465
1.3656669220530284,2.860111225103189,3.0622498160623284,1.2264800071716309,0.16341200470924377,-0.38077500462532043,0.05658205971121788,-0.9790346622467041,0.19567807018756866,0.01858273148536682,0.7968446612358093,-0.09419158101081848
1.3529075993146702,2.8619568909764457,3.0619370239326207,1.2231132984161377,0.13872423768043518,-0.3116859495639801,0.059664007276296616,-0.976356029510498,0.20777268707752228,0.024961240589618683,0.774741530418396,-0.08368802070617676
1.3403211343078674,2.8653925701854357,3.0594941000344895,1.2133972644805908,0.06611025333404541,-0.27133676409721375,0.06229616701602936,-0.9735579490661621,0.21978245675563812,0.019139986485242844,0.7369398474693298,-0.05921401083469391
1.3281614652889395,2.8689609197135564,3.056020257404567,1.1560662984848022,-0.023704584687948227,-0.22971473634243011,0.06469467282295227,-0.9707083106040955,0.23138830065727234,0.014330610632896423,0.6904193758964539,-0.007663697004318237
1.317018714125491,2.872719662630935,3.05153225162789,1.038134217262268,-0.09162098914384842,-0.14712752401828766,0.06669354438781738,-0.9679709076881409,0.24204212427139282,0.027239561080932617,0.6451101899147034,0.060555070638656616
1.3075157698316435,2.8775610442748234,3.0452726508257295,0.8700383901596069,-0.1438482403755188,-0.045184917747974396,0.06791847199201584,-0.965541422367096,0.2512306272983551,0.059171974658966064,0.6144214868545532,0.12967461347579956
1.3000555011259376,2.8834491937926403,3.037533789572803,0.6664738655090332,-0.15650926530361176,0.05301762744784355,0.06827516853809357,-0.9635730385780334,0.2585841715335846,0.07300595939159393,0.5811724662780762,0.18816277384757996
1.2949471704451878,2.890772423482984,3.0285292195185707,0.44140854477882385,-0.10423940420150757,0.1599041223526001,0.06760047376155853,-0.9621942639350891,0.2638419270515442,0.06982017308473587,0.5507715344429016,0.22854408621788025
1.2922076999545171,2.9001676120639037,3.018053096874874,0.23234818875789642,-0.034033093601465225,0.2633458375930786,0.06574886292219162,-0.9614444971084595,0.2670247554779053,0.08404668420553207,0.5274080038070679,0.2548413574695587
1.2914449714785357,2.912126514129896,3.00549087214416,0.08470413088798523,0.004889004863798618,0.3672301769256592,0.06271766871213913,-0.9612345099449158,0.2685058116912842,0.08933617919683456,0.49126356840133667,0.25990644097328186
1.2920143645703372,2.9264674179008527,2.9906090266824803,-0.011547127738595009,-0.0059196436777710915,0.4488118588924408,0.058743901550769806,-0.9613913297653198,0.2688429057598114,0.08734375238418579,0.4564319849014282,0.24592795968055725
1.2933783422027862,2.9422558626327024,2.9739031001079543,-0.0550549253821373,-0.055441923439502716,0.5030819773674011,0.05423220992088318,-0.9617657661437988,0.26845014095306396,0.08595028519630432,0.4113355278968811,0.22599583864212036
1.2949796706524939,2.9590810376591072,2.9553341050997584,-0.06457770615816116,-0.15856926143169403,0.5473616719245911,0.049428485333919525,-0.9622031450271606,0.26780998706817627,0.06707237660884857,0.35952669382095337,0.19892606139183044
1.296507109370906,2.975918623178458,2.9357051177600075,-0.05060489848256111,-0.23575033247470856,0.5436846613883972,0.044669944792985916,-0.9626179933547974,0.26715409755706787,0.030418556183576584,0.30882465839385986,0.16781315207481384
1.297854413022016,2.9918554382502487,2.9165913065986993,-0.062393173575401306,-0.2499857246875763,0.5143080353736877,0.04021342098712921,-0.9629819989204407,0.2665497958660126,-0.0077579692006111145,0.2577054500579834,0.14235544204711914
1.2997219134096276,3.0066270052864628,2.8982051252021708,-0.17375485599040985,-0.3548887073993683,0.5293464064598083,0.03602977469563484,-0.9634837508201599,0.26533225178718567,-0.008640244603157043,0.22552287578582764,0.17312929034233093
1.3026215218024333,3.022936702451331,2.8777064790087903,-0.2510184645652771,-0.29874083399772644,0.6245783567428589,0.031366873532533646,-0.9642561078071594,0.2631096839904785,0.022008370608091354,0.20091980695724487,0.17210173606872559
1.3061321447790424,3.042971318295201,2.854235592190454,-0.3147710859775543,-0.2316422164440155,0.6645870208740234,0.0257561132311821,-0.9651803970336914,0.2603144347667694,0.015610462054610252,0.17987149953842163,0.11218330264091492
1.3099780885803707,3.064216895661837,2.83042582360656,-0.33125534653663635,-0.10730232298374176,0.6269822716712952,0.01993311196565628,-0.9661793112754822,0.25710010528564453,-0.03775537759065628,0.1428607702255249,0.07599946856498718
1.3134913143544298,3.0853555993101685,2.807984058905311,-0.2865943908691406,-0.013479426503181458,0.5581169128417969,0.014303408563137054,-0.9670792818069458,0.2540731728076935,-0.08621807396411896,0.09798449277877808,0.03765982389450073
1.3164299202788723,3.1050733956142413,2.787515383676803,-0.2592989504337311,-0.0166866984218359,0.5045838952064514,0.009187388233840466,-0.9678229093551636,0.25146469473838806,-0.09590308368206024,0.06523501873016357,0.010925620794296265
1.3192456159284214,3.1242932862635358,2.7671816122892006,-0.27395644783973694,-0.07641607522964478,0.52777498960495,0.004305726382881403,-0.968527615070343,0.24887017905712128,-0.055178530514240265,0.041052401065826416,0.048783332109451294
1.322130403735119,-3.1387013288168726,2.745102742082491,-0.29312384128570557,-0.16845086216926575,0.5615966320037842,-0.0007115898188203573,-0.9692416191101074,0.24611134827136993,-0.012288898229598999,0.02798771858215332,0.08556917309761047
1.3251329154438962,-3.118291584539467,2.72190117753634,-0.3208603858947754,-0.23900119960308075,0.5623204708099365,-0.00566632067784667,-0.9699761867523193,0.24313455820083618,-0.011896543204784393,-0.008936285972595215,0.0986778736114502
1.328433985630765,-3.0974227549204585,2.697982629049924,-0.376696914434433,-0.21219909191131592,0.5680842399597168,-0.01059719081968069,-0.9707737565040588,0.2397627979516983,-0.031547583639621735,-0.04376786947250366,0.08329649269580841
1.3323023388870394,-3.0749017965198133,2.6731835336932765,-0.4627750813961029,-0.08710561692714691,0.5569407939910889,-0.015743359923362732,-0.971694827079773,0.23571465909481049,-0.03050602786242962,-0.05458080768585205,0.08368252217769623
1.3369901945827887,-3.051348731229441,2.648987823253689,-0.5539174675941467,0.09888409823179245,0.4904855191707611,-0.0208795964717865,-0.9727916121482849,0.2307400405406952,-0.023477703332901,-0.06549280881881714,0.09122061729431152
1.3422858306489303,-3.028010813811761,2.627026433174092,-0.5857747197151184,0.28949639201164246,0.39814919233322144,-0.02567419596016407,-0.974004864692688,0.22506850957870483,-0.05861535668373108,-0.08353614807128906,0.05871462821960449
1.3475575280497707,-3.006572658054927,2.608754031862923,-0.5461958646774292,0.42891260981559753,0.2788512408733368,-0.02980129048228264,-0.9751855134963989,0.21937471628189087,-0.10374362766742706,-0.07655704021453857,0.01876947283744812
1.3521540707453914,-2.988877778722748,2.5953568979507518,-0.44062867760658264,0.4821532070636749,0.1749517172574997,-0.03299611806869507,-0.976192831993103,0.21438127756118774,-0.09743601828813553,-0.06813418865203857,-0.01049312949180603
1.355704079901143,-2.9748310037359387,2.5858278989839403,-0.3260963261127472,0.4547630250453949,0.12073348462581635,-0.03542851656675339,-0.9769567251205444,0.21047699451446533,-0.06192255765199661,-0.06544744968414307,-0.028363138437271118
1.3583465973481341,-2.9629934491392413,2.5781692724017837,-0.2542133331298828,0.41621720790863037,0.10895591974258423,-0.037458859384059906,-0.977517306804657,0.20750220119953156,-0.03137354552745819,-0.07152450084686279,-0.025586605072021484
1.3605421988969528,-2.951814631495249,2.5708326545785267,-0.23579657077789307,0.38332512974739075,0.11097708344459534,-0.039371103048324585,-0.9779779314994812,0.2049621194601059,-0.016827024519443512,-0.05871957540512085,0.006692767143249512
1.3626585053583378,-2.9404755353741727,2.5630591568022774,-0.24066828191280365,0.3592250943183899,0.13059499859809875,-0.041279252618551254,-0.9784173965454102,0.20247501134872437,-0.012858942151069641,-0.033789873123168945,0.0424441397190094
1.364724591994135,-2.926960287118565,2.5525651956931044,-0.2545205354690552,0.27398908138275146,0.21147680282592773,-0.043580956757068634,-0.9788422584533691,0.19992174208164215,0.024705827236175537,-0.027993738651275635,0.056578606367111206
1.366801211542999,-2.910054121346842,2.537588809233019,-0.28935226798057556,0.17829345166683197,0.28319093585014343,-0.046487875282764435,-0.979265034198761,0.19717735052108765,0.06635481864213943,-0.03498661518096924,0.06095585227012634
1.3692059621105768,-2.890301308101729,2.519060024836668,-0.35236668586730957,0.14521974325180054,0.3205702602863312,-0.049787767231464386,-0.9797493815422058,0.19393959641456604,0.05813432112336159,-0.049486517906188965,0.0696713775396347
1.3721005470707026,-2.8680447813943486,2.497850671033318,-0.424098402261734,0.15254104137420654,0.3384357988834381,-0.05332544073462486,-0.9803248643875122,0.1900532841682434,0.03016258403658867,-0.03432387113571167,0.0732373297214508
1.3754601564158624,-2.8432384868979605,2.474238462503915,-0.4688447117805481,0.17257797718048096,0.35552024841308594,-0.05705443024635315,-0.9809824824333191,0.1855224370956421,0.018052957952022552,-0.009587705135345459,0.06655299663543701
1.3787946735784644,-2.8170203665615494,2.4491489726560136,-0.45266735553741455,0.13859976828098297,0.35370582342147827,-0.060854654759168625,-0.9816242456436157,0.1808612197637558,0.029040075838565826,-0.007740437984466553,0.048844799399375916
1.381764148672873,-2.792095995769524,2.4248277172697685,-0.4118962585926056,0.0713893324136734,0.31311890482902527,-0.06434499472379684,-0.9821865558624268,0.17654971778392792,0.01090870052576065,-0.029791831970214844,0.014292135834693909
1.3844893002113396,-2.7704320052792117,2.403280365170131,-0.38116684556007385,0.031033381819725037,0.2452666312456131,-0.06718296557664871,-0.9826949834823608,0.1726185381412506,-0.019029192626476288,-0.04831087589263916,0.00012646615505218506
1.387198028924497,-2.7515476772544156,2.384347788678946,-0.37736839056015015,0.026624564081430435,0.2048029750585556,-0.06941794604063034,-0.9831930994987488,0.1688559502363205,-0.02591896802186966,-0.03598707914352417,0.004239886999130249
1.3898613775362123,-2.7331631446773974,2.3659187084803546,-0.36735090613365173,0.02461947128176689,0.2080533653497696,-0.07147036492824554,-0.9836758971214294,0.16514809429645538,-0.014741793274879456,-0.013272345066070557,0.0063304603099823
1.3921664661616018,-2.7140063270271972,2.3465379394271704,-0.33190447092056274,-0.007201937027275562,0.23869118094444275,-0.07368041574954987,-0.9840880632400513,0.16168519854545593,0.01777220517396927,-0.002575814723968506,0.0010804980993270874
1.3940051024317954,-2.693707386547449,2.325621761396094,-0.3163002133369446,-0.04893100634217262,0.276145339012146,-0.0761633887887001,-0.9844130873680115,0.1585252583026886,0.03391179442405701,-0.0081254243850708,-0.008775249123573303
1.395569564065765,-2.671612815985247,2.30255723926077,-0.3206201493740082,-0.06724285334348679,0.3078141510486603,-0.07894981652498245,-0.9846870303153992,0.15543122589588165,0.02452170103788376,-0.01706796884536743,-0.010197862982749939
1.3969843653489167,-2.6475979464928567,2.2774997492262044,-0.3313937187194824,-0.06533735990524292,0.32987844944000244,-0.08199864625930786,-0.9849327206611633,0.15226374566555023,0.015607647597789764,-0.016394972801208496,-0.007686495780944824
1.3982419062469758,-2.622055681523999,2.250905762451731,-0.32729196548461914,-0.0671524778008461,0.34295371174812317,-0.08524540811777115,-0.9851493835449219,0.1490442007780075,0.011453904211521149,-0.0124245285987854,-0.011745348572731018
1.3992735193255117,-2.596729869315989,2.2244768429263724,-0.3089502453804016,-0.07467910647392273,0.323799192905426,-0.08846572041511536,-0.9853259921073914,0.14596880972385406,0.013331428170204163,-0.022364556789398193,-0.02550041675567627
1.4003474797741502,-2.5739918296454567,2.2007422339373868,-0.29981493949890137,-0.04660407826304436,0.24579377472400665,-0.09119267016649246,-0.9855087399482727,0.1430273801088333,-0.008126795291900635,-0.048854172229766846,-0.04422652721405029
1.401825048399733,-2.554673518615399,2.180936539606214,-0.3129187822341919,0.009652270004153252,0.15307208895683289,-0.09313161671161652,-0.9857583045959473,0.14002589881420135,-0.04929392784833908,-0.06305462121963501,-0.046214595437049866
1.4038639647373852,-2.5378652622315037,2.164217895738639,-0.33490481972694397,0.04943156614899635,0.08825544267892838,-0.09433075040578842,-0.986099123954773,0.13678601384162903,-0.06306365877389908,-0.056747615337371826,-0.03172899782657623
1.4060971253301449,-2.521680892472176,2.148279156477432,-0.32636111974716187,0.03307682275772095,0.09786759316921234,-0.09525302797555923,-0.986467719078064,0.1334495097398758,-0.03170010447502136,-0.045713186264038086,-0.024394750595092773
1.407779617749342,-2.504586692124516,2.1309858616601924,-0.27115994691848755,-0.030090510845184326,0.1661912500858307,-0.09653335809707642,-0.9867421984672546,0.13046805560588837,0.01686718314886093,-0.037519633769989014,-0.036046355962753296
1.408485155141012,-2.486826014173648,2.1122787573277835,-0.20760706067085266,-0.10920877009630203,0.22631263732910156,-0.09841015934944153,-0.9868564605712891,0.1281794309616089,0.04595044255256653,-0.029760420322418213,-0.05571521818637848
1.408501625492881,-2.4703505284067586,2.0942099330483828,-0.15696744620800018,-0.15328717231750488,0.22070518136024475,-0.10049846023321152,-0.9868590831756592,0.1265280693769455,0.03334452956914902,-0.03987431526184082,-0.056047454476356506
1.4083882189481907,-2.456827321494568,2.0789561399949994,-0.13664112985134125,-0.15122056007385254,0.1740167737007141,-0.10227098315954208,-0.9868407845497131,0.12524406611919403,-0.003731831908226013,-0.05974435806274414,-0.04977382719516754
1.4083683726870166,-2.446080292993368,2.0666204531009638,-0.11087211966514587,-0.13484042882919312,0.13488030433654785,-0.10362380743026733,-0.9868375658988953,0.1241530328989029,-0.028120584785938263,-0.06344026327133179,-0.04412055015563965
1.4083480768567032,-2.4380493606755884,2.0572212338105285,-0.0848088264465332,-0.10919712483882904,0.0962013527750969,-0.10463104397058487,-0.9868342876434326,0.12333277612924576,-0.02305453270673752,-0.06396245956420898,-0.04871700704097748
1.408573594976856,-2.4320944372440363,2.0504662034299637,-0.09384182095527649,-0.019659187644720078,0.04281453415751457,-0.10521778464317322,-0.9868707060813904,0.12253768742084503,-0.030722767114639282,-0.07317262887954712,-0.06974197924137115
1.4092980325566096,-2.4264748354005876,2.045360237596894,-0.12409773468971252,0.1374204456806183,-0.0076478407718241215,-0.10543621331453323,-0.9869874715805054,0.1214049905538559,-0.04747211933135986,-0.0791136622428894,-0.07425511628389359
1.4104651228744802,-2.420275105776462,2.0412203234188957,-0.1342146098613739,0.27756354212760925,-0.04278087243437767,-0.10542638599872589,-0.9871744513511658,0.11988422274589539,-0.0491451621055603,-0.07048863172531128,-0.06229734420776367
1.411768305374927,-2.4140729608728955,2.0380633370771335,-0.12217871099710464,0.3234543204307556,-0.054891329258680344,-0.10531273484230042,-0.9873816967010498,0.11826770007610321,-0.027942299842834473,-0.0694270133972168,-0.06312225759029388
1.4130016478313916,-2.409042804633992,2.0360690132686172,-0.10259278863668442,0.28077322244644165,-0.06066683307290077,-0.10509131848812103,-0.9875762462615967,0.11683043837547302,-0.014339238405227661,-0.07368791103363037,-0.04908120632171631
1.4140896452875702,-2.405830193240617,2.0351871423892383,-0.07620086520910263,0.1798950731754303,-0.06341575086116791,-0.10474489629268646,-0.9877465963363647,0.11569561064243317,-0.0040807947516441345,-0.0745551586151123,-0.011447310447692871
1.4148703584550137,-2.405092718660888,2.035673273390816,-0.027069509029388428,0.06106824800372124,-0.05070643872022629,-0.10431265085935593,-0.9878681302070618,0.11504753679037094,0.011264525353908539,-0.06916946172714233,0.01091398298740387
1.4150777826561196,-2.4072093344000143,2.037823083001506,0.04236336052417755,-0.05777664855122566,-0.024707328528165817,-0.103931725025177,-0.9879003763198853,0.11511611938476562,0.025760918855667114,-0.06056177616119385,0.00774790346622467
1.4145575435760918,-2.4125697209585284,2.0421089334206393,0.12879616022109985,-0.1676177680492401,-0.0036199006717652082,-0.1036553755402565,-0.9878195524215698,0.1160547211766243,0.03525019437074661,-0.04858821630477905,-0.00391755998134613
1.413215330181489,-2.4212411914366054,2.048753267229305,0.2116287350654602,-0.24860289692878723,0.01825530454516411,-0.10351946204900742,-0.9876098036766052,0.1179453656077385,0.03413771837949753,-0.03881865739822388,-0.014627799391746521
1.4113115285786397,-2.432517682999544,2.0575868305107496,0.25340455770492554,-0.24522769451141357,0.010275520384311676,-0.10340667515993118,-0.9873092174530029,0.12053162604570389,0.02331327646970749,-0.04015672206878662,-0.024843573570251465
1.4095288311528604,-2.4445891520269205,2.067879996120162,0.22989630699157715,-0.12855087220668793,-0.03357289358973503,-0.10307380557060242,-0.9870245456695557,0.12312040477991104,-0.004836365580558777,-0.04919993877410889,-0.02470099925994873
1.40844562224792,-2.4555500996117847,2.0784818745780553,0.1521892547607422,0.027112219482660294,-0.09226550161838531,-0.10239574313163757,-0.9868500232696533,0.1250704526901245,-0.032766617834568024,-0.04888617992401123,-0.00809633731842041
1.4083819978306624,-2.4640722601434906,2.0880807028023685,0.054559897631406784,0.15556339919567108,-0.13568967580795288,-0.10136516392230988,-0.986839771270752,0.1259869933128357,-0.040144868195056915,-0.0472637414932251,0.018254518508911133
1.4091908046093706,-2.4696592167767704,2.095721287897962,-0.023134155198931694,0.22080180048942566,-0.15249457955360413,-0.10016276687383652,-0.9869702458381653,0.12592659890651703,-0.032436124980449677,-0.04585152864456177,0.03322279453277588
1.4104775651574044,-2.4732436522591086,2.1015464445820715,-0.05444041267037392,0.2029668688774109,-0.14335674047470093,-0.09892377257347107,-0.9871764779090881,0.12528809905052185,-0.0065449923276901245,-0.034155428409576416,0.03917133808135986
1.4119079969207995,-2.474349484266525,2.1046017442589013,-0.11587690562009811,0.14206603169441223,-0.10160630196332932,-0.0979117900133133,-0.9874038100242615,0.12428875267505646,0.02305213361978531,-0.023460745811462402,0.04226125776767731
1.4134085048907987,-2.4716712480773153,2.102259942014969,-0.1454731523990631,-0.045308917760849,-0.017709799110889435,-0.09732389450073242,-0.9876400828361511,0.12286411970853806,0.05581995099782944,-0.02099663019180298,0.09403981268405914
1.4142608255859677,-2.466651364628779,2.0965163969556877,-0.09086910635232925,-0.0871044248342514,0.047799985855817795,-0.09741251170635223,-0.9877732992172241,0.12171564251184464,0.059448644518852234,-0.015018999576568604,0.024158574640750885
1.4143341787257941,-2.463721082296842,2.092331561706434,0.01414119265973568,-0.1443765014410019,0.03393610194325447,-0.09772390127182007,-0.987784743309021,0.12137395888566971,0.023077890276908875,-0.013817548751831055,-0.027120232582092285
1.4135559166292244,-2.468487456081364,2.095867398297057,0.184527188539505,-0.10107783228158951,-0.035328906029462814,-0.09762386977672577,-0.9876631498336792,0.12243987619876862,-0.029649704694747925,-0.009559869766235352,-0.09318852424621582
1.411893475009389,-2.483975105558091,2.111058988807895,0.3655957877635956,0.007007625885307789,-0.14537233114242554,-0.09671955555677414,-0.9874014854431152,0.1252366304397583,-0.07387372851371765,-0.015589475631713867,-0.15787504613399506
1.409611602445653,-2.509281171253629,2.1374257206060077,0.48801910877227783,0.1347961723804474,-0.24753455817699432,-0.09485061466693878,-0.9870378375053406,0.1294604390859604,-0.09695237874984741,-0.019447267055511475,-0.17091834545135498
1.407162232617659,-2.5388397502377327,2.1690674484578207,0.47956037521362305,0.1775476336479187,-0.29082077741622925,-0.0923529714345932,-0.9866417646408081,0.13419772684574127,-0.0813530907034874,-0.023276448249816895,-0.11036325991153717
1.4049804486903892,-2.5658148078431395,2.19792542654911,0.3999750018119812,0.11151734739542007,-0.24121131002902985,-0.08987224847078323,-0.9862840175628662,0.1384459137916565,-0.02424824982881546,-0.02425992488861084,-0.002856135368347168
1.4030759461061237,-2.5855875562294504,2.2186505684109354,0.28660717606544495,0.01561878714710474,-0.12932924926280975,-0.0881081372499466,-0.9859678745269775,0.14179012179374695,0.0414620116353035,-0.02326369285583496,0.06855247914791107
1.40139982333288,-2.5960788947460203,2.2288966378562804,0.1824401319026947,-0.08815796673297882,0.008789144456386566,-0.08747323602437973,-0.9856866598129272,0.1441194713115692,0.08649665862321854,-0.01725834608078003,0.09869384765625
1.3997820905143263,-2.5987225653832615,2.2303167762397345,0.1266849935054779,-0.1562829464673996,0.10576735436916351,-0.08791561424732208,-0.9854126572608948,0.14571543037891388,0.09354609996080399,-0.012664794921875,0.08963643014431
1.398129869842111,-2.5981844870779334,2.2279620210603595,0.11958292871713638,-0.19247221946716309,0.12510275840759277,-0.08883582800626755,-0.9851301312446594,0.14706167578697205,0.06321629881858826,-0.015465080738067627,0.05081450939178467
1.3964662079231493,-2.598625203138754,2.2265398459199077,0.14366908371448517,-0.1665561944246292,0.0838828757405281,-0.08961756527423859,-0.9848429560661316,0.1485036313533783,0.01167566329240799,-0.025090575218200684,0.004404887557029724
1.3948473004860946,-2.602114953745985,2.22875066314062,0.17177674174308777,-0.08792638033628464,0.013712753541767597,-0.08991802483797073,-0.9845608472824097,0.1501837968826294,-0.02914632111787796,-0.027524232864379883,-0.028036952018737793
1.3934732830922207,-2.608813568530142,2.23513348522098,0.1768314242362976,0.0041795773431658745,-0.06672883033752441,-0.08959699422121048,-0.9843194484710693,0.15194784104824066,-0.04963948577642441,-0.023737430572509766,-0.03189133107662201
1.3925037054052805,-2.6182872710521763,2.245220966506838,0.17042474448680878,0.08636857569217682,-0.14052820205688477,-0.08863020688295364,-0.9841479063034058,0.15361608564853668,-0.05265094339847565,-0.02384781837463379,-0.020345568656921387
1.3918569630231603,-2.6297641126456406,2.258048194476121,0.1664707511663437,0.13741284608840942,-0.18667572736740112,-0.0871732085943222,-0.9840330481529236,0.1551782339811325,-0.04484584927558899,-0.020315885543823242,-0.011196017265319824
1.3913912021013326,-2.642486134927093,2.2725327351435802,0.15986359119415283,0.1626664698123932,-0.21639172732830048,-0.08541146665811539,-0.9839500188827515,0.15667720139026642,-0.026572808623313904,-0.008497118949890137,0.0011600404977798462
1.3910393392473075,-2.655566101439167,2.2874623551101547,0.15519879758358002,0.15678061544895172,-0.21616989374160767,-0.08351647853851318,-0.9838871955871582,0.15808682143688202,0.0005544275045394897,0.0037082433700561523,0.016718029975891113
1.390571073370115,-2.6680971503791886,2.3015949636848934,0.1655207872390747,0.11327875405550003,-0.18471699953079224,-0.08173881471157074,-0.9838033318519592,0.15953046083450317,0.022397376596927643,0.01593834161758423,0.02137802541255951
1.3896853381116279,-2.679481154249075,2.31393932250993,0.19109618663787842,0.03224329277873039,-0.12803134322166443,-0.08030636608600616,-0.9836441874504089,0.16123142838478088,0.05226069688796997,0.029038846492767334,0.01700665056705475
1.3882584137587752,-2.689066968262895,2.323629591352271,0.2170829474925995,-0.03849700093269348,-0.06193637102842331,-0.0793708860874176,-0.9833861589431763,0.16325615346431732,0.07540357857942581,0.03497588634490967,0.00814606249332428
1.3864679274839071,-2.6966132808714045,2.330845598774488,0.2191639393568039,-0.04443718120455742,-0.02570939064025879,-0.07889445126056671,-0.9830595850944519,0.16543954610824585,0.06096535176038742,0.027370870113372803,-0.00041510164737701416
1.3846192679524454,-2.703110821229169,2.33709882967547,0.21219342947006226,-0.023297017440199852,-0.02766912616789341,-0.07858851552009583,-0.9827190637588501,0.1675921380519867,0.02776148170232773,0.024787545204162598,0.0012465566396713257
1.3828527514531181,-2.709629468963693,2.343610939243193,0.21563956141471863,-0.008790512569248676,-0.05469834432005882,-0.07822111994028091,-0.9823905229568481,0.16967731714248657,0.007420338690280914,0.026396870613098145,0.00439511239528656
1.381147983199002,-2.7175936632388082,2.351640415223708,0.21802236139774323,-0.006800341419875622,-0.08763384073972702,-0.07755626738071442,-0.9820705652236938,0.1718212515115738,-0.0026897042989730835,0.018523812294006348,-0.00263155996799469
1.379637565423465,-2.726928272947787,2.3611937202574107,0.19979195296764374,0.021559394896030426,-0.12385975569486618,-0.07654654234647751,-0.9817847609519958,0.17389510571956635,-0.010291241109371185,0.007434725761413574,-0.0013027340173721313
1.378508904961418,-2.7371862679846855,2.3720678343579253,0.17270207405090332,0.06327132135629654,-0.1590948849916458,-0.07519524544477463,-0.9815696477890015,0.17569106817245483,-0.016616903245449066,0.008272290229797363,0.013365641236305237
1.3777153123931196,-2.7477582398289635,2.3835566562604735,0.14149248600006104,0.07513410598039627,-0.16117428243160248,-0.073632150888443,-0.981417715549469,0.17719446122646332,-0.006690122187137604,0.016833245754241943,0.02391660213470459
1.3771501208464103,-2.7568779569925086,2.3934957043529934,0.10857582092285156,0.05626419186592102,-0.12128118425607681,-0.07222148030996323,-0.9813091158866882,0.17837312817573547,0.02386637032032013,0.02040201425552368,0.028658390045166016
1.3767429243888252,-2.7632648092085046,2.400501843308189,0.07050193846225739,0.048101335763931274,-0.07907620072364807,-0.07122832536697388,-0.9812306761741638,0.17920199036598206,0.04281645268201828,0.016524136066436768,0.03288006782531738
1.3765026903270725,-2.767355527157947,2.4052001915216037,0.04408595338463783,0.05885843187570572,-0.06588902324438095,-0.07058078795671463,-0.9811843037605286,0.17971113324165344,0.04177218675613403,0.020460307598114014,0.03897809982299805
1.37635266892579,-2.7702485227839024,2.4088235741358965,0.03945391625165939,0.07747659087181091,-0.050615258514881134,-0.07011370360851288,-0.9811553359031677,0.18005096912384033,0.02625993639230728,0.027999818325042725,0.023852452635765076
1.3760037471493045,-2.772088435993683,2.411608421772048,0.07099657505750656,0.09441577643156052,-0.03516438230872154,-0.06990616768598557,-0.981087863445282,0.18049946427345276,0.015066072344779968,0.02761179208755493,-0.0006591230630874634
1.375236117546102,-2.7746886814239975,2.415055971060032,0.1232142373919487,0.049151621758937836,-0.04647216573357582,-0.06970671564340591,-0.9809389710426331,0.18138353526592255,0.016453534364700317,0.019513070583343506,-0.012056589126586914
1.37396946404483,-2.7794557280550394,2.420077540885139,0.17660345137119293,-0.01900634914636612,-0.06140914931893349,-0.06928125768899918,-0.9806920289993286,0.18287518620491028,0.016836799681186676,0.016534924507141113,-0.013960137963294983
1.3723476056067514,-2.786502402979461,2.4267652499848102,0.20511765778064728,-0.07595937699079514,-0.0780499055981636,-0.06854376196861267,-0.9803735613822937,0.1848498433828354,0.006837218999862671,0.012874841690063477,-0.007847681641578674
1.3706992158518643,-2.7951879815725253,2.434731431322247,0.1925395429134369,-0.0884741023182869,-0.08813902735710144,-0.06748436391353607,-0.9800472855567932,0.18695831298828125,-0.0006919056177139282,0.008947372436523438,0.005806192755699158
1.3693872031609267,-2.80348339707645,2.4423638958842884,0.13608531653881073,-0.06466677784919739,-0.07499872893095016,-0.06635783612728119,-0.979785680770874,0.18872515857219696,0.002576075494289398,0.008731365203857422,0.02416577935218811
1.3686144876161528,-2.8091998980966233,2.4477716734496084,0.0595988929271698,-0.010744042694568634,-0.04671274870634079,-0.0655248835682869,-0.9796307682991028,0.18981686234474182,0.012149631977081299,0.015061557292938232,0.03727996349334717
1.3685083332556476,-2.811694936713362,2.450424921117019,-0.01386493444442749,0.03162525221705437,-0.029409125447273254,-0.06508472561836243,-0.9796094298362732,0.190078005194664,0.019644036889076233,0.016901791095733643,0.043702125549316406
1.3689991265093175,-2.811882045956373,2.4510480513550092,-0.0633154883980751,0.0528125986456871,-0.01759643666446209,-0.06489337980747223,-0.9797079563140869,0.18963497877120972,0.013959534466266632,0.014253795146942139,0.036973580718040466
1.3698440075393215,-2.810847739986038,2.4506030750992958,-0.08603358268737793,0.06911380589008331,-0.008253267966210842,-0.06482058763504028,-0.9798769354820251,0.18878459930419922,0.012208275496959686,0.009936749935150146,0.023755282163619995
1.3707704430546268,-2.808982681185066,2.449473592843455,-0.08988729119300842,0.08133293688297272,0.0041097491048276424,-0.06487645208835602,-0.980061411857605,0.18780617415905,0.006679415702819824,0.01237940788269043,0.010924458503723145
1.3715575242839209,-2.8063116394519625,2.447646153044868,-0.07506094127893448,0.09338294714689255,0.015189032070338726,-0.06512369215488434,-0.9802175164222717,0.18690277636051178,0.008406765758991241,0.014641344547271729,0.0016503185033798218
1.3719967172651149,-2.8036494993710783,2.44589679001292,-0.031210221350193024,0.0920879989862442,0.013997018337249756,-0.06547853350639343,-0.9803043603897095,0.18632328510284424,0.010150156915187836,0.007480144500732422,-0.008481860160827637
1.3718986527743036,-2.802403672027093,2.445516054539397,0.021694539114832878,0.08419625461101532,0.006997964344918728,-0.06574254482984543,-0.9802849888801575,0.18633206188678741,0.0018845051527023315,0.00414961576461792,-0.019995808601379395
1.3715858128101606,-2.801940348061482,2.445737090063172,-0.009958405047655106,0.02284429222345352,0.020910119637846947,-0.06593101471662521,-0.9802231192588806,0.18659067153930664,-0.0001853257417678833,0.0068038105964660645,0.001230001449584961
1.371555282273789,-2.7998949841046175,2.4432504751887647,-0.03982096165418625,-0.05512773618102074,0.09674709290266037,-0.06632252782583237,-0.9802170991897583,0.18648356199264526,0.03134937584400177,0.00327301025390625,0.05597877502441406
1.3713127786096402,-2.7939624899121918,2.436872653796547,-0.03095964714884758,-0.02298625558614731,0.157805398106575,-0.06750855594873428,-0.9801690578460693,0.1863100528717041,0.03659424930810928,0.0076348185539245605,0.002120956778526306
1.370839707551732,-2.787378306342483,2.429716541481727,0.00910974107682705,-0.04850386455655098,0.1495693027973175,-0.06889456510543823,-0.9800751805305481,0.18629629909992218,0.0038310810923576355,0.005526840686798096,-0.014192119240760803
