attitudeX,attitudeY,attitudeZ,gyroX,gyroY,gyroZ,gravityX,gravityY,gravityZ,accX,accY,accZ
1.4395717604498606,-2.730548187382144,3.134037298595208,0.3135508894920349,-0.0642949640750885,-0.019900301471352577,-0.052282676100730896,-0.9914023876190186,0.11994918435811996,-0.01725161075592041,0.007714033126831055,-0.05012500286102295
1.4367267957947079,-2.7418718858498954,-3.1380728299976246,0.302510529756546,0.0012455862015485764,-0.024437598884105682,-0.05201860889792442,-0.9910261631011963,0.12313142418861389,-0.011213809251785278,0.003751993179321289,-0.021263837814331055
1.4341909905973116,-2.7516662294628453,-3.12776337777717,0.26210635900497437,0.08060432225465775,-0.04036783054471016,-0.05176530405879021,-0.9906839728355408,0.12595917284488678,-0.013816960155963898,-0.007362961769104004,0.004396572709083557
1.432056544532038,-2.7598204930530663,-3.118409782569534,0.22625252604484558,0.1328665316104889,-0.04189911484718323,-0.051524221897125244,-0.9903910756111145,0.12833921611309052,-0.016316354274749756,-0.0020101070404052734,0.018145084381103516
1.430279303172881,-2.7660620065011177,-3.1107273099833415,0.18833869695663452,0.1335429847240448,-0.038033537566661835,-0.051367275416851044,-0.9901437163352966,0.1302945762872696,-0.016091816127300262,0.0030069947242736816,0.021927103400230408
1.4288241285915297,-2.7710609403641384,-3.10445781010493,0.16519968211650848,0.10234799981117249,-0.03167159482836723,-0.05123737454414368,-0.9899388551712036,0.13189363479614258,-0.018418967723846436,-0.0011194944381713867,0.019427776336669922
1.4275684181972124,-2.774807333481477,-3.0998000332194913,0.14686915278434753,0.06770800054073334,-0.012917613610625267,-0.051188573241233826,-0.9897603988647461,0.13324478268623352,-0.01329505443572998,-0.0020608901977539062,0.011423707008361816
1.4263961624168358,-2.7767404842648973,-3.0972962894564127,0.1283283829689026,0.03909672051668167,0.019156677648425102,-0.051344357430934906,-0.9895923733711243,0.13442596793174744,-0.0020155832171440125,-0.0031137466430664062,0.0005074590444564819
1.425201242980683,-2.776733813594505,-3.096970740282323,0.12138765305280685,0.027154574170708656,0.04982803761959076,-0.05176740139722824,-0.9894197583198547,0.13553084433078766,0.005609601736068726,-0.0033323168754577637,-0.012285709381103516
1.4238744256212952,-2.7754994024172674,-3.0979279759407343,0.13041840493679047,0.030689038336277008,0.06469923257827759,-0.05240470543503761,-0.9892264008522034,0.13669289648532867,0.001928631216287613,-0.003922402858734131,-0.026677146553993225
1.422317312552887,-2.774689329556328,-3.0984668366330834,0.15526118874549866,0.020008962601423264,0.056251153349876404,-0.0530678853392601,-0.988997220993042,0.13808797299861908,-0.009447365999221802,-0.011994600296020508,-0.03147482872009277
1.4205250981778021,-2.7751854412414563,-3.097843869665205,0.1829182505607605,0.003601907752454281,0.04978431016206741,-0.05363406985998154,-0.9887304902076721,0.13976828753948212,-0.01408442109823227,-0.01720505952835083,-0.02575470507144928
1.4184920891171944,-2.776385487831273,-3.0965158837749205,0.20743024349212646,0.024610519409179688,0.051291659474372864,-0.054184440523386,-0.9884241223335266,0.14171072840690613,-0.01147410273551941,-0.013071298599243164,-0.023333072662353516
1.416270203694925,-2.7773376654541804,-3.094979017554657,0.21718549728393555,0.0897325724363327,0.05579092726111412,-0.05483149364590645,-0.9880845546722412,0.1438133269548416,-0.016152378171682358,-0.009199321269989014,-0.02241446077823639
1.4139559155513037,-2.7776931855697047,-3.093412484177053,0.2371719926595688,0.14054888486862183,0.06023973599076271,-0.05559433251619339,-0.9877257347106934,0.14597000181674957,-0.02095898985862732,-0.01557016372680664,-0.02199244499206543
1.4114214216377543,-2.777815341489172,-3.0918742880116103,0.2725323736667633,0.13321107625961304,0.08240336179733276,-0.056466951966285706,-0.9873266816139221,0.1483156383037567,-0.0104275643825531,-0.02222532033920288,-0.0215151309967041
1.4084566233527744,-2.7769624759018545,-3.0916518852179453,0.323065847158432,0.07797472178936005,0.1397438794374466,-0.057636894285678864,-0.9868518114089966,0.1510011851787567,0.008885093033313751,-0.019251585006713867,-0.023422494530677795
1.404682683732848,-2.7739856553382305,-3.094274683797026,0.4131048321723938,-0.0045447638258337975,0.22060555219650269,-0.05942402780056,-0.9862348437309265,0.1543029546737671,0.02243674546480179,-0.013688743114471436,-0.028143420815467834
1.399591247229565,-2.7691469793099803,-3.09968297899327,0.5366280674934387,-0.10156265646219254,0.3156186044216156,-0.0619967058300972,-0.9853801727294922,0.1586894541978836,0.02638271450996399,-0.0070514678955078125,-0.025419235229492188
1.392705956065054,-2.763843543063946,-3.1067657813363976,0.6483588814735413,-0.23041322827339172,0.41565167903900146,-0.06533835083246231,-0.9841837882995605,0.16466107964515686,0.011474847793579102,-0.0005879402160644531,-0.0066411495208740234
1.3844879356345348,-2.7570996826003675,-3.1168446808520307,0.7332852482795715,-0.4085342586040497,0.5331311821937561,-0.06947865337133408,-0.9826947450637817,0.17170830070972443,-0.0023444518446922302,0.0032483935356140137,0.0162951797246933
1.3750288861737152,-2.748111737956872,-3.1312487586265156,0.8065909743309021,-0.6233829259872437,0.689616858959198,-0.07457995414733887,-0.9808986783027649,0.17965452373027802,0.005991727113723755,0.004229307174682617,0.037752628326416016
1.364198805459369,-2.736374875471124,3.1322833806036674,0.8732634782791138,-0.8773869872093201,0.8707602620124817,-0.08086635917425156,-0.97873455286026,0.18851840496063232,0.02839139848947525,0.008504509925842285,0.05281446874141693
1.3520730294482484,-2.721914635972902,3.1072553332559907,0.9125917553901672,-1.117101788520813,1.0617048740386963,-0.08841355890035629,-0.9761752486228943,0.19815386831760406,0.04713854193687439,0.015832841396331787,0.06831026077270508
1.3387359963917544,-2.7038780766177024,3.076777226774393,0.9526592493057251,-1.12734854221344,1.2945133447647095,-0.09748286753892899,-0.9731945991516113,0.20830047130584717,0.04863949120044708,0.013386428356170654,0.07772549986839294
1.3234933680293106,-2.6822187316113433,3.042503685170543,1.0860620737075806,-1.27815842628479,1.4620119333267212,-0.10853677988052368,-0.9695761799812317,0.21941283345222473,0.05386456847190857,0.048677682876586914,0.008370280265808105
1.3059663863168056,-2.6643990990385094,3.009673289365457,1.2917252779006958,-1.4661520719528198,1.597955584526062,-0.12021620571613312,-0.9651370048522949,0.23250450193881989,-0.03261582553386688,0.008105874061584473,0.04912683367729187
1.285693457800554,-2.650755845821473,2.979682873583091,1.5284796953201294,-1.573989748954773,1.710157036781311,-0.13257388770580292,-0.9596327543258667,0.24805039167404175,-0.07514400780200958,0.028633058071136475,-0.0021093040704727173
1.2628635402419317,-2.643420732157425,2.9545497485639602,1.7818101644515991,-1.7628382444381714,1.7178293466567993,-0.14482207596302032,-0.9529621601104736,0.26625069975852966,-0.14002899825572968,0.04494220018386841,-0.03868129849433899
1.2383962178528451,-2.6459172706299423,2.937322422997511,1.9767001867294312,-2.0015928745269775,1.53355872631073,-0.15520288050174713,-0.9452618956565857,0.28704044222831726,-0.2473391890525818,0.03180968761444092,-0.06508612632751465
1.2140613543267271,-2.6589994661531957,2.928882787790816,2.0149450302124023,-2.1734437942504883,1.2425421476364136,-0.16206368803977966,-0.9370419979095459,0.3093341886997223,-0.35771167278289795,-0.0046846866607666016,-0.06456804275512695
1.1914964056268855,-2.67811165671623,2.926441657579183,1.89841628074646,-2.0244739055633545,0.9632693529129028,-0.16553469002246857,-0.9289240837097168,0.3312073349952698,-0.43544796109199524,-0.016327381134033203,-0.00885021686553955
1.171431097721652,-2.698343399495043,2.9284797904826076,1.7638217210769653,-1.6388177871704102,0.632110059261322,-0.16676169633865356,-0.9213079810142517,0.35125768184661865,-0.45857399702072144,-0.0009636878967285156,-0.019089221954345703
1.1540418707265716,-2.7200678200914647,2.9364017929096207,1.6429699659347534,-1.2211509943008423,0.25362762808799744,-0.16562287509441376,-0.9144075512886047,0.36936187744140625,-0.5006674528121948,-0.01073300838470459,-0.022743195295333862
1.1391749386440575,-2.742348863182986,2.950162868837217,1.5208525657653809,-0.7474428415298462,-0.10953725129365921,-0.1626194417476654,-0.9082886576652527,0.3854435384273529,-0.5160456895828247,-0.00418698787689209,-0.036459922790527344
1.1268202646289616,-2.7657857360254634,2.969537443349765,1.3710098266601562,-0.4568765163421631,-0.47258663177490234,-0.15764883160591125,-0.90305095911026,0.3995572626590729,-0.5116016864776611,0.002995908260345459,-0.07311075925827026
1.1170484301185974,-2.791287431480637,2.9936599523822456,1.1911017894744873,-0.2778865098953247,-0.7738913297653198,-0.15043053030967712,-0.8988105654716492,0.411716103553772,-0.4985410273075104,-0.02799302339553833,-0.09270071983337402
1.1096761024067452,-2.817778600975188,3.021036554385543,0.9877560138702393,-0.11417137086391449,-1.0055513381958008,-0.14157690107822418,-0.8955546021461487,0.4218272268772125,-0.4767245054244995,-0.056777119636535645,-0.10874739289283752
1.104641379199476,-2.844187790645601,3.0504167599347767,0.7700066566467285,0.0838005542755127,-1.178279161453247,-0.13170835375785828,-0.8933030366897583,0.42972421646118164,-0.4706781506538391,-0.06113433837890625,-0.10829776525497437
1.1017253549370911,-2.8703399855848186,3.0814841472188705,0.5773961544036865,0.2118232101202011,-1.3404093980789185,-0.12112370878458023,-0.8919886350631714,0.43552881479263306,-0.46427974104881287,-0.04664051532745361,-0.12720966339111328
1.100413216883578,-2.8977997490471252,3.1145785050591783,0.4423843026161194,0.1808336079120636,-1.4761205911636353,-0.10940241068601608,-0.8913947343826294,0.43982547521591187,-0.4723541736602783,-0.028832316398620605,-0.15733957290649414
1.0999382635619608,-2.927259958066694,-3.1340254981226003,0.368914932012558,0.08121877163648605,-1.5422645807266235,-0.09648943692445755,-0.8911793828010559,0.4432705044746399,-0.47722578048706055,-0.002298891544342041,-0.18927296996116638
1.0993768467812703,-2.958565266290171,-3.0987937210366474,0.3784503936767578,-0.06979364901781082,-1.5614545345306396,-0.08265889436006546,-0.8909245133399963,0.446566104888916,-0.49021708965301514,0.030054032802581787,-0.22754138708114624
1.0979308508621484,-2.991934059962904,-3.063156328237824,0.44429317116737366,-0.2551760673522949,-1.5812560319900513,-0.06790631264448166,-0.8902668952941895,0.450348824262619,-0.5350294709205627,0.06098198890686035,-0.26229941844940186
1.0952718655675893,-3.027899391332577,-3.0266060326916158,0.5211011171340942,-0.4348611533641815,-1.6587852239608765,-0.05193722993135452,-0.8890527486801147,0.45484888553619385,-0.5994604825973511,0.09146064519882202,-0.2946164906024933
1.0914128732637765,-3.067318247998291,-2.9880338698145454,0.5699650049209595,-0.5951299071311951,-1.7967020273208618,-0.03422626107931137,-0.8872794508934021,0.45996060967445374,-0.6454764604568481,0.1012381911277771,-0.3251035511493683
1.0870761514867564,-3.112005526414067,-2.946482841111073,0.4605517089366913,-0.999506413936615,-2.0041275024414062,-0.013758259825408459,-0.885270893573761,0.4648726284503937,-0.659902036190033,0.08482509851455688,-0.3138563632965088
1.083924804276821,3.1202686648241356,-2.901078545431198,0.17554672062397003,-1.0781301259994507,-2.209045171737671,0.009975953958928585,-0.8838008642196655,0.46775683760643005,-0.7010160088539124,0.03646504878997803,-0.16915762424468994
1.0827070486613803,3.0663302826417462,-2.8517895324492946,-0.15919238328933716,-0.9937850832939148,-2.398925542831421,0.03526018187403679,-0.8832305073738098,0.4676118791103363,-0.6658448576927185,0.02469456195831299,-0.15015286207199097
1.0832080160068047,3.0098765426606886,-2.7982096159033456,-0.45029160380363464,-0.8092483878135681,-2.570713520050049,0.06153026595711708,-0.8834652900695801,0.46443840861320496,-0.6210090517997742,0.048733294010162354,-0.16611388325691223
1.0844758101238734,2.9519719760843044,-2.740462631952583,-0.653387188911438,-0.5613394975662231,-2.7038397789001465,0.08809404075145721,-0.8840585350990295,0.45899882912635803,-0.5710194706916809,0.10149627923965454,-0.2327873706817627
1.0855557513193321,2.893631374811688,-2.6793770778906825,-0.7821379899978638,-0.3081408441066742,-2.7984187602996826,0.11447294801473618,-0.8845627903938293,0.4521559178829193,-0.5180068612098694,0.16329491138458252,-0.3142011761665344
1.0856836301864086,2.835304905090141,-2.6158614513273397,-0.8530787229537964,-0.1343538910150528,-2.882642984390259,0.14060182869434357,-0.8846223950386047,0.4446059763431549,-0.4779583811759949,0.19866341352462769,-0.3723098635673523
1.0841910799540955,2.777084777775129,-2.550653954311223,-0.8534755110740662,0.009198760613799095,-2.9684693813323975,0.16670449078083038,-0.8839254379272461,0.43690451979637146,-0.4408743977546692,0.1986074447631836,-0.40815699100494385
1.0801194066297384,2.719350778065268,-2.4846835318548055,-0.747083306312561,0.07222326099872589,-3.052213668823242,0.19311034679412842,-0.8820140957832336,0.4298368990421295,-0.3966320753097534,0.18659472465515137,-0.4554107189178467
1.0720384913217471,2.662818618002068,-2.4203293107371433,-0.4182409644126892,-0.06944901496171951,-3.128563165664673,0.22036492824554443,-0.8781774044036865,0.424551397562027,-0.36649832129478455,0.17351114749908447,-0.5107483267784119
1.058075411225388,2.609900879677747,-2.361873518802564,0.1440093219280243,-0.28621116280555725,-3.1542484760284424,0.24870535731315613,-0.871412992477417,0.42283034324645996,-0.33558884263038635,0.18817001581192017,-0.6106048822402954
1.0374571663966865,2.5633019994331496,-2.313067644139167,0.7911205291748047,-0.5976188778877258,-3.1375627517700195,0.2778945863246918,-0.8611142039299011,0.4257432520389557,-0.3034224808216095,0.2281336784362793,-0.6985399127006531
1.0107455368379203,2.522740524264506,-2.27515982953235,1.3821697235107422,-1.039563536643982,-3.113161087036133,0.30816641449928284,-0.8472281098365784,0.43271008133888245,-0.30171194672584534,0.25685030221939087,-0.7122359275817871
0.9791350102662381,2.4862653935109797,-2.247071828110909,1.855483055114746,-1.5377668142318726,-3.0836334228515625,0.3398974537849426,-0.830015242099762,0.4422036409378052,-0.3005298376083374,0.25240910053253174,-0.6750682592391968
0.9440577260054104,2.4525243376682004,-2.227609080375789,2.2293143272399902,-1.994931936264038,-3.000394821166992,0.3729112148284912,-0.8099446296691895,0.45268797874450684,-0.2794511616230011,0.264412522315979,-0.6180629730224609
0.906697047450931,2.4211008051617604,-2.216236708200451,2.5552821159362793,-2.456643581390381,-2.8581979274749756,0.4066396951675415,-0.7874722480773926,0.46317562460899353,-0.251076340675354,0.3191189765930176,-0.5571392774581909
0.8680024289936324,2.391068399851237,-2.2116155679039347,2.7558445930480957,-2.7826826572418213,-2.766805648803711,0.44082650542259216,-0.7630393505096436,0.47269758582115173,-0.23399364948272705,0.42716288566589355,-0.4653276205062866
0.8285344406506469,2.3620058505670687,-2.2107504164867455,2.830803394317627,-2.847532033920288,-2.773693323135376,0.47518759965896606,-0.7369415163993835,0.4807429313659668,-0.19798126816749573,0.559863269329071,-0.3416743874549866
0.7885215552383958,2.3348519926366054,-2.211494107426594,2.822075605392456,-2.639976978302002,-2.8440051078796387,0.5089595913887024,-0.7093119025230408,0.4876854717731476,-0.16632342338562012,0.6386178135871887,-0.20738154649734497
0.7485505050765315,2.3105963931373346,-2.2121262237122936,2.6615450382232666,-2.2784557342529297,-2.9078145027160645,0.5411570072174072,-0.6805774569511414,0.493926465511322,-0.14349770545959473,0.6727191805839539,-0.0753016471862793
0.7101171279665661,2.288658332508964,-2.2112774782426534,2.32194185256958,-2.000182628631592,-2.88710618019104,0.5711510181427002,-0.6519225835800171,0.49878183007240295,-0.14392030239105225,0.6800445914268494,0.041318267583847046
0.6746032155752463,2.2665992568027717,-2.2075118285066733,1.8202378749847412,-1.9530118703842163,-2.8795650005340576,0.599413275718689,-0.6245874762535095,0.500593364238739,-0.20178461074829102,0.6643672585487366,0.12913668155670166
0.6422797425300284,2.2411574921722144,-2.1994833680797687,1.266440749168396,-2.1710712909698486,-2.923870801925659,0.6274518370628357,-0.5990224480628967,0.49747028946876526,-0.2931622266769409,0.6252979636192322,0.1526762843132019
0.6124097910335746,2.2104200338687985,-2.187192417804031,0.8085671663284302,-2.528886556625366,-3.0095527172088623,0.6565110683441162,-0.5748409628868103,0.4884173572063446,-0.36264193058013916,0.5814631581306458,0.10640078783035278
0.5836609941275506,2.174700229604675,-2.1719654509112134,0.510456383228302,-2.876431703567505,-3.112128973007202,0.6868575215339661,-0.5510825514793396,0.4738515317440033,-0.3768293261528015,0.5834004878997803,0.002604246139526367
0.5547553737342745,2.1352731237731044,-2.15519169917209,0.32658839225769043,-3.162443161010742,-3.254241943359375,0.7181631922721863,-0.5267353653907776,0.45474350452423096,-0.3536002039909363,0.6283435821533203,-0.12092697620391846
0.5247336846142101,2.0940241018927224,-2.1375889531326013,0.2005138397216797,-3.227588653564453,-3.4234790802001953,0.749668538570404,-0.5009825229644775,0.4324505627155304,-0.29611635208129883,0.6688445210456848,-0.22000256180763245
0.49335864868331186,2.053538910958517,-2.119912064775399,0.12023285031318665,-3.1059844493865967,-3.532057046890259,0.7800997495651245,-0.47358667850494385,0.40885165333747864,-0.19202613830566406,0.6696316003799438,-0.2869951128959656
0.4609482081527677,2.015738635524441,-2.1028372001638016,0.06999658048152924,-2.850825309753418,-3.5993905067443848,0.8084283471107483,-0.444797545671463,0.3854847848415375,-0.09048718214035034,0.6442909836769104,-0.34149378538131714
0.4275194149179648,1.981868201336879,-2.086824517667441,0.08379952609539032,-2.5293686389923096,-3.6610937118530273,0.8341879844665527,-0.4146147668361664,0.36362767219543457,-0.035527706146240234,0.627017080783844,-0.4200395345687866
0.3927082213996167,1.9521903411463692,-2.0725943676403284,0.20469771325588226,-2.2658426761627197,-3.7484383583068848,0.8574922680854797,-0.382691890001297,0.34388014674186707,-0.0065402984619140625,0.6286483407020569,-0.5120016932487488
0.35607893249743106,1.9261808133218878,-2.061091870119923,0.446830689907074,-2.0934979915618896,-3.8333709239959717,0.878703236579895,-0.3486018180847168,0.3261241316795349,0.002903580665588379,0.6302943825721741,-0.5946484804153442
0.3175804532966982,1.9029408281348899,-2.053255552028933,0.7576698064804077,-2.037517786026001,-3.8828885555267334,0.8980721235275269,-0.3122689127922058,0.309765487909317,0.02946394681930542,0.6181617975234985,-0.6373870372772217
0.27780668807021186,1.8814700053881785,-2.0495160379036053,1.065430760383606,-2.017784357070923,-3.853417158126831,0.9156227111816406,-0.27424708008766174,0.2939794063568115,0.10659420490264893,0.6101998090744019,-0.6152533292770386
0.23776404111707267,1.8615099814862863,-2.049438448999244,1.265519618988037,-1.949011206626892,-3.773265838623047,0.9310871958732605,-0.23553016781806946,0.278572142124176,0.19186824560165405,0.6156265139579773,-0.5444108247756958
0.1982306361140878,1.8426555218057052,-2.051689006308189,1.3324520587921143,-1.9243887662887573,-3.671058416366577,0.9444091320037842,-0.19693492352962494,0.2632642090320587,0.2637512683868408,0.6122485995292664,-0.4572645425796509
0.15988771012873335,1.8235893460284003,-2.0551933997175627,1.308495283126831,-2.0054895877838135,-3.5234155654907227,0.9558682441711426,-0.15920734405517578,0.24691909551620483,0.3646427392959595,0.6081971526145935,-0.3571333587169647
0.12344635468212292,1.8037509627021433,-2.0594568856917017,1.251010775566101,-2.063844919204712,-3.3236324787139893,0.965584397315979,-0.12313306331634521,0.22909663617610931,0.49381208419799805,0.6470893025398254,-0.2686779201030731
0.08960239898256785,1.7834778202790578,-2.0640313325810435,1.1169980764389038,-2.0643727779388428,-3.0415432453155518,0.973547101020813,-0.08948255330324173,0.21023492515087128,0.6293885707855225,0.6783192157745361,-0.18196050822734833
0.0594307047537062,1.7634146851981212,-2.0683378256502682,0.9310216903686523,-1.989036202430725,-2.6665244102478027,0.9797735810279846,-0.05939572677016258,0.19109153747558594,0.7674951553344727,0.6420220136642456,-0.0956021249294281
0.03359964135518046,1.7440936574224055,-2.0722916889769567,0.7955267429351807,-1.9050917625427246,-2.257014513015747,0.984465479850769,-0.0335933193564415,0.17233388125896454,0.8808145523071289,0.5604792833328247,-0.05374254286289215
0.011734166805040096,1.7253121981910078,-2.0767187327401495,0.8093889355659485,-1.8673765659332275,-1.9114612340927124,0.9880181550979614,-0.01173389796167612,0.1538911610841751,0.9484747648239136,0.49720749258995056,-0.053961411118507385
-0.007259959344724376,1.706875987068788,-2.0828229387651938,0.9531514048576355,-1.799417495727539,-1.6742249727249146,0.9907293319702148,0.00725989555940032,0.13565649092197418,0.9789514541625977,0.48282188177108765,-0.04709458351135254
-0.02449018083670529,1.6894136647848814,-2.091052864515874,1.1014037132263184,-1.6407949924468994,-1.5365387201309204,0.9926754236221313,0.024487731978297234,0.11830388009548187,0.9939730763435364,0.5086390376091003,0.0034001991152763367
-0.040749995494739275,1.6739998311744366,-2.100558585034556,1.121098279953003,-1.3602321147918701,-1.484635829925537,0.9938533306121826,0.04073871672153473,0.10293485969305038,1.0169954299926758,0.5176566243171692,0.13522420823574066
-0.056679943270429675,1.661598696412211,-2.1096768998032545,0.972402811050415,-1.014783501625061,-1.5077100992202759,0.9942809343338013,0.056649599224328995,0.09053201228380203,1.0456511974334717,0.49942639470100403,0.3027327060699463
-0.07258241180840057,1.6530569259325856,-2.116845145919111,0.7092620134353638,-0.5846137404441833,-1.5196014642715454,0.9939942955970764,0.07251869887113571,0.08195149898529053,1.1139309406280518,0.5150972008705139,0.4485049247741699
-0.08789542631520773,1.6488791220786876,-2.12123925527386,0.404014527797699,-0.18637022376060486,-1.4324439764022827,0.9931045174598694,0.08778229355812073,0.0777023583650589,1.2515244483947754,0.5406661629676819,0.539881706237793
-0.10139657605862612,1.6486024930279128,-2.122875619324241,0.13740070164203644,0.14111922681331635,-1.2068287134170532,0.9918539524078369,0.1012229174375534,0.07732845842838287,1.415860891342163,0.5320320725440979,0.5760376453399658
-0.11176353531641964,1.6510617144123056,-2.1224446334404496,-0.052403852343559265,0.3177717626094818,-0.842669665813446,0.9905615448951721,0.11153100430965424,0.0796789899468422,1.5676355361938477,0.5023605823516846,0.569185733795166
-0.11775928566546726,1.654745356055965,-2.120731624838857,-0.18367372453212738,0.3552919924259186,-0.3645385205745697,0.9895771741867065,0.11748731136322021,0.08326974511146545,1.678773045539856,0.4868064820766449,0.5443700551986694
-0.11864065720630558,1.6582628626741454,-2.118205814773972,-0.3016257882118225,0.2733619809150696,0.1540791541337967,0.9891746044158936,0.11836253106594086,0.08674099296331406,1.7149269580841064,0.49749740958213806,0.5177512168884277
-0.11412416623472714,1.660864068393275,-2.1148278837701966,-0.45309120416641235,0.17477603256702423,0.68468177318573,0.989467978477478,0.1138765960931778,0.08936091512441635,1.693606972694397,0.5236660838127136,0.5095617771148682
-0.10416093398896173,1.6629555404642136,-2.1102009371783184,-0.6453582048416138,0.15617619454860687,1.2099978923797607,0.9903596043586731,0.10397268831729889,0.09153003990650177,1.6567962169647217,0.5282752513885498,0.5200421810150146
-0.08901056950610556,1.6654919299122215,-2.1040333352730345,-0.8546863794326782,0.24573270976543427,1.671493411064148,0.9915786385536194,0.08889307826757431,0.09417981654405594,1.5908493995666504,0.5402572751045227,0.5170109272003174
-0.06966938895671103,1.669551037881301,-2.096285545801019,-1.0442214012145996,0.46029970049858093,1.9975498914718628,0.9927135109901428,0.06961303949356079,0.09835507720708847,1.4586107730865479,0.5591100454330444,0.46728813648223877
-0.04758825436193285,1.676206916961947,-2.0872669041939895,-1.181121826171875,0.7696719169616699,2.1824562549591064,0.9933236837387085,0.04757029563188553,0.10509637743234634,1.2900320291519165,0.5706089735031128,0.3800109624862671
-0.023952479100627127,1.6860536338095415,-2.0775067165793164,-1.2670537233352661,1.1262255907058716,2.2802798748016357,0.9930803775787354,0.023950189352035522,0.11496931314468384,1.1491163969039917,0.5705322027206421,0.2848719358444214
0.0007526331024993446,1.699218370660343,-2.06741638395131,-1.3270920515060425,1.4721465110778809,2.3637146949768066,0.9917648434638977,-0.0007526330300606787,0.12806929647922516,1.04871666431427,0.5568439364433289,0.19752274453639984
0.026417722228398156,1.7153974527281726,-2.0571691539366825,-1.3967491388320923,1.7708280086517334,2.4232845306396484,0.9892182350158691,-0.026414649561047554,0.14404745399951935,0.9602293968200684,0.5624406337738037,0.12186729907989502
0.0529149165638668,1.7337887967610701,-2.046576064152343,-1.5017026662826538,1.9608759880065918,2.475557804107666,0.985365092754364,-0.05289022624492645,0.16204462945461273,0.8651140928268433,0.5861238241195679,0.05699516832828522
0.08040559046627654,1.7532749089319684,-2.035330180309724,-1.6501636505126953,2.0684967041015625,2.5355491638183594,0.9802197813987732,-0.08031897991895676,0.18088127672672272,0.795659065246582,0.5896725654602051,0.007228970527648926
0.10887408028423158,1.7731968050323335,-2.0232707867421467,-1.7790683507919312,2.1287624835968018,2.5783073902130127,0.9737868309020996,-0.10865911841392517,0.19983115792274475,0.7367844581604004,0.5890820622444153,-0.05645954608917236
0.13831547878522063,1.7934169511711133,-2.0108617776213267,-1.851252794265747,2.2138376235961914,2.644976854324341,0.966007649898529,-0.13787487149238586,0.21867777407169342,0.711497962474823,0.5817835330963135,-0.12471422553062439
0.1689546195769997,1.8144582774197746,-1.9986932248307496,-1.8898910284042358,2.3627917766571045,2.7474820613861084,0.9566426277160645,-0.16815194487571716,0.2378227412700653,0.7264627814292908,0.5823975205421448,-0.1788170486688614
0.200933820322068,1.8370060681114777,-1.9871083614645544,-1.9160795211791992,2.552678108215332,2.8433945178985596,0.9453641176223755,-0.1995844542980194,0.2577836215496063,0.7323243618011475,0.5914149284362793,-0.22583189606666565
0.23374363150498062,1.8608003782579152,-1.9760111900389898,-1.9578129053115845,2.656899929046631,2.84504771232605,0.9321845173835754,-0.23162096738815308,0.2781798839569092,0.6858575344085693,0.6211014986038208,-0.2756926715373993
0.2667871165533317,1.8855428157484264,-1.965205648286278,-1.9980542659759521,2.82432222366333,2.823148012161255,0.917235791683197,-0.2636335790157318,0.29862356185913086,0.5958409905433655,0.6583631634712219,-0.32018423080444336
0.29991414113447346,1.9118298203868653,-1.9544363530447837,-2.086682081222534,3.0139529705047607,2.7577145099639893,0.9003422260284424,-0.29543817043304443,0.31953155994415283,0.5077084302902222,0.6571325063705444,-0.350018709897995
0.33323948890473915,1.9391559646523662,-1.9431782357628837,-2.2305643558502197,3.1019489765167236,2.725025177001953,0.8815971612930298,-0.3271060287952423,0.34027642011642456,0.4396461248397827,0.6493868827819824,-0.38142943382263184
0.36701627263169523,1.9660489770222895,-1.9309029046930675,-2.4121463298797607,3.0903208255767822,2.6766140460968018,0.861436128616333,-0.3588320016860962,0.35939842462539673,0.3915087580680847,0.6653810739517212,-0.4219900667667389
0.40182793708851594,1.9919030147058319,-1.917744472290917,-2.571227550506592,3.040595531463623,2.7418925762176514,0.8399432301521301,-0.39110133051872253,0.3762110769748688,0.37247419357299805,0.6605410575866699,-0.48093217611312866
0.438522499852002,2.016497251882649,-1.9045278207930687,-2.683335304260254,2.9300215244293213,2.899808883666992,0.8169322609901428,-0.4246022403240204,0.3903006613254547,0.3960498571395874,0.6625173091888428,-0.5611075162887573
0.4776370050557448,2.039685704624264,-1.8922040682964072,-2.7311739921569824,2.772047996520996,3.124235153198242,0.7922335267066956,-0.4596819281578064,0.4013213515281677,0.404452383518219,0.6776078939437866,-0.6702269911766052
0.5191988166839601,2.061601010985856,-1.8817549776925675,-2.70923113822937,2.5923635959625244,3.391103506088257,0.7657272815704346,-0.49618470668792725,0.4092216491699219,0.40237879753112793,0.6791375875473022,-0.7724114656448364
0.5630903010995344,2.0830671216153704,-1.8743754587406207,-2.5934700965881348,2.44868803024292,3.6730611324310303,0.7370619177818298,-0.5338019132614136,0.4144821763038635,0.3921496272087097,0.6670721173286438,-0.8429033160209656
0.6086537550938241,2.105175884300716,-1.871096393408507,-2.4136950969696045,2.3177595138549805,3.9160306453704834,0.7060396075248718,-0.5717635154724121,0.4178450107574463,0.3550565838813782,0.6609206199645996,-0.9027236700057983
0.6550722904901186,2.1286773359002282,-1.8725529037702373,-2.193377733230591,2.195312738418579,4.109270095825195,0.6727675199508667,-0.609216570854187,0.41980797052383423,0.2951279282569885,0.6747378706932068,-0.9355856776237488
0.7015393718733933,2.154357920769707,-1.8791400420316713,-1.9536817073822021,2.1030008792877197,4.226876735687256,0.6374368667602539,-0.6453943252563477,0.42088091373443604,0.22192299365997314,0.6980522871017456,-0.9476752877235413
0.7472858897032525,2.182799420984309,-1.8908589820211081,-1.7352262735366821,2.0147392749786377,4.297695159912109,0.6003984808921814,-0.6796503663063049,0.42142248153686523,0.14438295364379883,0.7115565538406372,-0.9429678916931152
0.7921340648020301,2.214296699099098,-1.907854204989836,-1.5483640432357788,1.9017947912216187,4.374239444732666,0.5618624091148376,-0.7118536829948425,0.4213961362838745,0.11306434869766235,0.7221076488494873,-0.9241734147071838
0.8362052937239631,2.2494061949306774,-1.9307727502564287,-1.3746914863586426,1.7689942121505737,4.4906325340271,0.5217795372009277,-0.7421049475669861,0.4207446575164795,0.11362683773040771,0.7320799827575684,-0.896391749382019
0.8795933019491834,2.2888685112284617,-1.9605324395108141,-1.217660665512085,1.5983161926269531,4.634555816650391,0.48005905747413635,-0.770479679107666,0.41940978169441223,0.11160057783126831,0.740373969078064,-0.8700628876686096
0.9223261055359948,2.333390604498297,-1.9983478589981232,-1.0756577253341675,1.3571155071258545,4.810699462890625,0.43669649958610535,-0.7970086932182312,0.41722050309181213,0.10511252284049988,0.7517512440681458,-0.8392482995986938
0.9641972209786464,2.3837387427364414,-2.0454529521809373,-0.9551212191581726,1.0751525163650513,4.981445789337158,0.39185044169425964,-0.8215915560722351,0.41405409574508667,0.07827287912368774,0.7716951966285706,-0.8005287051200867
1.0046561528930356,2.4411512968370577,-2.102724288934835,-0.8524592518806458,0.8699871301651001,5.091861248016357,0.34572574496269226,-0.8439775705337524,0.4100925922393799,0.033256858587265015,0.7881455421447754,-0.7578403353691101
1.0427123397501878,2.5072859696972154,-2.170469783416212,-0.7566818594932556,0.795801043510437,5.108740329742432,0.29860836267471313,-0.8637741208076477,0.4058658480644226,-0.021997064352035522,0.7890061736106873,-0.7171910405158997
1.0772461539568317,2.5836983563089864,-2.248547402578194,-0.6693542003631592,0.8735255599021912,5.04246711730957,0.25080665946006775,-0.8806564807891846,0.401920884847641,-0.07858067750930786,0.7934523820877075,-0.6733441948890686
1.107428497454589,2.6712223981432004,-2.3360542182650272,-0.6193264722824097,1.0974452495574951,4.900201797485352,0.20257093012332916,-0.8945522904396057,0.3984230160713196,-0.12041765451431274,0.8108579516410828,-0.6278695464134216
1.132747665840996,2.769633316859341,-2.4314430761772456,-0.599387526512146,1.4054453372955322,4.714468479156494,0.15416201949119568,-0.9055811166763306,0.39516669511795044,-0.16289006173610687,0.8282801508903503,-0.5858253836631775
1.1529764706763388,2.877641609713224,-2.533097395285633,-0.5971986651420593,1.6655075550079346,4.533816814422607,0.10586386173963547,-0.9139757752418518,0.39171600341796875,-0.20614461600780487,0.8387497663497925,-0.5665053725242615
1.167975263704245,2.992889309519472,-2.640039516604369,-0.576941728591919,1.7243621349334717,4.412219524383545,0.058079395443201065,-0.919958770275116,0.38768911361694336,-0.21883073449134827,0.8226534128189087,-0.5806212425231934
1.177240458840008,3.112907816639724,-2.752182821757606,-0.4828450679779053,1.565719485282898,4.39569616317749,0.010998404584825039,-0.9235513210296631,0.38331708312034607,-0.19546189904212952,0.7740914821624756,-0.601594090461731
1.179749135610787,-3.0483359085751536,-2.8687650144678365,-0.2947325110435486,1.2547454833984375,4.475435733795166,-0.03549394756555557,-0.9245104193687439,0.3795006275177002,-0.16520491242408752,0.7135881781578064,-0.6209100484848022
1.1743837512839446,-2.9288225904284104,-2.986453464474821,-0.01758771575987339,0.9038793444633484,4.581355571746826,-0.08153460919857025,-0.9224520921707153,0.3774050176143646,-0.14542460441589355,0.6895112991333008,-0.6389101147651672
1.1607128961179531,-2.8172027001520936,-3.0994576803198277,0.2903275489807129,0.6473816633224487,4.66493558883667,-0.12707343697547913,-0.9170875549316406,0.37789270281791687,-0.16363702714443207,0.7134741544723511,-0.640725314617157
1.1394792699592873,-2.71722938082912,3.080604373767898,0.5708529353141785,0.5304536819458008,4.6926751136779785,-0.17213542759418488,-0.9084159135818481,0.38098546862602234,-0.20712175965309143,0.7517844438552856,-0.6247446537017822
1.1119539247239731,-2.630599173560605,2.9905194303717697,0.8350974321365356,0.5441651940345764,4.672144889831543,-0.21660271286964417,-0.8965657949447632,0.3863326609134674,-0.26490360498428345,0.7543691992759705,-0.5828354358673096
1.0794132044113247,-2.5571926426771503,2.9146706125745228,1.0986723899841309,0.6390355229377747,4.600520133972168,-0.26031696796417236,-0.8816810846328735,0.3935399055480957,-0.347501665353775,0.712247371673584,-0.543152391910553
1.0429829629646064,-2.4966762873079644,2.8531643150873056,1.384543776512146,0.7118090987205505,4.4640326499938965,-0.30275702476501465,-0.863910436630249,0.4024880528450012,-0.4510423243045807,0.6526679396629333,-0.5074533820152283
1.003850022778756,-2.448623602566448,2.805577245713006,1.669577717781067,0.7603294849395752,4.23612642288208,-0.3430858254432678,-0.8435449004173279,0.4131872057914734,-0.5679705739021301,0.5841913819313049,-0.4619849622249603
0.9634667815119801,-2.4118554064322404,2.770689499367537,1.9031262397766113,0.7670010328292847,3.9288735389709473,-0.38045522570610046,-0.8211749196052551,0.42535364627838135,-0.6726454496383667,0.5290452837944031,-0.3964077830314636
0.9233838150824613,-2.3846697287509304,2.7463618442490754,2.0411980152130127,0.727748453617096,3.5693445205688477,-0.414158433675766,-0.7976470589637756,0.43844300508499146,-0.7271838188171387,0.5047086477279663,-0.3097350597381592
0.8848335530262905,-2.3642650796415143,2.7299683667857457,2.076946258544922,0.7941151261329651,3.2280850410461426,-0.4442651569843292,-0.773809552192688,0.45149463415145874,-0.7452642917633057,0.5066890716552734,-0.21151965856552124
0.8484965715906867,-2.34647427541963,2.718839110734553,2.012909173965454,1.0852696895599365,2.9165093898773193,-0.47199857234954834,-0.7502872943878174,0.4629107415676117,-0.7452865839004517,0.5065128803253174,-0.12698864936828613
0.8150374490560622,-2.3279197982054365,2.711208194308064,1.8674956560134888,1.4921916723251343,2.6038870811462402,-0.4984791874885559,-0.7277512550354004,0.47105851769447327,-0.7935434579849243,0.48008596897125244,-0.05260166525840759
0.784977922494003,-2.307346979472618,2.7059078092179125,1.6609123945236206,1.8299230337142944,2.2908287048339844,-0.524037778377533,-0.7068095803260803,0.4751891791820526,-0.892038881778717,0.45806074142456055,-0.0052490234375
0.7587529307716877,-2.285829002238918,2.7023937718641826,1.4364304542541504,1.9406547546386719,1.9494469165802002,-0.5479518175125122,-0.6880170106887817,0.4757961630821228,-0.9970159530639648,0.44976603984832764,0.013278603553771973
0.7365258878333856,-2.2657104021232595,2.700690480252861,1.2517768144607544,1.7910934686660767,1.5840915441513062,-0.5690200328826904,-0.6717182993888855,0.4743528664112091,-1.1182358264923096,0.4351155757904053,0.020718544721603394
0.718634143600934,-2.2512360735473442,2.7009353029291097,1.0600988864898682,1.1748309135437012,1.155710220336914,-0.5850753784179688,-0.6583572030067444,0.47355350852012634,-1.2345811128616333,0.45825326442718506,0.0031615495681762695
0.7047294463843284,-2.2435568172209845,2.7034365990446996,0.9766767024993896,0.6823061108589172,0.7809842824935913,-0.5957968235015869,-0.6478277444839478,0.47470542788505554,-1.3195626735687256,0.46913206577301025,-0.003651440143585205
0.6938334525816409,-2.241554383243367,2.708020319757365,0.9232624769210815,0.341517835855484,0.4992974102497101,-0.6022402048110962,-0.6394890546798706,0.4778708517551422,-1.3600858449935913,0.41175156831741333,0.051349639892578125
0.6850721206144559,-2.242506947083966,2.713811799217866,0.8518372774124146,0.21306584775447845,0.32388484477996826,-0.6061471700668335,-0.6327288746833801,0.48191264271736145,-1.3379597663879395,0.36913323402404785,0.10091197490692139
0.67821802881128,-2.244627218637194,2.71974189493612,0.7038718461990356,0.11390525847673416,0.16926005482673645,-0.6084986925125122,-0.6274064183235168,0.4858914315700531,-1.3135898113250732,0.34087687730789185,0.15368065237998962
0.6741408887531899,-2.247099130416164,2.725186455100319,0.45682293176651,0.08477135002613068,-0.08069252222776413,-0.609285831451416,-0.6242263913154602,0.48899126052856445,-1.3620123863220215,0.32861775159835815,0.21182972192764282
0.6742006479625774,-2.2492144743627063,2.730482465917213,0.18308845162391663,0.1565830260515213,-0.4563162624835968,-0.6082211136817932,-0.6242730617523193,0.4902556538581848,-1.466806411743164,0.3329674005508423,0.23958748579025269
0.6788845702566964,-2.2512800806436233,2.7367074598268784,-0.007833033800125122,0.19774484634399414,-0.885368287563324,-0.6049275994300842,-0.6279252767562866,0.4896657466888428,-1.5166850090026855,0.34972697496414185,0.20788979530334473
0.6876594294347476,-2.2547419741284718,2.745103142869429,-0.07492908090353012,0.16338564455509186,-1.2874647378921509,-0.598935067653656,-0.6347302794456482,0.4882567226886749,-1.4809294939041138,0.37336236238479614,0.14165669679641724
0.6995459213966108,-2.260668853279977,2.7564128696092336,-0.08736684173345566,0.08785653114318848,-1.638323426246643,-0.5901691913604736,-0.6438702940940857,0.4869614839553833,-1.4134929180145264,0.3994549512863159,0.07416516542434692
0.7140047324072025,-2.2696137028995467,2.7705059362730693,-0.11929860711097717,-0.05110298842191696,-1.935289978981018,-0.5786013603210449,-0.654865562915802,0.4861806333065033,-1.32743501663208,0.4224894046783447,0.032221436500549316
0.7306919601711874,-2.281731101619902,2.7867360492209805,-0.19206655025482178,-0.2340317964553833,-2.165200710296631,-0.5643077492713928,-0.6673851013183594,0.485956609249115,-1.2315753698349,0.4194755554199219,0.007070034742355347
0.7492781135789127,-2.297160530703968,2.8044772498637394,-0.2795630991458893,-0.46017882227897644,-2.338581085205078,-0.5473740100860596,-0.6811103820800781,0.48628219962120056,-1.1386611461639404,0.38933175802230835,-0.0244293212890625
0.7692637646911995,-2.316181335161298,2.8235898561074344,-0.34179532527923584,-0.7102184891700745,-2.469622850418091,-0.527916669845581,-0.6956064701080322,0.4872739613056183,-1.0625832080841064,0.35948580503463745,-0.07188397645950317
0.7901516592075501,-2.339450846069753,2.8445688887775096,-0.3485805094242096,-0.9904425144195557,-2.6012585163116455,-0.5058794617652893,-0.7104600071907043,0.4892163872718811,-1.005213737487793,0.35108494758605957,-0.1434674859046936
0.8114120669341184,-2.367794345524141,2.8683293591734316,-0.2946528494358063,-1.2508578300476074,-2.7298777103424072,-0.48114559054374695,-0.7252600789070129,0.49243953824043274,-0.9555304050445557,0.3523658514022827,-0.22641780972480774
0.8325219761740507,-2.4013483098608965,2.895719092557216,-0.21129728853702545,-1.429023027420044,-2.859506845474243,-0.45392560958862305,-0.7396310567855835,0.4968876838684082,-0.8880848288536072,0.3628000020980835,-0.2976078987121582
0.8531803950353708,-2.4396091190758358,2.9270089321133503,-0.14554624259471893,-1.534322738647461,-2.9755783081054688,-0.4246281683444977,-0.7533755898475647,0.5021116137504578,-0.8048945069313049,0.3850894570350647,-0.35150742530822754
0.8733111504482689,-2.4819481182340706,2.962019241649804,-0.12616826593875885,-1.5949770212173462,-3.074801206588745,-0.3936196565628052,-0.7664598822593689,0.5075456500053406,-0.7257803678512573,0.40845823287963867,-0.3850329518318176
0.8929670010086063,-2.527744381114911,3.0002223293975163,-0.15780901908874512,-1.6541026830673218,-3.139918565750122,-0.36122265458106995,-0.7789357900619507,0.5126180052757263,-0.6611314415931702,0.4187368154525757,-0.4052114486694336
0.9121902357790255,-2.576787762941825,3.0409840229737095,-0.23301182687282562,-1.7499521970748901,-3.1720902919769287,-0.3275817930698395,-0.7908461093902588,0.5169650316238403,-0.6164489984512329,0.40788084268569946,-0.42100250720977783
0.9308565808545805,-2.6293025643348864,3.0840779446076723,-0.29297181963920593,-1.8860098123550415,-3.1985769271850586,-0.29270634055137634,-0.802131712436676,0.5204878449440002,-0.5953704118728638,0.381111204624176,-0.4488784074783325
0.9486991409737006,-2.686866949220742,3.130343506612985,-0.3223259747028351,-2.1659140586853027,-3.2874326705932617,-0.2559490203857422,-0.8126581311225891,0.5235235691070557,-0.5964374542236328,0.3644464612007141,-0.49279236793518066
0.9655264415298671,-2.7524706314048184,-3.101518794345921,-0.3176571726799011,-2.543644666671753,-3.4707045555114746,-0.21585893630981445,-0.8223485946655273,0.5264480113983154,-0.6096110343933105,0.39145565032958984,-0.5479630827903748
0.9806409065798154,-2.8272744612536176,-3.043453945068431,-0.26204633712768555,-2.771068811416626,-3.6803178787231445,-0.17204901576042175,-0.8308541774749756,0.5292261838912964,-0.6145110130310059,0.42487889528274536,-0.5971736311912537
0.9929217223003115,-2.9093953708187286,-2.978471299624122,-0.16527453064918518,-2.7616612911224365,-3.860896110534668,-0.12569986283779144,-0.8376255035400391,0.531585156917572,-0.5654164552688599,0.4361668825149536,-0.6256251931190491
1.001481701291516,-2.9963292799632906,-2.9072623237212856,-0.06646037101745605,-2.645977020263672,-4.030124187469482,-0.0780298039317131,-0.8422706127166748,0.5333772897720337,-0.4820287823677063,0.43493735790252686,-0.641943633556366
1.0058471025577236,-3.086708338837612,-2.830901765605552,0.008648755960166454,-2.553886890411377,-4.232777118682861,-0.029368842020630836,-0.8446157574653625,0.5345670580863953,-0.40869569778442383,0.431163489818573,-0.6373197436332703
1.005806575494019,3.1026892585517465,-2.7496854836181814,0.061877671629190445,-2.47184681892395,-4.441303730010986,0.02082388661801815,-0.8445940613746643,0.5350016355514526,-0.3363145887851715,0.41200757026672363,-0.6211224794387817
1.0010634483139782,3.007509990177369,-2.6655563666498336,0.099256731569767,-2.352473020553589,-4.619877338409424,0.0721086710691452,-0.8420450687408447,0.5345659255981445,-0.2580064535140991,0.3928566575050354,-0.602482795715332
0.9913881141072876,2.9134620872842554,-2.580750692572193,0.14110033214092255,-2.2026002407073975,-4.76423454284668,0.12382739782333374,-0.8367868065834045,0.5333426594734192,-0.18454211950302124,0.3901773691177368,-0.5953087210655212
0.9766573895704903,2.8227649057912374,-2.4975295463013736,0.20754753053188324,-2.057253837585449,-4.866089820861816,0.17546996474266052,-0.828630805015564,0.5315839052200317,-0.11734922230243683,0.4133017063140869,-0.612959086894989
0.9569992091588189,2.737648940497466,-2.418472943208803,0.2946946918964386,-1.9453989267349243,-4.890305519104004,0.22638584673404694,-0.8174668550491333,0.5296198725700378,-0.04291413724422455,0.4359666705131531,-0.6460292935371399
0.9325584151871436,2.6597875051049495,-2.3457627040128837,0.473577618598938,-1.8234846591949463,-4.853398323059082,0.2760729193687439,-0.8031468391418457,0.527957558631897,0.011753678321838379,0.4449465870857239,-0.676761269569397
0.9035782794125856,2.590834933204699,-2.2818076685060333,0.7348799705505371,-1.805348515510559,-4.7260332107543945,0.32384026050567627,-0.7855461835861206,0.5272998213768005,0.04487323760986328,0.4336783289909363,-0.7239397764205933
0.8705601774896536,2.530192530770068,-2.2277855687411248,1.0298807621002197,-1.964515209197998,-4.5794358253479,0.369893878698349,-0.7646900415420532,0.5276622772216797,0.046793073415756226,0.4193989634513855,-0.761335551738739
0.8340831120309204,2.475119794138717,-2.1830275272678636,1.3008041381835938,-2.2953872680664062,-4.478501319885254,0.41535359621047974,-0.7406808137893677,0.5280841588973999,0.014990031719207764,0.4084360599517822,-0.758309006690979
0.7946916984358036,2.423736454561484,-2.1459870861782715,1.496846079826355,-2.566136598587036,-4.445549488067627,0.46077194809913635,-0.7136476635932922,0.5276324152946472,-0.021975010633468628,0.4208163022994995,-0.7217548489570618
0.7531109519864579,2.3750424694143035,-2.1146709032972186,1.585692286491394,-2.762830972671509,-4.44486665725708,0.5060656666755676,-0.6839116811752319,0.5255111455917358,-0.05606889724731445,0.4380316734313965,-0.6606431007385254
0.7103538178575604,2.3290483310881074,-2.0879250865345997,1.5879490375518799,-2.821216344833374,-4.402691841125488,0.5504328608512878,-0.6521020531654358,0.5213314294815063,-0.05617022514343262,0.4676232933998108,-0.6138303875923157
0.6672206756516686,2.286822096696578,-2.0648802863869355,1.5650694370269775,-2.653228998184204,-4.336404800415039,0.5926306247711182,-0.6188051104545593,0.5156247019767761,0.0042321085929870605,0.5113527178764343,-0.6029967665672302
0.6244279880846665,2.249574523997112,-2.0455397724441653,1.5566400289535522,-2.4545693397521973,-4.175248146057129,0.6314656734466553,-0.5846332907676697,0.5093671083450317,0.09337258338928223,0.5379719734191895,-0.6267836689949036
0.5823334127218525,2.216772106027732,-2.0299554122505246,1.5943714380264282,-2.3331551551818848,-4.023793697357178,0.6669030785560608,-0.549974262714386,0.5027608275413513,0.1563848853111267,0.5360124707221985,-0.6695395112037659
0.5404339428698248,2.1867823739322825,-2.0177410172137935,1.674344539642334,-2.3699491024017334,-3.9495513439178467,0.6998830437660217,-0.5145081281661987,0.4954237937927246,0.13385707139968872,0.5272340774536133,-0.7142655849456787
0.49799962952069443,2.1579220498049203,-2.0084415874876,1.7885342836380005,-2.4583282470703125,-3.9422144889831543,0.7314165234565735,-0.4776690900325775,0.4866851270198822,0.08123618364334106,0.5607531070709229,-0.7346404194831848
0.45484747256466806,2.1298486108787316,-2.0017266761016774,1.8688554763793945,-2.517958164215088,-3.9253268241882324,0.7615647912025452,-0.4393253028392792,0.4764578342437744,0.08398562669754028,0.6350955963134766,-0.7313560247421265
0.4118187072090727,2.1024563476868945,-1.9971157628842937,1.852344036102295,-2.551252603530884,-3.8282854557037354,0.7899013757705688,-0.40027663111686707,0.4645797908306122,0.13177525997161865,0.6866688132286072,-0.6726487874984741
0.3704477315660265,2.0753759291872713,-1.9940622370445746,1.7309863567352295,-2.6353602409362793,-3.600735664367676,0.8159970045089722,-0.36203283071517944,0.4506456255912781,0.19967389106750488,0.6798733472824097,-0.5930253863334656
0.33203802592518594,2.047157772492424,-1.9922235356176174,1.5783628225326538,-2.877595901489258,-3.3175048828125,0.840130090713501,-0.3259704113006592,0.43350276350975037,0.260974645614624,0.6507079601287842,-0.5295264720916748
0.2961387026446288,2.016626538877419,-1.9915723093567237,1.5118061304092407,-3.1617321968078613,-3.171745538711548,0.862978458404541,-0.2918291687965393,0.41243693232536316,0.24549639225006104,0.660710334777832,-0.5416635870933533
0.260863461819927,1.9839867576755739,-1.9923341071920109,1.5638244152069092,-3.3727047443389893,-3.1755170822143555,0.884859025478363,-0.2579149007797241,0.3879483938217163,0.18137919902801514,0.7081407308578491,-0.5985046029090881
0.22503000657335934,1.9502400802588677,-1.9949310111409315,1.6618242263793945,-3.467268943786621,-3.2259204387664795,0.9054515957832336,-0.22313560545444489,0.36106500029563904,0.16319775581359863,0.7414766550064087,-0.6196253299713135
0.18836859656665925,1.9162947991426054,-1.9994488222651243,1.7501710653305054,-3.4712626934051514,-3.3033134937286377,0.924263060092926,-0.1872566044330597,0.3326750695705414,0.19429773092269897,0.7620856761932373,-0.6154967546463013
0.1508796121906381,1.8828859921065237,-2.0055504485180315,1.787497639656067,-3.3802273273468018,-3.3776164054870605,0.9408818483352661,-0.1503078043460846,0.30355966091156006,0.26384514570236206,0.7936335802078247,-0.5682998299598694
0.11323254556867417,1.8510254356476918,-2.0127381915135323,1.752112627029419,-3.1525816917419434,-3.3709418773651123,0.9548380374908447,-0.11299072951078415,0.2748046815395355,0.38477689027786255,0.815474808216095,-0.472116082906723
0.07669298477812855,1.8212067752690024,-2.020566842210874,1.6513255834579468,-2.9524474143981934,-3.2375378608703613,0.9659628868103027,-0.07661782205104828,0.2470731884241104,0.5407661199569702,0.7947574257850647,-0.3559446632862091
0.04232154263673128,1.7926164429362443,-2.0287104082602325,1.528796911239624,-2.848181962966919,-3.050950527191162,0.9746251106262207,-0.04230891168117523,0.21980848908424377,0.6813044548034668,0.7726708054542542,-0.24892236292362213
0.010009852432060517,1.764748916955624,-2.0370356985024376,1.4314833879470825,-2.746631383895874,-2.9105682373046875,0.9812008142471313,-0.010009685531258583,0.192729189991951,0.7420656681060791,0.7872008085250854,-0.17666175961494446
-0.02047115957326519,1.7380116246696151,-2.0457783791182136,1.3792747259140015,-2.5599324703216553,-2.752133369445801,0.9858456254005432,0.020469730719923973,0.16640228033065796,0.8021793961524963,0.7848280668258667,-0.11192844808101654
-0.04888756439997181,1.7134295969242432,-2.055135646070174,1.3352910280227661,-2.261531352996826,-2.553190231323242,0.9886623620986938,0.0488680936396122,0.14198027551174164,0.9047701358795166,0.7585964798927307,-0.034588947892189026
-0.0749524729760452,1.691855290810488,-2.064798334965929,1.2464396953582764,-1.9193212985992432,-2.3498294353485107,0.9898940324783325,0.07488231360912323,0.12042440474033356,1.0125013589859009,0.7497330904006958,0.0525948703289032
-0.09885685593255561,1.6732951764346693,-2.0741341378487115,1.1183218955993652,-1.6246616840362549,-2.185647487640381,0.9898948073387146,0.09869591891765594,0.10181990265846252,1.0845680236816406,0.7807595729827881,0.1396503448486328
-0.12098432249033866,1.6572926491425835,-2.0825838139788426,0.9646447896957397,-1.3920371532440186,-2.0440406799316406,0.9889791011810303,0.12068939208984375,0.08575702458620071,1.1548197269439697,0.844535768032074,0.22311139106750488
-0.14111929738985055,1.6431489583384133,-2.0900552281853897,0.8283977508544922,-1.2422399520874023,-1.8211618661880493,0.9874690175056458,0.1406513750553131,0.07157091051340103,1.2725255489349365,0.892719566822052,0.3048633337020874
-0.15798783374645345,1.630169993083317,-2.0966735678296904,0.6982657313346863,-1.157331109046936,-1.4229838848114014,0.9858057498931885,0.1573314219713211,0.05859977751970291,1.455463171005249,0.9268665313720703,0.3760162591934204
-0.16983625516327308,1.6179909655952678,-2.1024262147683888,0.5523940324783325,-1.067835807800293,-0.8604115843772888,0.9845148921012878,0.16902096569538116,0.04649835079908371,1.6426975727081299,0.9449316263198853,0.4476116895675659
-0.17551114292837716,1.607669478563587,-2.106840358734055,0.35448598861694336,-0.8185389637947083,-0.23728547990322113,0.9839680194854736,0.17461144924163818,0.03629845380783081,1.7587991952896118,0.9473214745521545,0.5191061496734619
-0.17511603168889894,1.6010339996453897,-2.1091614700937087,0.08957415074110031,-0.4096870422363281,0.32253628969192505,0.9842561483383179,0.17422239482402802,0.029770689085125923,1.7676663398742676,0.926790714263916,0.5885001420974731
-0.16947837965103288,1.5994371111268093,-2.108448364387477,-0.2726224362850189,0.07044673711061478,0.7720513343811035,0.9852685928344727,0.1686682254076004,0.02822658233344555,1.6740331649780273,0.894014835357666,0.6497670412063599
-0.16025584437609464,1.6035423560034814,-2.103735424209394,-0.7163705825805664,0.5986418724060059,1.012668251991272,0.9866572022438049,0.15957078337669373,0.03232065960764885,1.4990910291671753,0.8905085325241089,0.6724523305892944
-0.1492648673268235,1.6136145621103215,-2.094491410853341,-1.1841163635253906,1.116304874420166,1.0935057401657104,0.9879743456840515,0.1487112194299698,0.04232918843626976,1.2977921962738037,0.9076699614524841,0.6251664161682129
-0.1375157720437746,1.6288012955787112,-2.0809248257947375,-1.595702052116394,1.505285382270813,1.1103166341781616,0.9888935685157776,0.1370827704668045,0.057425159960985184,1.132596731185913,0.9229300022125244,0.5233548879623413
-0.12491520478280853,1.6473873107704133,-2.063972775490919,-1.901971697807312,1.743094801902771,1.1790012121200562,0.9892993569374084,0.12459059804677963,0.07591991871595383,1.0412944555282593,0.9044315814971924,0.3794633150100708
-0.11072920596092574,1.6677393321843534,-2.0447661748773176,-2.1235506534576416,1.8507816791534424,1.3178410530090332,0.9892092347145081,0.11050307005643845,0.09619846194982529,1.0012998580932617,0.8547220826148987,0.230202317237854
-0.09409514900577785,1.6884123009062724,-2.0241221440362223,-2.2967939376831055,1.8338087797164917,1.5529989004135132,0.9886980056762695,0.093956358730793,0.1168258860707283,0.9742840528488159,0.7899089455604553,0.09160910546779633
-0.07406177375585615,1.7081469446257556,-2.002691299568971,-2.4263572692871094,1.7340645790100098,1.8788992166519165,0.9878666400909424,0.07399408519268036,0.13654381036758423,0.9586206674575806,0.7205767631530762,-0.04174104332923889
-0.05001461806716953,1.7262452589457824,-1.9813379282268686,-2.4592344760894775,1.6066683530807495,2.2469735145568848,0.986706554889679,0.04999376833438873,0.15463000535964966,0.9225645065307617,0.6575104594230652,-0.18740595877170563
-0.021971726127153358,1.7423377007805296,-1.961386998340355,-2.356276273727417,1.456308364868164,2.6205074787139893,0.9850848913192749,0.021969959139823914,0.1706600785255432,0.8661417961120605,0.6058681607246399,-0.3475857973098755
0.009680058406692773,1.7565830750879243,-1.9441532178008172,-2.136842966079712,1.367680549621582,2.9751083850860596,0.9827451109886169,-0.009679907001554966,0.18471112847328186,0.8030214309692383,0.569982647895813,-0.486499547958374
0.04433479555695563,1.7698304660728037,-1.9304577492175157,-1.8622652292251587,1.3557008504867554,3.2747271060943604,0.9792947769165039,-0.04432027414441109,0.19752834737300873,0.7301931381225586,0.5522547960281372,-0.577029824256897
0.08099563234803143,1.7831668751100411,-1.9202187185324582,-1.6372568607330322,1.4404658079147339,3.4430367946624756,0.9743292331695557,-0.08090709894895554,0.21008676290512085,0.6496331095695496,0.5720112323760986,-0.6111946105957031
0.11825813127438935,1.7977380387985116,-1.9123421045100673,-1.520389199256897,1.6343644857406616,3.451381206512451,0.9675538539886475,-0.11798268556594849,0.22342725098133087,0.5365660786628723,0.6160447597503662,-0.597160816192627
0.15511870225870786,1.814666278906773,-1.9055631730501426,-1.5030062198638916,1.9372159242630005,3.3824641704559326,0.9587592482566833,-0.15449737012386322,0.23856070637702942,0.4245262145996094,0.6473257541656494,-0.5555163621902466
0.19154769507044545,1.8347994072808138,-1.8991876807925556,-1.5356144905090332,2.2948946952819824,3.3394620418548584,0.9476974010467529,-0.19037851691246033,0.2561744451522827,0.35431969165802,0.6410773992538452,-0.5180916786193848
0.22797257330675882,1.8580065396949923,-1.8931011244184375,-1.5827903747558594,2.5645525455474854,3.3324553966522217,0.9342243075370789,-0.2260030210018158,0.2759484350681305,0.30930596590042114,0.6173298954963684,-0.5043268203735352
0.26500769092968324,1.8829292398437683,-1.8874057506531494,-1.6504021883010864,2.6595499515533447,3.407447576522827,0.9184578657150269,-0.2619166970252991,0.296368807554245,0.2788991928100586,0.6024928689002991,-0.5138372182846069
0.3034913079829929,1.9080479705508087,-1.8822471025481922,-1.7320582866668701,2.625882625579834,3.556659460067749,0.9005409479141235,-0.2988537847995758,0.31577253341674805,0.2698844075202942,0.5880841016769409,-0.5444560050964355
0.3438560349692012,1.9326637115690768,-1.877877613717393,-1.7972756624221802,2.5558390617370605,3.7190120220184326,0.8804901838302612,-0.3371199071407318,0.3332974910736084,0.24985039234161377,0.5805280804634094,-0.5977933406829834
0.38585128139125846,1.9569254895792247,-1.8745919879990292,-1.8303669691085815,2.520400285720825,3.846874952316284,0.8582651019096375,-0.37634795904159546,0.3489167094230652,0.20356333255767822,0.5871634483337402,-0.6657198071479797
0.4290206316080603,1.9815494338826505,-1.8728033618089783,-1.8067198991775513,2.5397584438323975,3.9579899311065674,0.8337323069572449,-0.41598039865493774,0.36311283707618713,0.15963011980056763,0.593073844909668,-0.7231286764144897
0.4729820579642824,2.0076582579008964,-1.8731178791576641,-1.7414864301681519,2.6463215351104736,4.0523152351379395,0.8066083788871765,-0.45554298162460327,0.3766478896141052,0.1331804394721985,0.5952523946762085,-0.766021728515625
0.5173086093651759,2.036424889533111,-1.8759899878823691,-1.6579334735870361,2.82319974899292,4.114725112915039,0.7766226530075073,-0.4945426881313324,0.3902362883090973,0.09769058227539062,0.5943353176116943,-0.7924886345863342
0.5614470734793836,2.0685668324072757,-1.8815510654498706,-1.5740398168563843,3.0107598304748535,4.120006084442139,0.7437637448310852,-0.5324116945266724,0.4041694700717926,0.042719900608062744,0.5977041125297546,-0.8048349022865295
0.604843655599348,2.104129287169201,-1.8898463797700018,-1.4868528842926025,3.161667823791504,4.085204601287842,0.7083473801612854,-0.568633496761322,0.41821038722991943,-0.007053494453430176,0.6145777106285095,-0.8065313100814819
0.6470026309467747,2.1426559352444503,-1.900908373763951,-1.4049241542816162,3.209995746612549,4.000555992126465,0.6709461808204651,-0.6027975082397461,0.43181779980659485,-0.04844856262207031,0.6358174681663513,-0.8021638989448547
0.687479353059616,2.182945603507128,-1.9144102139929198,-1.348341941833496,3.15065860748291,3.8734686374664307,0.6325101256370544,-0.6345911026000977,0.4440998136997223,-0.1010923981666565,0.6627742052078247,-0.7880789041519165
0.7263323562868711,2.2241197238886867,-1.9298923271699227,-1.3471691608428955,3.044203042984009,3.7671477794647217,0.5936575531959534,-0.6641321182250977,0.45442211627960205,-0.1504049301147461,0.6831750869750977,-0.7575684785842896
0.7642666873572618,2.2657896868475813,-1.9472493907640793,-1.3934158086776733,2.913419485092163,3.737757921218872,0.5544533729553223,-0.692007839679718,0.4622841477394104,-0.15572595596313477,0.6843326091766357,-0.7187844514846802
0.8020319234456794,2.3081189040303944,-1.966897527455806,-1.4583871364593506,2.762662410736084,3.7691445350646973,0.5146719217300415,-0.7187702655792236,0.4674208462238312,-0.1404653787612915,0.6707966327667236,-0.6828596591949463
0.8399667115868251,2.3516014814037716,-1.989307742183805,-1.540852427482605,2.639559507369995,3.8118715286254883,0.4741479456424713,-0.7446209192276001,0.4698123037815094,-0.14982229471206665,0.6580577492713928,-0.6540316939353943
0.8780536812759889,2.396694634797981,-2.0147018468587516,-1.6300770044326782,2.514158010482788,3.835876703262329,0.4329388737678528,-0.7694973349571228,0.4695081114768982,-0.1880200207233429,0.649441123008728,-0.6327619552612305
0.9160877808715338,2.443307879565791,-2.0431180968853133,-1.7286757230758667,2.3386878967285156,3.8235180377960205,0.39148280024528503,-0.7932254076004028,0.4664060175418854,-0.24159571528434753,0.6291019320487976,-0.6106016635894775
0.9538618882406864,2.4909244359169826,-2.0747380909619446,-1.8139795064926147,2.0752875804901123,3.801408052444458,0.350430428981781,-0.8156558275222778,0.46032992005348206,-0.2991914451122284,0.5901158452033997,-0.5861846208572388
0.9911437139938206,2.5395515788068566,-2.110126962228745,-1.8742703199386597,1.7869013547897339,3.774698257446289,0.3101956844329834,-0.8366529941558838,0.45143184065818787,-0.3468930125236511,0.5426160097122192,-0.565704882144928
1.0275761994831396,2.590339500737767,-2.1503107734179165,-1.8810523748397827,1.5736072063446045,3.756458282470703,0.27072662115097046,-0.8560486435890198,0.4403270483016968,-0.38466396927833557,0.5064545273780823,-0.5653270483016968
1.0621928918045407,2.6454116667141006,-2.196367660420524,-1.772696852684021,1.4670435190200806,3.6825413703918457,0.23182621598243713,-0.8734254240989685,0.4282340407371521,-0.42561280727386475,0.48386865854263306,-0.6071434617042542
1.0934059380995091,2.7064015088891735,-2.2495110906205396,-1.5202821493148804,1.3523826599121094,3.591568946838379,0.1937021017074585,-0.8881969451904297,0.4166361391544342,-0.4676431119441986,0.4234905242919922,-0.6677958965301514
1.1198008015212333,2.774228857721919,-2.310783575461641,-1.180943250656128,1.2545619010925293,3.499778985977173,0.15654227137565613,-0.9000136256217957,0.40677928924560547,-0.489870548248291,0.34988880157470703,-0.6966202259063721
1.1404470701223328,2.849061215211507,-2.379743659413245,-0.8139612078666687,1.2370421886444092,3.379716634750366,0.1203075721859932,-0.9088200926780701,0.39946502447128296,-0.5118023157119751,0.2909610867500305,-0.6799063086509705
1.1548858533291686,2.928929257447122,-2.4534900604596195,-0.47424066066741943,1.2873703241348267,3.1888210773468018,0.08527480810880661,-0.9147488474845886,0.3949216604232788,-0.5382166504859924,0.24592536687850952,-0.6369260549545288
1.1633230181561725,3.010365203648062,-2.5278318300660674,-0.18524110317230225,1.371809720993042,2.9586164951324463,0.051855091005563736,-0.9181250333786011,0.39288341999053955,-0.5556697845458984,0.21599191427230835,-0.5712281465530396
1.1666849391425715,3.0908391472981456,-2.5998825463987223,0.021038034930825233,1.4726008176803589,2.7598299980163574,0.01994778960943222,-0.9194521903991699,0.39269521832466125,-0.5389907360076904,0.2018619179725647,-0.4899548590183258
1.1661202770320944,-3.114006572378786,-2.668546489162353,0.14378505945205688,1.558728575706482,2.6355767250061035,-0.010859843343496323,-0.9192299842834473,0.39357125759124756,-0.4878584146499634,0.18627405166625977,-0.39764535427093506
1.162668309773227,-3.0376830311458782,-2.7343478418812093,0.1946767270565033,1.5962916612625122,2.6004321575164795,-0.041166726499795914,-0.9178653955459595,0.39475128054618835,-0.4323592483997345,0.15819120407104492,-0.30448025465011597
1.1570936264024223,-2.962648485039008,-2.798776007240125,0.17413023114204407,1.5821735858917236,2.6444389820098877,-0.07155273109674454,-0.9156386256217957,0.39558351039886475,-0.39600706100463867,0.1457563042640686,-0.22898799180984497
1.1499252699630074,-2.8886051184121744,-2.862611373058612,0.11105433106422424,1.5380942821502686,2.698349714279175,-0.10226043313741684,-0.9127334356307983,0.39555078744888306,-0.4009133577346802,0.14855802059173584,-0.17075848579406738
1.1414620826268298,-2.816624428430802,-2.9250073825681984,0.0440254732966423,1.4800541400909424,2.692326307296753,-0.1329045593738556,-0.909243106842041,0.3944781422615051,-0.47787418961524963,0.15040838718414307,-0.12088817358016968
1.1319094850878764,-2.7483007885188395,-2.9842431877062245,-0.005070165731012821,1.4227231740951538,2.6197659969329834,-0.16284716129302979,-0.9052252173423767,0.39248958230018616,-0.5730994939804077,0.1641516089439392,-0.09082341194152832
1.1215327558740993,-2.684906250540587,-3.03917975542553,-0.052211157977581024,1.3217973709106445,2.5212173461914062,-0.19151704013347626,-0.9007672071456909,0.3897942304611206,-0.6347768902778625,0.1879834532737732,-0.070275217294693
1.1106724399867929,-2.6264540340037184,-3.0902008590802708,-0.12723186612129211,1.1888171434402466,2.446126699447632,-0.2187681794166565,-0.8959974646568298,0.38643112778663635,-0.660824716091156,0.19836556911468506,-0.03903430700302124
1.0996687244905206,-2.5716236573861035,-3.138863497618542,-0.24965785443782806,1.0823712348937988,2.4241836071014404,-0.2449224591255188,-0.8910570740699768,0.3821391463279724,-0.6664391756057739,0.19002246856689453,-0.0070323944091796875
1.0886854749875887,-2.518520826427575,3.0963954322093405,-0.40154728293418884,1.0129191875457764,2.4328742027282715,-0.2705552279949188,-0.8860182166099548,0.3765259385108948,-0.6715528964996338,0.17752206325531006,0.0026396512985229492
1.0777044261304167,-2.4671917009035056,3.0491379119894813,-0.5090191960334778,0.8820010423660278,2.395686626434326,-0.29557475447654724,-0.8808735013008118,0.3697260916233063,-0.7328523397445679,0.15338021516799927,-0.03658103942871094
1.0665759327251505,-2.420404583435256,3.004650862320694,-0.4970232844352722,0.647526741027832,2.27203106880188,-0.3189965486526489,-0.8755514025688171,0.36283746361732483,-0.8438452482223511,0.12083637714385986,-0.10708498954772949
1.054951988850048,-2.3810336789792528,2.965626121064654,-0.3401477634906769,0.41511663794517517,2.0894572734832764,-0.34002354741096497,-0.8698765635490417,0.3573492765426636,-0.9646028280258179,0.11003470420837402,-0.1761665642261505
1.0426307688028393,-2.3503243822495925,2.9340521110673214,-0.0995306447148323,0.2602948248386383,1.8658043146133423,-0.3584316670894623,-0.8637329936027527,0.3542481064796448,-1.0689669847488403,0.11342793703079224,-0.21363845467567444
1.0299509584871158,-2.3280504982903327,2.9103907437296552,0.11658395081758499,0.11904855072498322,1.6177551746368408,-0.3741621673107147,-0.8572737574577332,0.3536725640296936,-1.1470932960510254,0.11677998304367065,-0.20125260949134827
1.0177476350797847,-2.313145612892783,2.8934438006642003,0.2418593168258667,-0.035430241376161575,1.3594841957092285,-0.38707244396209717,-0.8509270548820496,0.35510289669036865,-1.2142764329910278,0.11563652753829956,-0.15116918087005615
1.0068517828841792,-2.304208670202937,2.881556666420612,0.2820752263069153,-0.1970491111278534,1.0911873579025269,-0.3970952033996582,-0.8451532125473022,0.3578151762485504,-1.2809901237487793,0.1080315113067627,-0.09429594874382019
0.9978637784388014,-2.300359641067806,2.8736360030679537,0.27646100521087646,-0.3745064437389374,0.8091320395469666,-0.40411606431007385,-0.8403148651123047,0.36133286356925964,-1.337903618812561,0.10456639528274536,-0.046406716108322144
0.9912632167230746,-2.3015497567146013,2.8691411680099312,0.23216846585273743,-0.6198642253875732,0.4896581172943115,-0.40780705213546753,-0.8367184400558472,0.3655073940753937,-1.3934166431427002,0.10054290294647217,-0.02155911922454834
0.9874958321194762,-2.308230862378541,2.868155478460033,0.1845940202474594,-0.8757058382034302,0.1273142695426941,-0.4076864719390869,-0.8346493244171143,0.37034082412719727,-1.4442269802093506,0.10175442695617676,-0.016855835914611816
0.9869121542455113,-2.3207238250206204,2.871280050251957,0.14226654171943665,-1.0889701843261719,-0.28330373764038086,-0.4033844769001007,-0.8343276977539062,0.37573692202568054,-1.4717681407928467,0.10318756103515625,-0.02826380729675293
0.9896295824115394,-2.338945730023584,2.879199928725729,0.11227881908416748,-1.2129642963409424,-0.7115411162376404,-0.3948392868041992,-0.8358227014541626,0.381447970867157,-1.4644746780395508,0.10219526290893555,-0.04944723844528198
0.9955478080833763,-2.362489483201199,2.8925531660582036,0.09347762167453766,-1.2384742498397827,-1.151278018951416,-0.38226741552352905,-0.8390571475028992,0.38711071014404297,-1.4284014701843262,0.10814589262008667,-0.07610622048377991
1.0044804200038588,-2.390982288385203,2.9120816092730566,0.07861292362213135,-1.1492010354995728,-1.5956597328186035,-0.3659569323062897,-0.8438833355903625,0.3923473060131073,-1.3639166355133057,0.11930447816848755,-0.09817314147949219
1.0160584686914536,-2.423846610049906,2.938340100987088,0.07547271251678467,-0.9582609534263611,-2.0142202377319336,-0.34641799330711365,-0.8500385284423828,0.3967733085155487,-1.278124213218689,0.1323871612548828,-0.1150655746459961
1.0295987679521683,-2.460709202667001,2.9715676658867944,0.08006641268730164,-0.7417885661125183,-2.354095220565796,-0.32428449392318726,-0.8570923805236816,0.4002901613712311,-1.1797590255737305,0.14517825841903687,-0.13133883476257324
1.044358610792476,-2.5019326912405164,3.011737024126955,0.09219040721654892,-0.5908780097961426,-2.66462779045105,-0.29992765188217163,-0.8646024465560913,0.4031201899051666,-1.0739431381225586,0.16034835577011108,-0.14703205227851868
1.059733455344744,-2.5485315198361596,3.059041543566241,0.11136943101882935,-0.515758752822876,-2.914438247680664,-0.2733614146709442,-0.8722251653671265,0.4055818021297455,-0.9946744441986084,0.17953729629516602,-0.17537254095077515
1.0748398700209612,-2.6012863611850556,3.113357794288904,0.15373189747333527,-0.5273961424827576,-3.105703592300415,-0.24478837847709656,-0.8795139789581299,0.40808534622192383,-0.922661542892456,0.20853930711746216,-0.2187390923500061
1.088826970282671,-2.6611925927109805,-3.1085549988807264,0.22148191928863525,-0.6366389989852905,-3.2594282627105713,-0.21421058475971222,-0.8860837817192078,0.4110585153102875,-0.8575361967086792,0.22566825151443481,-0.2763999104499817
1.1008833839151506,-2.7288606014861565,-3.040465843446754,0.3021604120731354,-0.7906180620193481,-3.386164665222168,-0.1816277652978897,-0.8916077017784119,0.41478586196899414,-0.8012824058532715,0.23662406206130981,-0.3345246911048889
1.1102546098159554,-2.8041098100658153,-2.966068306815888,0.40170934796333313,-0.950965404510498,-3.489361047744751,-0.14715774357318878,-0.8958118557929993,0.4193636476993561,-0.7545604109764099,0.24926632642745972,-0.38287991285324097
1.1162392246402897,-2.8859207281500217,-2.8861936990715376,0.5142965316772461,-1.0619711875915527,-3.5866453647613525,-0.1110374704003334,-0.8984555602073669,0.4247921407222748,-0.7113959789276123,0.2647121548652649,-0.42248815298080444
1.1183591337237242,-2.972566976616121,-2.8020415183084304,0.6217454671859741,-1.1230789422988892,-3.690234899520874,-0.07353971898555756,-0.8993843197822571,0.43092888593673706,-0.6730117797851562,0.2846534848213196,-0.44809508323669434
1.1164171171346748,-3.062310176895693,-2.7148969003408636,0.698280930519104,-1.1435543298721313,-3.81351900100708,-0.03476103022694588,-0.8985336422920227,0.43752628564834595,-0.6464523673057556,0.30109095573425293,-0.44993168115615845
1.1105769048624097,3.130001746419328,-2.626380558285531,0.7208977937698364,-1.1389018297195435,-3.9388184547424316,0.005147923249751329,-0.8959550857543945,0.4441147446632385,-0.6250514984130859,0.3279009461402893,-0.43067172169685364
1.10119732690854,3.0392802120460396,-2.537626040858369,0.6855886578559875,-1.1329550743103027,-4.096826076507568,0.04621854051947594,-0.8917497992515564,0.450161874294281,-0.6217342615127563,0.3587452173233032,-0.40292081236839294
1.0885471182235233,2.9489795762062574,-2.448920895183753,0.61868816614151,-1.1678650379180908,-4.304855823516846,0.08877737820148468,-0.8859540224075317,0.4551963806152344,-0.6357133984565735,0.37936240434646606,-0.38802728056907654
1.0724198286559956,2.859055279924653,-2.360719704372375,0.5600965023040771,-1.2608439922332764,-4.5236992835998535,0.13326320052146912,-0.8783597350120544,0.4590478241443634,-0.6357045769691467,0.4036436676979065,-0.3889032006263733
1.0522805657044627,2.770140662071035,-2.273953420048501,0.5404202938079834,-1.3556671142578125,-4.742820739746094,0.17988422513008118,-0.8685557246208191,0.4617927372455597,-0.6119062900543213,0.43278002738952637,-0.4127815365791321
1.0276156326656853,2.684112059894942,-2.190515880946432,0.5757375955581665,-1.4501655101776123,-4.942358493804932,0.22829222679138184,-0.856069028377533,0.46371185779571533,-0.5674798488616943,0.4790852665901184,-0.4706241488456726
0.9981079847529076,2.6030119433837755,-2.1124814653290405,0.6623595952987671,-1.5096570253372192,-5.0901875495910645,0.2779468595981598,-0.8404472470283508,0.46518146991729736,-0.4888843894004822,0.5388879179954529,-0.5447714328765869
0.9639636086365412,2.529331414416792,-2.0421882701544454,0.8137630820274353,-1.529829978942871,-5.138895034790039,0.3277445435523987,-0.8214583396911621,0.46667975187301636,-0.3827371299266815,0.5807508230209351,-0.6058551669120789
0.9257943459558161,2.4644158642912073,-1.9814439680463471,1.0072193145751953,-1.6049396991729736,-5.094225883483887,0.3767092227935791,-0.799098551273346,0.46854227781295776,-0.2615968585014343,0.6032519340515137,-0.6556760668754578
0.8846288317386508,2.408068920974473,-1.9309826587116805,1.2088950872421265,-1.7127289772033691,-4.942572593688965,0.4241742491722107,-0.7736798524856567,0.4706335961818695,-0.13541686534881592,0.6241130828857422,-0.6764898896217346
0.841961187853091,2.359522266198085,-1.8905623378086476,1.358826994895935,-1.842305302619934,-4.702075958251953,0.4693639576435089,-0.7459506988525391,0.4724982678890228,-0.022510409355163574,0.6459142565727234,-0.6529946327209473
0.7991844420055921,2.316814726244753,-1.8587193303726686,1.4362863302230835,-2.03786563873291,-4.441221714019775,0.5120887160301208,-0.7167876362800598,0.4732656478881836,0.041332244873046875,0.6536315679550171,-0.6118307709693909
0.7571799735042128,2.277369343128512,-1.8335488849532808,1.4485185146331787,-2.304386615753174,-4.196770668029785,0.5527794361114502,-0.6868746280670166,0.47184550762176514,0.047333478927612305,0.6485750675201416,-0.5621166229248047
0.7163253700745212,2.2392819529951105,-1.8134086014361424,1.4215948581695557,-2.587979316711426,-3.9936776161193848,0.5918854475021362,-0.6566176414489746,0.4674665629863739,0.01518547534942627,0.6542525291442871,-0.5267622470855713
0.6764387837780746,2.2013694239187402,-1.7970079900315359,1.3982703685760498,-2.8731727600097656,-3.8700320720672607,0.6298423409461975,-0.6260199546813965,0.45978039503097534,-0.047170042991638184,0.6623509526252747,-0.5190759897232056
0.6368629272951619,2.162997852564257,-1.783597923481671,1.4007633924484253,-3.1441006660461426,-3.8159990310668945,0.6670610904693604,-0.5946762561798096,0.4487645626068115,-0.11280083656311035,0.6678269505500793,-0.525226354598999
0.5968958691363617,2.124161199398639,-1.7727475787501794,1.441422700881958,-3.326209306716919,-3.842898368835449,0.703650951385498,-0.5620778203010559,0.43467652797698975,-0.16164356470108032,0.6849568486213684,-0.5460505485534668
0.5559043576278639,2.0859006900119943,-1.764136179989191,1.4772285223007202,-3.3433167934417725,-3.9291200637817383,0.7392036318778992,-0.5277116894721985,0.41844794154167175,-0.1784125566482544,0.7226731777191162,-0.5685028433799744
0.513700201394421,2.049464432629341,-1.7571883982067662,1.4795585870742798,-3.2028238773345947,-4.042537212371826,0.7730473279953003,-0.4914032220840454,0.40114903450012207,-0.18460744619369507,0.7532745599746704,-0.5665848255157471
0.4701048512007526,2.0155788943694835,-1.751302767074565,1.463580846786499,-2.991849899291992,-4.207338809967041,0.8047794699668884,-0.45297977328300476,0.383587121963501,-0.16873228549957275,0.7733838558197021,-0.5648158192634583
0.4247769274105834,1.9846970361846692,-1.7460777470278344,1.4392083883285522,-2.702089548110962,-4.399623394012451,0.8341938257217407,-0.41211754083633423,0.36644187569618225,-0.1206929087638855,0.8058096170425415,-0.5559256076812744
0.37776080283164937,1.957645271878683,-1.7412573968547365,1.3927258253097534,-2.301631450653076,-4.570574760437012,0.8608055710792542,-0.3688400685787201,0.3506717085838318,-0.057338833808898926,0.835408091545105,-0.5370121002197266
0.3295176041393144,1.9352730604640724,-1.7366679747563363,1.3378630876541138,-1.8526657819747925,-4.685232639312744,0.8840432167053223,-0.3235866129398346,0.3372823894023895,0.021352291107177734,0.8466731309890747,-0.5243856906890869
0.2806272737235734,1.9171951613487421,-1.7325491875686225,1.3228211402893066,-1.5162233114242554,-4.714379787445068,0.9038069844245911,-0.2769584357738495,0.3262316882610321,0.12194985151290894,0.8402213454246521,-0.5262439250946045
0.23192921813588877,1.9025621407375357,-1.7295827608229786,1.3730789422988892,-1.2586207389831543,-4.6114726066589355,0.9201532602310181,-0.2298555076122284,0.316991925239563,0.24998199939727783,0.8192415237426758,-0.5332244634628296
0.1846809555139356,1.8907360186194861,-1.7286908249530484,1.482761025428772,-1.0747929811477661,-4.34183931350708,0.9331122636795044,-0.18363292515277863,0.30916106700897217,0.40490055084228516,0.7841730713844299,-0.5271940231323242
0.1405830389838654,1.8805929659044618,-1.7305445254055707,1.5825425386428833,-1.024304986000061,-3.883470058441162,0.9429996609687805,-0.14012043178081512,0.3018572926521301,0.5506831407546997,0.7288045287132263,-0.4904254972934723
0.10115669707080314,1.870404311807589,-1.7351834060599114,1.645151138305664,-1.1406642198562622,-3.3330228328704834,0.9505681395530701,-0.10098426789045334,0.2936369478702545,0.6384517550468445,0.6642929315567017,-0.4337737262248993
0.06682716416649408,1.858155727563968,-1.742168265006845,1.6639666557312012,-1.433963418006897,-2.8299996852874756,0.9568551182746887,-0.06677743792533875,0.2827882766723633,0.6345908045768738,0.6244251132011414,-0.37841522693634033
0.03644993899613039,1.8426054877725702,-1.7508853683953218,1.679611086845398,-1.7474207878112793,-2.545870780944824,0.9626468420028687,-0.036441870033741,0.2682962715625763,0.5533290505409241,0.6293373703956604,-0.35495105385780334
0.007694031382949984,1.824061582769281,-1.760666814425089,1.69020676612854,-1.982103943824768,-2.507395029067993,0.9680708050727844,-0.007693955674767494,0.2505589723587036,0.4440690875053406,0.6882664561271667,-0.35625672340393066
-0.021075236388281546,1.8034065195982125,-1.7709629378820757,1.6793674230575562,-2.1026105880737305,-2.567915916442871,0.9728518128395081,0.021073676645755768,0.23046699166297913,0.4073513150215149,0.7493120431900024,-0.3330824375152588
-0.04999191669656623,1.7820542279031295,-1.781616548096393,1.6626982688903809,-2.066112756729126,-2.5741467475891113,0.9765462875366211,0.049971096217632294,0.20942801237106323,0.49122709035873413,0.7506117820739746,-0.3023998737335205
-0.07814685567802142,1.761068849007123,-1.7930078975733479,1.6795759201049805,-1.9628467559814453,-2.4566726684570312,0.9789558053016663,0.0780673399567604,0.18854929506778717,0.653337836265564,0.7128109335899353,-0.2690852880477905
-0.10432898863845898,1.7407408052672313,-1.8056982647006845,1.7375966310501099,-1.8564904928207397,-2.2149569988250732,0.9802350401878357,0.10413982719182968,0.16820800304412842,0.8257188200950623,0.6600508093833923,-0.20902539789676666
-0.1275875509969265,1.7211780628420141,-1.8199123418487293,1.7765417098999023,-1.7089992761611938,-1.9129623174667358,0.9806774854660034,0.12724167108535767,0.1485978364944458,0.9525348544120789,0.6277326345443726,-0.1208115816116333
-0.14749613873151446,1.7028628298951112,-1.8350030969668585,1.7170584201812744,-1.5349370241165161,-1.598472237586975,0.9805285334587097,0.14696192741394043,0.1302531361579895,1.020066499710083,0.6261551380157471,-0.004993811249732971
-0.16398803062300799,1.6859231409971667,-1.849647330086455,1.542635440826416,-1.3885666131973267,-1.316802740097046,0.9800530672073364,0.1632540225982666,0.11333153396844864,1.0470006465911865,0.6319119334220886,0.11345969885587692
-0.1775211975266086,1.6704413418324247,-1.862865011733906,1.3293075561523438,-1.2508753538131714,-1.0954228639602661,0.9794019460678101,0.17659027874469757,0.09791681170463562,1.0403428077697754,0.6303097009658813,0.203718900680542
-0.18870949887594543,1.6564259839650175,-1.8745026518131027,1.157802700996399,-1.1245486736297607,-0.920539915561676,0.9786481857299805,0.18759146332740784,0.08400673419237137,1.029850959777832,0.6242981553077698,0.24300432205200195
-0.19804033809856494,1.6437318098337232,-1.8850820804271027,1.0663363933563232,-1.0039255619049072,-0.76932692527771,0.9778473377227783,0.19674834609031677,0.0714465007185936,1.0462310314178467,0.6343368291854858,0.2526196241378784
-0.20557090313571347,1.632027728018521,-1.8953222944192665,1.0360603332519531,-0.9215472340583801,-0.5897167921066284,0.9771099090576172,0.20412607491016388,0.05990469455718994,1.0874041318893433,0.654592752456665,0.261185884475708
-0.21088777374299134,1.621074621687179,-1.9055586049016082,1.0144330263137817,-0.8406947255134583,-0.34849831461906433,0.9766097664833069,0.2093280851840973,0.04914369061589241,1.1637558937072754,0.6756816506385803,0.29211902618408203
-0.21328012676882233,1.6110426154296045,-1.9155379528822536,0.9358922243118286,-0.7349363565444946,-0.03260794281959534,0.9765503406524658,0.21166683733463287,0.03932375833392143,1.2505766153335571,0.681964099407196,0.3584880828857422
-0.21212822385741448,1.602672938910508,-1.9242693375969881,0.7444466352462769,-0.5602627992630005,0.32445377111434937,0.9770883917808533,0.21054089069366455,0.03115682117640972,1.3186421394348145,0.677841067314148,0.44653475284576416
-0.2073288874758471,1.5969015978039567,-1.9306763166643996,0.47352686524391174,-0.3205641806125641,0.6640737652778625,0.9782508611679077,0.20584672689437866,0.02554330602288246,1.3419548273086548,0.6773014068603516,0.518844485282898
-0.19923459367700133,1.594354750906528,-1.9342470096770077,0.18500851094722748,-0.042385537177324295,0.9598878026008606,0.9799463152885437,0.19791913032531738,0.023090261965990067,1.3201024532318115,0.6921412348747253,0.5482139587402344
-0.18831177545382732,1.5951505526809318,-1.9351433382924472,-0.05548753961920738,0.23807351291179657,1.2182334661483765,0.9820303320884705,0.18720078468322754,0.023921318352222443,1.2736916542053223,0.7283875942230225,0.5340466499328613
-0.17486630107717752,1.5991573484154318,-1.9339422482455069,-0.24672727286815643,0.516455352306366,1.4554436206817627,0.9843536615371704,0.17397648096084595,0.027924763038754463,1.2287657260894775,0.7643321752548218,0.5001055002212524
-0.15908766864931334,1.6060107439820248,-1.9311321202847778,-0.405308336019516,0.7479483485221863,1.668234944343567,0.9867599606513977,0.1584174633026123,0.03476254642009735,1.187037467956543,0.8064414858818054,0.46070563793182373
-0.14108183341746758,1.6151228280097616,-1.926901390291349,-0.5758838653564453,0.9388387203216553,1.8871753215789795,0.9890918731689453,0.14061428606510162,0.043871719390153885,1.1419963836669922,0.8501235842704773,0.43613922595977783
-0.12068981302411787,1.6262708928221008,-1.9209714087171907,-0.8051400780677795,1.133277416229248,2.110537052154541,0.9911986589431763,0.12039703130722046,0.05504278838634491,1.1060760021209717,0.8717293739318848,0.4293016195297241
-0.09797106946183318,1.6396442893023024,-1.9128669781993277,-1.0829436779022217,1.3606081008911133,2.308232307434082,0.9928469657897949,0.0978144183754921,0.06846369802951813,1.0554471015930176,0.8742467164993286,0.41372931003570557
-0.07301122937100725,1.6554296351080575,-1.902442189648451,-1.363049864768982,1.614559531211853,2.4945456981658936,0.993766188621521,0.07294637709856033,0.08430710434913635,0.9951711893081665,0.876745343208313,0.361295223236084
-0.04572490559384877,1.6737816628112108,-1.8898819243897647,-1.6355247497558594,1.8923532962799072,2.6848413944244385,0.9936619400978088,0.045708972960710526,0.10269593447446823,0.9311884641647339,0.8909059762954712,0.2765153646469116
-0.016117459754278318,1.694509714999232,-1.875376589282398,-1.9035300016403198,2.1508517265319824,2.8510031700134277,0.9922285079956055,0.016116762533783913,0.12338204681873322,0.8485766649246216,0.8949549794197083,0.1785588413476944
0.015632235294456943,1.7173309540138375,-1.8591224510249378,-2.153031587600708,2.3926618099212646,2.9795420169830322,0.9891621470451355,-0.015631599351763725,0.1459929496049881,0.7429087162017822,0.8920658826828003,0.06506657600402832
0.04923760080284433,1.741808498521491,-1.8416537454227717,-2.3296990394592285,2.5903255939483643,3.087113618850708,0.9842188358306885,-0.04921770840883255,0.16997361183166504,0.6368443965911865,0.883415699005127,-0.06645798683166504
0.0844926240211232,1.7673453690134935,-1.8239824712122314,-2.3920791149139404,2.723634719848633,3.176961898803711,0.9772475361824036,-0.08439213037490845,0.194589301943779,0.5483718514442444,0.8679004311561584,-0.21683670580387115
0.12101939191436259,1.7932427674976614,-1.807472889504965,-2.3091232776641846,2.7585952281951904,3.265841245651245,0.9682267308235168,-0.12072420865297318,0.219002828001976,0.47935909032821655,0.8545804023742676,-0.366036593914032
0.15861586687684825,1.8186456264854847,-1.7934436523523123,-2.128652811050415,2.6833670139312744,3.386003017425537,0.9572727084159851,-0.15795159339904785,0.24224001169204712,0.4492519497871399,0.8414385318756104,-0.4794989824295044
0.19746000143770845,1.84304976743106,-1.7824767727527966,-1.95294189453125,2.5630388259887695,3.5459372997283936,0.9444513320922852,-0.1961793303489685,0.26367729902267456,0.45317763090133667,0.8286255598068237,-0.5326135158538818
0.2376287615479355,1.8662330006622354,-1.7741353305223868,-1.8644973039627075,2.418660879135132,3.6835291385650635,0.9297913312911987,-0.23539867997169495,0.2829757332801819,0.4441556930541992,0.8331465125083923,-0.5366989374160767
0.2791598192195777,1.8884981896084805,-1.7674247650810393,-1.885403037071228,2.3826253414154053,3.8235719203948975,0.9131804704666138,-0.2755481004714966,0.3002910315990448,0.39944159984588623,0.8517352342605591,-0.5136853456497192
0.32249821480722474,1.9110399878388609,-1.761437195015809,-1.9937090873718262,2.467780113220215,3.9913759231567383,0.8940751552581787,-0.3169369697570801,0.31651246547698975,0.37124449014663696,0.8514066338539124,-0.4899898171424866
0.368163073019877,1.9343031527133991,-1.7557931345109201,-2.1403822898864746,2.543948173522949,4.191411972045898,0.8720244765281677,-0.35990220308303833,0.33172842860221863,0.3551941514015198,0.8435600399971008,-0.5103631019592285
0.41638501471292877,1.9580391933434247,-1.7505870332539484,-2.2767863273620605,2.5795159339904785,4.4040398597717285,0.8468376994132996,-0.4044570028781891,0.3453705310821533,0.32889795303344727,0.8450239300727844,-0.5790283679962158
0.4671553329001128,1.9820991367523122,-1.7463115657466284,-2.3615007400512695,2.5759923458099365,4.620863914489746,0.8183894753456116,-0.45034822821617126,0.35696592926979065,0.2808077335357666,0.8422856330871582,-0.6741658449172974
0.5201076531679635,2.006437135241548,-1.7437886859223375,-2.3681349754333496,2.5034382343292236,4.8179802894592285,0.7867160439491272,-0.49697354435920715,0.3661896288394928,0.21207839250564575,0.8260294198989868,-0.7725313305854797
0.5745044080521138,2.031139195901919,-1.744078397736697,-2.2744851112365723,2.3851137161254883,4.973660469055176,0.7520740032196045,-0.543418824672699,0.37293535470962524,0.13682687282562256,0.8175734281539917,-0.867228627204895
0.6295717015815937,2.056776773007034,-1.7483358156249638,-2.097522735595703,2.2386460304260254,5.117593765258789,0.7146950960159302,-0.5887986421585083,0.37752771377563477,0.06644809246063232,0.8156205415725708,-0.9436899423599243
0.6848607003721273,2.084036596337659,-1.7576662373998382,-1.8865758180618286,2.0500080585479736,5.2620038986206055,0.6747182607650757,-0.6325651407241821,0.3802850842475891,0.020273864269256592,0.8171353936195374,-0.9843042492866516
0.7400420443286,2.1136540120231944,-1.7729715921768043,-1.6615585088729858,1.8589701652526855,5.402347087860107,0.6322792768478394,-0.6743189692497253,0.38146722316741943,-0.020386457443237305,0.8236261010169983,-0.9893621802330017
0.7947954854783765,2.146949208658189,-1.7951078499008666,-1.4422250986099243,1.7202900648117065,5.536614894866943,0.5873566269874573,-0.7137203812599182,0.38159605860710144,-0.0533599853515625,0.8383389115333557,-0.9741253852844238
0.848844138903616,2.1857157782500347,-1.8249016627043224,-1.259042501449585,1.6639567613601685,5.645415782928467,0.5397962927818298,-0.7505170702934265,0.3812401592731476,-0.07457107305526733,0.8636762499809265,-0.9390405416488647
0.9016927076220846,2.2314949452152337,-1.8627619824194812,-1.131911277770996,1.6659252643585205,5.688311576843262,0.4897531270980835,-0.7843779921531677,0.38064834475517273,-0.12052085995674133,0.8936460614204407,-0.9003475308418274
0.952701647143238,2.2854628751502273,-1.9090958068144357,-1.042691946029663,1.7126580476760864,5.679542064666748,0.4376906454563141,-0.8149840235710144,0.37977346777915955,-0.18389123678207397,0.9147155284881592,-0.8650945425033569
1.0012221987939358,2.3493066866145584,-1.9645405616780556,-0.9860612750053406,1.8521169424057007,5.608330249786377,0.38394126296043396,-0.842130720615387,0.37868833541870117,-0.26171836256980896,0.9125653505325317,-0.8268694877624512
1.0463402513654394,2.4240737750589263,-2.0295751180479926,-0.9411588311195374,1.9690537452697754,5.45621919631958,0.32924675941467285,-0.8655964136123657,0.37727901339530945,-0.35869619250297546,0.8902088403701782,-0.7973078489303589
1.0871375563378352,2.5098268860313344,-2.10470976470538,-0.8893815875053406,1.9901567697525024,5.27134895324707,0.2746279239654541,-0.8852994441986084,0.3752656877040863,-0.4328615665435791,0.8540494441986084,-0.7701174020767212
1.123050381472548,2.606494267076534,-2.1909358088581476,-0.8300221562385559,1.905152440071106,5.116560935974121,0.22076445817947388,-0.9014252424240112,0.3724183142185211,-0.4589083790779114,0.8304261565208435,-0.7439851760864258
1.1537237897752963,2.714258420363503,-2.289407793104445,-0.7811033129692078,1.7398070096969604,5.008481502532959,0.16788600385189056,-0.9142787456512451,0.36865735054016113,-0.44767117500305176,0.8149289488792419,-0.7080740332603455
1.1788004000932415,2.833074898942421,-2.4008575766117914,-0.7395548224449158,1.5111721754074097,4.952143669128418,0.11600321531295776,-0.9241483807563782,0.36399567127227783,-0.41531962156295776,0.7913817763328552,-0.6687442064285278
1.1978013001588654,2.962549748715546,-2.525546410651696,-0.6971592903137207,1.2305991649627686,4.9761271476745605,0.06489623337984085,-0.9312401413917542,0.3585805296897888,-0.36142027378082275,0.7625238299369812,-0.6227560639381409
1.2100848287156525,3.101976428562795,-2.663295758284718,-0.6642410159111023,0.930100679397583,5.101554870605469,0.013978512957692146,-0.9356459379196167,0.3526635468006134,-0.2889876365661621,0.7309491634368896,-0.5676141977310181
1.2148018850014337,-3.033256494820043,-2.8129009998877312,-0.6371311545372009,0.6381780505180359,5.335142135620117,-0.03768378496170044,-0.9373003840446472,0.3464793562889099,-0.21115651726722717,0.7075793147087097,-0.5095958709716797
1.210770455142319,-2.880094247517293,-2.970687446210924,-0.5993539094924927,0.44585782289505005,5.644432067871094,-0.09107929468154907,-0.9358876943588257,0.34032222628593445,-0.13868758082389832,0.7019397020339966,-0.4620720446109772
1.196875193854814,-2.727773651542316,-3.129094835030669,-0.5419619679450989,0.46692898869514465,5.947278022766113,-0.1468777060508728,-0.9309022426605225,0.3344368636608124,-0.09784272313117981,0.7147156596183777,-0.42833948135375977
1.1729626769832298,-2.5836127697059745,3.004781750755204,-0.48155662417411804,0.7065495848655701,6.158163070678711,-0.20512987673282623,-0.9219024777412415,0.32866060733795166,-0.11014723777770996,0.7416960000991821,-0.4068467319011688
1.140280514447918,-2.453640332786549,2.872637318572355,-0.41204389929771423,1.1005703210830688,6.219379425048828,-0.26499271392822266,-0.908750593662262,0.3224150240421295,-0.17349916696548462,0.7917003035545349,-0.3993804156780243
1.10097761834345,-2.340653568049023,2.7623737938031505,-0.2991229295730591,1.638515591621399,6.087925434112549,-0.32506072521209717,-0.891650378704071,0.31511107087135315,-0.30039694905281067,0.8446991443634033,-0.4112568199634552
1.0577903828781834,-2.2447970154053523,2.675533307945858,-0.13395459949970245,2.192657470703125,5.743585586547852,-0.38347598910331726,-0.8712731599807739,0.30631551146507263,-0.5022356510162354,0.8289300799369812,-0.4307204782962799
1.0135553497486312,-2.1647515100261656,2.6105704274775596,0.03920998424291611,2.586886405944824,5.256288051605225,-0.43827319145202637,-0.848717451095581,0.2959655523300171,-0.7289174199104309,0.7449575662612915,-0.4418853223323822
0.9704550541842452,-2.0990037720596613,2.563890406895567,0.22136467695236206,2.6894848346710205,4.727748394012451,-0.4879317283630371,-0.8251428604125977,0.28471383452415466,-0.9036393165588379,0.6303796768188477,-0.43119823932647705
0.9295432921173292,-2.046459390800462,2.5315405416904038,0.4151301383972168,2.497762441635132,4.235368728637695,-0.5317933559417725,-0.8013468384742737,0.2739325165748596,-1.03700852394104,0.5008554458618164,-0.40633320808410645
0.891055387005798,-2.006615660931015,2.5101609491824983,0.6109592914581299,2.053316354751587,3.8123772144317627,-0.5698336362838745,-0.7777355909347534,0.2653619945049286,-1.117727279663086,0.3942669630050659,-0.372234582901001
0.8552585982841554,-1.9785186384584341,2.496978610497702,0.7590296864509583,1.5411312580108643,3.3871524333953857,-0.6022469401359558,-0.7547405958175659,0.2601260542869568,-1.172426700592041,0.3215281367301941,-0.3037814795970917
0.8229814812107168,-1.9595985913923395,2.4893969976314496,0.7873386144638062,1.1242061853408813,2.942294120788574,-0.6292828321456909,-0.733176589012146,0.25778916478157043,-1.214482307434082,0.2997201681137085,-0.2088695764541626
0.794495613373607,-1.9463406647795074,2.484743578241788,0.7248960137367249,0.8676944375038147,2.580836057662964,-0.6518154144287109,-0.713510274887085,0.256981760263443,-1.1863040924072266,0.34479695558547974,-0.11571601033210754
0.7693371756120337,-1.9353359666629455,2.4810725315233793,0.596320390701294,0.8425050377845764,2.2835280895233154,-0.6711664795875549,-0.6956592202186584,0.2561134696006775,-1.1445989608764648,0.39432859420776367,-0.021112889051437378
0.7476176277914036,-1.9235256105627472,2.477129257092585,0.3826312720775604,0.975302517414093,1.9634116888046265,-0.6881633400917053,-0.6798936724662781,0.2533298134803772,-1.178520679473877,0.3829118013381958,0.06757774949073792
0.7299386216172931,-1.9100070729493686,2.4723945954786153,0.1569923609495163,1.0725822448730469,1.580594539642334,-0.702751100063324,-0.6668239235877991,0.24796509742736816,-1.2765274047851562,0.3529353737831116,0.10112546384334564
0.7167343103411401,-1.8961640573870298,2.4674512276541014,0.018413972109556198,1.0186015367507935,1.1414192914962769,-0.7143972516059875,-0.6569259762763977,0.24100711941719055,-1.3801155090332031,0.373494029045105,0.0594383180141449
0.7081014410292231,-1.8841501120328255,2.4637065980701114,0.0005323267541825771,0.8818780183792114,0.6662788987159729,-0.7226095199584961,-0.6503928303718567,0.23414672911167145,-1.454361915588379,0.3749716281890869,-0.018753767013549805
0.7038953861840056,-1.8754003123491465,2.4624209529330487,0.07614932954311371,0.6890659332275391,0.18853652477264404,-0.72723388671875,-0.647192120552063,0.22863361239433289,-1.49798583984375,0.3567105531692505,-0.08562827110290527
0.7039740834367342,-1.8707610541333162,2.4642132258895364,0.17968721687793732,0.4662487506866455,-0.28112584352493286,-0.7282382249832153,-0.6472521424293518,0.22524233162403107,-1.4889249801635742,0.35202497243881226,-0.12427493929862976
0.7080743205622988,-1.8703994481013406,2.469018755334918,0.2688109576702118,0.22994674742221832,-0.7135270833969116,-0.7257777452468872,-0.6503722071647644,0.22419379651546478,-1.4353855848312378,0.35961592197418213,-0.1365625560283661
0.715734789763653,-1.8739054709871743,2.4763420689291116,0.3259626030921936,0.03360041603446007,-1.0649914741516113,-0.7202109694480896,-0.6561720967292786,0.2252432405948639,-1.3410072326660156,0.3709242343902588,-0.12476420402526855
0.7263408968803264,-1.8801929797513224,2.4854735324189963,0.3380027711391449,-0.07464110106229782,-1.360597014427185,-0.712111234664917,-0.6641384959220886,0.22763517498970032,-1.2407238483428955,0.38369715213775635,-0.09998011589050293
0.7395940140866977,-1.8882802302180104,2.4959978172604598,0.32647547125816345,-0.13107576966285706,-1.6363677978515625,-0.7018229961395264,-0.6739880442619324,0.23061855137348175,-1.1690418720245361,0.4160991907119751,-0.08646878600120544
0.7553947122895958,-1.8978417454115177,2.5078038425202416,0.311117559671402,-0.1784864366054535,-1.899617314338684,-0.6894136667251587,-0.6855760812759399,0.23386770486831665,-1.1146328449249268,0.46008169651031494,-0.08738341927528381
0.7735360735068303,-1.909032749659407,2.5209787548492084,0.2975976765155792,-0.2376529574394226,-2.1348702907562256,-0.6749083399772644,-0.6986694931983948,0.23740161955356598,-1.0642120838165283,0.4869232773780823,-0.09493042528629303
0.7937396075206483,-1.9222153462661598,2.535505532731178,0.27180495858192444,-0.3523918092250824,-2.3444955348968506,-0.6583311557769775,-0.7129803895950317,0.2413688451051712,-1.0116822719573975,0.4974347949028015,-0.10336841642856598
0.8156742652695048,-1.9380789834265992,2.551344160043497,0.23718975484371185,-0.5391240119934082,-2.515220880508423,-0.6396672129631042,-0.7281879186630249,0.24610576033592224,-0.961651086807251,0.4942706823348999,-0.11484983563423157
0.8389899675610974,-1.957279138943858,2.568520782325532,0.2107568234205246,-0.7792072296142578,-2.657776355743408,-0.6189274191856384,-0.7439686059951782,0.25187212228775024,-0.9124904274940491,0.4927021265029907,-0.13903343677520752
0.8633253669056228,-1.980898139498189,2.587396071378188,0.19743666052818298,-1.1091480255126953,-2.77414870262146,-0.5960233211517334,-0.7600079774856567,0.25912246108055115,-0.8647921681404114,0.4949321150779724,-0.18172988295555115
0.8883139971922367,-2.0099696775523324,2.6083505820883275,0.1906285583972931,-1.4780431985855103,-2.8625946044921875,-0.5708680748939514,-0.7760094404220581,0.2681773006916046,-0.8119748830795288,0.4910820722579956,-0.23033547401428223
0.9135244520029365,-2.044919168118466,2.6316909845589236,0.18584010004997253,-1.836988091468811,-2.9201419353485107,-0.5435667037963867,-0.7916619777679443,0.27893856167793274,-0.7484865188598633,0.48427361249923706,-0.26894402503967285
0.9386314133201019,-2.0856578936346892,2.657556246736097,0.1615118533372879,-2.1606640815734863,-2.9591681957244873,-0.5142898559570312,-0.8067501783370972,0.2909640073776245,-0.689384400844574,0.48776519298553467,-0.29781535267829895
0.963602081632263,-2.1320375626648898,2.686074624908228,0.12179884314537048,-2.447450876235962,-3.010763168334961,-0.4830378592014313,-0.8212521076202393,0.3036762475967407,-0.6462193131446838,0.49703335762023926,-0.3246266841888428
0.9884740216908449,-2.1838389256467643,2.7177653636960657,0.08052916824817657,-2.6358537673950195,-3.0792603492736816,-0.4498167335987091,-0.8351877331733704,0.3164269030094147,-0.6103180646896362,0.4993571639060974,-0.3468683660030365
1.0131962213844643,-2.240838041993116,2.7535091334314967,0.055292680859565735,-2.7126994132995605,-3.17073917388916,-0.4147465229034424,-0.8485274314880371,0.3286128044128418,-0.5803706049919128,0.5003066658973694,-0.3669276535511017
1.0375916870242956,-2.303110353642041,2.7946758937461857,0.060293298214673996,-2.668733596801758,-3.289170742034912,-0.3779837191104889,-0.8611825704574585,0.33984267711639404,-0.5541452169418335,0.5134499073028564,-0.3923940360546112
1.0613938633031483,-2.3707997290312774,2.842689852127328,0.08778329938650131,-2.514340877532959,-3.4410979747772217,-0.3397519290447235,-0.8730360269546509,0.34982407093048096,-0.5413210391998291,0.5333142280578613,-0.4214336574077606
1.0844528207332846,-2.4446190055551913,2.899396193554716,0.11128702759742737,-2.25972056388855,-3.657949209213257,-0.30002185702323914,-0.88404780626297,0.35839420557022095,-0.5490992069244385,0.5371544361114502,-0.4376941919326782
1.1067935377110878,-2.525573722046339,2.966756916989068,0.10579317063093185,-1.9278620481491089,-3.939150094985962,-0.25857919454574585,-0.894268274307251,0.3652682304382324,-0.5752220153808594,0.5411341786384583,-0.4323001205921173
1.128214733566348,-2.6150074088359285,3.0470120845565782,0.09124778211116791,-1.5116908550262451,-4.268376350402832,-0.21524369716644287,-0.9036490321159363,0.3702549636363983,-0.6130491495132446,0.5667960047721863,-0.4207768440246582
1.1478700512637408,-2.715022176389176,-3.140585565609843,0.09822322428226471,-1.1384038925170898,-4.635064125061035,-0.16981624066829681,-0.9118918180465698,0.37365227937698364,-0.644697904586792,0.6218678951263428,-0.44553646445274353
1.164212426971458,-2.8285627214089075,-3.027608867686035,0.15273280441761017,-0.9007588028907776,-5.012765884399414,-0.12178342044353485,-0.9184771776199341,0.37625613808631897,-0.651806652545929,0.6868486404418945,-0.49619024991989136
1.1749531100043318,-2.9569329140741294,-2.897459680451556,0.2810996472835541,-0.8293695449829102,-5.3429460525512695,-0.07079827785491943,-0.9226717352867126,0.3790307641029358,-0.6314722299575806,0.7405581474304199,-0.5624872446060181
1.1774418669504159,-3.0978640967274984,-2.7542460239757665,0.48449084162712097,-0.9228283762931824,-5.610941410064697,-0.01675531640648842,-0.9236285090446472,0.3829222023487091,-0.5875232219696045,0.7884204387664795,-0.6380034685134888
1.1697460801549548,3.0385002404292063,-2.6061352916283567,0.7053206562995911,-1.1170625686645508,-5.842989921569824,0.040174517780542374,-0.9206514954566956,0.3883126676082611,-0.524961531162262,0.8396121263504028,-0.6985543966293335
1.1513651206292042,2.8942021918542564,-2.462281999859528,0.8954885005950928,-1.3408147096633911,-6.048110008239746,0.0997229740023613,-0.9133207201957703,0.394842267036438,-0.4547949731349945,0.8826048374176025,-0.7219908237457275
1.1230178619691495,2.7593973376096366,-2.32987097595793,1.0293769836425781,-1.5666834115982056,-6.237054347991943,0.1614774614572525,-0.9014111757278442,0.4017246961593628,-0.3814481496810913,0.9227888584136963,-0.7235478758811951
1.086149719474894,2.6382308750318733,-2.212794513370967,1.1045094728469849,-1.7144019603729248,-6.37448263168335,0.22473549842834473,-0.884839653968811,0.4081086814403534,-0.29068395495414734,0.981702446937561,-0.7132844924926758
1.0426608754966527,2.532967303768741,-2.1125137672177647,1.132163643836975,-1.7735135555267334,-6.423413276672363,0.2881135940551758,-0.8637481331825256,0.41343674063682556,-0.18383494019508362,1.0358214378356934,-0.7038877606391907
0.9943464930399624,2.4431282046452285,-2.028325713884852,1.1574649810791016,-1.844743251800537,-6.416383266448975,0.350490927696228,-0.8384029269218445,0.41741666197776794,-0.09295308589935303,1.0573208332061768,-0.7151614427566528
0.9422669533201312,2.366424312994913,-1.9582982603657593,1.2196435928344727,-1.9361265897750854,-6.423702716827393,0.41147300601005554,-0.8088930249214172,0.41997888684272766,-0.03206312656402588,1.0667054653167725,-0.74541836977005
0.8864749454816337,2.300286118720806,-1.8999520122866471,1.3352330923080444,-2.021448850631714,-6.538405895233154,0.47127512097358704,-0.774848222732544,0.42131954431533813,-0.014976203441619873,1.077353596687317,-0.7888275980949402
0.8262963244995029,2.2427549285981794,-1.8508442449010718,1.4985295534133911,-2.0416905879974365,-6.778654098510742,0.5302958488464355,-0.7354267835617065,0.42182227969169617,-0.036353468894958496,1.0888354778289795,-0.8344656825065613
0.7611773894176431,2.192745557742733,-1.8096309552048206,1.7234063148498535,-2.0697388648986816,-7.019608974456787,0.5884466767311096,-0.6897743940353394,0.4218313992023468,-0.04561525583267212,1.1186838150024414,-0.886217474937439
0.6916597811808094,2.14935867503055,-1.77609452289291,1.9736920595169067,-2.1205315589904785,-7.23851203918457,0.6448401212692261,-0.6378164291381836,0.4211551547050476,0.0336267352104187,1.188994288444519,-0.9297916293144226
0.618234506802669,2.111272246292168,-1.7492465807544102,2.199084520339966,-2.2237205505371094,-7.417023658752441,0.6987500786781311,-0.5795973539352417,0.41930365562438965,0.07549619674682617,1.2471234798431396,-0.9449231028556824
0.5416225070933739,2.0770048530050467,-1.7284685832777167,2.4317820072174072,-2.316295623779297,-7.529449939727783,0.7494120597839355,-0.5155269503593445,0.41546764969825745,0.07445567846298218,1.3068325519561768,-0.9194350242614746
0.46313102189189465,2.046167385857738,-1.713455686003983,2.615476131439209,-2.3998730182647705,-7.487480640411377,0.7954609990119934,-0.4467514753341675,0.409456729888916,0.1410014033317566,1.35313880443573,-0.8569666147232056
0.38466075175714015,2.0169053281437335,-1.703525016687639,2.718259572982788,-2.6129908561706543,-7.304026126861572,0.8362101912498474,-0.37524470686912537,0.3999301493167877,0.26858723163604736,1.3531498908996582,-0.7620060443878174
0.3086486272108117,1.9882864004618936,-1.6980917027599838,2.674388885498047,-2.699969530105591,-6.840789318084717,0.8709133863449097,-0.30377140641212463,0.3863070607185364,0.5117466449737549,1.3483422994613647,-0.6384280323982239
0.23894741497056002,1.9605141049973642,-1.6958497615131403,2.3527660369873047,-2.716252088546753,-6.085511207580566,0.8987345695495605,-0.2366800755262375,0.36913278698921204,0.8103262186050415,1.3239450454711914,-0.4889906346797943
0.1782423349333058,1.9326143742551225,-1.6943695057265007,1.8083525896072388,-2.787571668624878,-5.284514904022217,0.9204374551773071,-0.17730003595352173,0.3483670651912689,0.9476960897445679,1.218803882598877,-0.3588041365146637
0.1263365872651988,1.9035679745150538,-1.6922022687244036,1.347546100616455,-2.956167221069336,-4.610779762268066,0.9376078844070435,-0.12600077688694,0.3240603804588318,0.9203174710273743,1.0529416799545288,-0.34624674916267395
0.08096386083587097,1.8724429235065587,-1.6906827144087342,1.2406909465789795,-3.2161009311676025,-4.097046852111816,0.951720654964447,-0.08087543398141861,0.2961196303367615,0.8178257942199707,0.8929176330566406,-0.46004489064216614
0.03959746559410699,1.8388580385596047,-1.6928507592854143,1.5357391834259033,-3.510603666305542,-3.711216926574707,0.9635301828384399,-0.0395871177315712,0.2646552324295044,0.7080700993537903,0.7828121781349182,-0.6318274736404419
0.000357234277967088,1.8023405925401856,-1.701381161196126,2.0633928775787354,-3.7845652103424072,-3.471552610397339,0.9733132123947144,-0.0003572342684492469,0.22948086261749268,0.6072379946708679,0.7365632653236389,-0.7578011751174927
-0.03822666516882298,1.7631159889191845,-1.7171352370343902,2.617382287979126,-3.967087984085083,-3.4163413047790527,0.9808462858200073,0.03821735456585884,0.19099663197994232,0.4868659973144531,0.7464963793754578,-0.7968317270278931
-0.0774540487602282,1.7213253729938283,-1.7393615037105956,3.0588088035583496,-4.097754955291748,-3.5565309524536133,0.9857277274131775,0.07737662643194199,0.14951162040233612,0.38083416223526,0.791336715221405,-0.7276672124862671
-0.11797116540977895,1.6775477274501034,-1.7667635829122328,3.3418972492218018,-4.0619306564331055,-3.747850179672241,0.9873965978622437,0.11769771575927734,0.10580819845199585,0.3699643611907959,0.8761224746704102,-0.5701332092285156
-0.15844940018876869,1.6339334440752864,-1.7975513969452006,3.3627424240112305,-3.76334810256958,-3.7500193119049072,0.9855055809020996,0.15778721868991852,0.062304794788360596,0.5635208487510681,0.9676094651222229,-0.33154618740081787
-0.1963374630925472,1.5928994824297877,-1.828928844400797,3.0663678646087646,-3.2948813438415527,-3.5034849643707275,0.980548083782196,0.19507847726345062,0.02167673595249653,0.885876476764679,0.9809163808822632,-0.04354262351989746
-0.22937999409657225,1.5565323715545745,-1.857285802732452,2.4544575214385986,-2.7662947177886963,-3.0430192947387695,0.97370845079422,0.22737379372119904,-0.013889876194298267,1.1932226419448853,0.9348881244659424,0.22536134719848633
-0.25670841569080766,1.5256224732712271,-1.879858045785186,1.7560094594955444,-2.330289840698242,-2.5352044105529785,0.9662440419197083,0.2538982033729553,-0.043678682297468185,1.3827548027038574,0.8684161901473999,0.3931354284286499
-0.2788709687428685,1.4997176044578333,-1.8965956871996197,1.232886552810669,-1.9528028964996338,-2.0663845539093018,0.9589393734931946,0.27527040243148804,-0.06827520579099655,1.4560387134552002,0.8024883270263672,0.4104534387588501
-0.29656722291961424,1.4783396786424012,-1.9097042285024475,1.0123388767242432,-1.5669413805007935,-1.6651462316513062,0.9522606134414673,0.2922390103340149,-0.08829455822706223,1.4642889499664307,0.7655459642410278,0.32248640060424805
-0.31062005595034775,1.4610526217944322,-1.921678605492479,0.982913076877594,-1.1668168306350708,-1.368140697479248,0.9464162588119507,0.305649071931839,-0.10428221523761749,1.4244179725646973,0.7608028650283813,0.21853995323181152
-0.3220186354111323,1.4474832989049358,-1.9336217483564966,0.9944278001785278,-0.8004554510116577,-1.1615519523620605,0.9413954019546509,0.3164820671081543,-0.11667832732200623,1.356776475906372,0.7767032980918884,0.18964576721191406
-0.33155405219492773,1.437271350105565,-1.9453172304215083,0.9468491077423096,-0.49118179082870483,-1.006343960762024,0.9371210932731628,0.3255128264427185,-0.12587805092334747,1.3205997943878174,0.8157682418823242,0.2413870245218277
-0.3393235906970037,1.430021625538352,-1.9559696767220012,0.8192302584648132,-0.26094070076942444,-0.7842070460319519,0.9336515665054321,0.33284932374954224,-0.132309690117836,1.3586609363555908,0.882696270942688,0.3311622142791748
-0.3442937089246914,1.4256570631173042,-1.9643017210966423,0.5736199617385864,-0.05885632336139679,-0.3978681266307831,0.9314168691635132,0.3375319242477417,-0.13614246249198914,1.4861246347427368,0.913002073764801,0.44533127546310425
-0.3452252316399189,1.4244784182328172,-1.968772648136516,0.22233960032463074,0.12368051707744598,0.1029316633939743,0.9309442043304443,0.33840861916542053,-0.13719427585601807,1.6106663942337036,0.9066779613494873,0.5459619164466858
-0.3415189675683856,1.426846143424756,-1.9685587554892319,-0.15480981767177582,0.3423020839691162,0.633316695690155,0.9325012564659119,0.33491870760917664,-0.13516865670681,1.6535123586654663,0.8876307010650635,0.5922761559486389
-0.333145185573598,1.4333191174226965,-1.9637692701699305,-0.49443626403808594,0.6436242461204529,1.1407831907272339,0.9361019730567932,0.3270168900489807,-0.12950962781906128,1.61191725730896,0.870904803276062,0.575417160987854
-0.32038127832486185,1.4444389247823075,-1.95517000680284,-0.7773934006690979,1.03053617477417,1.5876935720443726,0.9415486454963684,0.31492847204208374,-0.11960888653993607,1.5124766826629639,0.852872371673584,0.5157117247581482
-0.30390535431871435,1.4605859428292711,-1.9434646735873182,-1.0378847122192383,1.4752607345581055,1.9203182458877563,0.948386013507843,0.2992488741874695,-0.10494723916053772,1.3604518175125122,0.8531100749969482,0.43511688709259033
-0.28476871580544194,1.4817600476833195,-1.9291501283556247,-1.297031283378601,1.911482810974121,2.1344995498657227,0.9559251070022583,0.28093549609184265,-0.08533763885498047,1.1784895658493042,0.86966872215271,0.3518628478050232
-0.26380043385403157,1.507244927913249,-1.9126200520921992,-1.545084834098816,2.257286548614502,2.2692556381225586,0.9634572267532349,0.2607513964176178,-0.061311617493629456,1.0031414031982422,0.8846496343612671,0.27092158794403076
-0.24135824070959097,1.535467485728011,-1.8944419758478166,-1.7276298999786377,2.4401512145996094,2.3652708530426025,0.9704082608222961,0.23902171850204468,-0.03429766744375229,0.8593341112136841,0.8945841789245605,0.17936289310455322
-0.2175491758116871,1.5642111546993125,-1.8755768589977713,-1.8249337673187256,2.4131810665130615,2.461073637008667,0.976408064365387,0.21583721041679382,-0.0064299083314836025,0.745561420917511,0.9014418125152588,0.07304972410202026
-0.19200255790973172,1.5915133638228012,-1.8568444053236457,-1.8638359308242798,2.2628941535949707,2.61458158493042,0.9814133048057556,0.19082503020763397,0.020334884524345398,0.6829237341880798,0.9039014577865601,-0.020975830033421516
-0.16408688999845514,1.616515158415242,-1.8386277673165252,-1.895668387413025,2.0792970657348633,2.835466146469116,0.985537052154541,0.16335155069828033,0.04508902132511139,0.660550594329834,0.8840116858482361,-0.08291566371917725
-0.133199309689034,1.6392363718056409,-1.8209639373974849,-1.9364906549453735,1.9390151500701904,3.11626935005188,0.988821804523468,0.13280579447746277,0.06778087466955185,0.6519100069999695,0.8600988388061523,-0.12838876247406006
-0.09896530642053673,1.6604767238777571,-1.8038422017852969,-1.9863754510879517,1.9161113500595093,3.4205756187438965,0.9911080598831177,0.09880384057760239,0.08912201970815659,0.6398582458496094,0.8542448878288269,-0.18233799934387207
-0.06137902437482646,1.6815118491278476,-1.7872998696159716,-2.0326149463653564,2.027289628982544,3.7041285037994385,0.9920056462287903,0.061340492218732834,0.11028140038251877,0.6003099679946899,0.8560178875923157,-0.24535226821899414
-0.020657731081876463,1.70359567375947,-1.7716036222595162,-2.054264783859253,2.260756015777588,3.9713997840881348,0.9909836649894714,0.02065626159310341,0.1323811113834381,0.5401443243026733,0.856067955493927,-0.3275868892669678
0.022904768341218656,1.7276736294572974,-1.7570603988240021,-2.06628155708313,2.5351479053497314,4.19552755355835,0.9874609708786011,-0.02290276624262333,0.15619365870952606,0.4766809940338135,0.8606102466583252,-0.41421985626220703
0.06865561700077903,1.7535811491191302,-1.7438154655820208,-2.073711633682251,2.734654664993286,4.344396591186523,0.9810246825218201,-0.06860169023275375,0.18134048581123352,0.39476877450942993,0.870603621006012,-0.5010732412338257
0.11591546698386157,1.7803621112338448,-1.7318873898916043,-2.0803399085998535,2.8091063499450684,4.4318108558654785,0.9715573787689209,-0.1156560629606247,0.2066391259431839,0.29736340045928955,0.8798772692680359,-0.56798255443573
0.16424178015411497,1.807252228309708,-1.7214325717286432,-2.0590808391571045,2.842905282974243,4.506405830383301,0.9590914845466614,-0.16350436210632324,0.23110613226890564,0.19473248720169067,0.8638064861297607,-0.611111044883728
0.21341525848751255,1.8343352204037053,-1.7127475294500398,-2.0112593173980713,2.8751187324523926,4.56878137588501,0.9435707926750183,-0.21179890632629395,0.2545890510082245,0.10850757360458374,0.8210670351982117,-0.6313591003417969
0.26309546716348275,1.8614028230619795,-1.7060855073717336,-1.9366921186447144,2.826509714126587,4.602041244506836,0.9251027703285217,-0.2600707411766052,0.27667364478111267,0.03382062911987305,0.7690734267234802,-0.6399091482162476
0.31288968238317694,1.8880849657746912,-1.7017455360953961,-1.8276153802871704,2.7382116317749023,4.622642517089844,0.9039564728736877,-0.3078092932701111,0.29684391617774963,-0.014964044094085693,0.7324460744857788,-0.6391901969909668
0.36265016220270596,1.9145678096210843,-1.6998315315163839,-1.7394267320632935,2.6711525917053223,4.642045974731445,0.8802558779716492,-0.3547532856464386,0.3151192367076874,-0.032996177673339844,0.7393052577972412,-0.6255745887756348
0.4121607903300012,1.9414574722334863,-1.6999079111488313,-1.7063878774642944,2.6985068321228027,4.611150741577148,0.8540326356887817,-0.40059009194374084,0.3318975567817688,-0.04963499307632446,0.766846776008606,-0.6065100431442261
0.4613125486407597,1.9697184584655099,-1.7015026502656536,-1.709776759147644,2.8161556720733643,4.579206943511963,0.8251568675041199,-0.4451238512992859,0.34782281517982483,-0.04712653160095215,0.7709906101226807,-0.5845476984977722
0.5102706265697503,2.000507963500084,-1.7043970164060243,-1.7555943727493286,3.075145959854126,4.576949119567871,0.7932796478271484,-0.48841342329978943,0.36353790760040283,-0.0004786252975463867,0.7487740516662598,-0.5696537494659424
0.5597864764930531,2.035349478218137,-1.7087928266683805,-1.8346132040023804,3.4184553623199463,4.6611456871032715,0.7575658559799194,-0.5310052633285522,0.3796408176422119,0.07866150140762329,0.743316113948822,-0.5685447454452515
0.6105356669764984,2.0745283503422955,-1.715282520773478,-1.9175829887390137,3.654468059539795,4.802461624145508,0.7175684571266174,-0.5733064413070679,0.3954937756061554,0.12929433584213257,0.7422517538070679,-0.5819103717803955
0.6628668799444032,2.1170259397054556,-1.7248015484481127,-1.987977385520935,3.655041456222534,4.998626708984375,0.6735349893569946,-0.6153791546821594,0.4094617962837219,0.1426270604133606,0.7663038372993469,-0.6145094633102417
0.7170734509783684,2.1612881704326457,-1.738565156482428,-2.048226833343506,3.381885290145874,5.25441312789917,0.6261003613471985,-0.6571816802024841,0.4196551740169525,0.144392192363739,0.8233193755149841,-0.6537861227989197
0.7733151639575147,2.2054262865026883,-1.7576575759633875,-2.1096651554107666,2.797574043273926,5.5262861251831055,0.5762653350830078,-0.6985114216804504,0.4242638945579529,0.1259593367576599,0.8985236883163452,-0.6986170411109924
0.8313630623069223,2.248222513463254,-1.7832588764824375,-2.1371331214904785,2.0545661449432373,5.806765079498291,0.5250713229179382,-0.7388505935668945,0.42237433791160583,0.07340896129608154,0.9534196257591248,-0.7306629419326782
0.890716709642002,2.2909725971364394,-1.8171763868824127,-2.101067543029785,1.3472793102264404,6.086704730987549,0.4727035164833069,-0.7775226831436157,0.41474050283432007,0.020613104104995728,0.9756733775138855,-0.7486486434936523
0.9505950606178097,2.337160463205572,-1.8620099241736479,-1.9866753816604614,0.7621437311172485,6.354378700256348,0.41871708631515503,-0.8137614727020264,0.4030732214450836,-0.025452375411987305,0.9650372266769409,-0.7558718323707581
1.00963983067578,2.3920483945072015,-1.921010571742593,-1.8021037578582764,0.43704167008399963,6.554951190948486,0.36256709694862366,-0.8466402292251587,0.389544814825058,-0.06459346413612366,0.9426486492156982,-0.7638124823570251
1.0658997057422313,2.4620282405319274,-1.997720184004724,-1.5688574314117432,0.35345596075057983,6.642603397369385,0.3039940595626831,-0.8752244710922241,0.37625765800476074,-0.13185963034629822,0.9180101156234741,-0.7804783582687378
1.1168941403189911,2.5524034331348147,-2.095351344452886,-1.2825322151184082,0.38780418038368225,6.594316482543945,0.24365557730197906,-0.8987429141998291,0.36454537510871887,-0.22598585486412048,0.893905758857727,-0.807660698890686
1.1598252489261773,2.6666747032422164,-2.2164869714746844,-0.9427286386489868,0.4556111991405487,6.456089019775391,0.18267753720283508,-0.9167333245277405,0.3552874028682709,-0.2997276782989502,0.8820652365684509,-0.8323688507080078
1.1922052121202575,2.8056584873599095,-2.3614811076962763,-0.5909590125083923,0.5614355206489563,6.2967705726623535,0.12184298038482666,-0.9291862845420837,0.3489514887332916,-0.32887423038482666,0.8826774954795837,-0.8353559970855713
1.2122606243744747,2.96585375401635,-2.5263606020477116,-0.27879074215888977,0.7077703475952148,6.16213321685791,0.061350516974925995,-0.9364116787910461,0.34549906849861145,-0.3322550654411316,0.8721414804458618,-0.8020116090774536
1.2193356886156672,3.1381204572261003,-2.7015649692653407,-0.04457394406199455,0.8729991316795349,6.048611164093018,0.0011953694047406316,-0.9388708472251892,0.3442675471305847,-0.32997649908065796,0.8409857153892517,-0.739546537399292
1.2139068402063398,-2.972990747393523,-2.8747201608868207,0.1261109858751297,1.0494029521942139,5.971181869506836,-0.058624330908060074,-0.9369880557060242,0.3444076180458069,-0.31848135590553284,0.7999488711357117,-0.6628128290176392
1.1972518878514613,-2.8114668312830835,-3.0353946537778365,0.25238555669784546,1.223132610321045,5.944552421569824,-0.11829249560832977,-0.9310397505760193,0.34521278738975525,-0.29526644945144653,0.7701205611228943,-0.5921154022216797
