attitudeX,attitudeY,attitudeZ,gyroX,gyroY,gyroZ,gravityX,gravityY,gravityZ,accX,accY,accZ
1.4092274679810712,-0.4780936220567726,0.37485603767370723,-0.9601936936378479,0.5338505506515503,0.39226871728897095,-0.07401300221681595,-0.986976146697998,-0.1428298056125641,0.18993398547172546,0.406302809715271,-0.151512011885643
1.3982545309651322,-0.465964764067501,0.3684424965007706,-1.1003235578536987,0.6133741140365601,0.3977798521518707,-0.0771367996931076,-0.9851515293121338,-0.1533840298652649,0.11687065660953522,0.32797062397003174,-0.075741708278656
1.3856288380114012,-0.4474695040228987,0.35618908526896403,-1.3632053136825562,0.6741964817047119,0.31295737624168396,-0.0796625092625618,-0.9829054474830627,-0.16598504781723022,0.04059997946023941,0.23945128917694092,0.03395092487335205
1.3705707763839168,-0.4186889668205862,0.3343855884044698,-1.7179486751556396,0.8122537732124329,0.1908080130815506,-0.08086171001195908,-0.9800217151641846,-0.18171130120754242,-0.039530180394649506,0.16387474536895752,0.12401801347732544
1.3524666876984828,-0.38058478262649253,0.3047611180572942,-2.0760133266448975,1.001550555229187,0.08985503762960434,-0.08045905828475952,-0.9762606024742126,-0.20110192894935608,-0.08273373544216156,0.11218565702438354,0.1261967122554779
1.3315297263672505,-0.33870977339624553,0.2725784886987449,-2.3259079456329346,1.0776779651641846,0.0138772614300251,-0.07874502241611481,-0.9715120196342468,-0.22352592647075653,-0.07259167730808258,0.06321722269058228,0.024673521518707275
1.3087402480586796,-0.29803382895506364,0.24141280626319772,-2.456695318222046,0.9964321851730347,-0.05437689274549484,-0.07607295364141464,-0.9658593535423279,-0.24764682352542877,-0.04096199572086334,-0.0009071826934814453,-0.1036103367805481
1.2851711487921968,-0.26201114196642966,0.2135233584862722,-2.454709529876709,0.8276400566101074,-0.08412625640630722,-0.07298201322555542,-0.9594857096672058,-0.27214205265045166,-0.0008858293294906616,-0.06505072116851807,-0.2252180278301239
1.2619795118870263,-0.2328194036509113,0.1906076274162113,-2.3424389362335205,0.617557942867279,-0.07818660885095596,-0.07012378424406052,-0.9526938199996948,-0.2957320809364319,0.019952848553657532,-0.12791848182678223,-0.3563215732574463
1.239981660275097,-0.2103764832529865,0.17251135166648418,-2.1812100410461426,0.448591947555542,-0.06638153642416,-0.06783034652471542,-0.9457780718803406,-0.3176528811454773,0.019353128969669342,-0.2160111665725708,-0.43533775210380554
1.2195900961578054,-0.19226534761306804,0.15794730718038222,-1.9868162870407104,0.45162129402160645,-0.07835857570171356,-0.0657384917140007,-0.9389584064483643,-0.33769193291664124,-0.015697702765464783,-0.3305882215499878,-0.4537355303764343
1.2014154850550751,-0.17559246586845684,0.14543465274268472,-1.729914903640747,0.5353803634643555,-0.13158947229385376,-0.0630703717470169,-0.9325510859489441,-0.3554869294166565,-0.07288548350334167,-0.4615837335586548,-0.48542478680610657
1.185985820978494,-0.1589450188116602,0.13350963507144073,-1.448377251625061,0.559329092502594,-0.2230493426322937,-0.05941445380449295,-0.9268695712089539,-0.37065187096595764,-0.10673853754997253,-0.5911206603050232,-0.5278769731521606
1.1733668554875,-0.14245593354640362,0.12145399097277561,-1.1824179887771606,0.5011629462242126,-0.2969973087310791,-0.05495121702551842,-0.9220589399337769,-0.38312894105911255,-0.11164428293704987,-0.6935417652130127,-0.5295448899269104
1.162998132075031,-0.1270649761595575,0.10970590803364759,-0.999854564666748,0.4028758108615875,-0.3332567811012268,-0.05025709792971611,-0.9179962873458862,-0.393391877412796,-0.10724416375160217,-0.8075897693634033,-0.5029854774475098
1.1540633013367692,-0.1134061556111079,0.0984761293929766,-0.8774211406707764,0.26625266671180725,-0.3459278345108032,-0.04580571874976158,-0.9144161939620972,-0.40217554569244385,-0.1193096786737442,-0.9380772709846497,-0.4658510088920593
1.1461357930283855,-0.1017778771587476,0.08764759851193743,-0.7917659282684326,0.07136227190494537,-0.36069291830062866,-0.04186132177710533,-0.9111786484718323,-0.4098796248435974,-0.13628506660461426,-1.045456051826477,-0.42689698934555054
1.1389945314903107,-0.09250781866068888,0.0769907005150599,-0.7074030637741089,-0.14990532398223877,-0.38073113560676575,-0.038660064339637756,-0.9082131385803223,-0.4167185127735138,-0.14153100550174713,-1.1219534873962402,-0.3835742473602295
1.1329802994307743,-0.08519414266543476,0.06621812192494564,-0.5576252937316895,-0.33108630776405334,-0.41753068566322327,-0.03607547655701637,-0.9056797623634338,-0.42242521047592163,-0.1413842737674713,-1.1765652894973755,-0.3545369505882263
1.1289568521470341,-0.07852659454833115,0.05467687631750491,-0.3059767484664917,-0.4078207314014435,-0.4934622049331665,-0.03354373574256897,-0.9039666056632996,-0.42628565430641174,-0.15595519542694092,-1.2054085731506348,-0.3494252562522888
1.1281394373600322,-0.07133950964914824,0.04201429770436462,0.07910145074129105,-0.4387815594673157,-0.5675984621047974,-0.030531806871294975,-0.9036167860031128,-0.4272526502609253,-0.17752182483673096,-1.2144558429718018,-0.35985660552978516
1.1316974521285108,-0.06401115271851485,0.028836727147857896,0.5584299564361572,-0.4717109799385071,-0.5965089201927185,-0.027194099500775337,-0.9051350951194763,-0.42425337433815,-0.1506013423204422,-1.205048680305481,-0.38504207134246826
1.1400760129526037,-0.05657830933305906,0.015439172065519154,1.0403441190719604,-0.46338728070259094,-0.6343972086906433,-0.023610293865203857,-0.9086652398109436,-0.4168575704097748,-0.10169491171836853,-1.1628223657608032,-0.3856019973754883
1.153069931435523,-0.047807100127052894,0.0007993009472594312,1.4772841930389404,-0.44471827149391174,-0.7029944062232971,-0.019387168809771538,-0.914013683795929,-0.40522006154060364,-0.0903998538851738,-1.1067383289337158,-0.35066965222358704
1.1700021974327404,-0.03694676235114551,-0.01586485865331196,1.8235446214675903,-0.4389413595199585,-0.7527185678482056,-0.014411498792469501,-0.9207514524459839,-0.38988369703292847,-0.06678054481744766,-1.0447332859039307,-0.2972041368484497
1.1898426209060584,-0.0248763323842879,-0.03380236643038583,2.071859836578369,-0.46167460083961487,-0.7172503471374512,-0.009248225018382072,-0.9283104538917542,-0.37169134616851807,-0.015348970890045166,-0.9680519700050354,-0.22865033149719238
1.2115498191896612,-0.01339764625900213,-0.051303058777610884,2.2126309871673584,-0.5098059177398682,-0.6221265196800232,-0.004710059147328138,-0.936161994934082,-0.35153767466545105,0.046656444668769836,-0.8875991106033325,-0.16440758109092712
1.233998718943169,-0.0037684461420310535,-0.06749970324583147,2.2387468814849854,-0.6071158051490784,-0.517275333404541,-0.0012453433591872454,-0.9438177943229675,-0.3304644525051117,0.08892232179641724,-0.8011317253112793,-0.10984301567077637
1.2562268214432206,0.003428305363913937,-0.08206335838468654,2.182645797729492,-0.7077286839485168,-0.4167037308216095,0.0010607417207211256,-0.9509296417236328,-0.3094058036804199,0.09853334724903107,-0.7135144472122192,-0.06209975481033325
1.2774948355642586,0.008476636532517024,-0.09530253813196901,2.052281618118286,-0.802385151386261,-0.35637167096138,0.0024506892077624798,-0.9572945833206177,-0.2891041040420532,0.08943771570920944,-0.6409416198730469,-0.03883761167526245
1.2972683800187497,0.012861567610924503,-0.1086531954883723,1.8980289697647095,-0.876659095287323,-0.35008394718170166,0.003474205732345581,-0.9628238677978516,-0.2701081335544586,0.07162952423095703,-0.5626279711723328,-0.014834344387054443
1.3154639244724082,0.0181341935159994,-0.12347918426894311,1.7419919967651367,-0.9186989068984985,-0.3706362247467041,0.004579855594784021,-0.9675794243812561,-0.2525258958339691,0.047925617545843124,-0.4852100610733032,-0.021140336990356445
1.3321193601835881,0.025836754122951732,-0.14095331775922973,1.5963269472122192,-0.9165843725204468,-0.41453737020492554,0.006107578054070473,-0.9716516137123108,-0.23633848130702972,0.020580023527145386,-0.411435604095459,-0.027913004159927368
1.3473819102975784,0.037671812422989163,-0.16233007482586248,1.4799360036849976,-0.869110643863678,-0.46007534861564636,0.008344638161361217,-0.9751466512680054,-0.22140401601791382,-0.008970268070697784,-0.34161072969436646,-0.036316752433776855
1.3618045177361429,0.05405549489085102,-0.18764409937026386,1.4591401815414429,-0.7878187298774719,-0.48846200108528137,0.011209656484425068,-0.9782406091690063,-0.20717109739780426,-0.037805747240781784,-0.2763829231262207,-0.07528410851955414
1.3765556336681604,0.07619200408934902,-0.21765826995547227,1.5709196329116821,-0.6528412103652954,-0.5207312703132629,0.01469248253852129,-0.9811944961547852,-0.19246166944503784,-0.05644054710865021,-0.20833492279052734,-0.14889249205589294
1.392769659996545,0.10697107313659887,-0.2550144602854976,1.784761667251587,-0.5292534828186035,-0.5569385886192322,0.018907293677330017,-0.9841950535774231,-0.1760767698287964,-0.06198287010192871,-0.150692880153656,-0.24021334946155548
1.4110555536786955,0.14956760954781043,-0.30292448660040777,2.0338008403778076,-0.38397225737571716,-0.5639554262161255,0.023702086880803108,-0.9872685670852661,-0.15728726983070374,-0.05034395307302475,-0.10173606872558594,-0.3044893145561218
1.4312606747745924,0.20754852479015498,-0.3643579325856453,2.241959810256958,-0.16122278571128845,-0.5140663981437683,0.02865978330373764,-0.9902806878089905,-0.13609866797924042,-0.03726576268672943,-0.0632624626159668,-0.31276893615722656
1.4525925324163467,0.2878296977397453,-0.44583904659718265,2.3811583518981934,0.05557669699192047,-0.473832368850708,0.03347688913345337,-0.993022084236145,-0.11307820677757263,-0.03422458842396736,-0.05727100372314453,-0.29153889417648315
1.473803607836655,0.4071997582327446,-0.5643948754946401,2.4418702125549316,0.2385675609111786,-0.47619831562042236,0.03835318610072136,-0.9952998757362366,-0.088923379778862,-0.05667901039123535,-0.05523735284805298,-0.2665756940841675
1.4931886400589398,0.592938800353412,-0.7477657875431533,2.4574172496795654,0.36121782660484314,-0.46367400884628296,0.04332459717988968,-0.9969900250434875,-0.06429696083068848,-0.06192507594823837,-0.027836143970489502,-0.2475009560585022
1.5088514315718418,0.8831445328900431,-1.0346000751711963,2.507711172103882,0.4503426253795624,-0.39022189378738403,0.04783807694911957,-0.9980820417404175,-0.03929400444030762,-0.01530635729432106,0.02139735221862793,-0.24345117807388306
1.5176368838575947,1.3160903934597568,-1.4631107548072873,2.621405839920044,0.5699084401130676,-0.29844534397125244,0.05142274498939514,-0.9985873699188232,-0.013388464227318764,0.039382293820381165,0.07633078098297119,-0.2770776152610779
1.515104323272742,1.822578437662027,-1.9639566116782428,2.7485697269439697,0.6950740814208984,-0.19655707478523254,0.05391264706850052,-0.9984496235847473,0.013868547976016998,0.04041717201471329,0.08292210102081299,-0.3263378143310547
1.501251151561006,2.2248636386119123,-2.359391340620127,2.83296799659729,0.8154052495956421,-0.0919584184885025,0.05515020340681076,-0.997582733631134,0.042280472815036774,0.04490166902542114,0.10477548837661743,-0.33190739154815674
1.480702460941416,2.4841852851816064,-2.61093001881642,2.852142572402954,0.8839513063430786,0.0339912585914135,0.05498041585087776,-0.9959443211555481,0.07122194021940231,0.05950626730918884,0.16186821460723877,-0.3099454641342163
1.4571662585630965,2.6535282775541296,-2.772153002067452,2.8436737060546875,0.8941289186477661,0.17610672116279602,0.053168993443250656,-0.9935510754585266,0.10014796257019043,0.08452630043029785,0.22052544355392456,-0.29149293899536133
1.4322637446403002,2.7734368143091017,-2.884000031986415,2.830479860305786,0.8864755034446716,0.31276336312294006,0.049698688089847565,-0.9904196858406067,0.12883883714675903,0.10047830641269684,0.2679768204689026,-0.28540897369384766
1.406530063630388,2.86443365373871,-2.9671168352469337,2.8189470767974854,0.8774623274803162,0.4277814030647278,0.04474588856101036,-0.9865385890007019,0.15728960931301117,0.09505512565374374,0.3196072578430176,-0.30035579204559326
1.3802639987692589,2.936555276589488,-3.031458229829111,2.8012101650238037,0.8640040159225464,0.519528865814209,0.03855912387371063,-0.9819035530090332,0.18541623651981354,0.08160382509231567,0.3748171925544739,-0.30139803886413574
1.3537601239294752,2.9950666490241002,-3.082559669615832,2.75384783744812,0.8267573118209839,0.5826178193092346,0.03143973648548126,-0.9765399694442749,0.21302984654903412,0.046990420669317245,0.4216691255569458,-0.2821824252605438
1.3274205513741737,3.042823665540849,-3.1231162123161247,2.6733241081237793,0.82518070936203,0.5979374051094055,0.023762740194797516,-0.9705300331115723,0.23980623483657837,0.032038625329732895,0.47011798620224,-0.23680010437965393
1.3017137501079514,3.0817470820838797,3.1285044706203022,2.554011821746826,0.8496149778366089,0.579099178314209,0.015900343656539917,-0.9640151858329773,0.26537230610847473,0.01591421104967594,0.5217389464378357,-0.18944427371025085
1.2770506088412688,3.113588324555885,3.104417601073935,2.4085042476654053,0.8867817521095276,0.5356667041778564,0.008107317611575127,-0.9571660757064819,0.28942662477493286,-0.012959636747837067,0.5603458881378174,-0.14980840682983398
1.2538310217207074,3.139977853726882,3.0863097779884714,2.2333152294158936,0.9271957874298096,0.4783906042575836,0.0005033081397414207,-0.9501856565475464,0.3116842806339264,-0.031127721071243286,0.5899867415428162,-0.11953014135360718
1.232343933931264,-3.121136011043335,3.072823276391015,2.0443756580352783,0.9201951026916504,0.42726215720176697,-0.006791712716221809,-0.943269670009613,0.33195894956588745,-0.02674712985754013,0.6158464550971985,-0.10354983806610107
1.2126603902391724,-3.102407013287843,3.062501659763623,1.860089898109436,0.8797012567520142,0.39161503314971924,-0.013732228428125381,-0.9365518689155579,0.3502609431743622,-0.007630111649632454,0.6458411812782288,-0.09713265299797058
1.1947885747848257,-3.0860487263095107,3.0541970223390904,1.6705410480499268,0.8379687070846558,0.37025517225265503,-0.020385850220918655,-0.9301380515098572,0.36664462089538574,0.00862128846347332,0.6799241900444031,-0.10272833704948425
1.1787840460468733,-3.0712379493444293,3.047062305863801,1.4780704975128174,0.7939375042915344,0.36408573389053345,-0.026856787502765656,-0.9241421222686768,0.3811040222644806,0.02409491129219532,0.7114803791046143,-0.10420253872871399
1.1646614354504294,-3.0574264674192313,3.040388671293047,1.2895277738571167,0.7291564345359802,0.37384089827537537,-0.033211592584848404,-0.9186546206474304,0.3936632573604584,0.045174457132816315,0.7327569127082825,-0.11102446913719177
1.152392623391092,-3.044251563768836,3.0334500616113704,1.0939751863479614,0.6298751831054688,0.4015437066555023,-0.03948758915066719,-0.9137386679649353,0.40438002347946167,0.058515261858701706,0.7509729266166687,-0.12023049592971802
1.1421108342883601,-3.0314664449614503,3.0258061302936357,0.8741369247436523,0.5254571437835693,0.43516427278518677,-0.0456843227148056,-0.9095129370689392,0.41315770149230957,0.06501717865467072,0.773007869720459,-0.12716203927993774
1.134208631213627,-3.0192940171325735,3.0173170558371964,0.5976197123527527,0.3564468026161194,0.44834449887275696,-0.05158522352576256,-0.9061998128890991,0.41969218850135803,0.06455515325069427,0.797648549079895,-0.13047677278518677
1.1293274090757761,-3.0086279750857288,3.008378730251773,0.2688167691230774,0.16236358880996704,0.4231025278568268,-0.056644413620233536,-0.9041250348091125,0.42349743843078613,0.043018266558647156,0.812770426273346,-0.10992902517318726
1.1277746766313994,-2.9997948938300683,2.999377473097575,-0.06898116320371628,-0.02521049976348877,0.38189682364463806,-0.06058124452829361,-0.9034605026245117,0.4243696928024292,0.004123680293560028,0.8208340406417847,-0.09267377853393555
1.1295797054140861,-2.992740292976729,2.9900939746443598,-0.40369710326194763,-0.2417723685503006,0.34651538729667664,-0.06333152949810028,-0.9042328000068665,0.42231839895248413,-0.015800587832927704,0.8431059122085571,-0.08874565362930298
1.1347078314921892,-2.9876389691406513,2.9806533325770412,-0.7239123582839966,-0.4403160810470581,0.2881106734275818,-0.06477317959070206,-0.906410813331604,0.4174022972583771,-0.03157087415456772,0.8726733326911926,-0.06332173943519592
1.1428554051864799,-2.9844958854551704,2.9716640639946634,-0.9945129752159119,-0.5516418218612671,0.20340192317962646,-0.06492718309164047,-0.9098221659660339,0.4098886251449585,-0.0631856620311737,0.8945326805114746,-0.05409914255142212
1.15350751207467,-2.9831052021710907,2.9637445687546577,-1.1964800357818604,-0.6030846834182739,0.1014065146446228,-0.06396380066871643,-0.9141911268234253,0.40020421147346497,-0.09396470338106155,0.9012211561203003,-0.05665236711502075
1.1659753734730418,-2.983581544744352,2.9576552949309534,-1.3264615535736084,-0.5989764928817749,-0.012318449094891548,-0.061974793672561646,-0.9191729426383972,0.3889482617378235,-0.11910128593444824,0.9013963341712952,-0.06881856918334961
1.1794432130947223,-2.9859014827615273,2.953898303584581,-1.3630836009979248,-0.553361713886261,-0.11885274201631546,-0.05914728343486786,-0.9243937730789185,0.37682679295539856,-0.11309397220611572,0.9121713042259216,-0.0962020754814148
1.1932743613866827,-2.989741200489899,2.952530484103036,-1.3793083429336548,-0.45986902713775635,-0.2028842717409134,-0.05576036497950554,-0.9295809268951416,0.36437660455703735,-0.08921341598033905,0.9157412052154541,-0.12353160977363586
1.2075290523428548,-2.994434336648431,2.9533429383727894,-1.428483247756958,-0.32193270325660706,-0.2820996344089508,-0.052101291716098785,-0.9347408413887024,0.3514898419380188,-0.085777148604393,0.8941677808761597,-0.1052890419960022
1.2226908379806196,-2.9998490515464384,2.956482577795858,-1.5399746894836426,-0.16716203093528748,-0.36931151151657104,-0.048189613968133926,-0.9400206208229065,0.33769744634628296,-0.09310681372880936,0.8554409146308899,-0.06744882464408875
1.23930774980502,-3.005741521952873,2.9618332676480876,-1.6920403242111206,-0.0038143713027238846,-0.43329834938049316,-0.04407715052366257,-0.9455589056015015,0.32245340943336487,-0.09148196876049042,0.8184377551078796,-0.02585276961326599
1.2574252238960768,-3.011193254436799,2.968482935371684,-1.83000648021698,0.1709960550069809,-0.4620876610279083,-0.0400841161608696,-0.951299786567688,0.30565065145492554,-0.06282117962837219,0.7900906205177307,-0.017045646905899048
1.27688037064538,-3.016402887361704,2.976465285355056,-1.9570268392562866,0.3012573719024658,-0.5067054629325867,-0.036173153668642044,-0.9571167826652527,0.28743547201156616,-0.040395479649305344,0.7438751459121704,-0.050695210695266724
1.297775891631589,-3.0227661217732376,2.986733883716172,-2.1169519424438477,0.3855472207069397,-0.5687922835350037,-0.03196529671549797,-0.9629608392715454,0.26774075627326965,-0.037813182920217514,0.6844725012779236,-0.08207151293754578
1.320835351190529,-3.032119543814779,3.0004086665665746,-2.405259847640991,0.373276948928833,-0.6604340076446533,-0.02702600508928299,-0.9689220786094666,0.24588645994663239,-0.0332920216023922,0.6213876605033875,-0.10753485560417175
1.3476580272003973,-3.045666722766188,3.017920111083356,-2.8432211875915527,0.314584881067276,-0.6891309022903442,-0.021195100620388985,-0.9752077460289001,0.22027462720870972,-0.028029784560203552,0.5403016805648804,-0.09190225601196289
1.379176796434767,-3.060713933419548,3.035916730020387,-3.347851037979126,0.1884137988090515,-0.5817134976387024,-0.015386602841317654,-0.9816970825195312,0.18982790410518646,0.01927756331861019,0.44612860679626465,-0.07680580019950867
1.4153543065531904,-3.0718591353589013,3.0482390463511146,-3.7984423637390137,0.0038298359140753746,-0.37961921095848083,-0.010787232778966427,-0.987943172454834,0.15444140136241913,0.07359237968921661,0.3508734107017517,-0.09868550300598145
1.4554193749212763,-3.0732808588398655,3.0487010687610603,-4.152585983276367,-0.19887371361255646,-0.19400405883789062,-0.007858168333768845,-0.9933514595031738,0.1148548573255539,0.09962449967861176,0.2583353519439697,-0.15835736691951752
1.4982603579254705,-3.0539017975782237,3.0263065549362946,-4.376023292541504,-0.37565484642982483,-0.060082755982875824,-0.006347232963889837,-0.9973704218864441,0.07219629734754562,0.08633377403020859,0.19042450189590454,-0.21628475189208984
1.5421486420991517,-2.9309934727081854,2.8989547148260475,-4.425304412841797,-0.47619688510894775,0.025368953123688698,-0.0059897261671721935,-0.9995896816253662,0.028019629418849945,0.06449189782142639,0.1514754295349121,-0.27751588821411133
1.5535834500923118,-0.3832557902768868,0.34630894915466304,-4.337327003479004,-0.4524627923965454,0.0642995685338974,-0.006440578494220972,-0.9998518824577332,-0.01597394049167633,0.02414073795080185,0.09482240676879883,-0.34211915731430054
1.5115573202589199,-0.12548698872963618,0.08476210233645398,-4.20001220703125,-0.2555720806121826,0.10476410388946533,-0.007410207763314247,-0.998245894908905,-0.058741312474012375,-0.03362070024013519,-0.003036022186279297,-0.3651781678199768
1.4701770484420906,-0.0873350867057714,0.045518861806820236,-4.071481704711914,0.06785763055086136,0.1458366960287094,-0.008761795237660408,-0.9949421286582947,-0.10006868094205856,-0.05347882956266403,-0.11821717023849487,-0.3340131640434265
1.429872361679169,-0.07130657648427231,0.03174721711742615,-3.964901924133301,0.39184606075286865,0.16192342340946198,-0.010007203556597233,-0.9900866150856018,-0.1401025950908661,-0.08104201406240463,-0.2399551272392273,-0.2851596474647522
1.390622245736903,-0.06051510018259819,0.025997960866685977,-3.8534979820251465,0.6189053058624268,0.1694798767566681,-0.010837811045348644,-0.9838125109672546,-0.17887400090694427,-0.08666587620973587,-0.3571605682373047,-0.2599533200263977
1.3526132324157811,-0.05135010468791911,0.02386003795573316,-3.705958366394043,0.7843760251998901,0.1680082082748413,-0.011110194958746433,-0.9762923121452332,-0.2161714732646942,-0.04998602718114853,-0.4649919867515564,-0.2702327370643616
1.3165791499274966,-0.042346633210924155,0.02322056513881346,-3.4563629627227783,0.8753024935722351,0.1358681172132492,-0.010646495036780834,-0.9678604602813721,-0.25126272439956665,-0.017765402793884277,-0.58549964427948,-0.3211400508880615
1.2837436604645456,-0.033127704748655715,0.022709259202291082,-3.064072847366333,0.8528738617897034,0.08546999096870422,-0.009377643465995789,-0.9590824842453003,-0.2829720079898834,0.0005122572183609009,-0.7059261798858643,-0.41629230976104736
1.2555334496576067,-0.023880673001505308,0.021691277209681323,-2.547072649002075,0.7970166802406311,0.01395772211253643,-0.007403903640806675,-0.9507148861885071,-0.30997854471206665,0.028369449079036713,-0.8146356344223022,-0.517596960067749
1.2328779946321404,-0.014047530216952334,0.019521650291375477,-1.9639999866485596,0.7545442581176758,-0.0702747106552124,-0.00465694535523653,-0.9434468150138855,-0.3314916491508484,0.04577934741973877,-0.9379621148109436,-0.5753837823867798
1.2161909732143248,-0.0027994081679267838,0.015310361076554126,-1.3719156980514526,0.6954266428947449,-0.1932256668806076,-0.000972011242993176,-0.9377835988998413,-0.3472193479537964,0.03814239054918289,-1.0664128065109253,-0.5749454498291016
1.2051014796683133,0.010888168757332815,0.007850907968771973,-0.850856602191925,0.6420212984085083,-0.3324679434299469,0.003893517889082432,-0.9338755011558533,-0.35757747292518616,0.005856819450855255,-1.182488203048706,-0.5110747218132019
1.1986925724423303,0.026842768171245347,-0.002669816335626972,-0.4212700426578522,0.5850749015808105,-0.4483010768890381,0.009758218191564083,-0.9315645098686218,-0.3634451627731323,0.006599165499210358,-1.2876739501953125,-0.41260141134262085
1.196076692275401,0.044921444198728885,-0.016138795820802868,-0.07576823234558105,0.5120710730552673,-0.5448653697967529,0.01643626019358635,-0.9306102991104126,-0.365642786026001,0.009274765849113464,-1.387596607208252,-0.3035770058631897
1.1964712461753781,0.06422586581165232,-0.03213524025962009,0.21542419493198395,0.3557962477207184,-0.6112563610076904,0.023467712104320526,-0.9307546019554138,-0.3648909032344818,0.02716091275215149,-1.473771333694458,-0.21013641357421875
1.1996174726106006,0.08335138486319851,-0.04997998230475043,0.509782612323761,0.14307747781276703,-0.6292334198951721,0.030197743326425552,-0.9319003820419312,-0.3614550530910492,0.07406553626060486,-1.514495611190796,-0.13270065188407898
1.2057775463667586,0.10164775038627659,-0.06919469670477449,0.8445392847061157,-0.06638547778129578,-0.6266877055168152,0.03622246906161308,-0.9341170787811279,-0.35512474179267883,0.13995547592639923,-1.5104784965515137,-0.09796959161758423
1.2152726970270076,0.11918356957138994,-0.08951147365089471,1.1929017305374146,-0.2177981585264206,-0.5753121376037598,0.041387446224689484,-0.9374643564224243,-0.34561216831207275,0.19817550480365753,-1.4859213829040527,-0.08138963580131531
1.2281296524191248,0.13575567027739313,-0.10991448056257729,1.5230423212051392,-0.29147449135780334,-0.4742046594619751,0.04547393321990967,-0.9418619871139526,-0.33290863037109375,0.24262723326683044,-1.4349539279937744,-0.046592503786087036
1.2440591090588555,0.15143456915043677,-0.12972528815014286,1.796021580696106,-0.3052087128162384,-0.3551228642463684,0.04841809719800949,-0.9470945596694946,-0.31728169322013855,0.2695292532444,-1.3625216484069824,0.000967174768447876
1.2624661046024257,0.16654848245184886,-0.1487359595849887,2.003232717514038,-0.2784508764743805,-0.2323543280363083,0.05030882731080055,-0.9528416395187378,-0.29926902055740356,0.28259214758872986,-1.2594387531280518,0.0509171187877655
1.2825918514325443,0.18107859221467335,-0.16661800810726574,2.114989995956421,-0.22595565021038055,-0.10401603579521179,0.0511874295771122,-0.9587557911872864,-0.2795843183994293,0.2735958695411682,-1.1654661893844604,0.09635692834854126
1.3035097164181737,0.1942342446869056,-0.18214584497192315,2.130422592163086,-0.12101326137781143,0.04822223633527756,0.05097836256027222,-0.964491069316864,-0.2591492533683777,0.2447521984577179,-1.0819873809814453,0.1414278745651245
1.3246171441579409,0.20484442510359083,-0.1936329569720374,2.1067237854003906,0.022982526570558548,0.21445143222808838,0.04957235977053642,-0.9698506593704224,-0.23860564827919006,0.21843299269676208,-0.992399275302887,0.160541832447052
1.3458494640419878,0.211689408325676,-0.19964275170445023,2.0955827236175537,0.16847848892211914,0.38626977801322937,0.046866584569215775,-0.9748059511184692,-0.2180761843919754,0.19289474189281464,-0.9050160050392151,0.12315142154693604
1.3673473846686144,0.21311573194020067,-0.19888086983932762,2.090824604034424,0.2569635212421417,0.546210765838623,0.04273463040590286,-0.9793755412101746,-0.19747808575630188,0.18364474177360535,-0.8214821219444275,0.04954427480697632
1.389217082631516,0.2073803905333969,-0.19014683097530355,2.1025233268737793,0.30377867817878723,0.6864315271377563,0.037181656807661057,-0.9835597276687622,-0.17671442031860352,0.16737763583660126,-0.7309484481811523,-0.04325610399246216
1.41158067889985,0.19277115322400729,-0.1721396832199414,2.1515650749206543,0.3162287771701813,0.7925575375556946,0.03037392906844616,-0.9873519539833069,-0.15560810267925262,0.1555086076259613,-0.6252733469009399,-0.14077842235565186
1.4348996607450428,0.1668030555510439,-0.14273491271269678,2.2794320583343506,0.3068917393684387,0.8842885494232178,0.022493666037917137,-0.990780234336853,-0.13359865546226501,0.14253009855747223,-0.5285679697990417,-0.24864910542964935
1.4599395354255094,0.12375738060667016,-0.09622103865626433,2.4993345737457275,0.3197508156299591,0.9617487192153931,0.013656525872647762,-0.9938616752624512,-0.10978524386882782,0.13612371683120728,-0.44031208753585815,-0.37954866886138916
1.4870519113146818,0.04858601691305533,-0.017258979547738806,2.7507054805755615,0.3661864995956421,1.0268614292144775,0.004062575753778219,-0.9964954853057861,-0.0835503414273262,0.13055042922496796,-0.36602306365966797,-0.4979923963546753
1.5155496061479257,-0.11234123475799151,0.14811368477808937,2.9716923236846924,0.451057493686676,1.0754756927490234,-0.0061906129121780396,-0.9984742999076843,-0.05487342178821564,0.11178140342235565,-0.3005980849266052,-0.5610015988349915
1.5411163598174782,-0.6070886865616844,0.6484396536620362,3.1159188747406006,0.587485134601593,1.105704426765442,-0.01693100668489933,-0.9995595812797546,-0.024375393986701965,0.0838560163974762,-0.23643290996551514,-0.5670551061630249
1.5418007089319468,-1.8165557244538317,1.8650397796963618,3.1693365573883057,0.7548618316650391,1.1383938789367676,-0.028121888637542725,-0.999579668045044,0.00705380504950881,0.06384268403053284,-0.18096238374710083,-0.5401957035064697
1.5152504794365675,-2.335873941996369,2.3931759821375307,3.1440653800964355,0.9178073406219482,1.2079241275787354,-0.04005010053515434,-0.9984577298164368,0.03845462203025818,0.06704285740852356,-0.12492507696151733,-0.508379340171814
1.483486921876351,-2.485259196855859,2.5527097607532268,3.0667738914489746,1.0181726217269897,1.3197277784347534,-0.05321170389652252,-0.9961909651756287,0.06908398866653442,0.09077879041433334,-0.07070374488830566,-0.4864269495010376
1.450831925288744,-2.53877408161734,2.616811722483052,2.9744091033935547,1.0138729810714722,1.4467555284500122,-0.06785323470830917,-0.9928128719329834,0.0985833927989006,0.11581156402826309,-0.012878715991973877,-0.4914817810058594
1.4179086012863795,-2.5574874360763085,2.6456413069336504,2.9033544063568115,0.9438536167144775,1.5744624137878418,-0.08398303389549255,-0.9883354306221008,0.12704457342624664,0.14268355071544647,0.0687490701675415,-0.5271146297454834
1.3848703749360842,-2.561252343133903,2.658554931774288,2.832448720932007,0.84018474817276,1.6832789182662964,-0.10135937482118607,-0.9827654957771301,0.15459255874156952,0.1794537901878357,0.1592026948928833,-0.5653132200241089
1.3519885364288857,-2.5578303699795892,2.663071330021006,2.737123727798462,0.7186963558197021,1.764803409576416,-0.11963993310928345,-0.9761569499969482,0.18111921846866608,0.19509460031986237,0.24022549390792847,-0.5710573196411133
1.319736420341153,-2.5508033172259874,2.662542732300922,2.59913969039917,0.5791919827461243,1.8151986598968506,-0.1383804827928543,-0.9686496257781982,0.20632264018058777,0.18733064830303192,0.31517666578292847,-0.5456777811050415
1.288476151463073,-2.5422433476784616,2.659011205091051,2.4535980224609375,0.4503607749938965,1.825356364250183,-0.15715143084526062,-0.9604116678237915,0.2300286442041397,0.17065541446208954,0.39150285720825195,-0.5086538791656494
1.2585951330620948,-2.5334217606980554,2.6539287775699627,2.277045726776123,0.34046781063079834,1.7932476997375488,-0.17549842596054077,-0.9516597986221313,0.2520805895328522,0.1443246603012085,0.463347852230072,-0.4669848084449768
1.2304902453848143,-2.5251857934243542,2.6482640024128865,2.101674795150757,0.22827497124671936,1.717847228050232,-0.19295822083950043,-0.9426525235176086,0.2723481357097626,0.11893777549266815,0.5279644131660461,-0.41840508580207825
1.2041708452083613,-2.5183946042109167,2.6429151824362154,1.9605330228805542,0.1276780515909195,1.629315733909607,-0.20921418070793152,-0.9335423111915588,0.29108139872550964,0.09890836477279663,0.5997105240821838,-0.3831680119037628
1.1792739192208115,-2.513272391731025,2.6383260517889062,1.869592308998108,0.04977230355143547,1.5526597499847412,-0.2242971509695053,-0.9243291616439819,0.30871742963790894,0.08232933282852173,0.6675543189048767,-0.351197749376297
1.1552461362148896,-2.509944921649172,2.6350301611097384,1.863750696182251,0.013170081190764904,1.4801304340362549,-0.23837141692638397,-0.9148943424224854,0.32580360770225525,0.0716080367565155,0.7222062349319458,-0.32899248600006104
1.1313925495949533,-2.508789827344265,2.634034746412613,1.928214430809021,0.043820690363645554,1.389449119567871,-0.25158509612083435,-0.9050054550170898,0.34303176403045654,0.05918693542480469,0.768332302570343,-0.32569751143455505
1.1076696662935033,-2.510081602135808,2.6363479575404987,2.005950927734375,0.11295235902070999,1.2337566614151,-0.2637442946434021,-0.8946600556373596,0.36058640480041504,0.03736487030982971,0.8185492157936096,-0.3118038475513458
1.0843333631727206,-2.514048560943117,2.6425343215280814,2.085036277770996,0.19771550595760345,1.0474563837051392,-0.2744978964328766,-0.8839919567108154,0.3784298896789551,0.0112837553024292,0.859150767326355,-0.27738600969314575
1.0615357710980031,-2.520300090771427,2.652396474218131,2.1478898525238037,0.2874928116798401,0.8486351370811462,-0.2837860882282257,-0.8731052279472351,0.39642560482025146,-0.001522839069366455,0.8956727981567383,-0.2502613663673401
1.039486457806571,-2.5281828442212513,2.665409038822201,2.178680419921875,0.3914492726325989,0.6404462456703186,-0.2916654944419861,-0.8621441721916199,0.4142937660217285,-0.017630279064178467,0.921638011932373,-0.22877711057662964
1.0185568830526261,-2.537193616660501,2.68113623930758,2.1648097038269043,0.49863961338996887,0.4174800217151642,-0.2981105446815491,-0.8513518571853638,0.4316599369049072,-0.03894084692001343,0.937853991985321,-0.2052803933620453
0.9991296242926514,-2.5470088240890503,2.6991936144855786,2.11024808883667,0.5909343361854553,0.18450067937374115,-0.3030681610107422,-0.8410003781318665,0.44818320870399475,-0.0565357506275177,0.9490784406661987,-0.17700380086898804
0.9815129588040629,-2.557439689473632,2.7191419502382543,2.017988681793213,0.6496365070343018,-0.041833121329545975,-0.30650094151496887,-0.8313391804695129,0.46360844373703003,-0.0586114227771759,0.9575903415679932,-0.15359535813331604
0.9659824989574572,-2.5684056762347303,2.7404615365915395,1.873801827430725,0.6716475486755371,-0.2615690231323242,-0.3083638846874237,-0.8226079940795898,0.47773241996765137,-0.04747113585472107,0.9637364149093628,-0.13628625869750977
0.9528577890549428,-2.5797227985897266,2.7624474683497833,1.6770403385162354,0.6520304679870605,-0.4459764063358307,-0.3086635172367096,-0.8150745034217834,0.49028652906417847,-0.03439992666244507,0.9648851156234741,-0.10967105627059937
0.9424439019097646,-2.5911784100447344,2.7841139924086145,1.406531572341919,0.5654247999191284,-0.5956291556358337,-0.3074498474597931,-0.8089970946311951,0.5009976029396057,-0.013869792222976685,0.9529637098312378,-0.08835399150848389
0.9352733765761387,-2.6027372539983316,2.8046589274750313,1.0614832639694214,0.4290943741798401,-0.7290245294570923,-0.3046075105667114,-0.8047614097595215,0.509483814239502,0.008083432912826538,0.939633846282959,-0.06476610898971558
0.9317986688459363,-2.614416567046216,2.823433425306388,0.6582609415054321,0.246318981051445,-0.835117757320404,-0.3000415563583374,-0.8026939630508423,0.5154202580451965,0.02426937222480774,0.9312338829040527,-0.04316055774688721
0.9324278524549795,-2.6262872695513426,2.83980177735109,0.19003432989120483,-0.003942789509892464,-0.9134330749511719,-0.29365304112434387,-0.8030690550804138,0.5185056924819946,0.0395788848400116,0.9210653305053711,-0.022518575191497803
0.9375744437845274,-2.6386458144474796,2.8531666573638548,-0.3164205253124237,-0.3188330829143524,-0.9667827486991882,-0.2852270007133484,-0.8061251640319824,0.5184673070907593,0.04528248310089111,0.9104189276695251,0.004314422607421875
0.9473135751384077,-2.6517717212670786,2.863377038205966,-0.8161254525184631,-0.6531359553337097,-1.00661301612854,-0.2746905982494354,-0.8118499517440796,0.5152141451835632,0.04171934723854065,0.907171368598938,0.02261275053024292
0.9613607781012278,-2.6658223676844286,2.8706422086222783,-1.2680176496505737,-0.9543746709823608,-1.0334970951080322,-0.2621747851371765,-0.8199712634086609,0.5088337063789368,0.03355228900909424,0.9070532321929932,0.027848660945892334
0.9792042603401785,-2.680572897211095,2.875552668809761,-1.6495919227600098,-1.1668720245361328,-1.0663442611694336,-0.24809199571609497,-0.8300538659095764,0.49946096539497375,0.01270987093448639,0.9084840416908264,0.028722256422042847
1.0004512706705773,-2.695921287163152,2.87910762390333,-1.9773201942443848,-1.2888267040252686,-1.1393821239471436,-0.2327413111925125,-0.8417147397994995,0.4871842563152313,-0.028947025537490845,0.9032379388809204,0.030333101749420166
1.024650644121602,-2.71186826017879,2.8825482136873397,-2.229412794113159,-1.2857056856155396,-1.23570716381073,-0.21639151871204376,-0.854532778263092,0.47217416763305664,-0.07004646956920624,0.9007670283317566,0.0403076708316803
1.0513239360159143,-2.727743286958673,2.8867639806947345,-2.4495935440063477,-1.139643907546997,-1.3273487091064453,-0.19962967932224274,-0.8680812120437622,0.4545142650604248,-0.08404651284217834,0.907662570476532,0.033584147691726685
1.0802443464108162,-2.7426064221766397,2.891916305574316,-2.6443498134613037,-0.9210774302482605,-1.4075863361358643,-0.18302014470100403,-0.882072925567627,0.43410977721214294,-0.07549431920051575,0.9161458015441895,0.029025286436080933
1.1110313125765268,-2.756599940853122,2.8984817278970114,-2.7918834686279297,-0.7021165490150452,-1.4861400127410889,-0.1666470617055893,-0.8961567878723145,0.41125738620758057,-0.06727029383182526,0.9112626910209656,0.02580055594444275
1.1431616219513674,-2.770068417920368,2.9068562807846483,-2.8914692401885986,-0.47858041524887085,-1.5367895364761353,-0.15055853128433228,-0.9099492430686951,0.38642627000808716,-0.042526260018348694,0.8924930095672607,-0.011731088161468506
1.1760195841258556,-2.7831491793394685,2.916844956102013,-2.9250388145446777,-0.30639562010765076,-1.5361636877059937,-0.13492508232593536,-0.9230824708938599,0.36015862226486206,-0.0006798058748245239,0.8743610978126526,-0.07217934727668762
1.2086030684421711,-2.7963137155073277,2.928529504038453,-2.8735339641571045,-0.15333499014377594,-1.5136922597885132,-0.11992514878511429,-0.9351219534873962,0.33341479301452637,0.05179460346698761,0.8537009358406067,-0.14718103408813477
1.2406945495365442,-2.810574559098256,2.9427246308800497,-2.856112003326416,-0.03904407471418381,-1.5179585218429565,-0.10534755885601044,-0.9460093379020691,0.30654338002204895,0.07165607810020447,0.812982976436615,-0.22268089652061462
1.273083069215199,-2.827691129256211,2.9604190924864384,-2.933958053588867,-0.03613483905792236,-1.562290072441101,-0.09057364612817764,-0.9560097455978394,0.2790016829967499,0.05535632371902466,0.7706002593040466,-0.2468969225883484
1.3065733449941255,-2.8502209256300675,2.9829546673086145,-3.085793972015381,-0.14271995425224304,-1.614247441291809,-0.07502244412899017,-0.9652957320213318,0.2501521110534668,0.04636640101671219,0.704004168510437,-0.24330070614814758
1.3420982392064993,-2.8813206514709644,3.0128370327304457,-3.363023042678833,-0.2847554087638855,-1.7298877239227295,-0.058342345058918,-0.9739623665809631,0.21907448768615723,0.04401429742574692,0.6351104378700256,-0.250034362077713
1.3811284390221406,-2.9289466296914384,3.057687289645,-3.7646496295928955,-0.45991989970207214,-1.8995029926300049,-0.03978942707180977,-0.9820669293403625,0.18428689241409302,0.017374232411384583,0.5773579478263855,-0.2314974069595337
1.4237418338825152,-3.0073897729106758,3.1318150952858583,-4.159684658050537,-0.5936532020568848,-1.9794282913208008,-0.019605189561843872,-0.9892069697380066,0.14520812034606934,0.02433537133038044,0.5146585702896118,-0.20456458628177643
1.4682571197043022,3.1379754394915342,-3.018554012839415,-4.445816993713379,-0.5883135795593262,-1.863425612449646,0.0003702570975292474,-0.9947474598884583,0.10235929489135742,0.11002704501152039,0.45711928606033325,-0.21371771395206451
1.5109385729858786,2.8313968830122334,-2.716535607201661,-4.608131408691406,-0.4981815814971924,-1.6156160831451416,0.018261250108480453,-0.9982090592384338,0.056969668716192245,0.22270551323890686,0.372247576713562,-0.27277445793151855
1.5361677670134954,1.877001056373351,-1.765698916042857,-4.636439800262451,-0.380564421415329,-1.2972121238708496,0.033018603920936584,-0.9994004964828491,0.010438760742545128,0.2853560149669647,0.24189287424087524,-0.34265291690826416
1.5135266356664892,0.893031670071552,-0.7841415148996033,-4.579642295837402,-0.26666608452796936,-1.0310816764831543,0.04458906874060631,-0.9983605146408081,-0.03589290380477905,0.308896005153656,0.10892564058303833,-0.4268754720687866
1.4728311906943208,0.5843978270890516,-0.47688621028879513,-4.540133953094482,-0.1837136447429657,-0.8858204483985901,0.05396125465631485,-0.9952052235603333,-0.08157750964164734,0.26873159408569336,-0.008853673934936523,-0.48810917139053345
1.4288968724910152,0.457500204768166,-0.35085479546102494,-4.540342807769775,-0.16946280002593994,-0.8661149144172668,0.062468454241752625,-0.9899491667747498,-0.1268809288740158,0.2138681858778,-0.09984898567199707,-0.5015368461608887
1.3837814980612504,0.3902387428121443,-0.2842863561070934,-4.539065361022949,-0.13350741565227509,-0.8416759967803955,0.07072824984788895,-0.9825636148452759,-0.17194846272468567,0.17219164967536926,-0.1967424750328064,-0.4996364116668701
1.3386483078028446,0.3476560259569746,-0.24153734421769138,-4.477963924407959,-0.010009721852838993,-0.7379387021064758,0.07838320732116699,-0.9731744527816772,-0.21630443632602692,0.19404718279838562,-0.32618778944015503,-0.5213204622268677
1.2946828843234401,0.3166629119231745,-0.2088236137076418,-4.331520080566406,0.14333657920360565,-0.5619150996208191,0.08489261567592621,-0.9621222615242004,-0.25906386971473694,0.2376933991909027,-0.46693968772888184,-0.5613552331924438
1.2528315928416698,0.29183503905256675,-0.1807265524317887,-4.11725378036499,0.2581971287727356,-0.3752421438694,0.08994801342487335,-0.949873685836792,-0.2994152009487152,0.29088079929351807,-0.5913099050521851,-0.6176683902740479
1.2133602205648886,0.27110327427206216,-0.1558527889304043,-3.9002139568328857,0.2735471725463867,-0.24133551120758057,0.09369438141584396,-0.9367969632148743,-0.3370952904224396,0.30678778886795044,-0.7220626473426819,-0.6711593866348267
1.1761454788832126,0.2532120808310727,-0.13424570621360657,-3.668799877166748,0.15035998821258545,-0.15983426570892334,0.0963195413351059,-0.9231308698654175,-0.3722260594367981,0.2843872308731079,-0.8478807210922241,-0.6962553262710571
1.14143997139577,0.23727781711267434,-0.11600335097409062,-3.393294334411621,0.014978872612118721,-0.10984377562999725,0.09785114228725433,-0.9092338681221008,-0.40462207794189453,0.256900429725647,-0.9500191807746887,-0.7066143155097961
1.1095049599650584,0.22346062479934806,-0.10095588295885717,-3.0964701175689697,-0.059554748237133026,-0.08964981883764267,0.09863776713609695,-0.8954784274101257,-0.4340382516384125,0.21905019879341125,-1.062392234802246,-0.7152383923530579
1.0806337921347817,0.21202869928206147,-0.08929630051347899,-2.743067979812622,-0.15441197156906128,-0.12196405977010727,0.09907039999961853,-0.8822563290596008,-0.46022695302963257,0.17816650867462158,-1.1816322803497314,-0.7175988554954529
1.055478003221091,0.20297951365667916,-0.08155421587590615,-2.3063411712646484,-0.3026416599750519,-0.18908478319644928,0.09934524446725845,-0.8701359033584595,-0.4826946258544922,0.14459696412086487,-1.28422212600708,-0.7403276562690735
1.0349229258248343,0.196069114151077,-0.07806393884100728,-1.76865553855896,-0.46860021352767944,-0.28145551681518555,0.09947120398283005,-0.8598229885101318,-0.5008094310760498,0.12742695212364197,-1.3589119911193848,-0.7638236284255981
1.0197747130688315,0.19143893897595105,-0.07870154938920709,-1.1784995794296265,-0.5501230359077454,-0.36099374294281006,0.09961829334497452,-0.8519901037216187,-0.5139933824539185,0.11409629136323929,-1.4115750789642334,-0.766066312789917
1.0104092323752394,0.18959106103309067,-0.0830878546018158,-0.5654342174530029,-0.5505151152610779,-0.4394165873527527,0.10016772896051407,-0.8470494151115417,-0.521990180015564,0.10825204849243164,-1.4818997383117676,-0.7372870445251465
1.007048570891779,0.19089102637796307,-0.09086503323659845,0.06603830307722092,-0.5045079588890076,-0.4953666925430298,0.10138573497533798,-0.8452584147453308,-0.5246514678001404,0.10611848533153534,-1.5427725315093994,-0.6814795136451721
1.0099926857768295,0.19528582228111727,-0.10178967361859866,0.7338837385177612,-0.46254056692123413,-0.5292077660560608,0.10320720076560974,-0.8468279838562012,-0.5217576026916504,0.13415850698947906,-1.5557448863983154,-0.6265424489974976
1.0193769478038033,0.20267795360376403,-0.11558886434307834,1.3790627717971802,-0.39806249737739563,-0.5183375477790833,0.1054568886756897,-0.8517817854881287,-0.5131733417510986,0.1775325983762741,-1.5333654880523682,-0.5649057626724243
1.034610293943452,0.21255533007437957,-0.1311818052501409,1.9054927825927734,-0.28920531272888184,-0.4213384687900543,0.10777045786380768,-0.8596633076667786,-0.4993642568588257,0.23091360926628113,-1.5097825527191162,-0.48464441299438477
1.054362203255212,0.22393310572929623,-0.14700953971484995,2.26300048828125,-0.1757730096578598,-0.27216416597366333,0.10965245217084885,-0.8695854544639587,-0.48145365715026855,0.29029566049575806,-1.4898507595062256,-0.3667212724685669
1.0772141043902126,0.23553022151537503,-0.16192384603846233,2.4862987995147705,-0.1245056614279747,-0.08760018646717072,0.11056151241064072,-0.8806413412094116,-0.46070292592048645,0.3393133580684662,-1.444889783859253,-0.2500055730342865
1.1021557792560148,0.2457175253393242,-0.17486454062768927,2.61564302444458,-0.1341492384672165,0.12033037841320038,0.1098707765340805,-0.8921831250190735,-0.43810713291168213,0.3778153657913208,-1.3551313877105713,-0.16971129179000854
1.1283435941997293,0.25298127828604616,-0.18448021335057688,2.6356067657470703,-0.1388598382472992,0.35690250992774963,0.10716419667005539,-0.9037042260169983,-0.41452962160110474,0.4006330370903015,-1.246518850326538,-0.10944181680679321
1.1549483958482243,0.25541530896824505,-0.18885239685585292,2.585343360900879,-0.16839322447776794,0.630060076713562,0.10206089168787003,-0.9147741198539734,-0.3908606767654419,0.4026082754135132,-1.1689815521240234,-0.07032078504562378
1.181744202492951,0.2510563837730665,-0.18629187009645112,2.5409154891967773,-0.23192211985588074,0.8991270065307617,0.09423144161701202,-0.9252690076828003,-0.36742061376571655,0.3916541635990143,-1.0745480060577393,-0.08957993984222412
1.209034168405078,0.238761284143283,-0.17607263446205018,2.5626885890960693,-0.32051241397857666,1.1403390169143677,0.08370251953601837,-0.935274600982666,-0.34388279914855957,0.37754011154174805,-0.9484687447547913,-0.15918400883674622
1.237207767857606,0.2175274519080129,-0.15733242527587885,2.6264102458953857,-0.3974630534648895,1.3702564239501953,0.07066596299409866,-0.9448733925819397,-0.3197198212146759,0.35188040137290955,-0.8057828545570374,-0.24111688137054443
1.2663281455080933,0.18574670622296424,-0.12837351728918678,2.694607734680176,-0.4507795572280884,1.557152509689331,0.05536464601755142,-0.9540064930915833,-0.29462945461273193,0.3204440474510193,-0.6438482403755188,-0.29049915075302124
1.2957860835777104,0.14277389656469958,-0.08810397965267439,2.710082769393921,-0.420362651348114,1.6528596878051758,0.03863973543047905,-0.9624224305152893,-0.268794447183609,0.24933935701847076,-0.49792027473449707,-0.31120720505714417
1.324437989328233,0.08833851853728467,-0.035879476627663984,2.647387742996216,-0.37807270884513855,1.6630703210830688,0.021515507251024246,-0.969806969165802,-0.24292360246181488,0.16143734753131866,-0.3770408034324646,-0.31992724537849426
1.3515643045763777,0.0210220159879612,0.02947803040080897,2.587069272994995,-0.35694244503974915,1.6327286958694458,0.004571536090224981,-0.9760647416114807,-0.2174321711063385,0.0873321145772934,-0.25560951232910156,-0.3307243585586548
1.37711244422549,-0.062388381630949515,0.11125413636472485,2.571796178817749,-0.30988651514053345,1.6035172939300537,-0.012000481598079205,-0.9813018441200256,-0.1921015977859497,0.061194777488708496,-0.13861721754074097,-0.38480255007743835
1.4011809924753647,-0.16863658137162157,0.21630690929425408,2.6290717124938965,-0.27635201811790466,1.6025729179382324,-0.028331857174634933,-0.9856497645378113,-0.16640977561473846,0.06739431619644165,-0.029502451419830322,-0.4672113060951233
1.4234721759516211,-0.3089638115924649,0.35562012608962906,2.7164247035980225,-0.27359965443611145,1.6038039922714233,-0.04463552311062813,-0.9891673922538757,-0.13984200358390808,0.07033127546310425,0.07031351327896118,-0.5367935299873352
1.4428177178846726,-0.496829175752333,0.542535169456256,2.814919948577881,-0.26117393374443054,1.5851010084152222,-0.06083384528756142,-0.9918218851089478,-0.11219973117113113,0.057095400989055634,0.15531975030899048,-0.5713327527046204
1.4571513735857278,-0.7422929140392253,0.7872508440198962,2.899470329284668,-0.23486775159835815,1.5391175746917725,-0.07665655016899109,-0.9935493469238281,-0.08356732130050659,0.0400201678276062,0.23862075805664062,-0.5771533250808716
1.4640385081105725,-1.0382465676530992,1.082786548642842,2.973573684692383,-0.200931116938591,1.4667693376541138,-0.09179963916540146,-0.9943068027496338,-0.054101862013339996,0.028582431375980377,0.323805034160614,-0.5719507932662964
1.4617644517896928,-1.3485766407570277,1.3930192438855709,3.0274312496185303,-0.17593629658222198,1.3944426774978638,-0.10614074021577835,-0.9940618872642517,-0.023982634767889977,0.022369951009750366,0.40534722805023193,-0.5622140169143677
1.4506022035836197,-1.627023366900968,1.6716503069522628,3.104689121246338,-0.14662055671215057,1.3247214555740356,-0.1197163388133049,-0.9927853941917419,0.006738398224115372,0.016460061073303223,0.4678371548652649,-0.5465483665466309
1.4325000795244525,-1.8524425815379522,1.8976933610362958,3.2138469219207764,-0.09570623934268951,1.2328684329986572,-0.13242504000663757,-0.9904522895812988,0.0383155383169651,0.014093086123466492,0.5219616293907166,-0.5360264778137207
1.4095446900339075,-2.0278796002643924,2.074747908501924,3.3296589851379395,0.04071708023548126,1.1162909269332886,-0.14407230913639069,-0.987027108669281,0.07085783034563065,-0.0012371689081192017,0.5841034650802612,-0.5066334009170532
1.3834588772042278,-2.161715877488178,2.212028503881883,3.3612468242645264,0.234105184674263,1.004772424697876,-0.15466342866420746,-0.9825035929679871,0.10376187413930893,-0.038711294531822205,0.6415303945541382,-0.4369066655635834
1.3556000320139774,-2.262813257910286,2.3183364672688884,3.3466873168945312,0.36925554275512695,0.899316668510437,-0.16441796720027924,-0.9769344925880432,0.13625852763652802,-0.05451522767543793,0.6792352795600891,-0.34696686267852783
1.3270837822217068,-2.3412721481311936,2.40308306746228,3.296799659729004,0.4377363324165344,0.7572059035301208,-0.1731572151184082,-0.9704487919807434,0.16806499660015106,-0.08305315673351288,0.6937001347541809,-0.2891584634780884
1.2989420633407485,-2.4040497367013622,2.4725766669672815,3.177079677581787,0.4354396164417267,0.604087769985199,-0.18057137727737427,-0.9632746577262878,0.19873715937137604,-0.09594845771789551,0.7013421654701233,-0.25531649589538574
1.2719209533138738,-2.455220661904154,2.5300934283091983,3.0045032501220703,0.36134007573127747,0.47200697660446167,-0.1866011619567871,-0.9556682109832764,0.22776934504508972,-0.07769639790058136,0.7246652245521545,-0.21424981951713562
1.246386189200592,-2.4975743379021966,2.5779173964886395,2.801938056945801,0.2710285782814026,0.373611181974411,-0.19138208031654358,-0.9478389024734497,0.25490131974220276,-0.053185850381851196,0.7381830811500549,-0.16253963112831116
1.2224525933784949,-2.532830660848862,2.6178114726418236,2.601175546646118,0.21022728085517883,0.2977102994918823,-0.1951971799135208,-0.9399393796920776,0.28002214431762695,-0.026925086975097656,0.7426431179046631,-0.13680291175842285
1.200137440518283,-2.562414544139541,2.651427918027151,2.4040071964263916,0.16648054122924805,0.24109846353530884,-0.19826191663742065,-0.9320888519287109,0.3031553626060486,-0.013011366128921509,0.7463586926460266,-0.12806054949760437
1.1794386122674008,-2.5871877670052115,2.6797143130032848,2.202707052230835,0.13304536044597626,0.20469705760478973,-0.20080658793449402,-0.92439204454422,0.3243092894554138,-0.002791494131088257,0.7532951235771179,-0.11329519748687744
1.160468478100714,-2.6079300425929075,2.703666489260127,1.9990531206130981,0.13176068663597107,0.16005051136016846,-0.2029220014810562,-0.9169901013374329,0.3434422016143799,-0.005330026149749756,0.7577186226844788,-0.0798616111278534
1.1432901237178426,-2.6253396418540462,2.724327337661949,1.803101897239685,0.16325362026691437,0.10643920302391052,-0.2046583890914917,-0.9100025296211243,0.3605698347091675,-0.007835537195205688,0.7607105374336243,-0.06215348839759827
1.1279311355167976,-2.6400806327550277,2.7425648031402714,1.6192599534988403,0.1960158348083496,0.04265020415186882,-0.2060169130563736,-0.903527557849884,0.37575992941856384,-0.0011974871158599854,0.7747432589530945,-0.05791902542114258
1.1144451363386587,-2.6529657301685874,2.7593838415605654,1.4397993087768555,0.2616981863975525,-0.0487513467669487,-0.20685957372188568,-0.8976663947105408,0.38910752534866333,-0.007450208067893982,0.7829811573028564,-0.05213218927383423
1.1029388596675285,-2.6642406009434985,2.7754227525682413,1.2535122632980347,0.3535531759262085,-0.14762836694717407,-0.2071911245584488,-0.8925365805625916,0.40056297183036804,-0.018639013171195984,0.7877544164657593,-0.046635180711746216
1.0934535131121603,-2.6740149564249545,2.7908532019171868,1.0700745582580566,0.43212467432022095,-0.2345542013645172,-0.207072913646698,-0.8882188200950623,0.41010844707489014,-0.02034418284893036,0.7916456460952759,-0.03924325108528137
1.0858499544597413,-2.682383236574751,2.805482761609398,0.8895108103752136,0.4818510413169861,-0.2929251492023468,-0.20662127435207367,-0.8846999406814575,0.41786879301071167,-0.0022106170654296875,0.7973737120628357,-0.04659157991409302
1.0799877023131597,-2.6895191049946967,2.8191841878094683,0.7253593802452087,0.5057523846626282,-0.3428186774253845,-0.20589600503444672,-0.8819519877433777,0.4239901900291443,0.016763269901275635,0.8114563822746277,-0.06542375683784485
1.0757632406053759,-2.695923280594108,2.8323022357672425,0.5682920217514038,0.5121524930000305,-0.40962013602256775,-0.2047806829214096,-0.8799529671669006,0.42865803837776184,0.028389036655426025,0.8244568705558777,-0.08730348944664001
1.0732888045228872,-2.7021854237792304,2.845030946028993,0.3931143581867218,0.46456047892570496,-0.47323718667030334,-0.20301805436611176,-0.8787748217582703,0.43190130591392517,0.028838947415351868,0.832281231880188,-0.09794726967811584
1.0726735220560117,-2.7087710957807714,2.857292145837832,0.20815417170524597,0.3641831576824188,-0.5335879325866699,-0.20039613544940948,-0.8784809708595276,0.4337198734283447,0.03216792643070221,0.8380299210548401,-0.09144964814186096
1.0738958217542407,-2.7160199097130455,2.8690828427665247,0.03915609046816826,0.2600144147872925,-0.5887233018875122,-0.196803480386734,-0.8790643215179443,0.434182733297348,0.03132186830043793,0.8454339504241943,-0.09299591183662415
1.0767484079441072,-2.723653742099138,2.880331187201937,-0.12321574985980988,0.19333505630493164,-0.6139882206916809,-0.19246475398540497,-0.8804205656051636,0.4333789348602295,0.023275226354599,0.8394048810005188,-0.09741067886352539
1.0812737423547572,-2.7309795269655925,2.8904209484929257,-0.32761070132255554,0.11406553536653519,-0.6233004927635193,-0.18769241869449615,-0.8825574517250061,0.4311197102069855,0.030969351530075073,0.8068128228187561,-0.08331063389778137
1.087993377059545,-2.7382984905440013,2.8993019194519225,-0.5798724293708801,-0.01280183345079422,-0.6718067526817322,-0.1822005808353424,-0.885697066783905,0.42701759934425354,0.010905355215072632,0.7847295999526978,-0.03526318073272705
1.0974402156028191,-2.746346847871581,2.9075368602648086,-0.8651701807975769,-0.1292719841003418,-0.758938193321228,-0.17552846670150757,-0.890043318271637,0.420729398727417,-0.0244990736246109,0.7871073484420776,0.016450464725494385
1.1099698257504502,-2.755350250980664,2.9156859340875605,-1.1638357639312744,-0.21798855066299438,-0.8694797158241272,-0.16751888394355774,-0.8956852555274963,0.4119291603565216,-0.050468236207962036,0.7867374420166016,0.04266083240509033
1.1256823937089182,-2.7655414741926343,2.9241740116906825,-1.4686532020568848,-0.2853771448135376,-0.9794411063194275,-0.1581239402294159,-0.902561604976654,0.4004748463630676,-0.06781302392482758,0.7708628177642822,0.06948095560073853
1.1444990945162994,-2.7766493877601173,2.933094450708874,-1.7432312965393066,-0.31162819266319275,-1.076978087425232,-0.1475776582956314,-0.910503089427948,0.38627126812934875,-0.06851740181446075,0.7608752250671387,0.10118633508682251
1.1659145039432206,-2.788824317182284,2.9432039224888342,-1.9699240922927856,-0.25845205783843994,-1.1797609329223633,-0.13609497249126434,-0.9191489815711975,0.3696536719799042,-0.07873359322547913,0.752492368221283,0.11253952980041504
1.1896284808436357,-2.8013420911331846,2.9545513735017335,-2.177924871444702,-0.14651986956596375,-1.2284425497055054,-0.12414676696062088,-0.9282308220863342,0.3506784439086914,-0.0833880677819252,0.7409749031066895,0.11511155962944031
1.2151043688159044,-2.813078839780556,2.9662069783890512,-2.339885711669922,-0.025015544146299362,-1.2179023027420044,-0.1123550534248352,-0.9374057650566101,0.32961729168891907,-0.040370240807533264,0.7385072112083435,0.12463715672492981
1.24175002503716,-2.8227872077865173,2.9771764370154985,-2.4642999172210693,0.15985624492168427,-1.1630076169967651,-0.10128289461135864,-0.9463509321212769,0.3068581819534302,0.011011853814125061,0.7188423275947571,0.11082088947296143
1.2692834442984469,-2.8292856215775797,2.986839386500381,-2.567486047744751,0.37203988432884216,-1.1094741821289062,-0.09124432504177094,-0.9548882842063904,0.28260114789009094,0.05241063982248306,0.7026755809783936,0.08652451634407043
1.2974886691706702,-2.833254760291768,2.9956444361093855,-2.6329538822174072,0.5049816370010376,-1.0922247171401978,-0.08191351592540741,-0.9628833532333374,0.25718867778778076,0.07616090029478073,0.6890491247177124,0.05172571539878845
1.326249314066727,-2.837899540097445,3.005917023828642,-2.6922168731689453,0.5357259511947632,-1.1600456237792969,-0.0724041536450386,-0.9702470898628235,0.2310372143983841,0.07345697283744812,0.6645830869674683,0.0017205029726028442
1.356585761950543,-2.848616713713659,3.022197879389945,-2.8813908100128174,0.48068082332611084,-1.3292171955108643,-0.06139260530471802,-0.9771445393562317,0.20351818203926086,0.03734471648931503,0.6515524983406067,-0.026714354753494263
1.3895396957647084,-2.8702475897452646,3.048603416889778,-3.144428014755249,0.3641558289527893,-1.4860941171646118,-0.04831649735569954,-0.9836179614067078,0.1736711859703064,-0.008232630789279938,0.6200618147850037,0.00037075579166412354
1.42522600025317,-2.907389146355668,3.089465245397886,-3.4044785499572754,0.27832552790641785,-1.5666782855987549,-0.033663392066955566,-0.9894233345985413,0.14109794795513153,0.009783342480659485,0.5839208960533142,0.00016808509826660156
1.4628211053820581,-2.969603855716048,-3.1281287710557697,-3.584324598312378,0.3111734986305237,-1.5528301000595093,-0.01844344474375248,-0.9941763281822205,0.10617686063051224,0.07191018760204315,0.5509083867073059,-0.04872727394104004
1.500590911225671,-3.090336052230105,-3.002990858373502,-3.612212896347046,0.4909745752811432,-1.480008840560913,-0.0035939901135861874,-0.9975365996360779,0.07005619257688522,0.15827228128910065,0.5093469023704529,-0.14194011688232422
1.5348005824153341,2.8508281006170924,-2.654017956716905,-3.4754505157470703,0.8258819580078125,-1.360164999961853,0.010318766348063946,-0.999352216720581,0.034482598304748535,0.2381095290184021,0.423256516456604,-0.26359307765960693
1.5476380497676987,1.6087258255615162,-1.4011916060951455,-3.2581615447998047,1.2257198095321655,-1.236299753189087,0.023146767169237137,-0.9997318387031555,0.000878366525284946,0.3066261410713196,0.30878323316574097,-0.4103783369064331
1.524093213696767,0.8612453809730014,-0.6396621532811131,-3.0788872241973877,1.4730074405670166,-1.181643009185791,0.035420551896095276,-0.998909592628479,-0.03041733242571354,0.35480767488479614,0.18125200271606445,-0.5268945097923279
1.493588524070408,0.6697613932756212,-0.43280832450103757,-3.0719845294952393,1.4872121810913086,-1.1774723529815674,0.04788308963179588,-0.997020959854126,-0.06046868860721588,0.33509722352027893,0.0167962908744812,-0.560380756855011
1.4611171092348343,0.5889641533721387,-0.33763122598658896,-3.2097578048706055,1.2715864181518555,-1.2015880346298218,0.06080513447523117,-0.9939912557601929,-0.0910179540514946,0.30049240589141846,-0.14829707145690918,-0.5443273186683655
1.4265269885870742,0.541350087888078,-0.2784871218724155,-3.410848379135132,0.9229112267494202,-1.225633978843689,0.07408370822668076,-0.9896112084388733,-0.12321280688047409,0.28255993127822876,-0.2747931480407715,-0.5414141416549683
1.3898218805892204,0.5062290306124587,-0.2355535839489673,-3.618339776992798,0.5227816104888916,-1.2351441383361816,0.08727375417947769,-0.9836687445640564,-0.1574150025844574,0.286612331867218,-0.3750656247138977,-0.5717870593070984
1.3509997040081947,0.47643650863685894,-0.20168706545712944,-3.8368589878082275,0.15849483013153076,-1.2265721559524536,0.09999288618564606,-0.9759418368339539,-0.19375091791152954,0.27992039918899536,-0.5065566301345825,-0.6066334247589111
1.310083171230459,0.4457107053654048,-0.17071312754767715,-4.152652740478516,-0.313959002494812,-1.0568617582321167,0.11112447828054428,-0.9662063717842102,-0.2325870841741562,0.26996374130249023,-0.6534684300422668,-0.6005731821060181
1.2667424515834889,0.40804011442742055,-0.1363442570898644,-4.470773220062256,-0.5726084113121033,-0.7796021699905396,0.11880162358283997,-0.9541306495666504,-0.2748109698295593,0.35760825872421265,-0.7853256464004517,-0.47952234745025635
1.2227508827227485,0.37033183016361604,-0.10266827614442602,-4.407576560974121,-0.5830866098403931,-0.5784621834754944,0.12343861907720566,-0.9400411248207092,-0.3179400563240051,0.32599371671676636,-0.9627300500869751,-0.5266185402870178
1.1808993570302624,0.33866184230078283,-0.0756722320455123,-4.068105220794678,-0.7453967928886414,-0.507024884223938,0.12627658247947693,-0.9249482154846191,-0.3585039973258972,0.17815150320529938,-1.159906029701233,-0.7756816744804382
1.142786711967427,0.3116850557869573,-0.056301267760176306,-3.6057674884796143,-1.100166916847229,-0.4670849144458771,0.12728384137153625,-0.9097936749458313,-0.3950626254081726,0.14290350675582886,-1.246013879776001,-0.8727442026138306
1.1096874133699266,0.28803307796296024,-0.04406539372813948,-2.982856512069702,-1.3863343000411987,-0.49469032883644104,0.12639324367046356,-0.8955596685409546,-0.4266121983528137,0.14657121896743774,-1.2706544399261475,-0.8455739617347717
1.0831378276741102,0.2701256822958824,-0.04005990625534982,-2.189415693283081,-1.4453880786895752,-0.6227268576622009,0.1250361055135727,-0.8834323883056641,-0.45156756043434143,0.06530199944972992,-1.3600980043411255,-0.8412942290306091
1.0643207186679025,0.2597879597874753,-0.044502974035580005,-1.3107682466506958,-1.3817870616912842,-0.7607926726341248,0.12461002171039581,-0.8744596242904663,-0.4688208997249603,-0.018088430166244507,-1.4745547771453857,-0.8393607139587402
1.0538785487792022,0.2562373745906761,-0.055640055795050304,-0.428987979888916,-1.2532562017440796,-0.8112883567810059,0.12525209784507751,-0.869346559047699,-0.4780675172805786,0.0023571252822875977,-1.5495684146881104,-0.7677361369132996
1.0518675021440331,0.25781021983615576,-0.07109720630857709,0.42173150181770325,-1.1057569980621338,-0.7531686425209045,0.12644939124584198,-0.8683509230613708,-0.47955960035324097,0.08547991514205933,-1.568737268447876,-0.6386043429374695
1.0580403610534836,0.26313521030823817,-0.08880666422065549,1.2008634805679321,-0.8951011896133423,-0.6029567718505859,0.12760454416275024,-0.8713957667350769,-0.47369465231895447,0.17519083619117737,-1.556140422821045,-0.4998311996459961
1.0716799680247664,0.27114691621168546,-0.10706739171884201,1.869577169418335,-0.697247326374054,-0.3713686466217041,0.1281999796628952,-0.878005862236023,-0.46116214990615845,0.2588849365711212,-1.528290033340454,-0.366779625415802
1.0917133126922927,0.2801260905599461,-0.1243152536976586,2.3919663429260254,-0.5565136075019836,-0.08996308594942093,0.12744638323783875,-0.8874179720878601,-0.44299766421318054,0.32441210746765137,-1.4722929000854492,-0.23438557982444763
1.1166364446290054,0.28825919323937693,-0.13919211562509118,2.72184681892395,-0.47106584906578064,0.20187896490097046,0.12471748888492584,-0.898629903793335,-0.42060691118240356,0.36077141761779785,-1.3620209693908691,-0.09503307938575745
1.1443356883089522,0.29401712894743326,-0.15052859167795848,2.812957763671875,-0.437712162733078,0.4559954106807709,0.11987581104040146,-0.9104354977607727,-0.39590030908584595,0.35088831186294556,-1.240443468093872,0.040141791105270386
1.172417813553757,0.2954521768326694,-0.15712232783570215,2.6675355434417725,-0.48810580372810364,0.6602612137794495,0.11295298486948013,-0.9216912388801575,-0.37111613154411316,0.3267900347709656,-1.1208199262619019,0.1668163537979126
1.1986640418283774,0.2900708290439881,-0.15726674813229083,2.326714038848877,-0.6204899549484253,0.8465003371238708,0.10399778187274933,-0.9315541386604309,-0.34841302037239075,0.29387515783309937,-0.9988202452659607,0.2757660448551178
1.2216226724816772,0.27509214822237926,-0.14881943904163028,1.9000385999679565,-0.7806334495544434,0.991594672203064,0.09293238818645477,-0.9396557211875916,-0.3292577862739563,0.28344085812568665,-0.8706470727920532,0.3255806267261505
1.2405982299716478,0.25077288002467635,-0.1320001671601598,1.468524694442749,-0.9054558277130127,1.0652649402618408,0.08045871555805206,-0.9459781050682068,-0.31408900022506714,0.22259604930877686,-0.7436429262161255,0.3025382459163666
1.25560816835252,0.2184497231909817,-0.10822702730637677,1.1028932332992554,-1.0376687049865723,1.0899490118026733,0.06718114763498306,-0.9507380723953247,-0.30262842774391174,0.14891378581523895,-0.6159276962280273,0.23245340585708618
1.2673633584676784,0.18028326339490572,-0.07943910713131586,0.8709745407104492,-1.0913194417953491,1.083794116973877,0.05357704684138298,-0.9543163776397705,-0.29395589232444763,0.11086688935756683,-0.4732655882835388,0.11262065172195435
1.277414592406796,0.1394146711357161,-0.04812829891340185,0.8460038900375366,-1.0791571140289307,1.0421640872955322,0.0401870422065258,-0.9572713971138,-0.28638550639152527,0.08380584418773651,-0.3332255482673645,-0.038901180028915405
1.287817919434509,0.09889246486378869,-0.01654734866226496,1.0194507837295532,-0.9487711787223816,0.9814794063568115,0.027567483484745026,-0.9602280855178833,-0.2778528928756714,0.03816734254360199,-0.19469451904296875,-0.2112368643283844
1.300114206608656,0.05975225508141613,0.015124544607165929,1.2925994396209717,-0.787541925907135,0.9367876052856445,0.015967577695846558,-0.9635887145996094,-0.2669115960597992,-0.0052101630717515945,-0.07617568969726562,-0.3392893970012665
1.3148603036501363,0.02029989408531351,0.048635900651380605,1.5740764141082764,-0.613892138004303,0.9164373278617859,0.005138596054166555,-0.9674267768859863,-0.25309935212135315,-0.0038874149322509766,0.03520619869232178,-0.38809001445770264
1.3320457249295852,-0.02105005167986528,0.08608491123310612,1.842877984046936,-0.3937912881374359,0.9095479846000671,-0.004977740813046694,-0.9716342091560364,-0.23643673956394196,0.003924846649169922,0.14668291807174683,-0.4196452498435974
1.3511536763815457,-0.06678616199388124,0.1297679345736008,2.0405421257019043,-0.2593141496181488,0.8977091908454895,-0.014540652744472027,-0.9759753942489624,-0.21739573776721954,-0.008744284510612488,0.24460619688034058,-0.4239615201950073
1.3712399368493604,-0.12043725370690192,0.1819934667894558,2.131690740585327,-0.264120876789093,0.8840460181236267,-0.02381725423038006,-0.9801546335220337,-0.19679944217205048,-0.017228931188583374,0.31369632482528687,-0.3884512186050415
1.3911153760198243,-0.1864264191697528,0.2461983683082853,2.140125274658203,-0.32059481739997864,0.903816282749176,-0.033124879002571106,-0.983900785446167,-0.1756201535463333,-0.006334397941827774,0.3457016944885254,-0.32733988761901855
1.4096315705550526,-0.27079712549532636,0.32835456625674486,2.072892665863037,-0.3479800820350647,0.9677855968475342,-0.04292537644505501,-0.9870410561561584,-0.15462112426757812,0.019701451063156128,0.3735002875328064,-0.26737576723098755
1.4255479710297658,-0.3777124529899488,0.43315496018664856,1.937565803527832,-0.3104657232761383,1.046248435974121,-0.05337940901517868,-0.9894700050354004,-0.13453738391399384,0.0384104922413826,0.404310405254364,-0.22585977613925934
1.4377563509870492,-0.5088804201118067,0.5629310444698951,1.798459768295288,-0.20439575612545013,1.1530685424804688,-0.06462667882442474,-0.9911632537841797,-0.11584130674600601,0.06056780368089676,0.43829137086868286,-0.17024552822113037
1.4459937618349816,-0.662579195993675,0.7165948100080526,1.7501507997512817,-0.06425701826810837,1.2094743251800537,-0.07657352834939957,-0.992222249507904,-0.09814024716615677,0.06831848621368408,0.46287959814071655,-0.13888953626155853
1.4507621041209369,-0.831805263115028,0.8866707175613056,1.760434627532959,-0.03847462683916092,1.1718804836273193,-0.08851145207881927,-0.9928045272827148,-0.08065526932477951,0.033518724143505096,0.46868014335632324,-0.1407342553138733
1.4525450551999257,-1.0090998511494815,1.0644961892685607,1.8061096668243408,-0.11369587481021881,1.0918793678283691,-0.09985032677650452,-0.9930164813995361,-0.06283734738826752,0.017025575041770935,0.4821521043777466,-0.14632993936538696
1.4516650106769435,-1.1883708415271577,1.2431098152303144,1.8616929054260254,-0.2803860604763031,0.9669421911239624,-0.11026500165462494,-0.992912232875824,-0.04435165598988533,0.027623362839221954,0.5249708890914917,-0.18079161643981934
1.4488138686464949,-1.3623506957546083,1.4143304526070992,1.8886387348175049,-0.5251082181930542,0.7612095475196838,-0.11904744058847427,-0.9925693869590759,-0.025180675089359283,0.03295730799436569,0.5589144825935364,-0.1718253493309021
1.444745959650875,-1.5240639128853164,1.5708781158912948,1.8203691244125366,-0.723014235496521,0.5368205308914185,-0.12558072805404663,-0.9920661449432373,-0.005872966255992651,-0.013915181159973145,0.5529028177261353,-0.11155843734741211
1.4398560666729614,-1.6658851795031895,1.7064171668683554,1.6465307474136353,-0.7305907011032104,0.35948997735977173,-0.12997765839099884,-0.9914395809173584,0.012396812438964844,-0.06054362654685974,0.5310512781143188,-0.05695223808288574
1.4347081711980394,-1.7821146424897183,1.8167608534910813,1.3944852352142334,-0.6318114995956421,0.2083038091659546,-0.13265188038349152,-0.9907543063163757,0.028456617146730423,-0.06273695826530457,0.5240793824195862,-0.003828763961791992
1.4301513309681624,-1.872692521378325,1.902442151139078,1.1163257360458374,-0.5003405809402466,0.06974378973245621,-0.13384301960468292,-0.9901257753372192,0.04168073832988739,-0.06641337275505066,0.5230693817138672,0.05066573619842529
1.4269523066424945,-1.94239610295188,1.9685600575641007,0.8637479543685913,-0.34709787368774414,-0.08080404996871948,-0.1335659623146057,-0.9896723031997681,0.05205129086971283,-0.07160376012325287,0.5248436331748962,0.06649446487426758
1.425299504927988,-1.9966623522049736,2.020551483200505,0.6483246088027954,-0.21634384989738464,-0.18927887082099915,-0.13203541934490204,-0.989434003829956,0.059894826263189316,-0.07185257971286774,0.510536789894104,0.06780624389648438
1.424670037286777,-2.039377778032788,2.062074841593678,0.501885712146759,-0.11589837074279785,-0.1986929178237915,-0.12991318106651306,-0.9893425107002258,0.06575979292392731,-0.039840906858444214,0.4750754237174988,0.05306053161621094
1.423770703075263,-2.072806195800271,2.094729500091856,0.4322690963745117,-0.12446815520524979,-0.07157677412033081,-0.12842267751693726,-0.9892112016677856,0.07049313932657242,0.05127416551113129,0.44709670543670654,0.009890325367450714
1.4214919418901952,-2.0996276797311513,2.119844490706389,0.4436749219894409,-0.29216790199279785,0.10412593185901642,-0.12843213975429535,-0.9888747930526733,0.07504909485578537,0.12451057136058807,0.44260990619659424,-0.028189174830913544
1.4176896364348408,-2.123781657677384,2.1401296897242257,0.4680130183696747,-0.5210372805595398,0.22306591272354126,-0.12978021800518036,-0.9883020520210266,0.08010298013687134,0.14130055904388428,0.43958061933517456,-0.03959071636199951
1.4132288162747602,-2.1472179794173742,2.157812416063574,0.46286338567733765,-0.6496586799621582,0.22594954073429108,-0.13156285881996155,-0.9876118898391724,0.0855245515704155,0.10186919569969177,0.41649043560028076,-0.024763815104961395
1.4092541701488128,-2.169923483041658,2.173982127293581,0.3917122483253479,-0.6801348328590393,0.13985273241996765,-0.1328277736902237,-0.9869804382324219,0.09070226550102234,0.04606625437736511,0.38427335023880005,0.015834808349609375
1.4067852005493235,-2.1893914766456244,2.1871803839820054,0.22420628368854523,-0.6002741456031799,0.017998911440372467,-0.13302138447761536,-0.9865803122520447,0.09468332678079605,-0.0008135139942169189,0.3427203297615051,0.06315374374389648
1.4064486189036214,-2.200228103111566,2.193015735843124,-0.04266031086444855,-0.3783600926399231,-0.06830188632011414,-0.13225556910037994,-0.986525297164917,0.0963144302368164,-0.031440749764442444,0.2997729182243347,0.147505983710289
1.4084607583976643,-2.1962285679588587,2.186546248357073,-0.3660711646080017,-0.11007962375879288,-0.1323968917131424,-0.1310306042432785,-0.9868524670600891,0.09462268650531769,-0.050716862082481384,0.27007079124450684,0.20312225818634033
1.4126765769697742,-2.1756681886767817,2.1653119539432097,-0.6609895825386047,0.0029254890978336334,-0.1577877402305603,-0.12952455878257751,-0.9875251054763794,0.08954199403524399,-0.027869895100593567,0.24559694528579712,0.22622358798980713
1.418125582096494,-2.140308297485432,2.1292647876715622,-0.845566987991333,-0.06391084939241409,-0.12185807526111603,-0.12807507812976837,-0.9883684515953064,0.08200394362211227,0.022911474108695984,0.2279466986656189,0.20203864574432373
1.4232510170137749,-2.095513946270045,2.0826407334231263,-0.8439978361129761,-0.21290938556194305,-0.021172475069761276,-0.12723331153392792,-0.9891349077224731,0.0736481174826622,0.08736205101013184,0.2313375473022461,0.09541940689086914
1.4266335626879136,-2.051210401616561,2.034648367214529,-0.6858029961585999,-0.41216257214546204,0.09531107544898987,-0.12740224599838257,-0.9896265268325806,0.06639405339956284,0.11937609314918518,0.24807989597320557,-0.041033752262592316
1.4279790888257593,-2.0165021882382597,1.9947613135000006,-0.4430020749568939,-0.526508092880249,0.16486325860023499,-0.12842729687690735,-0.9898189306259155,0.06135869026184082,0.12337663769721985,0.2496761679649353,-0.09231854975223541
1.427709837737486,-1.9974776582985403,1.970104201087842,-0.16953875124454498,-0.5263341665267944,0.17269213497638702,-0.12981510162353516,-0.989780604839325,0.05901529639959335,0.09406371414661407,0.2304878830909729,-0.11351943016052246
1.4265642663362812,-1.994108696638399,1.9622110679874218,0.0478242002427578,-0.3389616310596466,0.12443672120571136,-0.1310461163520813,-0.9896165728569031,0.05904301255941391,0.033649250864982605,0.19832628965377808,-0.07866562157869339
1.4253691294022997,-2.0016635579151107,1.9677444833015845,0.18317453563213348,-0.07574434578418732,0.019207878038287163,-0.13167178630828857,-0.9894440770149231,0.060525715351104736,-0.029033809900283813,0.16011351346969604,0.00382077693939209
1.4249079845263304,-2.0163740900494522,1.9830568294542752,0.2468765527009964,0.16191881895065308,-0.1229734942317009,-0.13117972016334534,-0.9893771409988403,0.0626530796289444,-0.07981887459754944,0.13728034496307373,0.082015760242939
1.4254365649026568,-2.034646522848164,2.0040829176480592,0.2406492829322815,0.32931044697761536,-0.23465128242969513,-0.12954501807689667,-0.9894538521766663,0.06480531394481659,-0.10568453371524811,0.10961657762527466,0.12074173241853714
1.426880057483466,-2.051798131745956,2.025073716329465,0.1569242924451828,0.3790963888168335,-0.2908274829387665,-0.12714719772338867,-0.9896619319915771,0.06635618954896927,-0.09132817387580872,0.0737224817276001,0.13301539421081543
1.4291044288672243,-2.063928129817888,2.041021637808181,0.030623458325862885,0.33449703454971313,-0.30916473269462585,-0.12439334392547607,-0.9899784922599792,0.0668511837720871,-0.06420531868934631,0.05505716800689697,0.13534319400787354
1.4319283287054412,-2.069103478770638,2.048898207522259,-0.10688433796167374,0.182962104678154,-0.2866213321685791,-0.12158983945846558,-0.9903733134269714,0.06615781784057617,-0.031226977705955505,0.044938623905181885,0.13066554069519043
1.4350355722330557,-2.066262254364146,2.046945453629018,-0.23300834000110626,-0.006225921213626862,-0.23397338390350342,-0.11907047033309937,-0.9907986521720886,0.0643492266535759,0.01993405818939209,0.01695197820663452,0.10845673829317093
1.43840513262776,-2.056047360865896,2.0355664026539895,-0.3484768569469452,-0.19561262428760529,-0.22165760397911072,-0.11676633358001709,-0.9912490844726562,0.06157128885388374,0.022100776433944702,-0.006568968296051025,0.08196842670440674
1.442303909556735,-2.040039848767446,2.0168799283721635,-0.4386756718158722,-0.2919136881828308,-0.2520282566547394,-0.1142895370721817,-0.9917562007904053,0.05794646218419075,-0.001173757016658783,-0.011616110801696777,0.08153438568115234
1.446899377207651,-2.019441921166873,1.9931778567110168,-0.49917203187942505,-0.2807214856147766,-0.3079463541507721,-0.11135130375623703,-0.9923346042633057,0.053602926433086395,-0.029960379004478455,-0.015554308891296387,0.08249032497406006
1.4522087861793198,-1.994628881242986,1.9658057189044262,-0.542644739151001,-0.17998869717121124,-0.3722872734069824,-0.10784389078617096,-0.992976725101471,0.04865671694278717,-0.05460122972726822,-0.033711135387420654,0.07582474499940872
1.458128115949573,-1.9660765397737738,1.9358992480795458,-0.5571441054344177,-0.04966609925031662,-0.43527740240097046,-0.10376100987195969,-0.9936596751213074,0.04329332709312439,-0.0642993226647377,-0.0494922399520874,0.059291716665029526
1.4644276103811065,-1.9350597647440482,1.9045897166815169,-0.5406960248947144,0.022197159007191658,-0.4750823676586151,-0.09920313209295273,-0.9943481683731079,0.03782398998737335,-0.07064249366521835,-0.053961217403411865,0.03639495000243187
1.4707629819919266,-1.9026952326340498,1.8724497732713505,-0.5105668902397156,0.05037526786327362,-0.4824633002281189,-0.09441791474819183,-0.9950008392333984,0.0325409397482872,-0.05070847272872925,-0.06420338153839111,0.00839853286743164
1.4768656044031627,-1.8682908859750713,1.8382793042692636,-0.4987793564796448,0.024308208376169205,-0.46883121132850647,-0.0896732434630394,-0.9955917596817017,0.027493204921483994,-0.0061062052845954895,-0.07072293758392334,-0.009716514497995377
1.4827025582132425,-1.8279588249809853,1.7977884463529095,-0.5316709876060486,-0.022699512541294098,-0.4463943541049957,-0.08508661389350891,-0.9961222410202026,0.022376548498868942,0.010104894638061523,-0.06788831949234009,-0.0020364560186862946
1.488242077013493,-1.7753097451149582,1.7444571245255671,-0.6119553446769714,-0.07748951762914658,-0.4211295545101166,-0.08074300736188889,-0.9965943098068237,0.016747169196605682,0.007531315088272095,-0.06305235624313354,0.013999460265040398
1.493332880033006,-1.7017535858113668,1.669459710756355,-0.744014322757721,-0.1636401116847992,-0.3727521598339081,-0.07672544568777084,-0.9970012307167053,0.010105589404702187,0.004841245710849762,-0.058479905128479004,0.026347875595092773
1.4973510748321943,-1.597710302839653,1.5630766144041888,-0.9152211546897888,-0.2391662746667862,-0.2975640296936035,-0.07335322350263596,-0.9973040819168091,0.0019747037440538406,0.013935469090938568,-0.05820739269256592,0.03815615177154541
1.4995508001314195,-1.4597745471383232,1.4222836902246698,-1.0926854610443115,-0.25041812658309937,-0.22716307640075684,-0.0707501471042633,-0.9974631071090698,-0.007887239567935467,0.02489744871854782,-0.05005300045013428,0.051130831241607666
1.4992019814636,-1.2931653211253018,1.2528138224374818,-1.2891483306884766,-0.23954786360263824,-0.17296428978443146,-0.06879718601703644,-0.9974381923675537,-0.019606592133641243,0.013590849936008453,-0.03690946102142334,0.07774275541305542
1.4955040840150802,-1.1092726339948817,1.0660315788334058,-1.5257102251052856,-0.23703624308109283,-0.1300964504480362,-0.06735381484031677,-0.9971668720245361,-0.03349827975034714,-0.002500958740711212,-0.02971935272216797,0.11420220136642456
1.487742455329311,-0.9254844135214917,0.8793872109419653,-1.7844775915145874,-0.21842214465141296,-0.10338577628135681,-0.06627827137708664,-0.9965530037879944,-0.0498964861035347,-0.007803186774253845,-0.017103731632232666,0.15560954809188843
1.475697912875594,-0.7612306720616616,0.7126762951043891,-2.0033345222473145,-0.12766800820827484,-0.069170281291008,-0.06550184637308121,-0.995481550693512,-0.06874693930149078,-0.02595936506986618,0.018522262573242188,0.18283706903457642
1.4600725398904129,-0.630552983372317,0.5808074126773611,-2.093254327774048,0.024422984570264816,-0.00298584857955575,-0.06514906138181686,-0.9938763976097107,-0.08924993872642517,-0.041631974279880524,0.05744439363479614,0.15342861413955688
1.4425049420994958,-0.5380904201326813,0.48833639344537627,-2.02567195892334,0.0906004011631012,0.10330384224653244,-0.06556934118270874,-0.9917819499969482,-0.10986141115427017,0.006060026586055756,0.07822287082672119,0.08448624610900879
1.4244905589048678,-0.4776429653764238,0.42827273730640286,-1.9086897373199463,0.09134256839752197,0.2023276835680008,-0.0670156180858612,-0.9893164038658142,-0.129469096660614,0.04009907692670822,0.06725811958312988,0.03014981746673584
1.4068415091113555,-0.4372806524111264,0.3883005143480291,-1.7924011945724487,0.07863449305295944,0.2431909590959549,-0.06912116706371307,-0.9865894913673401,-0.14786456525325775,0.06513858586549759,0.07144343852996826,0.01833289861679077
1.3899137348094714,-0.4088405294530269,0.360080514013129,-1.6821390390396118,0.05231596156954765,0.25519993901252747,-0.0715179517865181,-0.983685314655304,-0.16507187485694885,0.05206295847892761,0.0859648585319519,0.019381165504455566
1.373990684997655,-0.3873627308350359,0.338718259816144,-1.5495240688323975,0.051365744322538376,0.23442035913467407,-0.07386421412229538,-0.9806962013244629,-0.18105067312717438,0.021602824330329895,0.07891690731048584,0.01256328821182251
1.359353687417048,-0.37066047432962335,0.3221011157393784,-1.4152531623840332,0.031358882784843445,0.22085991501808167,-0.07602198421955109,-0.9777291417121887,-0.19561876356601715,0.009173184633255005,0.05518263578414917,0.009126007556915283
1.3456860103267114,-0.35702486056902866,0.30838565749605285,-1.3540246486663818,0.01694639027118683,0.1926884651184082,-0.07801083475351334,-0.9747694730758667,-0.20913872122764587,0.0037767738103866577,0.01973700523376465,0.014619827270507812
1.332290833009292,-0.34425079164909667,0.2951672224186608,-1.3741819858551025,-0.03955412283539772,0.15624554455280304,-0.07973263412714005,-0.9716921448707581,-0.2223896086215973,0.0048424676060676575,0.0016145706176757812,0.0497824102640152
1.3185286503086362,-0.3316340877699511,0.28138728151244363,-1.4412400722503662,-0.10700666904449463,0.12677739560604095,-0.08126727491617203,-0.9683489203453064,-0.23600080609321594,0.006590723991394043,-0.00572657585144043,0.10041135549545288
1.3041055707118874,-0.31922400610262,0.2672818736349938,-1.514890193939209,-0.13321666419506073,0.10898882150650024,-0.0827069878578186,-0.9646483063697815,-0.25022655725479126,0.010059855878353119,-0.013928413391113281,0.1155831515789032
1.2890845955812056,-0.30761430895411324,0.25385077261927036,-1.5484033823013306,-0.1272040456533432,0.12769274413585663,-0.08417466282844543,-0.9605810046195984,-0.2649509608745575,0.02269696444272995,-0.028600633144378662,0.10644286870956421
1.2740023066720745,-0.29808959949660907,0.24285113404311032,-1.4963804483413696,-0.06602511554956436,0.16991929709911346,-0.08589287102222443,-0.9562790393829346,-0.2795588970184326,0.028977543115615845,-0.040959298610687256,0.07890599966049194
1.259862239934579,-0.2910052592426287,0.2348840867488157,-1.3306585550308228,-0.06083115190267563,0.18884851038455963,-0.08778132498264313,-0.9520481824874878,-0.2930851876735687,0.03294119983911514,-0.03859829902648926,0.005548715591430664
1.2475457840136437,-0.2869355071044115,0.229236933514111,-1.1203553676605225,-0.21003097295761108,0.1729040890932083,-0.0898996889591217,-0.9482079148292542,-0.3046637177467346,0.04265843331813812,-0.0350227952003479,-0.07027512788772583
1.2374096076157222,-0.28634061895451873,0.2254745898884186,-0.8843606114387512,-0.378640741109848,0.17008674144744873,-0.09242837876081467,-0.9449394941329956,-0.31392112374305725,0.05690588057041168,-0.039954423904418945,-0.11601036787033081
1.229572810474416,-0.2892211281225272,0.22382752811336595,-0.6442499160766602,-0.5005366206169128,0.1720067411661148,-0.09544143080711365,-0.942345917224884,-0.3207417130470276,0.061093851923942566,-0.04831582307815552,-0.16026091575622559
1.2238345466475682,-0.2950877588471683,0.22420521411642563,-0.45844516158103943,-0.5908188223838806,0.18283729255199432,-0.09889243543148041,-0.9404101967811584,-0.32534462213516235,0.06616229563951492,-0.059467852115631104,-0.17137452960014343
1.2193478334944279,-0.302691277198991,0.2258976994883185,-0.3777230679988861,-0.5907900333404541,0.1893853098154068,-0.10262002795934677,-0.9388750195503235,-0.3286075294017792,0.056095950305461884,-0.06034684181213379,-0.111623615026474
1.2151675610040618,-0.3099913652480824,0.22786457434692844,-0.3841167986392975,-0.492168128490448,0.19153980910778046,-0.10621248185634613,-0.9374277591705322,-0.33158451318740845,0.034435100853443146,-0.054668307304382324,-0.04523110389709473
1.2106776918786268,-0.31598110080434466,0.2295631999310251,-0.43914908170700073,-0.38901036977767944,0.19516338407993317,-0.1095036044716835,-0.9358550310134888,-0.3349399268627167,0.009817883372306824,-0.05996435880661011,-0.011983722448348999
1.2054753590080947,-0.3205918953130443,0.23059387492168829,-0.5245955586433411,-0.34686505794525146,0.1950150430202484,-0.11257945746183395,-0.9340091347694397,-0.3390473425388336,0.006118834018707275,-0.0664793848991394,-0.000979393720626831
1.1994558994696776,-0.32413616718920435,0.23057413501377558,-0.6126315593719482,-0.3659236431121826,0.1836337000131607,-0.1155688688158989,-0.9318417906761169,-0.3439691662788391,0.016249381005764008,-0.05373871326446533,0.00761982798576355
1.1927698671974907,-0.3268702995942949,0.2294729203712322,-0.6742331385612488,-0.3772498071193695,0.1653074324131012,-0.11850682646036148,-0.9293948411941528,-0.3495449721813202,0.018546462059020996,-0.047671377658843994,-0.005816817283630371
1.1857479853817843,-0.32840572139306834,0.22735694761666653,-0.6955742835998535,-0.3196083605289459,0.13185793161392212,-0.12114525586366653,-0.9267802834510803,-0.35553106665611267,0.018362022936344147,-0.04648643732070923,-0.028959721326828003
1.1788966704605763,-0.3288142711969295,0.22419993202141905,-0.6725837588310242,-0.3469582200050354,0.08615567535161972,-0.12333812564611435,-0.9241851568222046,-0.36148276925086975,6.23166561126709e-05,-0.03949916362762451,-0.0500466525554657
1.172421865711941,-0.3287901556890785,0.22067634447668774,-0.6344659328460693,-0.28830158710479736,0.07859603315591812,-0.1252589225769043,-0.9216927886009216,-0.3671412765979767,-0.00911000370979309,-0.03277510404586792,-0.04647853970527649
1.1664227531033173,-0.3286871898315099,0.21779720071687075,-0.5679132342338562,-0.22377952933311462,0.096328005194664,-0.12700381875038147,-0.9193490147590637,-0.3723811209201813,0.001103520393371582,-0.02742844820022583,-0.04964631795883179
1.1609705457766943,-0.3289959357087296,0.2159623815389201,-0.5060727000236511,-0.1701565682888031,0.11962034553289413,-0.12873633205890656,-0.9171902537345886,-0.3770798444747925,0.014295384287834167,-0.029251515865325928,-0.052683740854263306
1.156110016956004,-0.32955015798249754,0.21516137134537106,-0.43042826652526855,-0.09187720715999603,0.1324802190065384,-0.13038645684719086,-0.9152427315711975,-0.38122203946113586,0.010757505893707275,-0.02460724115371704,-0.0417514443397522
1.152056188882058,-0.3300335698712607,0.21497872722586972,-0.3407743275165558,-0.04964002966880798,0.11173879355192184,-0.13177207112312317,-0.9136019349098206,-0.38466590642929077,0.010296806693077087,-0.00804436206817627,-0.0507282018661499
1.1488087414666426,-0.3303662211336535,0.2147825960320589,-0.28017887473106384,-0.053982313722372055,0.0829489603638649,-0.13286177814006805,-0.9122766852378845,-0.3874265253543854,0.005450844764709473,-9.226799011230469e-05,-0.06038820743560791
1.1461815119476726,-0.330639624166574,0.2144004538171618,-0.2229447364807129,-0.07593289762735367,0.061460789293050766,-0.13374534249305725,-0.9111974835395813,-0.38965579867362976,-0.00016584992408752441,-0.0019649863243103027,-0.055900752544403076
1.1442869105396578,-0.3318649301978488,0.21455078902370242,-0.12548157572746277,-0.14522993564605713,0.0733848363161087,-0.13478483259677887,-0.9104153513908386,-0.39112287759780884,0.023319333791732788,-0.002502918243408203,-0.07846617698669434
1.143242211283896,-0.33452534166249104,0.2157067375281137,-0.03714679554104805,-0.1598253846168518,0.07993479073047638,-0.13613711297512054,-0.9099826216697693,-0.391661137342453,0.04191404581069946,-0.009008586406707764,-0.09402596950531006
1.1431662990646727,-0.3371188124008649,0.21728385522036767,0.06768693774938583,-0.05931182950735092,0.04186011105775833,-0.13717521727085114,-0.9099511504173279,-0.39137181639671326,0.023130998015403748,-0.0034857988357543945,-0.06771919131278992
1.14432616960012,-0.33746641680788775,0.21804297662934655,0.16422833502292633,0.14200343191623688,-0.06723929941654205,-0.13696177303791046,-0.9104315638542175,-0.3903281092643738,-0.01638910174369812,0.003983020782470703,-0.050025105476379395
1.1466132752197444,-0.3332076407199317,0.21647968609153403,0.22080186009407043,0.41986382007598877,-0.20118404924869537,-0.13461682200431824,-0.9113752841949463,-0.38893917202949524,-0.07140737771987915,-0.002611100673675537,-0.014304637908935547
1.1497924601125362,-0.32459471031596143,0.21252292665381764,0.27461889386177063,0.5551472902297974,-0.2983025312423706,-0.130337193608284,-0.912679135799408,-0.38733595609664917,-0.08182105422019958,-0.0001322627067565918,0.0021584630012512207
1.153572565076992,-0.3142810487857001,0.20728495879988798,0.29733940958976746,0.5293601751327515,-0.33345678448677063,-0.1252681314945221,-0.914217472076416,-0.3853759765625,-0.04062545299530029,0.01042395830154419,-0.011428654193878174
1.1573746203895052,-0.3041093349206073,0.20147550485211324,0.27465447783470154,0.4371117651462555,-0.3439069390296936,-0.12029995769262314,-0.9157515168190002,-0.3833106458187103,-0.005737677216529846,0.010600090026855469,-0.016988247632980347
1.1607700306541855,-0.29420575124194365,0.19478678931095308,0.21121105551719666,0.30589568614959717,-0.36545830965042114,-0.11559566855430603,-0.9171103239059448,-0.3815053105354309,0.006892018020153046,0.010356724262237549,-0.019876986742019653
1.1634085772837348,-0.284744143425966,0.18696262185176243,0.11634182184934616,0.14959673583507538,-0.36932551860809326,-0.11130081117153168,-0.9181589484214783,-0.3802584409713745,0.0028260350227355957,0.01126796007156372,-0.007986009120941162
1.1650717888757927,-0.2767105697283019,0.17928494999942393,0.03101414069533348,0.05716320499777794,-0.296831339597702,-0.10782505571842194,-0.9188166856765747,-0.3796707093715668,0.02315399795770645,-0.0019903182983398438,0.01968550682067871
1.1656542019440472,-0.2706610951469902,0.17300782559974023,-0.0505911186337471,-0.0011073257774114609,-0.21098950505256653,-0.10538316518068314,-0.9190464019775391,-0.3798002302646637,0.05342695862054825,-0.02083408832550049,0.0066772401332855225
1.165253815619677,-0.26619821794003096,0.1678880444731465,-0.13190674781799316,-0.04093250259757042,-0.16372372210025787,-0.10378394275903702,-0.918888509273529,-0.3806218206882477,0.054238609969615936,-0.023280858993530273,0.014395833015441895
1.1640343172625784,-0.261665572199759,0.16269260118034148,-0.21132628619670868,0.0032106945291161537,-0.1739891618490219,-0.1023474708199501,-0.9184067249298096,-0.38217052817344666,0.03839784860610962,-0.014698922634124756,0.035353660583496094
1.1620285353423507,-0.25531189162337514,0.1563257218560129,-0.30303755402565,0.102711983025074,-0.21315787732601166,-0.10038222372531891,-0.917611300945282,-0.3845946192741394,0.007532455027103424,-0.011282861232757568,0.04917609691619873
1.1591800683832205,-0.24658169528172574,0.14840306998509803,-0.4028618037700653,0.18455441296100616,-0.25534605979919434,-0.09765847027301788,-0.9164753556251526,-0.38798949122428894,-0.017255499958992004,-0.015089094638824463,0.06238237023353577
1.1553807370120777,-0.236080220141976,0.1390557553504049,-0.5135696530342102,0.18923571705818176,-0.2886342406272888,-0.09439247846603394,-0.9149487018585205,-0.3923763930797577,-0.015562392771244049,-0.009917199611663818,0.07395613193511963
1.1504853366434065,-0.2247442639609431,0.12839137078795748,-0.6346842050552368,0.11926352977752686,-0.3308171331882477,-0.09093566238880157,-0.9129620790481567,-0.39778292179107666,-0.00401981920003891,0.006238877773284912,0.07017683982849121
1.1444212580815136,-0.2129332443818781,0.11608249762626514,-0.7673948407173157,-0.003925246186554432,-0.3923768997192383,-0.08739953488111496,-0.9104709029197693,-0.40423285961151123,-0.002520538866519928,0.024148762226104736,0.06287863850593567
1.136926652349717,-0.20037400154549698,0.10159846192117193,-0.9516188502311707,-0.10849791765213013,-0.4833921492099762,-0.08367174118757248,-0.9073457717895508,-0.4119742512702942,-0.006080493330955505,0.03332221508026123,0.06433343887329102
1.1274509818406497,-0.186015139615004,0.08427357756467346,-1.1881102323532104,-0.15259213745594025,-0.5976085066795349,-0.07933446764945984,-0.9033216834068298,-0.42156416177749634,-0.012294597923755646,0.04809689521789551,0.08141535520553589
1.1155652169136756,-0.16935037677732892,0.06400096558012096,-1.4602080583572388,-0.16548989713191986,-0.7068544030189514,-0.07410289347171783,-0.8981594443321228,-0.4333803653717041,-0.01618339866399765,0.07464247941970825,0.10052525997161865
1.1009795238837574,-0.15099836591885193,0.04168616736583628,-1.7253260612487793,-0.1554601639509201,-0.7873694896697998,-0.06810096651315689,-0.8916512131690979,-0.447571724653244,-0.0020589679479599,0.10261917114257812,0.10456952452659607
1.083684488471445,-0.13183944041230428,0.018471558400641304,-1.9869574308395386,-0.1372007429599762,-0.8307769298553467,-0.06153223663568497,-0.8836884498596191,-0.4640137553215027,0.009225074201822281,0.11443167924880981,0.09040242433547974
1.0637005757299816,-0.11291111408165559,-0.004429752968576876,-2.2339935302734375,-0.1000368520617485,-0.8421478271484375,-0.054717808961868286,-0.8741586208343506,-0.48254841566085815,0.0229794904589653,0.12013006210327148,0.06944727897644043
1.0410825656467746,-0.0945841387977662,-0.02634363795379906,-2.470430612564087,-0.04630078747868538,-0.8462942242622375,-0.04772086441516876,-0.8629517555236816,-0.5030280351638794,0.045447275042533875,0.1397460699081421,0.044654130935668945
1.0161153351164098,-0.07725677535537961,-0.04735663025138767,-2.6665279865264893,-0.10593482106924057,-0.8878214359283447,-0.040648527443408966,-0.8500685095787048,-0.5251011848449707,0.036162424832582474,0.17216616868972778,0.01689213514328003
0.9892975281182507,-0.06156288722670998,-0.06812118908095997,-2.8166627883911133,-0.26650047302246094,-0.965220034122467,-0.033793725073337555,-0.8356403112411499,-0.5482364892959595,0.028849855065345764,0.21678954362869263,-0.001995265483856201
0.9609700888205475,-0.04811472652927934,-0.08861761748724122,-2.94576358795166,-0.43804478645324707,-1.0050029754638672,-0.027545878663659096,-0.8197475671768188,-0.5720622539520264,0.029987262561917305,0.2538599967956543,-0.009877264499664307
0.9312233430725927,-0.03813630276095826,-0.10778113638096583,-3.078401803970337,-0.6869661211967468,-0.9567298293113708,-0.022756246849894524,-0.8023506999015808,-0.5964189767837524,0.05431140214204788,0.28164440393447876,-0.0019847750663757324
0.8999194422108883,-0.033531904747051276,-0.12419154006031578,-3.23648738861084,-0.9840835332870483,-0.799809992313385,-0.02084198035299778,-0.7832768559455872,-0.6213237047195435,0.07394254207611084,0.30680572986602783,0.03624081611633301
0.8667795409059564,-0.034780509804648856,-0.1368447925612035,-3.431648015975952,-1.2020866870880127,-0.5673404932022095,-0.02250835672020912,-0.7622483372688293,-0.646893322467804,0.09294290840625763,0.3302870988845825,0.0941590666770935
0.8314574316099809,-0.040817393150708106,-0.14557869467180273,-3.649557113647461,-1.2990100383758545,-0.3186853528022766,-0.027495110407471657,-0.7389141917228699,-0.6732384562492371,0.09799069166183472,0.36519575119018555,0.1583002209663391
0.7940743626455581,-0.050157605803116484,-0.15100454399174107,-3.820344924926758,-1.357643485069275,-0.08978187292814255,-0.03514299914240837,-0.7132151126861572,-0.7000637650489807,0.06891068071126938,0.4023629426956177,0.20809000730514526
0.7550969351994767,-0.06177750841233433,-0.15414942678173482,-3.9657156467437744,-1.3881736993789673,0.056433118879795074,-0.04495809227228165,-0.6853592395782471,-0.7268160581588745,0.017705876380205154,0.444987416267395,0.23366737365722656
0.7144151030977646,-0.07349971007245651,-0.1572087883000149,-4.157249927520752,-1.3576635122299194,0.019561562687158585,-0.0554773323237896,-0.6551756262779236,-0.7534369230270386,-0.04690916836261749,0.42929965257644653,0.24710458517074585
0.6719300159260132,-0.08379103767422845,-0.1621619078795047,-4.344816207885742,-1.324360966682434,-0.11171364039182663,-0.06549997627735138,-0.6224976181983948,-0.7798759937286377,-0.09714347124099731,0.3468779921531677,0.25506526231765747
0.6278088359548316,-0.09273416392601642,-0.16891745432407157,-4.5025506019592285,-1.2678124904632568,-0.16387687623500824,-0.07494376599788666,-0.5873728394508362,-0.8058391213417053,-0.08722666651010513,0.28686606884002686,0.2542492151260376
0.5825178604900578,-0.10102484750353169,-0.1758613066101909,-4.579792499542236,-1.1669657230377197,-0.0826328843832016,-0.08422041684389114,-0.5501282811164856,-0.8308224081993103,-0.04717303812503815,0.25752562284469604,0.22736787796020508
0.5369707652346125,-0.10884824802035774,-0.18171304293204218,-4.53656530380249,-1.007165789604187,0.0528087243437767,-0.09334460645914078,-0.5115354061126709,-0.8541769981384277,0.002936258912086487,0.24241608381271362,0.1720481514930725
0.4923976937949171,-0.11584889532383513,-0.1862363869063773,-4.3656721115112305,-0.8256750106811523,0.15426664054393768,-0.10185807198286057,-0.4727400839328766,-0.8752952814102173,0.027181535959243774,0.21227243542671204,0.09110033512115479
0.44994375779341866,-0.12137801577309215,-0.18992540364911698,-4.106438159942627,-0.6133784651756287,0.19153934717178345,-0.10902927815914154,-0.43491488695144653,-0.8938465714454651,0.02676912397146225,0.1713496744632721,0.024171948432922363
0.4101868314766744,-0.12506610685264152,-0.1931985738691832,-3.8336050510406494,-0.3985479474067688,0.18925675749778748,-0.11439266055822372,-0.3987806737422943,-0.9098836779594421,-0.0037866905331611633,0.14151734113693237,-0.024045705795288086
0.373103349314183,-0.12721394297297145,-0.19624436656082447,-3.5752482414245605,-0.27496933937072754,0.18656878173351288,-0.11814244836568832,-0.3645070195198059,-0.9236758351325989,-0.051932044327259064,0.09180182218551636,-0.06619232892990112
0.33839771917710904,-0.12895328165976347,-0.19888713992189366,-3.359462022781372,-0.2683529853820801,0.20897316932678223,-0.12130321562290192,-0.33197611570358276,-0.9354557394981384,-0.07089651376008987,0.0359097421169281,-0.0889124870300293
0.305429527550536,-0.13144959995270042,-0.20086526467179006,-3.216853380203247,-0.35916510224342346,0.28279638290405273,-0.1250051110982895,-0.300702840089798,-0.9454901218414307,-0.0725962370634079,-0.0016501843929290771,-0.09914183616638184
0.2733706457098158,-0.13504138527478304,-0.20174205519550853,-3.148770809173584,-0.3810959756374359,0.40463653206825256,-0.12963196635246277,-0.26997843384742737,-0.9541001915931702,-0.06070619821548462,-0.027659595012664795,-0.11003243923187256
0.24153994447166707,-0.1379885652467466,-0.20131379518095532,-3.1249570846557617,-0.17244715988636017,0.5342841148376465,-0.13355807960033417,-0.23919814825057983,-0.9617413878440857,-0.025575846433639526,-0.05131402611732483,-0.11507129669189453
