attitudeX,attitudeY,attitudeZ,gyroX,gyroY,gyroZ,gravityX,gravityY,gravityZ,accX,accY,accZ
1.3904276079502347,-3.0557912042547115,2.9078089663789193,0.11071022599935532,-0.1597609668970108,-0.005580391734838486,-0.015373367816209793,-0.983777642250061,0.17873385548591614,-0.004066351801156998,-0.009783327579498291,-0.010047674179077148
1.3895397630256379,-3.0584672805348805,2.909103279992159,0.07588038593530655,-0.11818498373031616,-0.038792822510004044,-0.014967462047934532,-0.9836179614067078,0.17964395880699158,-0.015977386385202408,-0.007272660732269287,0.0021494626998901367
1.388992765084431,-3.0628391377042368,2.912735344773974,0.05434207618236542,-0.03597240149974823,-0.07789841294288635,-0.014224234968423843,-0.9835191965103149,0.180243581533432,-0.025479154661297798,-0.013993620872497559,0.010949358344078064
1.388622280169963,-3.0674809378640533,2.917692270178378,0.056005191057920456,0.08213295787572861,-0.08041393756866455,-0.013414488174021244,-0.9834521412849426,0.18067209422588348,-0.02419845014810562,-0.023017704486846924,0.014747381210327148
1.3881493843400843,-3.070606577039774,2.9221744822716293,0.07389763742685318,0.1697661280632019,-0.06107672303915024,-0.012882640585303307,-0.9833663702011108,0.1811763048171997,-0.0032764365896582603,-0.026887595653533936,0.005820378661155701
1.3876405955743174,-3.0725276504885337,2.9260698028821452,0.05729670077562332,0.19818556308746338,-0.06352725625038147,-0.012569122016429901,-0.9832738041877747,0.18170027434825897,0.003932628780603409,-0.029452145099639893,-0.007932901382446289
1.3874224019836914,-3.0745561433073743,2.9298760868051907,0.015268556773662567,0.13762688636779785,-0.056525006890296936,-0.012214883230626583,-0.9832340478897095,0.18193936347961426,0.008918963372707367,-0.029842853546142578,-0.005364418029785156
1.3876039139091667,-3.0763847703629583,2.9326728842456937,-0.03116540051996708,0.04635471850633621,-0.0377197340130806,-0.011870531365275383,-0.9832671284675598,0.1817832589149475,0.02346719056367874,-0.024148762226104736,0.0035349130630493164
1.3882019334244946,-3.077492344245829,2.933751323726805,-0.07872971892356873,-0.05902709811925888,-0.013704147189855576,-0.011631558649241924,-0.9833759069442749,0.18121010065078735,0.030338812619447708,-0.0264509916305542,0.0010563284158706665
1.3891441581547455,-3.0779997507390187,2.9330760459128036,-0.10841530561447144,-0.17646527290344238,0.018940189853310585,-0.011480645276606083,-0.9835465550422668,0.18029001355171204,0.03151541203260422,-0.036717116832733154,-0.004889979958534241
1.3901553157819255,-3.0774022058712074,2.930239717898264,-0.10018959641456604,-0.25634998083114624,0.05944367125630379,-0.011524583213031292,-0.9837287068367004,0.17929069697856903,0.047901514917612076,-0.02637261152267456,-0.011459007859230042
1.3908778666085735,-3.0753419306816348,2.925529595549977,-0.05555389076471329,-0.24801136553287506,0.08616112917661667,-0.011846945621073246,-0.9838582873344421,0.17855817079544067,0.04553832858800888,-0.019102036952972412,-0.020919322967529297
1.3910834896843172,-3.072266962146996,2.9202470174571684,0.0012148474343121052,-0.16587068140506744,0.09448404610157013,-0.01238190196454525,-0.9838950634002686,0.178318589925766,0.02744230628013611,-0.019873976707458496,-0.023823142051696777
1.3907285038591435,-3.068122182074877,2.9149723723329437,0.0613391138613224,-0.04225105792284012,0.10176847130060196,-0.013146470300853252,-0.983831524848938,0.1786133497953415,0.008675625547766685,-0.020578205585479736,-0.016580000519752502
1.3897970337935963,-3.06277133182777,2.9097011970050413,0.1105458065867424,0.07017428427934647,0.1066974475979805,-0.014174179174005985,-0.9836642742156982,0.17945414781570435,0.0069872718304395676,-0.015969514846801758,-0.010722294449806213
1.3884370204206884,-3.056914916849277,2.9047782888058173,0.14210517704486847,0.13100497424602509,0.11036032438278198,-0.015338070690631866,-0.9834185838699341,0.18070149421691895,0.011706456542015076,-0.0035200119018554688,-0.0017766952514648438
1.3868560554656166,-3.051129309813627,2.900359506825216,0.15770331025123596,0.15613003075122833,0.09904241561889648,-0.0165236946195364,-0.9831306338310242,0.1821577101945877,0.010221794247627258,0.01431947946548462,0.0049915313720703125
1.3852621031753913,-3.045948220673203,2.896688127692942,0.15904037654399872,0.16253776848316193,0.0941542237997055,-0.017616840079426765,-0.9828378558158875,0.18362896144390106,0.005760742351412773,0.025211453437805176,0.0033066123723983765
1.3837423643531308,-3.042044896589198,2.89429559495142,0.15399448573589325,0.15990708768367767,0.07864370942115784,-0.01848202757537365,-0.9825563430786133,0.1850462257862091,0.0030706264078617096,0.040127456188201904,0.0030949562788009644
1.3822305699659714,-3.038621698079241,2.8924260995540463,0.1603473275899887,0.16282489895820618,0.05655848979949951,-0.019268007948994637,-0.9822741150856018,0.1864589899778366,-0.006244713440537453,0.058506786823272705,0.003970995545387268
1.3806519379936426,-3.036076044303873,2.8914761102307844,0.16216520965099335,0.16073618829250336,0.032270193099975586,-0.019905759021639824,-0.9819769263267517,0.18794983625411987,-0.013312647119164467,0.07577270269393921,0.0009999126195907593
1.3791052121592853,-3.03380530186672,2.890752736301631,0.14675329625606537,0.14880703389644623,0.03432036191225052,-0.020495865494012833,-0.9816834330558777,0.18941396474838257,-0.008694218471646309,0.08582466840744019,-0.0006472170352935791
1.3778066840566536,-3.0307552731775442,2.8890687450576658,0.10948128253221512,0.1315537542104721,0.06249234452843666,-0.02121460996568203,-0.981435239315033,0.1906185895204544,0.0065508875995874405,0.10179632902145386,0.016245037317276
1.3769097452917807,-3.026269248365842,2.885798184169577,0.0558280274271965,0.12554597854614258,0.08466310054063797,-0.02217082679271698,-0.9812628030776978,0.19139613211154938,0.01728798635303974,0.12622100114822388,0.032496377825737
1.3765053852963016,-3.0204247176473835,2.881149455304114,0.002618333324790001,0.13531339168548584,0.1057651937007904,-0.023336948826909065,-0.9811848402023315,0.19165654480457306,0.016958750784397125,0.15104550123214722,0.04317641258239746
1.3766003279097645,-3.0127576563727416,2.8749700962661118,-0.05054715275764465,0.18471772968769073,0.12790700793266296,-0.024793602526187897,-0.9812031388282776,0.19137868285179138,0.012739136815071106,0.1846333146095276,0.048062413930892944
1.377200115377009,-3.0030610011830774,2.8672063941922765,-0.11269894242286682,0.2263655811548233,0.1526634842157364,-0.026566920801997185,-0.9813187122344971,0.19054673612117767,0.018571296706795692,0.2206069827079773,0.04318760335445404
1.378482587136437,-2.9904999564188084,2.8567634200746443,-0.20470446348190308,0.23030298948287964,0.20884300768375397,-0.02876886911690235,-0.9815646409988403,0.18895429372787476,0.030737224966287613,0.25527656078338623,0.03992775082588196
1.3806755453048916,-2.97423112653584,2.8423760581443207,-0.3147806227207184,0.1876828372478485,0.257463276386261,-0.03148021176457405,-0.9819813966751099,0.18633759021759033,0.04068123549222946,0.2800770401954651,0.04712200164794922
1.3838215872758908,-2.955588721600423,2.824766944834796,-0.41744446754455566,0.06971920281648636,0.2747185230255127,-0.03437697887420654,-0.9825710654258728,0.18268220126628876,0.037154052406549454,0.30843764543533325,0.049816131591796875
1.387778405912939,-2.936860903293406,2.8057271233261414,-0.487648069858551,-0.06755930185317993,0.25163158774375916,-0.0370011068880558,-0.9832988977432251,0.17819751799106598,0.015196271240711212,0.3223796486854553,0.036844730377197266
1.3922443508274949,-2.9202966798181005,2.787613887915671,-0.5178477764129639,-0.1690169721841812,0.18831554055213928,-0.03898331895470619,-0.9841018915176392,0.17327414453029633,-0.0061216801404953,0.31707918643951416,0.019154652953147888
1.396995370615326,-2.9076953527383846,2.7728388576104592,-0.5187242031097412,-0.21158918738365173,0.09749481827020645,-0.04007977992296219,-0.9849345684051514,0.16822001338005066,-0.0196431502699852,0.3205362558364868,0.012551188468933105
1.4017880956329456,-2.9001182295255963,2.7630687364290583,-0.4860096573829651,-0.1853538155555725,0.0033529899083077908,-0.04022400081157684,-0.9857520461082458,0.16332630813121796,-0.024168118834495544,0.33432358503341675,0.01713956892490387
1.4063729752889291,-2.89647167213415,2.7582581349298914,-0.43464046716690063,-0.011549003422260284,-0.06318794935941696,-0.03972185030579567,-0.9865128993988037,0.15879134833812714,-0.019726410508155823,0.34167641401290894,0.025962337851524353
1.4104260229200987,-2.894070522280974,2.757085902560689,-0.3546772301197052,0.2647281289100647,-0.09346722066402435,-0.0391230434179306,-0.9871681928634644,0.15481756627559662,0.004271946847438812,0.34306418895721436,0.028990015387535095
1.4136431060319845,-2.891678946583277,2.758821847451464,-0.2536632716655731,0.550135612487793,-0.11822982132434845,-0.038707442581653595,-0.9876767992973328,0.151645228266716,0.027431178838014603,0.35451340675354004,0.008572325110435486
1.415854966812948,-2.8907438685526814,2.764719484097922,-0.12717697024345398,0.7847196459770203,-0.17070654034614563,-0.03830742835998535,-0.9880205988883972,0.14949458837509155,0.042152609676122665,0.38946372270584106,-0.026874631643295288
1.4168911403045434,-2.894218598717287,2.7768642183079653,0.021638602018356323,0.8987993001937866,-0.24653472006320953,-0.037536997348070145,-0.9881799817085266,0.1486339122056961,0.05508457124233246,0.44601964950561523,-0.07905350625514984
1.41658431712303,-2.9050833645293643,2.7972455849235063,0.19188421964645386,0.9473679065704346,-0.34529227018356323,-0.03599053621292114,-0.988132894039154,0.1493258774280548,0.06550101190805435,0.5109142065048218,-0.13920916616916656
1.414671324278945,-2.9239839158060743,2.826366698649356,0.384531170129776,1.0238006114959717,-0.44035273790359497,-0.033570170402526855,-0.9878372550010681,0.1518257111310959,0.07487568259239197,0.5794508457183838,-0.18167173862457275
1.410951137777016,-2.9488693910127135,2.8626391289852875,0.5651524662971497,1.1628613471984863,-0.5199540853500366,-0.03048553131520748,-0.9872519373893738,0.15621964633464813,0.06664882600307465,0.6299367547035217,-0.21319568157196045
1.4057809181904752,-2.9761485436321222,2.9030261528298755,0.6740179657936096,1.345179796218872,-0.5713717341423035,-0.02705332078039646,-0.9864158034324646,0.16202473640441895,0.04139655828475952,0.6573600769042969,-0.22835448384284973
1.3998772876382977,-3.001984217413521,2.9438189481210633,0.6671856641769409,1.5138256549835205,-0.5891693830490112,-0.023668918758630753,-0.9854288697242737,0.1684349924325943,0.023745182901620865,0.6720283627510071,-0.2300497144460678
1.3949670170607442,-3.024564556362332,2.9823818369919977,0.4474125802516937,1.53262197971344,-0.6034665703773499,-0.020424585789442062,-0.9845818281173706,0.17372971773147583,0.005821896716952324,0.682533860206604,-0.2149282544851303
1.3929441161292155,-3.0457998889280966,3.0188792986777453,0.07775457203388214,1.3840532302856445,-0.6305561065673828,-0.016921455040574074,-0.9842259287834167,0.17610584199428558,-0.015152551233768463,0.6967502236366272,-0.16363918781280518
1.3948396105594725,-3.068489904922932,3.055045552735029,-0.3525424599647522,1.1828850507736206,-0.6652746796607971,-0.012785340659320354,-0.9845595359802246,0.1745838224887848,-0.026582367718219757,0.7372754812240601,-0.13253045082092285
1.4010910193145536,-3.0943501040019683,3.0922772027137166,-0.8149266242980957,0.9808611273765564,-0.6808987855911255,-0.00797592755407095,-0.9856345653533936,0.16870370507240295,-0.049198783934116364,0.782280683517456,-0.11900569498538971
1.4117858527075673,-3.124031859197307,3.131844773825869,-1.2690606117248535,0.9019469022750854,-0.6776691675186157,-0.0027804840356111526,-0.9873844385147095,0.15831847488880157,-0.06895111501216888,0.8041108846664429,-0.10981057584285736
1.4267889576540251,3.124097476374646,-3.1064507071101284,-1.718192458152771,0.9780643582344055,-0.6717260479927063,0.002510620979592204,-0.9896488189697266,0.14348897337913513,-0.07932339608669281,0.8130130171775818,-0.10225939750671387
1.4460464694820192,3.0801532162980343,-3.0516009419542267,-2.1629478931427,1.0127032995224,-0.6399470567703247,0.00763998506590724,-0.9922288060188293,0.12419334799051285,-0.08077539503574371,0.8133499026298523,-0.08088862895965576
1.4691021862810412,3.0139459668287873,-2.976158836465229,-2.5654308795928955,0.7396262288093567,-0.6156297326087952,0.012923505157232285,-0.9948335886001587,0.10069386661052704,-0.16448909044265747,0.7065644860267639,-0.06834495812654495
1.4953198708114352,2.887016648500128,-2.842752595165186,-3.017726182937622,0.4447604715824127,-0.713368833065033,0.018990160897374153,-0.9971529841423035,0.07297676056623459,-0.1603933870792389,0.6333680748939514,-0.08234548568725586
1.522387167124625,2.5735527476105906,-2.5256932552962046,-3.4052734375,0.15897612273693085,-0.7070912718772888,0.026033993810415268,-0.9988285303115845,0.040792420506477356,-0.09826913475990295,0.6587100625038147,-0.020726803690195084
1.5378026284703095,1.7314736950803402,-1.6829848762972204,-3.6601314544677734,-0.15407925844192505,-0.5942491292953491,0.032567039132118225,-0.9994557499885559,0.005278288386762142,-0.03711418807506561,0.6278583407402039,0.02867269515991211
1.5212240625259734,0.8707244257673423,-0.8245043034813959,-3.7135748863220215,-0.41547277569770813,-0.4861225485801697,0.03789805993437767,-0.9987715482711792,-0.031925756484270096,0.013707127422094345,0.4840620160102844,0.047581497579813004
1.4899566182430273,0.5556716355571061,-0.5135867097799038,-3.554790496826172,-0.4977700710296631,-0.5216506719589233,0.042598746716976166,-0.9967342615127563,-0.06860407441854477,0.0057258158922195435,0.311492383480072,0.01184159517288208
1.4570737376779257,0.43871586590541467,-0.4003450876178858,-3.225672721862793,-0.308913916349411,-0.6813638210296631,0.04820334538817406,-0.9935405254364014,-0.10273239016532898,-0.05847254395484924,0.11464941501617432,-0.03760254383087158
1.426247450859778,0.3984649505686666,-0.36084057649336393,-2.793795585632324,0.12409929186105728,-0.8935807347297668,0.05589069053530693,-0.9895709753036499,-0.13276173174381256,-0.09719626605510712,-0.13639044761657715,-0.0869799256324768
1.398506040566783,0.39760930986880233,-0.35565793360466996,-2.375061273574829,0.7462145090103149,-1.0830845832824707,0.06638430058956146,-0.9851946830749512,-0.15806612372398376,-0.09882450848817825,-0.4003797769546509,-0.0718073844909668
1.3736211405483647,0.4169758033566705,-0.36407062398936896,-2.075965166091919,1.4793809652328491,-1.1435626745224,0.07933900505304337,-0.9806238412857056,-0.17911499738693237,-0.04773808270692825,-0.6502050161361694,-0.002922162413597107
1.350646896757947,0.44357145599381576,-0.3725148810030417,-1.9638266563415527,2.138026475906372,-1.0655906200408936,0.09371993690729141,-0.975864827632904,-0.19724246859550476,0.0300135537981987,-0.869701087474823,0.02503199875354767
1.3285150105794703,0.46703619347868663,-0.37302472214259974,-2.009713649749756,2.3759641647338867,-0.8829906582832336,0.10802114754915237,-0.9707931876182556,-0.2142244130373001,0.14573246240615845,-1.0787369012832642,0.03941991925239563
1.3062582870323232,0.4796874245597063,-0.3620361465808126,-2.2070891857147217,2.221022129058838,-0.6476079225540161,0.12066635489463806,-0.965213418006897,-0.2319554090499878,0.29481521248817444,-1.2270476818084717,0.02558043599128723
1.2828494243932291,0.4782474230822836,-0.339295479764494,-2.5144360065460205,1.8560549020767212,-0.4115684926509857,0.1306963562965393,-0.9588289260864258,-0.25212204456329346,0.3888348340988159,-1.3440732955932617,-0.021742552518844604
1.2576685874347715,0.46438362126556376,-0.30716534819414787,-2.8053510189056396,1.5318495035171509,-0.17794391512870789,0.137960746884346,-0.9513747692108154,-0.2754145562648773,0.4321991503238678,-1.4940599203109741,-0.08655428886413574
1.2312315808474639,0.43957950712451865,-0.2680311378274279,-3.027472734451294,0.8666538596153259,0.15534189343452454,0.1417439579963684,-0.9428997039794922,-0.3014117181301117,0.3591257929801941,-1.5723897218704224,-0.13415026664733887
1.2045985317268617,0.40198316788048627,-0.22268946748437254,-3.0512032508850098,0.14980104565620422,0.48836416006088257,0.14009210467338562,-0.9336955547332764,-0.3295254707336426,0.2342517375946045,-1.5533194541931152,-0.20115983486175537
1.1796053858423048,0.36155026880631486,-0.1799084732054324,-2.7040669918060303,-0.23630645871162415,0.5594977140426636,0.13487161695957184,-0.9244556427001953,-0.35663923621177673,0.2692268490791321,-1.5049420595169067,-0.3432965576648712
1.1587551650483618,0.32751045358028313,-0.14587769795968944,-2.0771398544311523,-0.26945728063583374,0.5223305821418762,0.12882928550243378,-0.9163053035736084,-0.37919339537620544,0.13833679258823395,-1.516693353652954,-0.5252711176872253
1.144190383963385,0.30392785410224143,-0.12200179177717659,-1.2660692930221558,-0.0644197165966034,0.4065701961517334,0.12383309751749039,-0.9103754162788391,-0.3948190212249756,0.0015941038727760315,-1.4707739353179932,-0.6547566652297974
1.1373850988007246,0.2925931357740018,-0.1083452455064873,-0.36652672290802,0.30008047819137573,0.2864168882369995,0.12113428115844727,-0.9075384140014648,-0.4021201431751251,-0.05860379338264465,-1.4106225967407227,-0.7059119343757629
1.1387945227229281,0.2928134973987185,-0.10294284175973065,0.4910247325897217,0.7097615003585815,0.24193331599235535,0.12085354328155518,-0.9081294536590576,-0.40086832642555237,-0.02251068502664566,-1.3979160785675049,-0.7643842697143555
1.1477647874362988,0.30126192468911445,-0.10280134793624261,1.1893494129180908,0.9830605387687683,0.30795571208000183,0.1218138188123703,-0.9118486046791077,-0.39203792810440063,0.04147043824195862,-1.3722091913223267,-0.7498992085456848
1.1626308736788966,0.31340454449619803,-0.10465921676066207,1.6452783346176147,1.077636957168579,0.4513019323348999,0.12237207591533661,-0.9178505539894104,-0.37759193778038025,0.1355929970741272,-1.3135796785354614,-0.6790332794189453
1.1812538141925009,0.3248060506985198,-0.10570179717582973,1.881864309310913,0.9863908290863037,0.6392074227333069,0.12119269371032715,-0.9250829219818115,-0.35990867018699646,0.20632192492485046,-1.24601411819458,-0.5768587589263916
1.2019766495903381,0.3316035117487397,-0.1037250006275283,1.96502685546875,0.7165334820747375,0.8281299471855164,0.11736919730901718,-0.9327535033226013,-0.34087491035461426,0.25647109746932983,-1.1589977741241455,-0.4848085343837738
1.223559328448442,0.33087473377352505,-0.0970505070745088,1.9389346837997437,0.3875199854373932,1.0079044103622437,0.1105538085103035,-0.9403165578842163,-0.3218427896499634,0.2898215055465698,-1.0566470623016357,-0.4148666560649872
1.2449928712572877,0.32163635762515885,-0.08461809049009845,1.8389880657196045,0.11993540823459625,1.121307134628296,0.10118051618337631,-0.9473938941955566,-0.3036571443080902,0.2871251106262207,-0.9457489848136902,-0.34337639808654785
1.2655800240720736,0.3054993724969758,-0.06731529525618961,1.7376892566680908,-0.039848603308200836,1.1540371179580688,0.09038107842206955,-0.9537819623947144,-0.2865854501724243,0.22358372807502747,-0.8381034135818481,-0.28242987394332886
1.2853878933755023,0.28493951559067726,-0.04646671911862161,1.6975077390670776,-0.06996683031320572,1.1444880962371826,0.07914341986179352,-0.9595467448234558,-0.2701971232891083,0.1792183667421341,-0.7256950736045837,-0.24725878238677979
1.3050562593205004,0.2623354257108018,-0.023553581092523816,1.7509410381317139,-0.039351340383291245,1.110932469367981,0.06810799241065979,-0.964898407459259,-0.2536385953426361,0.15525010228157043,-0.624869167804718,-0.25902602076530457
1.3250908281945162,0.23973544306588643,-0.0008031660721977059,1.8263417482376099,-0.07802896201610565,0.9780073165893555,0.0577564500272274,-0.969965934753418,-0.23628422617912292,0.13738813996315002,-0.5236711502075195,-0.29008278250694275
1.3454556511119633,0.21930913161155224,0.01948757827930123,1.9184404611587524,-0.05482807382941246,0.8799574375152588,0.048610273748636246,-0.9747180342674255,-0.218086838722229,0.09379996359348297,-0.38300907611846924,-0.29845350980758667
1.3668314670313493,0.19883366176165096,0.04070430971473947,2.0637261867523193,0.14198218286037445,0.901168167591095,0.04000967741012573,-0.9792711734771729,-0.19856306910514832,0.10891605913639069,-0.3761823773384094,-0.27282655239105225
1.3896825283397454,0.17486307438910384,0.06839373059591325,2.2155442237854004,0.4876738488674164,0.9866798520088196,0.031337082386016846,-0.983643651008606,-0.17737895250320435,0.15868057310581207,-0.3103780150413513,-0.28468751907348633
1.4139422713340293,0.14116075889729257,0.10870182815929261,2.3386805057525635,0.6957945227622986,1.1083136796951294,0.021977923810482025,-0.9877235889434814,-0.15465876460075378,0.177423894405365,-0.2301567792892456,-0.3145487904548645
1.4388519286527073,0.08624375767223624,0.1716370161272068,2.3775501251220703,0.7515049576759338,1.2486293315887451,0.011332424357533455,-0.9913079738616943,-0.131073996424675,0.2108965367078781,-0.20658349990844727,-0.3158557415008545
1.4631028224549325,-0.00819366388615347,0.2739883855539893,2.3382227420806885,0.6646648645401001,1.3730701208114624,-0.0008807033882476389,-0.9942066669464111,-0.10748350620269775,0.2398332953453064,-0.1407727599143982,-0.2852470278739929
1.4844791560874566,-0.16794808076868498,0.4400153796178422,2.1616628170013428,0.42673003673553467,1.4374449253082275,-0.014410923235118389,-0.9962769746780396,-0.08499754220247269,0.235709086060524,-0.055801331996917725,-0.23916000127792358
1.5004758687616038,-0.4191309352327646,0.6956358813183819,2.028515100479126,0.3246752917766571,1.4479023218154907,-0.02859503962099552,-0.9975285530090332,-0.06418199092149734,0.2225647121667862,0.011505544185638428,-0.21372610330581665
1.5090572895115566,-0.7645015964982298,1.0448916422961987,1.9132678508758545,0.30305367708206177,1.3989955186843872,-0.04270874336361885,-0.9980947375297546,-0.04453204199671745,0.18060235679149628,0.05525404214859009,-0.21047264337539673
1.5086238945765298,-1.1346254403990277,1.4185741479995764,1.7625117301940918,0.2685319185256958,1.3407365083694458,-0.05631591007113457,-0.9980679154396057,-0.026249472051858902,0.1569628268480301,0.11055564880371094,-0.2073470950126648
1.5005761711398964,-1.4338256313179087,1.7212345393689847,1.6037062406539917,0.2950281798839569,1.3077276945114136,-0.06950556486845016,-0.9975355863571167,-0.009580212645232677,0.16610893607139587,0.1619337797164917,-0.20004487037658691
1.4880783391710284,-1.6361154269538098,1.9270803782355617,1.4333691596984863,0.2977786958217621,1.2873265743255615,-0.08244870603084564,-0.9965808391571045,0.0053931474685668945,0.12451711297035217,0.20811331272125244,-0.17278194427490234
1.473354484158192,-1.763405559338008,2.058208370525795,1.2833738327026367,0.3712383806705475,1.315512776374817,-0.0954902172088623,-0.9952563047409058,0.018623165786266327,0.11767643690109253,0.2752244472503662,-0.1561199426651001
1.4575430695999603,-1.8446701428751968,2.144239960265716,1.211318850517273,0.4888917803764343,1.3288922309875488,-0.1088007315993309,-0.993593692779541,0.030565733090043068,0.11592650413513184,0.32950055599212646,-0.17991852760314941
1.4411309274358743,-1.9016664584340037,2.2072859414411,1.2255628108978271,0.6233800053596497,1.338337779045105,-0.12229058146476746,-0.9916052222251892,0.042006492614746094,0.09145250916481018,0.36295825242996216,-0.200453519821167
1.424166232334763,-1.946829734481457,2.2598528903737214,1.3003143072128296,0.7514599561691284,1.3255990743637085,-0.13589784502983093,-0.9892690777778625,0.053655266761779785,0.09364619851112366,0.4128834009170532,-0.23181664943695068
1.407032556977631,-1.986397569829012,2.3079857302663154,1.3790596723556519,0.8344683051109314,1.243560791015625,-0.14915503561496735,-0.9866206645965576,0.06582313776016235,0.08073458075523376,0.46481579542160034,-0.258694052696228
1.390372230906949,-2.022360305797304,2.3529973231919223,1.4043059349060059,0.8293523788452148,1.1210123300552368,-0.16146109998226166,-0.9837676882743835,0.07830628752708435,0.05872361361980438,0.5259885787963867,-0.22965800762176514
1.3745099571066417,-2.0546994628078132,2.3941970504713823,1.3958046436309814,0.7812207937240601,1.0143153667449951,-0.17263701558113098,-0.9807975888252258,0.09073490649461746,0.0376424640417099,0.5964744091033936,-0.18117356300354004
1.359297468154724,-2.084343019524246,2.431888779691201,1.3932173252105713,0.6722282767295837,0.9202232360839844,-0.18284732103347778,-0.9777173399925232,0.10313034802675247,0.018449053168296814,0.6471967101097107,-0.14997459948062897
1.3448040728198256,-2.112514864451307,2.4674184686969474,1.3878908157348633,0.6347184181213379,0.7941955924034119,-0.19199250638484955,-0.9745722413063049,0.1155349612236023,0.0020204782485961914,0.6953819394111633,-0.12536142766475677
1.3313285649658624,-2.139819355404425,2.5020578228355266,1.3761543035507202,0.6462442874908447,0.6462324857711792,-0.19981248676776886,-0.9714643359184265,0.12779828906059265,-0.02797079086303711,0.7314587235450745,-0.09993553161621094
1.3189482512776964,-2.165950043835318,2.5359040225213625,1.3464444875717163,0.6958390474319458,0.520052969455719,-0.206349179148674,-0.9684535264968872,0.13970783352851868,-0.05430153012275696,0.7481012344360352,-0.08485221862792969
1.3073735510145303,-2.189517737304133,2.567792850406464,1.2949632406234741,0.7470609545707703,0.45628008246421814,-0.21211694180965424,-0.9655044078826904,0.15102313458919525,-0.04830488562583923,0.7661634683609009,-0.06461238861083984
1.2964210566316707,-2.2099103532832816,2.5966421915840545,1.2202599048614502,0.7221507430076599,0.413483589887619,-0.21746794879436493,-0.9625946283340454,0.16161513328552246,-0.019913092255592346,0.7812591791152954,-0.05071403086185455
1.2861116812974063,-2.2273974287302503,2.6219055591731637,1.1284698247909546,0.625751256942749,0.39011886715888977,-0.22245721518993378,-0.9597502946853638,0.17144177854061127,-0.0017707347869873047,0.7977629899978638,-0.04653313755989075
1.2763452210730357,-2.242571072292918,2.6434350771020974,1.0358721017837524,0.4485061764717102,0.38720059394836426,-0.22715650498867035,-0.9569615721702576,0.18062280118465424,0.02863958477973938,0.8131932616233826,-0.05353213846683502
1.2671239063835293,-2.2566981378252904,2.661559444860299,0.9446348547935486,0.1879475712776184,0.37539398670196533,-0.23140177130699158,-0.9542447924613953,0.18939529359340668,0.057726144790649414,0.8221493363380432,-0.07158195972442627
1.2585929626629797,-2.2701372290894533,2.676409970713502,0.8280335068702698,-0.038797665387392044,0.3595026731491089,-0.23505641520023346,-0.951659083366394,0.19772060215473175,0.05669638514518738,0.8403615355491638,-0.06303110718727112
1.2509580931161055,-2.28242830522692,2.6880973488557984,0.7074184417724609,-0.18506859242916107,0.3257140815258026,-0.23810423910617828,-0.9492862820625305,0.20533402264118195,0.04724724590778351,0.8615940809249878,-0.03324511647224426
1.2443275802112501,-2.2935486946144565,2.697458523540243,0.6143721342086792,-0.2518191933631897,0.2746991217136383,-0.24052219092845917,-0.9471807479858398,0.2121283859014511,0.028760582208633423,0.8777071237564087,-0.01933331787586212
1.2386579055630191,-2.3045019640630215,2.7062806639053014,0.5684754848480225,-0.25812262296676636,0.18453197181224823,-0.24216866493225098,-0.945347249507904,0.21834245324134827,0.0022851377725601196,0.886036217212677,-0.03599977493286133
1.23382296512535,-2.3166008649646748,2.716484388154238,0.5770919919013977,-0.22516316175460815,0.07454816997051239,-0.24286316335201263,-0.9437596797943115,0.22435463964939117,-0.024730265140533447,0.8938635587692261,-0.05730132758617401
1.22963355950464,-2.33035244092811,2.7290934954148844,0.6044684648513794,-0.14457111060619354,-0.03934084624052048,-0.24262046813964844,-0.9423662424087524,0.23039408028125763,-0.029443815350532532,0.8962541222572327,-0.06433248519897461
1.2261836440691145,-2.3456719741923027,2.744266136723186,0.6019973158836365,-0.0624372623860836,-0.1751476228237152,-0.2413841038942337,-0.9412063956260681,0.23635686933994293,-0.04131557047367096,0.8940413594245911,-0.05201530456542969
1.2236900840503036,-2.36261613603298,2.761890367415108,0.5901049971580505,-0.01620052382349968,-0.3124399781227112,-0.23899278044700623,-0.9403610229492188,0.2420821189880371,-0.06113240122795105,0.8954544067382812,-0.0396282821893692
1.2221211350840846,-2.3812980760831426,2.7815383921193084,0.5578542947769165,-0.03730397671461105,-0.4264581799507141,-0.23544546961784363,-0.9398261904716492,0.24757352471351624,-0.06400835514068604,0.8796301484107971,-0.040435194969177246
1.2216676519741272,-2.401591586221056,2.8021470594135907,0.4543028473854065,-0.16116999089717865,-0.543547511100769,-0.2306608110666275,-0.9396711587905884,0.25261521339416504,-0.05673861503601074,0.8577464818954468,-0.03749653697013855
1.2231731240674946,-2.4233586674601706,2.8223787745590663,0.22023150324821472,-0.3967961072921753,-0.6883051991462708,-0.22417660057544708,-0.9401850700378418,0.2565101683139801,-0.062124162912368774,0.8548576831817627,0.0034388601779937744
1.227783380916495,-2.445744843875524,2.8405428920563143,-0.1344565451145172,-0.6543107032775879,-0.8360496759414673,-0.21559743583202362,-0.9417456388473511,0.25813400745391846,-0.07615070044994354,0.8593786358833313,0.07517918944358826
1.236041390018363,-2.467033396832901,2.855029488398779,-0.5319554805755615,-0.8567905426025391,-0.9447735548019409,-0.20518970489501953,-0.9444908499717712,0.25658267736434937,-0.08054645359516144,0.8496726155281067,0.13739943504333496
1.2478800567597819,-2.486027055162028,2.8653910860642133,-0.9102519154548645,-0.9567235112190247,-1.03306245803833,-0.19344909489154816,-0.9483140110969543,0.2515515089035034,-0.08766363561153412,0.8194687962532043,0.1765340268611908
1.2629414592269155,-2.5020567530975737,2.872180992745943,-1.2195196151733398,-0.9448440074920654,-1.1087698936462402,-0.18084682524204254,-0.9529857635498047,0.2431316375732422,-0.09075967967510223,0.7888315916061401,0.18445038795471191
1.2803707189499585,-2.515021556292319,2.8761496245143574,-1.42948317527771,-0.8760063648223877,-1.1230883598327637,-0.1679133027791977,-0.9581220746040344,0.23196415603160858,-0.08281917870044708,0.7525251507759094,0.16436778008937836
1.2990352482775434,-2.524448348163855,2.877423835803431,-1.546359658241272,-0.7537336945533752,-1.099041223526001,-0.1553419828414917,-0.9632996916770935,0.21891281008720398,-0.051780879497528076,0.7233093976974487,0.12711094319820404
1.3183097633271665,-2.5301309345452805,2.8762932269329684,-1.6276837587356567,-0.5969927906990051,-1.0668617486953735,-0.14340853691101074,-0.9682942628860474,0.20454882085323334,-0.02968721091747284,0.7011739015579224,0.08297231793403625
1.3379405734910266,-2.5314808368761255,2.872092076667729,-1.6909056901931763,-0.49677562713623047,-1.0102757215499878,-0.1322150081396103,-0.9730113744735718,0.18912570178508759,0.0006231516599655151,0.6753885746002197,0.0475994348526001
1.3577836006468615,-2.5282625567167503,2.863796489314206,-1.7645854949951172,-0.4825887084007263,-0.9693430066108704,-0.12168405950069427,-0.9773984551429749,0.1728743612766266,0.01720709353685379,0.6461453437805176,0.007210001349449158
1.3780608189647283,-2.521023443171846,2.851295556306238,-1.8325884342193604,-0.516464352607727,-0.9730294346809387,-0.11138317734003067,-0.9814839363098145,0.15583108365535736,0.017678894102573395,0.6356281638145447,-0.03699542582035065
1.399881704642318,-2.5096807533145298,2.834309807119171,-2.0736827850341797,-0.5538529753684998,-1.0866633653640747,-0.10046714544296265,-0.9854296445846558,0.13724137842655182,0.02383744716644287,0.6368119120597839,-0.05321097373962402
1.424955773000669,-2.4885710396085665,2.8069505168007574,-2.4528679847717285,-0.6269111037254333,-1.2141903638839722,-0.08829754590988159,-0.989384114742279,0.11542416363954544,-0.0032247230410575867,0.5926707983016968,-0.000952497124671936
1.4536836320461695,-2.4451272637121786,2.7563211514920005,-2.8336329460144043,-0.7099559307098389,-1.3312276601791382,-0.07495764642953873,-0.9931501150131226,0.08963394910097122,-0.037453897297382355,0.5521405935287476,0.01566707342863083
1.4850856381052697,-2.3554181918358665,2.6590594385389412,-3.0844204425811768,-0.6854479312896729,-1.4342968463897705,-0.06058044731616974,-0.9963290691375732,0.06048646196722984,-0.05314336344599724,0.523871123790741,-0.01997411623597145
1.516808155706066,-2.149618890862998,2.446239595920322,-3.1765644550323486,-0.6142605543136597,-1.6147878170013428,-0.04517413303256035,-0.9985429644584656,0.029520703479647636,-0.03162340819835663,0.4587631821632385,-0.11615991592407227
1.5423643846148587,-1.4993544541103558,1.7898573183166058,-3.1342594623565674,-0.5108435750007629,-1.6981585025787354,-0.02836228907108307,-0.9995958209037781,-0.00202970951795578,-0.05405049026012421,0.3759689927101135,-0.2154383659362793
1.5360463441366592,-0.33532198095429633,0.6206662728313808,-3.0256106853485107,-0.4330342710018158,-1.7004743814468384,-0.011434009298682213,-0.9993962645530701,-0.032810889184474945,0.023091688752174377,0.3257664442062378,-0.2957717180252075
1.5076088752064565,0.08767046776447827,0.19310867797105363,-2.9936563968658447,-0.38983434438705444,-1.7164306640625,0.0055290223099291325,-0.9980043172836304,-0.06290430575609207,0.08188854157924652,0.2412598729133606,-0.3182600736618042
1.4751544098552964,0.2330710309645967,0.04338728366506064,-2.9936299324035645,-0.39070865511894226,-1.63258695602417,0.022056687623262405,-0.9954298138618469,-0.09291521459817886,0.10909254848957062,0.12409180402755737,-0.294352650642395
1.4422558316562168,0.29320272934145775,-0.02113213059855873,-2.9582290649414062,-0.40052056312561035,-1.4633597135543823,0.037049002945423126,-0.9917500615119934,-0.12271779775619507,0.1740868091583252,0.028782963752746582,-0.2914055585861206
1.409974734218283,0.3210071491875903,-0.05299377368516627,-2.889908790588379,-0.33052709698677063,-1.373579502105713,0.05052463710308075,-0.9870960712432861,-0.15195034444332123,0.18977074325084686,-0.0788373351097107,-0.31655532121658325
1.3786358693134053,0.3413028572574559,-0.07607867336893497,-2.7444934844970703,-0.14213210344314575,-1.4408276081085205,0.06392427533864975,-0.981593906879425,-0.17996524274349213,0.12797020375728607,-0.18626821041107178,-0.33713966608047485
1.3484071688692987,0.3663590584081731,-0.10185227454300073,-2.531224250793457,0.10497676581144333,-1.647931456565857,0.07900901138782501,-0.9753732681274414,-0.20592403411865234,0.049775123596191406,-0.30627357959747314,-0.37432175874710083
1.3195916614626995,0.3988700336037244,-0.1330589563283957,-2.2379302978515625,0.324124276638031,-1.8357504606246948,0.09653962403535843,-0.9686136841773987,-0.22905895113945007,0.017672374844551086,-0.42657387256622314,-0.3979703187942505
1.293093066015067,0.43520340083610315,-0.1664819245163841,-1.888269305229187,0.47081249952316284,-1.8765580654144287,0.11557934433221817,-0.9616876244544983,-0.2485930174589157,0.09094834327697754,-0.5663123726844788,-0.43014830350875854
1.2693474721470972,0.4700143790637615,-0.19772435921655612,-1.6009987592697144,0.48463618755340576,-1.7756462097167969,0.13446776568889618,-0.9549072980880737,-0.26470866799354553,0.19565612077713013,-0.7398254871368408,-0.46800297498703003
1.2481239480824153,0.49872121898463423,-0.22320465615980967,-1.4254506826400757,0.3941209316253662,-1.557391881942749,0.15167099237442017,-0.9483913779258728,-0.2784776985645294,0.30281198024749756,-0.9050785899162292,-0.45197561383247375
1.2291268117267868,0.5180985219751854,-0.2403629888410288,-1.3549916744232178,0.22624245285987854,-1.262641191482544,0.16593191027641296,-0.9421966075897217,-0.2910883128643036,0.38822150230407715,-1.0507235527038574,-0.4080997705459595
1.211512618571275,0.5272263023980069,-0.2487848663483939,-1.4156808853149414,0.014687069691717625,-0.9970361590385437,0.1769053190946579,-0.9361489415168762,-0.30385810136795044,0.4188435673713684,-1.191246747970581,-0.36395785212516785
1.1941054090145853,0.5269282507284692,-0.24931691727759173,-1.567126750946045,-0.17249776422977448,-0.7918294072151184,0.18498246371746063,-0.9298869371414185,-0.3179495632648468,0.4038847088813782,-1.2999563217163086,-0.28819042444229126
1.1763088410051565,0.5197702965229769,-0.24428735630952014,-1.6795681715011597,-0.32413148880004883,-0.6611696481704712,0.19089192152023315,-0.923193633556366,-0.33357733488082886,0.35763099789619446,-1.3801053762435913,-0.23800143599510193
1.158702444227149,0.5091340837135959,-0.23694202358064204,-1.6315268278121948,-0.44170206785202026,-0.5647205114364624,0.1952262967824936,-0.9162841439247131,-0.349728524684906,0.31752997636795044,-1.4454407691955566,-0.2616148889064789
1.1428815548041666,0.4980542991323921,-0.23005245961512324,-1.376429557800293,-0.5040629506111145,-0.46511316299438477,0.1982404738664627,-0.9098330140113831,-0.3645608723163605,0.3126695156097412,-1.4904966354370117,-0.3489094376564026
1.1307044331078755,0.48887794418951896,-0.22554570932577656,-0.918865442276001,-0.5057388544082642,-0.34839871525764465,0.20007538795471191,-0.9047124981880188,-0.3761185109615326,0.3102395236492157,-1.518474817276001,-0.4541272521018982
1.1239651425099846,0.4830954656806706,-0.22455231606152803,-0.29257598519325256,-0.4657682478427887,-0.20026196539402008,0.20072497427463531,-0.9018208980560303,-0.38266006112098694,0.3264356255531311,-1.5228313207626343,-0.5613705515861511
1.123906614885272,0.48145432878156597,-0.22762329166666023,0.40352800488471985,-0.4142650067806244,-0.03688967972993851,0.20012111961841583,-0.9017956256866455,-0.38303571939468384,0.3526895344257355,-1.509993553161621,-0.6534326672554016
1.1305421285171269,0.48370936743403786,-0.23454037955293652,1.030964970588684,-0.3863641321659088,0.12892058491706848,0.19819720089435577,-0.9046433568000793,-0.3772779107093811,0.3739768862724304,-1.478703498840332,-0.6701005101203918
1.1430600499608554,0.488944687299318,-0.24450460356146841,1.5500638484954834,-0.36618760228157043,0.29305171966552734,0.19483505189418793,-0.9099071025848389,-0.3662083148956299,0.3744856119155884,-1.4191945791244507,-0.6062341928482056
1.1601513780933443,0.4966929127185187,-0.2568673604569517,1.9042389392852783,-0.3398555815219879,0.43237045407295227,0.1902274787425995,-0.9168635606765747,-0.35096275806427,0.3678169250488281,-1.3376684188842773,-0.5154464244842529
1.1801726017493306,0.5058125030873699,-0.270553210204566,2.091322660446167,-0.3601624667644501,0.5507023930549622,0.18448790907859802,-0.9246717691421509,-0.3330865204334259,0.3528503179550171,-1.2546343803405762,-0.41181689500808716
1.2017779890036457,0.5149667726637912,-0.2845547081149084,2.162931203842163,-0.40911054611206055,0.6511211395263672,0.17764711380004883,-0.9326818585395813,-0.31392088532447815,0.34432554244995117,-1.1536524295806885,-0.3148326277732849
1.2243622092020605,0.5233381712355926,-0.29804565464704214,2.2070415019989014,-0.4318062365055084,0.7637186646461487,0.16969649493694305,-0.9405894875526428,-0.29409992694854736,0.34362441301345825,-1.0544363260269165,-0.2628610134124756
1.2476985791680253,0.5309871957221566,-0.31071245274883635,2.2288625240325928,-0.42867276072502136,0.8579990863800049,0.1607801914215088,-0.9482564330101013,-0.2737877666950226,0.3509690463542938,-0.9626781940460205,-0.2541966438293457
1.271661157390574,0.5380083080440673,-0.32258103218191403,2.2528445720672607,-0.4172990024089813,0.9471561908721924,0.15100906789302826,-0.9555916786193848,-0.2530628740787506,0.34273478388786316,-0.8680625557899475,-0.25294890999794006
1.2963682012290663,0.5453703808020178,-0.33443625937008015,2.316223382949829,-0.38300174474716187,1.0219652652740479,0.14057539403438568,-0.9625803232192993,-0.2316845953464508,0.32655709981918335,-0.756795346736908,-0.26120465993881226
1.3223530916321826,0.5541155929933702,-0.34725271056781143,2.4524993896484375,-0.3473574221134186,1.1232857704162598,0.12938810884952545,-0.969296395778656,-0.20910121500492096,0.32324856519699097,-0.6516906023025513,-0.2964070439338684
1.3500948301607494,0.5650634109216783,-0.3621789877028546,2.6003262996673584,-0.37044596672058105,1.2284278869628906,0.11722216010093689,-0.9757441282272339,-0.18488548696041107,0.3342548608779907,-0.5520117282867432,-0.3612416982650757
1.379534724373009,0.5789293899106176,-0.3802916604177699,2.728283643722534,-0.396571546792984,1.3285945653915405,0.10400816053152084,-0.9817652106285095,-0.15912163257598877,0.34244871139526367,-0.4458472728729248,-0.3799712061882019
1.410337904642226,0.5975626558783951,-0.4031768469884096,2.8110365867614746,-0.37284302711486816,1.4099677801132202,0.08989202976226807,-0.9871541261672974,-0.13208448886871338,0.32290393114089966,-0.3466625213623047,-0.36744236946105957
1.441835335193124,0.6248881582828832,-0.434276506722825,2.838144302368164,-0.3111085593700409,1.4575824737548828,0.0752345398068428,-0.9916960597038269,-0.10430201143026352,0.2741764187812805,-0.26239341497421265,-0.34186476469039917
1.4734587265681194,0.6697069026345595,-0.4821185597708376,2.8378427028656006,-0.23196129500865936,1.4831029176712036,0.060328591614961624,-0.9952664375305176,-0.07619389146566391,0.2358597218990326,-0.18146103620529175,-0.3172995448112488
1.5047382137827963,0.7584247479306199,-0.5730925746298281,2.8379554748535156,-0.15210480988025665,1.4743523597717285,0.0454019233584404,-0.9978189468383789,-0.04791973531246185,0.20589503645896912,-0.10377424955368042,-0.3130419850349426
1.5343164508378238,1.0058608119132448,-0.8216475964289042,2.834141731262207,-0.001653779298067093,1.432916283607483,0.03080877661705017,-0.9993346929550171,-0.019528033211827278,0.17123280465602875,-0.02276015281677246,-0.30600279569625854
1.5519621189914115,2.0626149792721944,-1.8778348647640357,2.8253629207611084,0.17449034750461578,1.3989810943603516,0.016610020771622658,-0.9998226165771484,0.00889842864125967,0.1408911496400833,0.04225718975067139,-0.2934441566467285
1.5335114136461965,3.0705843945193534,-2.8836091691206054,2.814532995223999,0.3198446035385132,1.3768707513809204,0.0026453277096152306,-0.999305009841919,0.03719116747379303,0.12369740009307861,0.10884761810302734,-0.28140783309936523
1.5043861622826884,-2.9688822284749823,-3.123899239699647,2.813227415084839,0.4115076959133148,1.3937588930130005,-0.011404924094676971,-0.9977956414222717,0.06537705659866333,0.11933030188083649,0.18027538061141968,-0.28954362869262695
1.4739697206721052,-2.8713849558892925,3.0654755678969123,2.7543811798095703,0.3648408353328705,1.4223181009292603,-0.025806106626987457,-0.9953159689903259,0.09316898137331009,0.12666666507720947,0.23390227556228638,-0.31194937229156494
1.4437044974907063,-2.816093899119726,3.0129176775114304,2.667853593826294,0.2432873249053955,1.4650744199752808,-0.04053264483809471,-0.9919347167015076,0.12009557336568832,0.12827062606811523,0.2942875027656555,-0.2914057970046997
1.413994977755257,-2.779423052601508,2.9778375313562657,2.570176839828491,0.14513888955116272,1.450932502746582,-0.05532825365662575,-0.9877318143844604,0.14603036642074585,0.10881026089191437,0.3687284588813782,-0.262683629989624
1.3853907065457975,-2.7559029859289215,2.9551617217122974,2.45493483543396,0.09652840346097946,1.3372604846954346,-0.06935060769319534,-0.9828615784645081,0.1708037257194519,0.039885833859443665,0.4105042815208435,-0.23644685745239258
1.358424023435846,-2.742979636139378,2.942967169618947,2.3233704566955566,0.1010184958577156,1.1553757190704346,-0.08181238919496536,-0.9775336384773254,0.19425521790981293,-0.024953410029411316,0.4615880846977234,-0.20295250415802002
1.333649803890311,-2.7380886599427754,2.9389983204928467,2.147364854812622,0.10151579976081848,0.9318372011184692,-0.09224365651607513,-0.9720122814178467,0.21606287360191345,-0.06991153955459595,0.5138214826583862,-0.16903512179851532
1.3116603149908743,-2.738734004367882,2.9407065241945674,1.9133554697036743,0.1042276993393898,0.7139278054237366,-0.1004614531993866,-0.9666117429733276,0.23573262989521027,-0.10461674630641937,0.548169732093811,-0.11555418372154236
1.2926591116934212,-2.742454450506285,2.945648823370283,1.676087737083435,0.10633663088083267,0.5324941277503967,-0.10670271515846252,-0.9615685343742371,0.2529832720756531,-0.11052145808935165,0.5815331935882568,-0.062324583530426025
1.2762299794918177,-2.747134980493851,2.9517640614354392,1.4871000051498413,0.13078339397907257,0.4232204258441925,-0.11157435923814774,-0.9569281339645386,0.26803016662597656,-0.09394632279872894,0.611407995223999,-0.04697585105895996
1.2615649436114833,-2.7513561764926613,2.957810431216055,1.354767918586731,0.1845286637544632,0.3707548975944519,-0.11576838791370392,-0.9525677561759949,0.28144797682762146,-0.06190502643585205,0.6276012063026428,-0.0651085376739502
1.2481866672555393,-2.754155478520678,2.963033235038324,1.2416222095489502,0.24663864076137543,0.3450402021408081,-0.11978445947170258,-0.9484112858772278,0.29354462027549744,-0.023632973432540894,0.6422739624977112,-0.08451411128044128
1.2357553153623315,-2.7555551111231864,2.9674918164412936,1.1620948314666748,0.3237203061580658,0.31830593943595886,-0.12380316108465195,-0.9443968534469604,0.304610937833786,-0.0058050453662872314,0.6650083065032959,-0.0826106071472168
1.2242474850580574,-2.7561341523832037,2.972159896931183,1.0803611278533936,0.44261714816093445,0.24995246529579163,-0.12770459055900574,-0.9405505061149597,0.31473255157470703,-0.020107358694076538,0.6898485422134399,-0.07922816276550293
1.2138896353314808,-2.756866099514462,2.9783474498681017,0.992904782295227,0.568287193775177,0.12527523934841156,-0.13112348318099976,-0.9369820356369019,0.32383865118026733,-0.05906212329864502,0.7122963666915894,-0.0735791027545929
1.2048457631543263,-2.758701876181648,2.9870029551942494,0.9092972278594971,0.6695264577865601,-0.01615007035434246,-0.13368920981884003,-0.933784008026123,0.331925630569458,-0.08304668962955475,0.7403636574745178,-0.0741892158985138
1.1969743146239988,-2.762036547040717,2.9978970411726817,0.8402374386787415,0.6777766346931458,-0.1201632171869278,-0.1353008896112442,-0.9309384226799011,0.33918657898902893,-0.07684209942817688,0.7710720896720886,-0.09008660912513733
1.1899027380376055,-2.766539421376254,3.009602092635859,0.7878474593162537,0.5855138301849365,-0.15531481802463531,-0.13618046045303345,-0.9283328056335449,0.3459095358848572,-0.04838992655277252,0.7871889472007751,-0.1142808198928833
1.1833233617559578,-2.771667784524966,3.020748318166132,0.7381654977798462,0.4455545246601105,-0.13485199213027954,-0.13660988211631775,-0.9258668422698975,0.3522900640964508,-0.014024898409843445,0.794946551322937,-0.1419932246208191
1.1769236950044095,-2.7767919374275087,3.030096554535875,0.7076760530471802,0.2529318332672119,-0.06790810823440552,-0.13691434264183044,-0.9234297871589661,0.35851430892944336,0.02967551350593567,0.796964704990387,-0.16561242938041687
1.1706546599107923,-2.781739342056094,3.037329618702687,0.6519070267677307,0.10123683512210846,-0.02013392746448517,-0.13717462122440338,-0.9210058450698853,0.364597886800766,0.045499756932258606,0.7984014749526978,-0.17103984951972961
1.165029019529719,-2.7867972555802245,3.043484503828366,0.5568159222602844,0.031362418085336685,-0.04842974618077278,-0.13712649047374725,-0.9187998175621033,0.3701395094394684,0.011775493621826172,0.8098673820495605,-0.14980250597000122
1.1609341692086863,-2.7923921427793106,3.049997814916692,0.37555232644081116,0.05596502497792244,-0.15626749396324158,-0.13633961975574493,-0.9171757698059082,0.37443315982818604,-0.040311411023139954,0.827118456363678,-0.09962218999862671
1.1592294829467717,-2.7981628774566425,3.0571426190154263,0.13716530799865723,0.09609059989452362,-0.25800132751464844,-0.13470309972763062,-0.916495144367218,0.3766859471797943,-0.08693090081214905,0.8476167321205139,-0.04077869653701782
1.1599852302589715,-2.8037992261837124,3.064232811063296,-0.08560982346534729,0.06541098654270172,-0.31740355491638184,-0.13234806060791016,-0.9167972207069397,0.3767850399017334,-0.08408266305923462,0.8612857460975647,-0.011046946048736572
1.1627133110102983,-2.809437358458167,3.0705870626116294,-0.2550012469291687,-0.03689967840909958,-0.3311236500740051,-0.12940572202205658,-0.9178832769393921,0.37515994906425476,-0.0681346207857132,0.86269211769104,-0.025382518768310547
1.1667952176840746,-2.81536611820596,3.0757979935532718,-0.377057284116745,-0.19495218992233276,-0.32189473509788513,-0.1259772628545761,-0.9194955229759216,0.3723677396774292,-0.05053645372390747,0.8547983169555664,-0.05117005109786987
1.1717261029941455,-2.822147431959975,3.0799944124128578,-0.45128411054611206,-0.3875890076160431,-0.3041450083255768,-0.12202394008636475,-0.9214226603507996,0.3689044713973999,-0.04751651734113693,0.8472192287445068,-0.07068651914596558
1.1772747790452796,-2.830419407304992,3.083666416681342,-0.5164517164230347,-0.5865122675895691,-0.3133804500102997,-0.11740121245384216,-0.9235644936561584,0.365028977394104,-0.0652618259191513,0.8422197699546814,-0.0808490514755249
1.183622354866404,-2.841084581495424,3.0877714370602134,-0.597493588924408,-0.7793117761611938,-0.3715161979198456,-0.11176389455795288,-0.9259797930717468,0.3606531322002411,-0.08670724928379059,0.844833493232727,-0.06765365600585938
1.1909968509093016,-2.854950046513953,3.0934685550727408,-0.6870748996734619,-0.9243124127388,-0.46375495195388794,-0.10481904447078705,-0.9287390112876892,0.3556080460548401,-0.11370211839675903,0.8549780249595642,-0.0357225239276886
1.1995309056736319,-2.871701157961697,3.101209204343131,-0.7996498942375183,-0.9704812169075012,-0.5477917790412903,-0.09673099219799042,-0.9318690299987793,0.3496621251106262,-0.13854432106018066,0.8543084859848022,0.0031365156173706055
1.2095418482327194,-2.890260105840377,3.110614958374622,-0.9620909094810486,-0.9724343419075012,-0.6125742793083191,-0.08790075033903122,-0.9354541897773743,0.3423435091972351,-0.14735931158065796,0.8378131985664368,0.06125161051750183
1.2212531879259834,-2.909710018706265,3.121327766656661,-1.1276544332504272,-0.8871670961380005,-0.6666068434715271,-0.07870292663574219,-0.939529299736023,0.3333032429218292,-0.1529407948255539,0.8243863582611084,0.11649560928344727
1.2348741237473686,-2.9289974334448106,3.133123411474303,-1.3557815551757812,-0.742159366607666,-0.7016896605491638,-0.0695531964302063,-0.9441066980361938,0.32221874594688416,-0.1515619456768036,0.8161618113517761,0.14282354712486267
1.2508263631393697,-2.947635222384921,-3.137520488233022,-1.5932979583740234,-0.6092258095741272,-0.7290147542953491,-0.06062541902065277,-0.9492448568344116,0.3086412847042084,-0.1457192450761795,0.7994795441627502,0.18136447668075562
1.2687416601710357,-2.9664000712276217,-3.123584441459575,-1.7493293285369873,-0.4914475381374359,-0.755342960357666,-0.0518505685031414,-0.954727292060852,0.29292911291122437,-0.14929082989692688,0.7812806367874146,0.15818187594413757
1.287565831253129,-2.985529971442323,-3.1083052060536343,-1.7918474674224854,-0.4178657531738281,-0.7200497388839722,-0.04343634471297264,-0.9601576328277588,0.2760629951953888,-0.13187193870544434,0.7549726366996765,0.07424840331077576
1.3060259768912763,-3.0047058295195437,-3.0927048767300684,-1.7121906280517578,-0.42209744453430176,-0.6522610783576965,-0.0357099287211895,-0.9651526212692261,0.2592404782772064,-0.07981441915035248,0.7289465069770813,-0.026726841926574707
1.323190367149807,-3.025440431348399,-3.0759673773132588,-1.5768706798553467,-0.49045172333717346,-0.619792640209198,-0.02840309590101242,-0.9695019125938416,0.24343270063400269,-0.042931776493787766,0.7119335532188416,-0.1338743269443512
1.3389566442704233,-3.04919234713855,-3.057292799803761,-1.4630424976348877,-0.6399663686752319,-0.5868291854858398,-0.02120048552751541,-0.9732453227043152,0.2287883758544922,-0.006906252354383469,0.699472188949585,-0.19337253272533417
1.3537516133492968,-3.0772967563754654,-3.0361152980933728,-1.3939217329025269,-0.8537049889564514,-0.5769461989402771,-0.013836306519806385,-0.9765381217002869,0.21490071713924408,0.027981162071228027,0.6706908345222473,-0.19845151901245117
1.3677098489559765,-3.111545919677425,-3.011178009184502,-1.352640986442566,-1.1144620180130005,-0.6015452146530151,-0.00605932017788291,-0.9794487357139587,0.201602503657341,0.052445992827415466,0.6340660452842712,-0.2017548382282257
1.3817395246814845,3.127092592241995,-2.9785536857315416,-1.4483582973480225,-1.3910129070281982,-0.6945944428443909,0.0027249502018094063,-0.9821819067001343,0.18791364133358002,0.040213242173194885,0.5592844486236572,-0.1834120750427246
1.3969767404597373,3.0665086116603697,-2.9324410034617534,-1.6752445697784424,-1.6276363134384155,-0.8254541158676147,0.012973306700587273,-0.9849313497543335,0.17245899140834808,-0.021762415766716003,0.4530861973762512,-0.10413002967834473
1.4142064956269011,2.9839672786431257,-2.8657338637220016,-2.000889539718628,-1.6727577447891235,-0.9435325264930725,0.024480296298861504,-0.987764835357666,0.15401844680309296,-0.07158422470092773,0.37391889095306396,-0.008968114852905273
1.4333553196440991,2.869556292815164,-2.7662428713912957,-2.3749358654022217,-1.494221568107605,-1.1003613471984863,0.03681387007236481,-0.9905698299407959,0.13197220861911774,-0.08082026243209839,0.2903590202331543,0.07795847952365875
1.453721121128625,2.699460496501117,-2.608421616472674,-2.8042826652526855,-1.1996421813964844,-1.2055844068527222,0.04997905716300011,-0.9931545257568359,0.10557739436626434,-0.0996616929769516,0.1952265501022339,0.1369307041168213
1.472389923648189,2.44189552873207,-2.3599648947307696,-3.167689323425293,-0.9022424221038818,-1.2664715051651,0.06327123194932938,-0.9951620101928711,0.07516444474458694,-0.051384665071964264,0.11770522594451904,0.15542662143707275
1.4836454718204817,2.0678771253180863,-1.9920366304188428,-3.4443113803863525,-0.6235130429267883,-1.2837799787521362,0.07650814205408096,-0.9962047934532166,0.0415070503950119,0.015853270888328552,0.0522502064704895,0.10412299633026123
1.4811586120159501,1.6383091726012555,-1.5656058885571251,-3.5509448051452637,-0.32015350461006165,-1.2510311603546143,0.08931521326303482,-0.995985209941864,0.00603910256177187,0.0645696371793747,-0.05725276470184326,0.020801305770874023
1.4649680641904776,1.2885618413636715,-1.215919157729466,-3.502014398574829,-0.022627826780080795,-1.178941011428833,0.10145268589258194,-0.9944053888320923,-0.029418757185339928,0.12741386890411377,-0.1720985770225525,-0.122528076171875
1.4410507394737122,1.056922437755099,-0.9819585891719703,-3.3670685291290283,0.14957432448863983,-1.061533808708191,0.11267291009426117,-0.9915948510169983,-0.0635988712310791,0.18751321732997894,-0.28004223108291626,-0.2600856423377991
1.4146120702196139,0.9061053333611093,-0.8279462680330756,-3.1794841289520264,0.16020913422107697,-0.872043788433075,0.12243565171957016,-0.9878280162811279,-0.09594657272100449,0.26669397950172424,-0.38181638717651367,-0.3636479377746582
1.3884567627712219,0.8007510212268865,-0.7197491823482642,-2.9844131469726562,0.1033087894320488,-0.662997841835022,0.13017408549785614,-0.9834221601486206,-0.12623712420463562,0.35214096307754517,-0.46894001960754395,-0.44763052463531494
1.3633507709400914,0.7204836936389779,-0.6368640166440769,-2.8501150608062744,0.11396995931863785,-0.46858787536621094,0.13588255643844604,-0.978560209274292,-0.15477712452411652,0.3699615001678467,-0.5724804997444153,-0.4763872027397156
1.3390708346270537,0.6555278730108729,-0.5687406418410579,-2.7700281143188477,0.19371245801448822,-0.32352808117866516,0.13999445736408234,-0.9732715487480164,-0.1820559948682785,0.34109988808631897,-0.6846113801002502,-0.45245009660720825
1.3153221917011362,0.6018756926091534,-0.5111201588682052,-2.6834301948547363,0.2577143609523773,-0.22201155126094818,0.1430789828300476,-0.9675436019897461,-0.20829850435256958,0.2975032925605774,-0.7702648639678955,-0.427550345659256
1.2923031439678245,0.5575505210894478,-0.46233080408008514,-2.5586695671081543,0.2823372185230255,-0.14773330092430115,0.1454559713602066,-0.9614707827568054,-0.23327355086803436,0.2757781147956848,-0.8349922895431519,-0.44731399416923523
1.270179550864671,0.520945174867538,-0.42125314117402735,-2.4237899780273438,0.2557998597621918,-0.11645127087831497,0.14737382531166077,-0.9551540613174438,-0.25683048367500305,0.25750285387039185,-0.9043126106262207,-0.4879355728626251
1.2491511384669205,0.4909283086589298,-0.38756277998807936,-2.228508472442627,0.1415156126022339,-0.11426811665296555,0.14903686940670013,-0.9487166404724121,-0.2787918448448181,0.22227047383785248,-0.9916063547134399,-0.5317090749740601
1.2300586408855425,0.466117742398175,-0.36064356774809014,-1.943249225616455,-0.01407504640519619,-0.08810308575630188,0.15018898248672485,-0.9425083994865417,-0.2985321283340454,0.20784324407577515,-1.0699124336242676,-0.6024534106254578
1.2138022476605717,0.4455855354723202,-0.33964421129684735,-1.5883660316467285,-0.1416974663734436,-0.05246112123131752,0.15061236917972565,-0.9369515180587769,-0.31533798575401306,0.20627543330192566,-1.1398918628692627,-0.6561126708984375
1.2010979456420536,0.42932566796063987,-0.3241417233529468,-1.1639341115951538,-0.20542290806770325,-0.031602710485458374,0.15040823817253113,-0.9324363470077515,-0.3285420536994934,0.18577338755130768,-1.2154366970062256,-0.6784157752990723
1.1924914735838008,0.4186139813347874,-0.31483851358651344,-0.6777222156524658,-0.1984420269727707,-0.0642169639468193,0.15013712644577026,-0.9292920827865601,-0.3374541997909546,0.14028337597846985,-1.266371488571167,-0.6831144690513611
1.1881742502605406,0.414762165176746,-0.31267549495849495,-0.17871424555778503,-0.16593600809574127,-0.14057539403438568,0.15045148134231567,-0.9276888370513916,-0.3416984975337982,0.09111039340496063,-1.297744631767273,-0.6644658446311951
1.1879631271488371,0.4179892680023901,-0.31777039564284143,0.2881075441837311,-0.1333138644695282,-0.22475825250148773,0.1516329050064087,-0.9276100397109985,-0.3413902521133423,0.07167944312095642,-1.3043999671936035,-0.6191503405570984
1.1915215817781624,0.427666867426175,-0.3295403335666279,0.7110438942909241,-0.11307995766401291,-0.27666085958480835,0.1535596251487732,-0.9289333820343018,-0.3369011878967285,0.08827690780162811,-1.3012455701828003,-0.5608342289924622
1.1985858456397012,0.44301395487005585,-0.347111206299343,1.1059168577194214,-0.08637390285730362,-0.28887543082237244,0.15589483082294464,-0.931525707244873,-0.32856783270835876,0.12077751755714417,-1.287087082862854,-0.4997248649597168
1.2091117861470684,0.46319365669089735,-0.3694778521123878,1.4711287021636963,-0.055065251886844635,-0.2211480289697647,0.1581030935049057,-0.9353020787239075,-0.3165653645992279,0.1572960615158081,-1.2647712230682373,-0.46181583404541016
1.222963567087746,0.48631670097064505,-0.3947336562184894,1.7738207578659058,-0.06319282203912735,-0.07228126376867294,0.15930940210819244,-0.9401136636734009,-0.3013421297073364,0.24044033885002136,-1.2407336235046387,-0.4105565547943115
1.239626040068261,0.5109066667296855,-0.421668975418864,1.9823726415634155,-0.09939263761043549,0.08768150210380554,0.15898826718330383,-0.9456624984741211,-0.28362923860549927,0.3016592860221863,-1.1933605670928955,-0.3490152359008789
1.2581423028850582,0.5359889962661376,-0.44946141359856884,2.079716444015503,-0.1608431339263916,0.23735669255256653,0.1570812612771988,-0.951520562171936,-0.2644508183002472,0.3176501393318176,-1.1393609046936035,-0.2856893241405487
1.277689791473148,0.5604412878420364,-0.4770930265348752,2.093047857284546,-0.22305485606193542,0.3924157917499542,0.15358276665210724,-0.9573509097099304,-0.24472828209400177,0.32313233613967896,-1.073319435119629,-0.22618833184242249
1.2977068625330854,0.5821207291889583,-0.5025486635560775,2.0183348655700684,-0.32984206080436707,0.5718683004379272,0.14828446507453918,-0.9629422426223755,-0.2252865880727768,0.3277439475059509,-1.0070133209228516,-0.18827222287654877
1.3175917802630337,0.598392695222541,-0.5233995876780002,1.8745167255401611,-0.4348528981208801,0.7279812097549438,0.14111502468585968,-0.9681146144866943,-0.206980362534523,0.3275434076786041,-0.9278205633163452,-0.14500921964645386
1.3369012874633661,0.6094332112806289,-0.5394607049547144,1.736782193183899,-0.462128221988678,0.8133118748664856,0.13266532123088837,-0.9727710485458374,-0.1900443583726883,0.28780585527420044,-0.828178346157074,-0.11447516083717346
1.3555875972921427,0.6177736350628551,-0.5526702260681078,1.6544537544250488,-0.43617570400238037,0.8449355959892273,0.12369411438703537,-0.9769318699836731,-0.17408141493797302,0.21595124900341034,-0.7313202619552612,-0.12186259031295776
1.3740658534026684,0.6272726333160212,-0.5665685210934157,1.6857813596725464,-0.3723749816417694,0.841798722743988,0.11472581326961517,-0.9807108640670776,-0.15825434029102325,0.16533398628234863,-0.6177694797515869,-0.1548100709915161
1.3932640487938532,0.6433377000122793,-0.586322150489537,1.843100905418396,-0.30231600999832153,0.8420125842094421,0.10593832284212112,-0.9842824935913086,-0.14129920303821564,0.14335975050926208,-0.5016796588897705,-0.22539980709552765
1.4138830185439097,0.670674768574028,-0.6171238818022832,2.0367918014526367,-0.3093772530555725,0.8572902083396912,0.09712483733892441,-0.9877143502235413,-0.12242322415113449,0.14075967669487,-0.4052148461341858,-0.3169381618499756
1.4358460248734926,0.714362698917923,-0.6646646423447801,2.2065482139587402,-0.35291168093681335,0.873151421546936,0.08814346045255661,-0.9909080266952515,-0.10164812207221985,0.1500004380941391,-0.3048684597015381,-0.35925865173339844
1.4585257541210652,0.7839783050172638,-0.7383892875046772,2.328096866607666,-0.34896034002304077,0.8709886074066162,0.07910949736833572,-0.9937042593955994,-0.07933446764945984,0.12895932793617249,-0.21148091554641724,-0.3605762720108032
1.4808180791959755,0.8986354456443012,-0.8569358181827377,2.404365062713623,-0.30245327949523926,0.8448267579078674,0.07031231373548508,-0.995954692363739,-0.055952951312065125,0.08792130649089813,-0.12401008605957031,-0.34349143505096436
1.5010995222128403,1.0956730571872935,-1.057200906762968,2.444840669631958,-0.2130798101425171,0.8087301254272461,0.06192777305841446,-0.9975721836090088,-0.03185737878084183,0.038322437554597855,-0.04725825786590576,-0.31904882192611694
1.5161757490125793,1.4347158418807764,-1.3984057461318993,2.4502830505371094,-0.08600228279829025,0.7435415387153625,0.05408952757716179,-0.9985086917877197,-0.007406302262097597,-0.003705039620399475,0.02368563413619995,-0.2861878275871277
1.5206837956897756,1.9146312702094763,-1.8792180310528392,2.4008843898773193,0.028972290456295013,0.6456152200698853,0.04715922102332115,-0.9987446069717407,0.01688571646809578,-0.04125410318374634,0.092845618724823,-0.24976515769958496
1.5128997214357598,2.352273219066754,-2.316855350847859,2.3606653213500977,0.08705716580152512,0.562766432762146,0.04107704386115074,-0.998324453830719,0.04075615480542183,-0.060715142637491226,0.16781902313232422,-0.21934473514556885
1.4970898594369952,2.633051372467338,-2.597114137837651,2.337830066680908,0.13489924371242523,0.4714135527610779,0.03585616871714592,-0.9972848892211914,0.0643223226070404,-0.05726427212357521,0.23519986867904663,-0.2118288278579712
1.4775366779114043,2.7975195870953917,-2.7605435531279614,2.3239781856536865,0.17822568118572235,0.3944585919380188,0.0314132422208786,-0.9956544637680054,0.0876665934920311,-0.05860443040728569,0.28921830654144287,-0.21756446361541748
1.4562725122398916,2.8980482878074736,-2.859573450983702,2.321322441101074,0.22744324803352356,0.3382888436317444,0.02755676954984665,-0.993449330329895,0.11090287566184998,-0.04161014407873154,0.35090160369873047,-0.21177852153778076
1.4341239762977787,2.964847623636886,-2.924086818770932,2.331312417984009,0.3355036973953247,0.32362309098243713,0.02395586483180523,-0.9906748533248901,0.13412481546401978,-0.02651938423514366,0.3985576033592224,-0.1977536827325821
1.411438385173116,3.0162118022560773,-2.9718180910745455,2.35210919380188,0.4937226176261902,0.3937573730945587,0.019843945279717445,-0.987329363822937,0.15743911266326904,-0.00177757628262043,0.42739278078079224,-0.18025089800357819
1.3883050825644476,3.0621658800119085,-3.012765323215732,2.3756258487701416,0.6172174215316772,0.5173967480659485,0.014399286359548569,-0.9833946228027344,0.1809086948633194,0.037022799253463745,0.4554709196090698,-0.17384374141693115
1.364862243216229,3.105164672044364,-3.0497056029773137,2.363809108734131,0.7277907729148865,0.6262911558151245,0.007447245065122843,-0.9788703918457031,0.20434704422950745,0.06004233658313751,0.4819372296333313,-0.16017267107963562
1.3417066198095502,-3.138390486041244,-3.082276722140169,2.260002374649048,0.8266445994377136,0.6874637007713318,-0.0007271870272234082,-0.973873496055603,0.22709134221076965,0.04775474965572357,0.5203363299369812,-0.11425229907035828
1.3199025622559948,-3.103332415711384,-3.1095363319435436,2.045090436935425,0.8696885704994202,0.6848471760749817,-0.009496591053903103,-0.9686909317970276,0.24808932840824127,0.017736300826072693,0.551713764667511,-0.05724737048149109
1.3004687078472825,-3.0737080360409452,-3.1313434885183216,1.7615556716918945,0.8305241465568542,0.6353598237037659,-0.018114551901817322,-0.9636834859848022,0.2664332091808319,-0.009442867711186409,0.5750724077224731,-0.004744738340377808
1.283866064688916,-3.0489162497490807,3.134502499457968,1.4670697450637817,0.7899396419525146,0.5770329833030701,-0.026190826669335365,-0.9591171741485596,0.28179556131362915,-0.01792237162590027,0.5930434465408325,0.017185330390930176
1.2699570005002498,-3.0275566887612784,3.120198999179663,1.205147624015808,0.7395095229148865,0.5329648852348328,-0.033718232065439224,-0.9550881385803223,0.29439786076545715,-0.008365537971258163,0.60793536901474,0.0018670260906219482
1.258463235515404,-3.0085311947717686,3.1075668242352292,0.977904736995697,0.646653413772583,0.5082299709320068,-0.040766600519418716,-0.9516192674636841,0.3045639395713806,0.010233733803033829,0.6168718934059143,-0.028944164514541626
1.2489004775946824,-2.9906594700230023,3.0949542869076487,0.8119910955429077,0.526884913444519,0.5488376021385193,-0.04756908863782883,-0.9486373662948608,0.31276965141296387,0.04466986656188965,0.6301862597465515,-0.06395959854125977
1.240343384403727,-2.9719113589430552,3.08023360651011,0.7280399799346924,0.4410426616668701,0.6571291089057922,-0.05479293316602707,-0.9458954930305481,0.3198116719722748,0.09884503483772278,0.6480897665023804,-0.11416882276535034
1.2321023798043929,-2.9509276373068043,3.062594293981219,0.6826159954071045,0.42540431022644043,0.7670190930366516,-0.06296657770872116,-0.9431894421577454,0.3262355923652649,0.13465231657028198,0.6510596871376038,-0.14621207118034363
1.2240138918099466,-2.9283552418257663,3.043257325510239,0.6359966993331909,0.4405694305896759,0.8119716048240662,-0.07192587107419968,-0.9404711723327637,0.33217617869377136,0.127055823802948,0.6607621908187866,-0.14812448620796204
1.2162556797919812,-2.906361405602582,3.024543728429759,0.5868555307388306,0.438506543636322,0.7708380222320557,-0.08091180771589279,-0.9378060698509216,0.3375992476940155,0.07859242707490921,0.6854103803634644,-0.14175251126289368
1.2089061190256711,-2.886548698785902,3.0080562738692658,0.5536478161811829,0.43289846181869507,0.7013053894042969,-0.08932094275951385,-0.9352293014526367,0.34259113669395447,0.030940763652324677,0.7177608013153076,-0.14375349879264832
1.2019621749850855,-2.869159149050354,2.993995763781285,0.5249000787734985,0.412358820438385,0.6310504078865051,-0.09700954705476761,-0.9327483177185059,0.34723177552223206,0.013421855866909027,0.7502378821372986,-0.15172079205513
1.1954337690168535,-2.8541508180662274,2.982119067518684,0.4878009557723999,0.36812928318977356,0.5554645657539368,-0.10393397510051727,-0.9303747415542603,0.3515689969062805,0.018881432712078094,0.775147020816803,-0.1629549264907837
1.189514691008335,-2.841843043148895,2.972522942579712,0.4348700940608978,0.30870190262794495,0.4600083529949188,-0.1098770871758461,-0.9281885027885437,0.35551801323890686,0.015638776123523712,0.8020594716072083,-0.1641879677772522
1.1843920082161727,-2.832446526303513,2.9653515051005126,0.3752388060092926,0.2360050529241562,0.35927483439445496,-0.11465822905302048,-0.9262701272964478,0.3589954674243927,-0.004467204213142395,0.8264774680137634,-0.15684673190116882
1.1801449349876967,-2.8257451434117886,2.960226856953138,0.3097841739654541,0.15418927371501923,0.27036625146865845,-0.11828231066465378,-0.9246612191200256,0.3619551360607147,-0.013858877122402191,0.828881561756134,-0.15445062518119812
1.176769149934392,-2.821331562137745,2.956611381020011,0.24290414154529572,0.059165071696043015,0.20263002812862396,-0.1208605244755745,-0.9233704805374146,0.3643898367881775,-0.008778199553489685,0.8339386582374573,-0.14943909645080566
1.1742877475245845,-2.818778466941962,2.9540181803003653,0.16333581507205963,-0.0237167626619339,0.13631172478199005,-0.12251695990562439,-0.922415018081665,0.3662518858909607,-0.017513006925582886,0.842962384223938,-0.13074755668640137
1.172873766877,-2.81823089422001,2.952743044762988,0.07283622026443481,-0.10224220156669617,0.0408271886408329,-0.1231319010257721,-0.9218680262565613,0.36742135882377625,-0.04962816834449768,0.8351826071739197,-0.10731980204582214
1.1726861972149443,-2.820086194517857,2.953148835404861,-0.02889254316687584,-0.1919899433851242,-0.06416580826044083,-0.12250444293022156,-0.9217953085899353,0.3678125739097595,-0.09224779158830643,0.8242306709289551,-0.07614067196846008
1.1738880291862124,-2.824631070664807,2.955652988963735,-0.1387767493724823,-0.24931664764881134,-0.19868938624858856,-0.12048628181219101,-0.922260582447052,0.36731305718421936,-0.13027670979499817,0.8102914690971375,-0.03888261318206787
1.1766655625472804,-2.831966677898375,2.960734267447916,-0.26866549253463745,-0.27337831258773804,-0.34496697783470154,-0.11700776219367981,-0.9233307242393494,0.36574622988700867,-0.15998511016368866,0.8031217455863953,-0.007988303899765015
1.1811894197433606,-2.842130957951054,2.9686100565697675,-0.4115370213985443,-0.30198198556900024,-0.4948575496673584,-0.11205074936151505,-0.9250584244728088,0.36292150616645813,-0.17457039654254913,0.7927798628807068,0.02144765853881836
1.1874037717346848,-2.854740790041095,2.9789898236883006,-0.5454967021942139,-0.29192641377449036,-0.6053515672683716,-0.10583710670471191,-0.9274009466171265,0.35878506302833557,-0.16454869508743286,0.7809773683547974,0.039042383432388306
1.1950825893271693,-2.8688265040510035,2.991139241541871,-0.686045229434967,-0.2669752836227417,-0.6729641556739807,-0.09885153919458389,-0.9302459359169006,0.3533712923526764,-0.13131208717823029,0.7756438255310059,0.0391460657119751
1.2041206472952344,-2.8834451423138447,3.004202812374295,-0.8017422556877136,-0.21602022647857666,-0.7057801485061646,-0.09152507036924362,-0.9335243105888367,0.34663474559783936,-0.09568505734205246,0.7546455264091492,0.03968748450279236
1.2144273051349597,-2.8978391096645177,3.0175544375910333,-0.966592013835907,-0.1700122058391571,-0.7130503058433533,-0.08419954031705856,-0.9371697306632996,0.33856043219566345,-0.06626740843057632,0.7296351194381714,0.0375230610370636
1.2266618980314996,-2.912042962292759,3.0307501171813698,-1.1950595378875732,-0.20138610899448395,-0.739436686038971,-0.07676773518323898,-0.9413678050041199,0.32853278517723083,-0.0634911060333252,0.7078014612197876,0.06358790397644043
1.2411730823662506,-2.927386746483965,3.044482525942046,-1.4252727031707764,-0.280815452337265,-0.7817314863204956,-0.06880676001310349,-0.9461643695831299,0.3162898123264313,-0.06643194705247879,0.6974917054176331,0.0722908079624176
1.2578642137584053,-2.945060825673972,3.059589733019094,-1.6365373134613037,-0.3874678611755371,-0.8268225789070129,-0.06011364981532097,-0.9514350295066833,0.30192407965660095,-0.07018119096755981,0.6924932599067688,0.05264461040496826
1.2763840435672256,-2.9657754313198805,3.076695961267571,-1.7932525873184204,-0.4843945801258087,-0.8600100874900818,-0.05075578764081001,-0.9569728374481201,0.28570422530174255,-0.07186388224363327,0.6710994839668274,0.03653106093406677
1.295994276799381,-2.9905722643486308,3.0970492837618955,-1.8720965385437012,-0.5608992576599121,-0.8993521928787231,-0.04082490876317024,-0.9624789357185364,0.268268883228302,-0.07724764943122864,0.6476898789405823,-0.001285642385482788
1.3160862795214572,-3.0203266937026654,3.1217125025427093,-1.915663480758667,-0.6293119192123413,-0.9168140888214111,-0.03047996759414673,-0.9677364230155945,0.2501148283481598,-0.07047222554683685,0.6181269884109497,-0.03936031460762024
1.3363173273498425,-3.0552480602921386,-3.132304950147212,-1.9462456703186035,-0.6766075491905212,-0.8981072306632996,-0.020036175847053528,-0.9726355075836182,0.23147203028202057,-0.045378297567367554,0.5832920074462891,-0.052669256925582886
1.3564344441801897,-3.0945815423120426,-3.098950810315393,-1.9379122257232666,-0.6818065047264099,-0.8341949582099915,-0.009996765293180943,-0.977112352848053,0.21249018609523773,-0.012708351947367191,0.5364535450935364,-0.06283172965049744
1.375852451284237,-3.1373239719630805,-3.062121483523816,-1.908461093902588,-0.6421472430229187,-0.7631498575210571,-0.0008268922101706266,-0.9810585379600525,0.19371020793914795,0.022051826119422913,0.49355548620224,-0.08758512139320374
1.3951724292194962,3.0978090292473692,-3.0195414553729667,-1.9849083423614502,-0.6012524366378784,-0.7263067364692688,0.007647605147212744,-0.9846177101135254,0.17455653846263885,0.01998603343963623,0.44683682918548584,-0.09009885787963867
1.4151872582676743,3.0402150644059076,-2.9672330886148752,-2.11997389793396,-0.6015129089355469,-0.6959826946258545,0.015684902667999268,-0.9879173040390015,0.15418724715709686,0.027756839990615845,0.3865988850593567,-0.04688715934753418
1.436037272598896,2.9671777401398303,-2.899848651977715,-2.264247179031372,-0.674764096736908,-0.6531487107276917,0.023314524441957474,-0.9909337162971497,0.1323145478963852,0.04986658692359924,0.3366824984550476,-0.046025872230529785
1.4575536645370226,2.8692480328196717,-2.808336619086497,-2.415574789047241,-0.7340822815895081,-0.5995744466781616,0.030396461486816406,-0.9935948848724365,0.10883710533380508,0.0685262382030487,0.28638046979904175,-0.06310630589723587
1.479195347884503,2.720337975902604,-2.6661440307249977,-2.6476829051971436,-0.74598228931427,-0.6805932521820068,0.037404678761959076,-0.9958075881004333,0.08347799628973007,0.06540901958942413,0.22798514366149902,-0.07616889476776123
1.499379175301285,2.458389557126987,-2.4107213855858127,-2.915414333343506,-0.7158209085464478,-0.7348753809928894,0.04504823684692383,-0.9974508881568909,0.055343661457300186,-0.02403690293431282,0.15031319856643677,-0.05496203154325485
1.512611850608463,2.0096882383335073,-1.9683605676387979,-3.1230430603027344,-0.7497259378433228,-0.7257017493247986,0.05264071375131607,-0.9983077645301819,0.0247110016644001,-0.022443607449531555,0.09721523523330688,-0.0860968828201294
1.510243474908909,1.4402223247468722,-1.406179841195562,-3.2901597023010254,-0.8921118378639221,-0.7387597560882568,0.060002606362104416,-0.9981672167778015,-0.00787961296737194,0.0167643241584301,0.06806766986846924,-0.16558212041854858
1.4913552129314505,1.0134026049729863,-0.9878397146162248,-3.3842415809631348,-0.9765202403068542,-0.7809340357780457,0.06734740734100342,-0.9968461990356445,-0.04197930172085762,0.016423329710960388,0.04926002025604248,-0.19093066453933716
1.4636145060185375,0.7769690341587238,-0.7600926213794615,-3.3273818492889404,-0.9207179546356201,-0.8741744756698608,0.0750042051076889,-0.9942615032196045,-0.0762794241309166,-0.011451378464698792,0.027357757091522217,-0.2040700912475586
1.4325015210438825,0.6535394105497473,-0.6437016948141036,-3.2054812908172607,-0.6200526356697083,-1.0468065738677979,0.08381553739309311,-0.9904525279998779,-0.10944771766662598,-0.0716238021850586,-0.050837814807891846,-0.24838589131832123
1.4004926042272112,0.5906476165819196,-0.5843353918189366,-3.0256567001342773,-0.2177717685699463,-1.1779874563217163,0.0943845808506012,-0.9855333566665649,-0.14076870679855347,-0.11602156609296799,-0.1561293601989746,-0.2695552110671997
1.3694714277048232,0.5596342342117826,-0.5531368229053831,-2.789658546447754,0.1368771195411682,-1.213343858718872,0.10615818947553635,-0.9798024892807007,-0.16946262121200562,-0.08401770144701004,-0.2820536494255066,-0.32272469997406006
1.3402107766716862,0.54462277975991,-0.5351856974051926,-2.5914809703826904,0.34231361746788025,-1.182212471961975,0.11840954422950745,-0.9735327363014221,-0.195482075214386,-0.019486837089061737,-0.41664981842041016,-0.3866252899169922
1.3124089722035595,0.5347040898881378,-0.52138792623921,-2.5256996154785156,0.32200151681900024,-1.0927186012268066,0.13021066784858704,-0.9668033123016357,-0.21985629200935364,0.04676075279712677,-0.5522093176841736,-0.4002149701118469
1.2849963357245078,0.5232849720276601,-0.507265902438385,-2.5781378746032715,0.09314194321632385,-1.0161486864089966,0.14088629186153412,-0.9594364166259766,-0.24419914186000824,0.10947993397712708,-0.6886504292488098,-0.37733694911003113
1.2575906056998722,0.5099572518132043,-0.493677990517648,-2.5427494049072266,-0.14933302998542786,-0.996256947517395,0.15040089190006256,-0.951350748538971,-0.26890790462493896,0.14963267743587494,-0.8003430962562561,-0.3643774390220642
1.2312995964382942,0.499488206207197,-0.48471888665610663,-2.2945823669433594,-0.2233595848083496,-1.0466790199279785,0.15950524806976318,-0.9429223537445068,-0.292327880859375,0.15351355075836182,-0.9119056463241577,-0.4519193768501282
1.2079253626874529,0.4961438286684759,-0.48323058314027867,-1.8255479335784912,-0.14283300936222076,-1.0808476209640503,0.1689743548631668,-0.9348816275596619,-0.31216052174568176,0.1443343460559845,-1.060617208480835,-0.5718420147895813
1.1893122751882892,0.5011296357519467,-0.4892620656469355,-1.2090176343917847,0.03024822659790516,-1.068697452545166,0.17885832488536835,-0.9281131625175476,-0.32652074098587036,0.17348234355449677,-1.2097654342651367,-0.6750659942626953
1.1765926760278616,0.5138660301052652,-0.5016730434420795,-0.5531501173973083,0.20979346334934235,-0.9708271622657776,0.1887904703617096,-0.9233027100563049,-0.3344707489013672,0.2340458631515503,-1.347571611404419,-0.7358416318893433
1.1698368536579162,0.5322547018817836,-0.5188548310552348,0.0362207405269146,0.2873034179210663,-0.8557626605033875,0.19806943833827972,-0.9206869602203369,-0.336309552192688,0.2911120653152466,-1.4709299802780151,-0.7393738031387329
1.167903504106666,0.5551593468740365,-0.5406289403727935,0.4954521059989929,0.276099294424057,-0.8069726228713989,0.20665781199932098,-0.919930636882782,-0.33319732546806335,0.3006206154823303,-1.5429754257202148,-0.6714564561843872
1.1692196700327762,0.5818637037127685,-0.5670716316984081,0.8175305724143982,0.18748871982097626,-0.7887203693389893,0.214815154671669,-0.9204458594322205,-0.3265484869480133,0.2796611189842224,-1.5836588144302368,-0.5766037702560425
1.1726272924665158,0.6104130821375109,-0.5968396485033747,1.0316276550292969,0.04513155296444893,-0.7267985939979553,0.22224999964237213,-0.9217724800109863,-0.31771156191825867,0.29294776916503906,-1.6017720699310303,-0.4723883867263794
1.1781538110075296,0.638472748316581,-0.6275218154774967,1.2451905012130737,-0.09393446147441864,-0.5281316041946411,0.2280368059873581,-0.9239012002944946,-0.30725574493408203,0.3576412796974182,-1.5837740898132324,-0.37647515535354614
1.1867006164132379,0.6652203616208258,-0.6578231437568809,1.500827431678772,-0.15206459164619446,-0.25438714027404785,0.2312900573015213,-0.9271376729011536,-0.2948233485221863,0.43449667096138,-1.5371415615081787,-0.3318396508693695
1.1987215407818586,0.6917050910362587,-0.6880366691349972,1.7546101808547974,-0.15510831773281097,0.023312924429774284,0.231890469789505,-0.9315750598907471,-0.2799910604953766,0.4715244472026825,-1.47179114818573,-0.3089980483055115
1.2138724582851361,0.7189791398171671,-0.7188222557123501,1.949746012687683,-0.14056916534900665,0.26292547583580017,0.23011687397956848,-0.9369760155677795,-0.2629115879535675,0.4606332778930664,-1.3778436183929443,-0.25881680846214294
1.2311878086481118,0.7475932416522167,-0.7507549430850846,2.063568115234375,-0.13811665773391724,0.4264816343784332,0.22647933661937714,-0.942885160446167,-0.24428503215312958,0.42644429206848145,-1.2597975730895996,-0.19394728541374207
1.2498343331261434,0.7785692996241328,-0.78482593389173,2.1358025074005127,-0.11092254519462585,0.5476604700088501,0.2215496003627777,-0.9489323496818542,-0.2245963215827942,0.3753132224082947,-1.1234402656555176,-0.13456490635871887
1.2693223210467983,0.8123191484403908,-0.8211940105727691,2.162993907928467,-0.06058906763792038,0.6735488772392273,0.2155359834432602,-0.9548998475074768,-0.20423266291618347,0.3381139636039734,-1.003016710281372,-0.1009276807308197
1.2894363211513482,0.8484306736131648,-0.8592592429523986,2.1474928855895996,-0.009210258722305298,0.8139932751655579,0.2083149254322052,-0.9606786966323853,-0.18358004093170166,0.3227367103099823,-0.9029079079627991,-0.07813853025436401
1.310033282088881,0.8868043048549389,-0.8988870568045713,2.1178834438323975,0.04765142500400543,0.9472333788871765,0.19982410967350006,-0.9661935567855835,-0.16291366517543793,0.30853772163391113,-0.8041313886642456,-0.07173581421375275
1.3310006681306834,0.9277242683479747,-0.9405311896925479,2.072465181350708,0.06115120276808739,1.081221103668213,0.19006454944610596,-0.9713865518569946,-0.14242103695869446,0.29736217856407166,-0.7156710028648376,-0.10313849151134491
1.3523372027621399,0.9713020690090467,-0.9846349260521713,2.022020101547241,0.059294719249010086,1.2136331796646118,0.17893339693546295,-0.9762325286865234,-0.12228212505578995,0.29975003004074097,-0.6218814849853516,-0.13484357297420502
1.373932177175485,1.0180939774083402,-1.0318601360075137,1.947503685951233,0.057731445878744125,1.3353288173675537,0.166472926735878,-0.980684757232666,-0.10268542170524597,0.2868961989879608,-0.5289435982704163,-0.1606506109237671
1.3955009105058696,1.0690152570016735,-1.0830748753782506,1.845637321472168,0.05769922211766243,1.4264709949493408,0.15290087461471558,-0.9846750497817993,-0.08388407528400421,0.24761180579662323,-0.44457000494003296,-0.17116641998291016
1.4168074561331039,1.1260330938824208,-1.1404170110657765,1.7621705532073975,0.026567645370960236,1.49813973903656,0.1384599506855011,-0.9881671071052551,-0.06599175184965134,0.2119581401348114,-0.3663557171821594,-0.18149036169052124
1.4379125146703038,1.1949598116215405,-1.2099805589411792,1.7400625944137573,-0.01177015621215105,1.569473147392273,0.12324623018503189,-0.9911839365959167,-0.04863210394978523,0.190520241856575,-0.2835659980773926,-0.21008044481277466
1.4588587860270978,1.2869880923826913,-1.3029367680937651,1.7501219511032104,-0.031490541994571686,1.642898678779602,0.10723541676998138,-0.993741512298584,-0.031278640031814575,0.18786951899528503,-0.20355463027954102,-0.2572495937347412
1.4790849714909038,1.4179072741701564,-1.434803570450853,1.7246490716934204,-0.014529934152960777,1.7108852863311768,0.0905166044831276,-0.9957974553108215,-0.013947844505310059,0.17639011144638062,-0.13742715120315552,-0.2676987051963806
1.4975717070705252,1.6125745039622856,-1.6299643907238859,1.6730434894561768,0.05055191367864609,1.7712838649749756,0.07309912145137787,-0.997320294380188,0.0030557261779904366,0.14867210388183594,-0.07566273212432861,-0.24089431762695312
1.5122098742861594,1.9124951158320405,-1.9294427422894607,1.6200352907180786,0.1647951304912567,1.8019558191299438,0.05517090857028961,-0.9982842803001404,0.019621500745415688,0.1278124749660492,-0.00833815336227417,-0.22872769832611084
1.5193987375085374,2.335486940862982,-2.350813635351942,1.5396568775177002,0.2781284749507904,1.792662262916565,0.03707391396164894,-0.9986794590950012,0.035569433122873306,0.10223880410194397,0.05605238676071167,-0.2235574722290039
1.5165861259535192,2.7832086319966116,-2.795855389039316,1.4748436212539673,0.3719188868999481,1.7855207920074463,0.0190066359937191,-0.9985309839248657,0.05074403062462807,0.07289702445268631,0.12345457077026367,-0.21413493156433105
1.5054199312931111,3.125914567513111,-3.1351498095449166,1.4304949045181274,0.4223794639110565,1.7551673650741577,0.0010242469143122435,-0.9978637099266052,0.06532449275255203,0.0597057044506073,0.19074994325637817,-0.23335397243499756
1.4894973522030655,-2.935460425593966,2.929828805050996,1.4129595756530762,0.39983606338500977,1.710066795349121,-0.016622141003608704,-0.9966970682144165,0.07949287444353104,0.052587077021598816,0.24285173416137695,-0.2638036012649536
1.4711301469318023,-2.796268162018889,2.793690351768367,1.4372799396514893,0.31528159976005554,1.6384762525558472,-0.03368191048502922,-0.9950374364852905,0.09362874925136566,0.050832755863666534,0.3030970096588135,-0.29420530796051025
1.4515783310285026,-2.710735994721199,2.7101799686720693,1.4782875776290894,0.1784026026725769,1.509594440460205,-0.0496741347014904,-0.9929019212722778,0.10806752741336823,0.05026918649673462,0.3644685745239258,-0.32725977897644043
1.4317825319863295,-2.662347481844741,2.662307896332025,1.5288559198379517,0.0007618535310029984,1.3253898620605469,-0.06389539688825607,-0.9903531074523926,0.12295809388160706,0.04804147034883499,0.42597609758377075,-0.33182013034820557
1.4120134669779658,-2.640309522386407,2.6392353988262127,1.6318869590759277,-0.14800578355789185,1.1343640089035034,-0.0759834498167038,-0.9874204397201538,0.13866358995437622,0.04232253134250641,0.500756561756134,-0.3194648027420044
1.391948110615313,-2.6368729400694164,2.63400410818647,1.79424250125885,-0.18072107434272766,0.9464713931083679,-0.0860242247581482,-0.9840492606163025,0.1557149738073349,0.03658570349216461,0.5669348835945129,-0.3164050579071045
1.3712754605582336,-2.6469441940832974,2.6427510685317346,1.976012110710144,-0.0982363224029541,0.7408980131149292,-0.0940898209810257,-0.9801616668701172,0.17444263398647308,0.014408402144908905,0.6219311356544495,-0.30459991097450256
1.3501271393736618,-2.664630876901358,2.6608397254596827,2.0933094024658203,0.1099637821316719,0.5714335441589355,-0.10048572719097137,-0.9757512211799622,0.19445516169071198,-0.020577557384967804,0.6594515442848206,-0.2592589557170868
1.3288306330979385,-2.683224032323765,2.6823999844021964,2.130998134613037,0.3766114413738251,0.46917375922203064,-0.1060250997543335,-0.9708688259124756,0.2148786038160324,-0.030296966433525085,0.668958306312561,-0.17158925533294678
1.3077763898834132,-2.6986945263011015,2.7040762546649213,2.109144687652588,0.7363898754119873,0.3897306025028229,-0.11142492294311523,-0.9656091928482056,0.2349122017621994,-0.04261259734630585,0.665468692779541,-0.08899211883544922
1.287317651901266,-2.70921562625494,2.7246487477387564,2.051976203918457,1.102170467376709,0.34091058373451233,-0.11720184236764908,-0.9600882530212402,0.2539578378200531,-0.044281966984272,0.6715750098228455,-0.054220110177993774
1.267572199051663,-2.7143088847509476,2.7427949581880626,1.9539867639541626,1.324949026107788,0.35752347111701965,-0.12374007701873779,-0.9543787240982056,0.27175459265708923,-0.007104121148586273,0.6802389621734619,-0.04380315542221069
1.2488516964916807,-2.7142427879406847,2.757104800794201,1.7976181507110596,1.3816874027252197,0.3867628574371338,-0.13114026188850403,-0.948621928691864,0.28795623779296875,0.045721545815467834,0.6943800449371338,-0.046424686908721924
1.231821151043456,-2.7110698553426755,2.767876848140757,1.570751428604126,1.2679466009140015,0.3901982009410858,-0.13877655565738678,-0.9430959224700928,0.3021782636642456,0.0731179267168045,0.7110248804092407,-0.044823288917541504
1.2172323955743383,-2.7065005727857314,2.7753463692199447,1.2749581336975098,1.0320371389389038,0.3638336956501007,-0.14593979716300964,-0.9381446838378906,0.31398501992225647,0.08018961548805237,0.7169379591941833,-0.04390418529510498
1.205597976014761,-2.702145816044769,2.780144812561427,0.9718073606491089,0.725139856338501,0.30791881680488586,-0.1519393026828766,-0.9340529441833496,0.3232029378414154,0.08640272915363312,0.725266695022583,-0.047247499227523804
1.1968206884283834,-2.6996925538867234,2.7835199956663867,0.7219264507293701,0.3912612199783325,0.21415182948112488,-0.15623195469379425,-0.9308823347091675,0.3302276134490967,0.08089925348758698,0.7448621988296509,-0.05807158350944519
1.1905848193429236,-2.700322489986079,2.7869951457148927,0.5154825448989868,0.1400875300168991,0.07988746464252472,-0.15849976241588593,-0.9285861849784851,0.33556774258613586,0.04233457148075104,0.7450839877128601,-0.08390429615974426
1.1866173390604056,-2.7040778669235435,2.7917828441279737,0.3612428903579712,0.009880793280899525,-0.058368414640426636,-0.15879864990711212,-0.9271064400672913,0.3394961357116699,0.0003360360860824585,0.7224400043487549,-0.0929899513721466
1.1841509115340585,-2.7096023316007916,2.797645000057361,0.27445393800735474,-0.018248530104756355,-0.12267760187387466,-0.15787744522094727,-0.9261792302131653,0.34244343638420105,0.004023000597953796,0.7018442749977112,-0.09042903780937195
1.182438433084366,-2.7150261688177455,2.803402170182739,0.2194383591413498,-0.002067696303129196,-0.128676638007164,-0.15667375922203064,-0.9255321025848389,0.34473809599876404,0.03498482704162598,0.684320867061615,-0.08936670422554016
1.1811807538766192,-2.7196926694545587,2.8084114429072136,0.16671650111675262,-0.006224143318831921,-0.11306504160165787,-0.155539870262146,-0.9250551462173462,0.3465271294116974,0.06111840903759003,0.6748107671737671,-0.07501193881034851
1.1802461518528051,-2.7237356053350985,2.8125700072839552,0.12993983924388885,-0.036964211612939835,-0.10242651402950287,-0.15448817610740662,-0.9246997237205505,0.34794265031814575,0.06644491851329803,0.666353166103363,-0.05584338307380676
1.1796795219921303,-2.728185982106048,2.8167767964817263,0.10336299985647202,-0.07573449611663818,-0.15121933817863464,-0.1531488299369812,-0.9244838953018188,0.34910693764686584,0.04119502007961273,0.6364434957504272,-0.04600605368614197
1.1796096922276353,-2.734083593273094,2.8222450358831526,0.07631061226129532,-0.08912647515535355,-0.22336117923259735,-0.15111255645751953,-0.9244572520256042,0.35006263852119446,-0.00590042769908905,0.6011998653411865,-0.03391566872596741
1.180086457301171,-2.7413711534838185,2.829059372468939,0.033391665667295456,-0.11635508388280869,-0.2887071967124939,-0.14838579297065735,-0.9246389269828796,0.35074877738952637,-0.03131701052188873,0.5692312121391296,-0.015085726976394653
1.1814558599752358,-2.7501346962850586,2.836923163170453,-0.06285497546195984,-0.1883493810892105,-0.37304845452308655,-0.14482323825359344,-0.9251596331596375,0.35086527466773987,-0.027692705392837524,0.5387917160987854,0.01819932460784912
1.1842336334564243,-2.7609793087797523,2.845912845094895,-0.19590702652931213,-0.32617178559303284,-0.4638707935810089,-0.14005447924137115,-0.9262104034423828,0.3500276207923889,-0.04379869997501373,0.5176410675048828,0.06421825289726257
1.1884220355719277,-2.7741152988377897,2.855784741660422,-0.30441248416900635,-0.4585423469543457,-0.5178611278533936,-0.13404978811740875,-0.927781343460083,0.34821394085884094,-0.06272761523723602,0.47618210315704346,0.09215497970581055
1.1934030835044624,-2.787882698531884,2.8652884457199583,-0.3774350583553314,-0.5122500658035278,-0.47728481888771057,-0.1276407241821289,-0.9296283721923828,0.3456863760948181,-0.038420721888542175,0.4276599884033203,0.10534831881523132
1.198740287003961,-2.799556918372738,2.8725563235811333,-0.4412126839160919,-0.4507315754890442,-0.3824046552181244,-0.1219308152794838,-0.9315818548202515,0.34247440099716187,-0.007845252752304077,0.36212366819381714,0.1326541006565094
1.2043148955574923,-2.80765271746424,2.8770624345084004,-0.4995647072792053,-0.317474365234375,-0.29445913434028625,-0.11745014041662216,-0.9335939288139343,0.33853837847709656,-0.01028122752904892,0.2788391709327698,0.16210269927978516
1.2101832130615828,-2.8124185945774336,2.879441982377422,-0.5516694784164429,-0.19586139917373657,-0.2536776065826416,-0.11406226456165314,-0.9356806874275208,0.3339037001132965,-0.025723539292812347,0.21026259660720825,0.1721695363521576
1.2166201194488497,-2.8155682416035925,2.8811096381361874,-0.6397310495376587,-0.13293178379535675,-0.28100311756134033,-0.11107861250638962,-0.9379324913024902,0.3285485506057739,-0.05804983526468277,0.16092455387115479,0.165287047624588
1.2243632755201153,-2.819621174740942,2.8838334579642475,-0.760677695274353,-0.1755458265542984,-0.39608603715896606,-0.10744493454694748,-0.9405898451805115,0.3220975995063782,-0.0979079082608223,0.11745423078536987,0.16604653000831604
1.2338293015169508,-2.827010597822578,2.8893898835251766,-0.923539400100708,-0.2683568596839905,-0.5468329191207886,-0.10230238735675812,-0.9437617659568787,0.3144020140171051,-0.12107108533382416,0.09096312522888184,0.15556898713111877
1.2453097331118983,-2.838673629737435,2.8980396476077352,-1.0767992734909058,-0.42980435490608215,-0.6743671894073486,-0.09538981318473816,-0.9474952220916748,0.30521079897880554,-0.11095482856035233,0.06688010692596436,0.14049869775772095
1.2579565530882093,-2.8546697950057713,2.909509682094038,-1.112973928451538,-0.5825385451316833,-0.7343184351921082,-0.08709753304719925,-0.9514634609222412,0.29518115520477295,-0.09773223102092743,0.01818990707397461,0.09893837571144104
1.2705244610237065,-2.8729834559656044,2.923335541402338,-1.0475070476531982,-0.4427018165588379,-0.7511181831359863,-0.07849743217229843,-0.9552561044692993,0.285174161195755,-0.09072258323431015,-0.030202388763427734,0.041211605072021484
1.281778535638171,-2.8923345701091665,2.9393943633862767,-0.8834090232849121,-0.3443047106266022,-0.7072077393531799,-0.07030827552080154,-0.9585242867469788,0.2762042284011841,-0.043247684836387634,-0.09755212068557739,-0.054508984088897705
1.2910954617567358,-2.910055091962901,2.954815413557433,-0.7170472145080566,-0.2492346465587616,-0.5673635601997375,-0.06335065513849258,-0.9611380696296692,0.2687016427516937,0.0136222243309021,-0.15289092063903809,-0.09098222851753235
1.298497733013969,-2.9244360422935114,2.967427500953827,-0.5719667077064514,-0.20479851961135864,-0.43502873182296753,-0.057945769280195236,-0.9631552696228027,0.2626309394836426,0.06569718569517136,-0.19384276866912842,-0.1084710955619812
1.3044500630173195,-2.936398592883057,2.9776848700730336,-0.48192283511161804,-0.21275684237480164,-0.35354238748550415,-0.05363069102168083,-0.9647390246391296,0.25768715143203735,0.07471831142902374,-0.21655070781707764,-0.10709801316261292
1.3096624340410643,-2.947460435238498,2.9867647943891624,-0.4451894760131836,-0.25004875659942627,-0.3142898380756378,-0.0498063750565052,-0.9660978317260742,0.2533279061317444,0.06073162332177162,-0.23515063524246216,-0.08812063932418823
1.3144946195402885,-2.9577907498001115,2.9944814707241316,-0.42636919021606445,-0.3276900053024292,-0.25135961174964905,-0.046332769095897675,-0.9673341512680054,0.24923481047153473,0.05530490353703499,-0.24834883213043213,-0.07847359776496887
1.3190122453179223,-2.9667874148139184,2.999920663749271,-0.41179075837135315,-0.41101959347724915,-0.1788737028837204,-0.043328333646059036,-0.968469500541687,0.24533650279045105,0.07831670343875885,-0.2553313970565796,-0.08151790499687195
1.3233679895222192,-2.974146025194696,3.003151283527079,-0.4197309911251068,-0.42600759863853455,-0.1322084665298462,-0.04081825911998749,-0.9695454835891724,0.24148620665073395,0.0811014175415039,-0.25729167461395264,-0.07293739914894104
1.327789116887265,-2.9804140087223967,3.005167966049294,-0.435073584318161,-0.43977582454681396,-0.11151081323623657,-0.038615576922893524,-0.9706187844276428,0.23750418424606323,0.05773480609059334,-0.25843095779418945,-0.0635843425989151
1.3323533818681723,-2.9862016223021235,3.0065017635428126,-0.4575360119342804,-0.4508836269378662,-0.09307641535997391,-0.03655438497662544,-0.9717069268226624,0.23334482312202454,0.04096414893865585,-0.2474551796913147,-0.0562969446182251
1.3370809389439628,-2.9911046398066237,3.0069749423975725,-0.4694226086139679,-0.4283672869205475,-0.0717308521270752,-0.03472074493765831,-0.9728126525878906,0.22897668182849884,0.035651493817567825,-0.23102957010269165,-0.04651178419589996
1.3417815580274732,-2.99459515809115,3.0063917566663543,-0.4602320194244385,-0.3787805438041687,-0.042970575392246246,-0.03325120359659195,-0.9738905429840088,0.2245708703994751,0.029421206563711166,-0.2250843048095703,-0.04454740881919861
1.3461650804262755,-2.996202091089281,3.004373327957651,-0.4182952344417572,-0.3374238908290863,0.004282450769096613,-0.0322713628411293,-0.9748762845993042,0.22039707005023956,0.03427023068070412,-0.2131577730178833,-0.04894913733005524
1.3500281529440095,-2.995535462056185,3.0003929024502374,-0.37436479330062866,-0.30551257729530334,0.051447562873363495,-0.03186994791030884,-0.9757295250892639,0.21664802730083466,0.04505350813269615,-0.20998519659042358,-0.05011335015296936
1.3534373577937473,-2.9930928441279168,2.994837245734355,-0.33825773000717163,-0.29291871190071106,0.0815606638789177,-0.03190683200955391,-0.976470410823822,0.2132793813943863,0.05433720722794533,-0.19627457857131958,-0.04572233557701111
1.356514930648451,-2.9899933608269214,2.988680810882416,-0.31025031208992004,-0.28432387113571167,0.08152284473180771,-0.032113704830408096,-0.9771294593811035,0.2102075219154358,0.04403078183531761,-0.16688323020935059,-0.03213724493980408
1.359284199859005,-2.987270328754756,2.9830771459718557,-0.26967766880989075,-0.26298239827156067,0.06814223527908325,-0.032269831746816635,-0.9777145981788635,0.20744405686855316,0.03214772418141365,-0.14229583740234375,-0.026734009385108948
1.3615928397943764,-2.9846441998694235,2.9779285431106484,-0.2167004644870758,-0.2146603912115097,0.07522091269493103,-0.032461632043123245,-0.9781966209411621,0.20512881875038147,0.02948613092303276,-0.13033920526504517,-0.026478663086891174
1.3633749758312856,-2.980689985671118,2.9719089363906743,-0.17132586240768433,-0.17212435603141785,0.11443030089139938,-0.032993145287036896,-0.9785652160644531,0.20327769219875336,0.039691727608442307,-0.11841970682144165,-0.026107683777809143
1.3646685724205478,-2.9746941037018955,2.964060067913286,-0.1395178586244583,-0.1665458381175995,0.15505334734916687,-0.03400106355547905,-0.9788308143615723,0.20182783901691437,0.056797660887241364,-0.10095751285552979,-0.017562508583068848
1.3655890425437835,-2.9679781136634853,2.9553508948475415,-0.10068008303642273,-0.1877414435148239,0.15592631697654724,-0.03520003333687782,-0.9790187478065491,0.20070700347423553,0.04957377538084984,-0.08073467016220093,-0.00904121994972229
1.366144314936049,-2.9623986300737415,2.9477092884728173,-0.05892278254032135,-0.1889324188232422,0.1261790692806244,-0.03622264415025711,-0.9791317582130432,0.19997376203536987,0.020643386989831924,-0.06554621458053589,-0.01163432002067566
1.3663265460017369,-2.9582383302179176,2.9415732281667557,-0.026581505313515663,-0.1814100444316864,0.11595510691404343,-0.037021733820438385,-0.9791687726974487,0.19964583218097687,0.008853975683450699,-0.047702133655548096,-0.01739451289176941
1.3663443140551623,-2.953913306057968,2.9352935197992895,-0.032176803797483444,-0.19056040048599243,0.1323455274105072,-0.03788143768906593,-0.97917240858078,0.19946584105491638,0.015985045582056046,-0.034102797508239746,-0.012011423707008362
1.3665237786257225,-2.9489265816489967,2.92799854165489,-0.06014062091708183,-0.24121233820915222,0.14829310774803162,-0.03884206712245941,-0.9792088270187378,0.19910234212875366,0.028817005455493927,-0.024895906448364258,0.004709482192993164
1.3669415629513875,-2.9436813982880348,2.919965526854025,-0.08639194071292877,-0.2767561972141266,0.15132218599319458,-0.039805296808481216,-0.9792934656143188,0.19849415123462677,0.02743038535118103,-0.011612236499786377,0.020546048879623413
1.3676385726760734,-2.938433997774562,2.911798816353144,-0.11791575700044632,-0.2702164351940155,0.14456728100776672,-0.04070855304598808,-0.9794343709945679,0.19761376082897186,0.015439968556165695,-0.002300858497619629,0.025897234678268433
1.3687134510294494,-2.932515445178462,2.9030440616874356,-0.1661013960838318,-0.2613113522529602,0.16012679040431976,-0.041659165173769,-0.9796506762504578,0.19634072482585907,0.010271798819303513,0.002263963222503662,0.036295086145401
1.3702565774847446,-2.924521030450216,2.8920861607016537,-0.22922112047672272,-0.2939707338809967,0.20398390293121338,-0.04290180653333664,-0.9799591898918152,0.19452489912509918,0.020807038992643356,0.008386075496673584,0.051431804895401
1.3724111129448806,-2.913649611370854,2.8776387458687815,-0.31928232312202454,-0.36770832538604736,0.2558540403842926,-0.04453672096133232,-0.9803861379623413,0.19198958575725555,0.03318415582180023,0.007882297039031982,0.05791914463043213
1.3754059510749796,-2.9004311676671546,2.8598720044632846,-0.42428097128868103,-0.47503820061683655,0.27732518315315247,-0.046368833631277084,-0.9809719324111938,0.18853096663951874,0.032696932554244995,0.017623603343963623,0.05899724364280701
1.3793808388525577,-2.8857683908977223,2.839641470785054,-0.5311392545700073,-0.5575043559074402,0.2773084044456482,-0.04814130440354347,-0.9817359447479248,0.18405789136886597,0.021865636110305786,0.031052231788635254,0.06037294864654541
1.3842351675967148,-2.8699229492749776,2.8173931586382865,-0.6156831979751587,-0.651687502861023,0.27552080154418945,-0.04977213218808174,-0.9826478958129883,0.1786787211894989,0.016233284026384354,0.036938607692718506,0.05128680169582367
1.3895676795779115,-2.8532898552509893,2.7936614806319464,-0.6415739059448242,-0.6814107894897461,0.26289820671081543,-0.05124688148498535,-0.9836229681968689,0.17280130088329315,0.00757618248462677,0.036585986614227295,0.038090720772743225
1.3949770285952439,-2.8364855021056465,2.7695389765628606,-0.6339671015739441,-0.6957104802131653,0.2370632141828537,-0.05254416540265083,-0.9845835566520691,0.1668381243944168,0.010643497109413147,0.04415363073348999,0.019365206360816956
1.4002905806693247,-2.8208908497316147,2.7466877407135963,-0.6158647537231445,-0.6803568005561829,0.1778118759393692,-0.053489115089178085,-0.9854990839958191,0.16103008389472961,-0.011482834815979004,0.045054078102111816,0.006328567862510681
1.4055651699574758,-2.808503909223973,2.7273266951873496,-0.5858632326126099,-0.6518496870994568,0.09141430258750916,-0.05377916246652603,-0.9863803386688232,0.15544024109840393,-0.03505753353238106,0.04390597343444824,0.000779375433921814
1.4107945567371154,-2.8009040714344406,2.713238265737057,-0.5486687421798706,-0.6010474562644958,-0.003633912419900298,-0.05323499068617821,-0.9872270226478577,0.15016421675682068,-0.05667409673333168,0.045851171016693115,-0.0019096136093139648
1.4158463718137457,-2.797184188696969,2.703712700521459,-0.5015697479248047,-0.5292029976844788,-0.04447800666093826,-0.05210890620946884,-0.9880192279815674,0.14526963233947754,-0.056304823607206345,0.03570276498794556,-0.014776214957237244
1.4204628679491182,-2.7934143823519175,2.694880827042449,-0.45599350333213806,-0.46279650926589966,-0.009646790102124214,-0.05109907314181328,-0.9887211918830872,0.1407822221517563,-0.025683186948299408,0.018750369548797607,-0.01929152011871338
1.4244574481753924,-2.786623664096406,2.6835139494956968,-0.4057154357433319,-0.42289870977401733,0.0477987602353096,-0.05068107694387436,-0.9893115758895874,0.13672834634780884,0.0060490816831588745,0.0158158540725708,-0.019784674048423767
1.4278393235518123,-2.7769318278442543,2.669605230685941,-0.3671001195907593,-0.3847225606441498,0.08519433438777924,-0.05081021040678024,-0.9897990226745605,0.13310390710830688,0.0023635216057300568,0.015647292137145996,-0.014268159866333008
1.4307805661481834,-2.7652509243627086,2.6541811865658236,-0.33946555852890015,-0.329434871673584,0.105038583278656,-0.051291294395923615,-0.9902138113975525,0.1297932118177414,-0.014565669000148773,0.01326972246170044,-0.006196856498718262
1.433427718185978,-2.7526985923759444,2.638508444216905,-0.3130970597267151,-0.2565297484397888,0.09434599429368973,-0.05192239582538605,-0.9905797839164734,0.1267133355140686,-0.02858300507068634,0.015634536743164062,0.0010029077529907227
1.435977807200686,-2.7411826724200106,2.6246565238511423,-0.3026179075241089,-0.1844393014907837,0.05365876108407974,-0.052393410354852676,-0.9909257292747498,0.12378056347370148,-0.04276043549180031,0.019581496715545654,0.004286780953407288
1.4385808127105355,-2.731470170184154,2.6132901866665934,-0.29589608311653137,-0.12437330186367035,0.02116100676357746,-0.05256431922316551,-0.9912722706794739,0.12089954316616058,-0.05275186896324158,0.016678035259246826,0.008846163749694824
1.4412715710984123,-2.722537598648378,2.6032464794128822,-0.30134013295173645,-0.08348564058542252,0.004297364037483931,-0.0525566004216671,-0.9916234016418457,0.11798816174268723,-0.04325336217880249,0.010986685752868652,0.013497106730937958
1.4440823510095744,-2.713725949897043,2.5935909355035336,-0.31104734539985657,-0.07084733992815018,-0.010212868452072144,-0.05243755877017975,-0.9919825196266174,0.1149841696023941,-0.03203512355685234,0.00866025686264038,0.012930512428283691
1.44701063969734,-2.704786723351583,2.583764714410329,-0.32219552993774414,-0.09580583870410919,-0.010205878876149654,-0.05223417282104492,-0.992348313331604,0.1118781715631485,-0.027889758348464966,0.006432056427001953,0.009704113006591797
1.4499337187668373,-2.6960521426888477,2.5737570808636847,-0.3089812099933624,-0.14233659207820892,-0.018472863361239433,-0.051959022879600525,-0.9927049875259399,0.10879949480295181,-0.019909899681806564,0.010237276554107666,-0.0022318437695503235
1.4527086577225068,-2.688800230245712,2.5648715333386627,-0.280764102935791,-0.1714053452014923,-0.03188300132751465,-0.051541488617658615,-0.9930357336997986,0.10594263672828674,-0.017611373215913773,0.009942352771759033,-0.021988511085510254
1.455225171431266,-2.683213770344669,2.5573288634509472,-0.251663476228714,-0.20749731361865997,-0.030137566849589348,-0.0510268360376358,-0.9933291077613831,0.10341223329305649,-0.015562545508146286,0.0006531476974487305,-0.02879655361175537
1.4575643608761573,-2.6783137221369095,2.550125375677277,-0.2425585836172104,-0.242711141705513,-0.0281263068318367,-0.050494298338890076,-0.9935961365699768,0.10108175128698349,-0.007061883807182312,0.0011032819747924805,-0.01753973960876465
1.4597624776686104,-2.673132316506267,2.542373245796149,-0.22962413728237152,-0.2465072125196457,-0.015198522247374058,-0.050031084567308426,-0.9938420653343201,0.09886971116065979,-0.010515816509723663,0.0003116726875305176,0.0016859769821166992
1.4617729581017231,-2.6672075167785194,2.534248553490341,-0.20849183201789856,-0.1800079047679901,-0.00938257947564125,-0.049703750759363174,-0.9940628409385681,0.09679502993822098,-0.01259792223572731,-0.005983233451843262,0.00533236563205719
1.463473441979673,-2.660593382554225,2.5261614159581844,-0.17626625299453735,-0.10702717304229736,0.009716812521219254,-0.04956034943461418,-0.9942464232444763,0.09496473520994186,-0.019302599132061005,-0.011887848377227783,0.0007233768701553345
1.464896346678463,-2.652044677859669,2.5167434205668298,-0.1698588877916336,-0.05991025269031525,0.03236895427107811,-0.04970544949173927,-0.9943978190422058,0.09328967332839966,-0.016105741262435913,-0.012133181095123291,0.006213195621967316
1.4662295306925484,-2.6420365607447263,2.5062040427845074,-0.1710362732410431,-0.037761542946100235,0.03394661098718643,-0.050001341849565506,-0.994537889957428,0.09162348508834839,-0.00628836452960968,-0.008575141429901123,0.011343009769916534
1.4675782162403068,-2.6319775619798493,2.495780590086376,-0.17118170857429504,-0.022277818992733955,0.018994441255927086,-0.0502660796046257,-0.994677722454071,0.0899450033903122,-0.015819773077964783,-0.006482183933258057,0.011144764721393585
1.469124902564696,-2.623429652240967,2.487319175832891,-0.18031582236289978,0.052886173129081726,-0.024887261912226677,-0.050270237028598785,-0.9948359131813049,0.08817403763532639,-0.028129443526268005,8.58306884765625e-06,0.020300976932048798
1.470821862791524,-2.6198351574628242,2.484351905815952,-0.1414991319179535,0.06497973203659058,-0.08892082422971725,-0.049745265394449234,-0.9950067400932312,0.08652888238430023,-0.04453881457448006,0.00616079568862915,0.002765767276287079
1.4724641272039434,-2.6229850897904554,2.4882295455060404,-0.1058492437005043,0.07780711352825165,-0.1367458701133728,-0.04866290092468262,-0.9951692819595337,0.08526664227247238,-0.04105880856513977,0.01367807388305664,-0.0226900577545166
1.4739614666873502,-2.631641503440904,2.4976176282483027,-0.06295688450336456,0.05109994113445282,-0.1665179282426834,-0.04719569906592369,-0.9953151941299438,0.08438433706760406,-0.0220029354095459,0.01579231023788452,-0.03395378589630127
1.4749092520233924,-2.6432494005865004,2.5095520833636233,-0.005514365155249834,-0.006428335793316364,-0.15153658390045166,-0.04576276242733002,-0.9954063296318054,0.08409903198480606,-0.002531338483095169,0.012404382228851318,-0.04845427721738815
1.4751356462973764,-2.655796594189109,2.521625499608389,0.06250626593828201,-0.10419757664203644,-0.091330885887146,-0.04459744691848755,-0.9954280257225037,0.08446482568979263,0.026027482002973557,0.007833361625671387,-0.0702740028500557
1.474475944977799,-2.6676525605628254,2.532011580495863,0.1343998908996582,-0.19516369700431824,-0.03546709567308426,-0.04389316216111183,-0.995364785194397,0.08557295799255371,0.04517487436532974,0.002261638641357422,-0.07953023910522461
1.473001870570498,-2.6793906089945336,2.541541917726427,0.1980285346508026,-0.2500735819339752,-0.011995697394013405,-0.04353998601436615,-0.9952219128608704,0.087395578622818,0.043967198580503464,0.003186821937561035,-0.07862161844968796
1.4709827462338374,-2.6915682175698303,2.551198288554787,0.23060645163059235,-0.2566888928413391,-0.0034951537381857634,-0.0433468259871006,-0.9950227737426758,0.08972915261983871,0.02523462101817131,0.0015837550163269043,-0.066321961581707
1.4688868502122447,-2.7040977337246717,2.5613698882369618,0.23456339538097382,-0.21811537444591522,-0.030911672860383987,-0.04310249537229538,-0.9948117136955261,0.09215372800827026,0.007015429437160492,0.0016626715660095215,-0.03186594694852829
1.4669955227495022,-2.71951746449017,2.5750883196615852,0.24234062433242798,-0.13339541852474213,-0.09514924883842468,-0.0424470417201519,-0.9946175217628479,0.09452338516712189,-0.019656255841255188,-0.0014458298683166504,0.003331422805786133
1.465223036279673,-2.7399699247019385,2.5949534018739953,0.27177903056144714,-0.0036860788241028786,-0.15618166327476501,-0.041194260120391846,-0.9944323301315308,0.09699445962905884,-0.04109642282128334,-0.00381314754486084,0.010564938187599182
1.4633105761326752,-2.7638528017379373,2.619566547594693,0.30831921100616455,0.11469490081071854,-0.18267479538917542,-0.039567362517118454,-0.9942289590835571,0.09971754997968674,-0.038725510239601135,-0.002414226531982422,0.005079984664916992
1.4610989104512662,-2.7877803422609015,2.645107561703931,0.3384164869785309,0.1656516045331955,-0.16030029952526093,-0.037932127714157104,-0.9939892888069153,0.10269834101200104,-0.015305813401937485,-0.008986353874206543,-0.008322477340698242
1.4586092978235818,-2.808804188176904,2.667928669430049,0.3409488797187805,0.1656356155872345,-0.12726326286792755,-0.036572836339473724,-0.9937136173248291,0.10581087321043015,0.016019225120544434,-0.01290881633758545,-0.01242685317993164
1.4560551676238722,-2.826495589209423,2.687309582134539,0.32226333022117615,0.14350208640098572,-0.10738755762577057,-0.035481639206409454,-0.9934244751930237,0.10885380953550339,0.021077323704957962,-0.01167207956314087,-0.0029728487133979797
1.4534601687343283,-2.841494855041937,2.7036092782398344,0.2806066572666168,0.08503182977437973,-0.09382276237010956,-0.03460663929581642,-0.9931240081787109,0.11183511465787888,0.008529353886842728,-0.013605058193206787,0.006771661341190338
1.4512673102837774,-2.8541040369631374,2.716619581625048,0.22468595206737518,-0.023650337010622025,-0.07042697817087173,-0.03381161019206047,-0.9928649067878723,0.11435211449861526,0.010984443128108978,-0.009393513202667236,0.015195243060588837
1.4495422477294337,-2.8636125769995333,2.725540351210648,0.1661113202571869,-0.09812697023153305,-0.04246671497821808,-0.03319296985864639,-0.9926577210426331,0.11631610244512558,0.026631664484739304,-0.006335437297821045,0.020509615540504456
1.4482794507888792,-2.870917173136403,2.7318255988134164,0.11756786704063416,-0.10857687890529633,-0.03908136114478111,-0.03267756476998329,-0.9925041794776917,0.11776314675807953,0.017754442989826202,-0.012806117534637451,0.03137649595737457
1.4473825312060369,-2.877258472859556,2.7372341161807823,0.09231630712747574,-0.08353650569915771,-0.04279780015349388,-0.03216271474957466,-0.9923941493034363,0.11882725358009338,0.002423308789730072,-0.019416332244873047,0.03028179705142975
1.4466179078912633,-2.882499912409875,2.7418608816425,0.08798262476921082,-0.04426257312297821,-0.02566780149936676,-0.031733427196741104,-0.9922997355461121,0.11972604691982269,0.0030621401965618134,-0.01526862382888794,0.02173839509487152
1.4457347776140679,-2.885385458846615,2.7446451380306898,0.09586212038993835,0.018651675432920456,0.005141245201230049,-0.03160995990037918,-0.9921900033950806,0.12066509574651718,0.01793806254863739,-0.01672118902206421,0.011735670268535614
1.4447205213352583,-2.885716111084657,2.745476460100158,0.10390637814998627,0.07743533700704575,0.024864863604307175,-0.03182481974363327,-0.9920629858970642,0.1216493546962738,0.021769259124994278,-0.022432982921600342,0.008370988070964813
1.4436079149148882,-2.8850407174790726,2.745760713382278,0.11745867878198624,0.10742305964231491,0.02322382479906082,-0.03218688443303108,-0.9919224381446838,0.12269484251737595,0.01666867360472679,-0.022161483764648438,0.005601286888122559
1.4422861302962093,-2.8857402400973435,2.7475085840604074,0.14419983327388763,0.10004586726427078,0.010240399278700352,-0.03243305906653404,-0.9917539358139038,0.12398654967546463,0.014229297637939453,-0.017798185348510742,-0.013741493225097656
1.4407183595668491,-2.8896023030008346,2.7523414281047125,0.17390978336334229,0.09204626083374023,-0.019555047154426575,-0.032341744750738144,-0.9915517568588257,0.12561699748039246,0.013130899518728256,-0.009592890739440918,-0.02944062650203705
1.4390194239548184,-2.89575500672114,2.759443390919433,0.17181777954101562,0.09062042087316513,-0.0550624318420887,-0.031977783888578415,-0.9913299679756165,0.1274457722902298,0.004527203738689423,-0.011248767375946045,-0.02315165102481842
1.437490526571934,-2.902951599928043,2.767538307536357,0.15506383776664734,0.07234741002321243,-0.0771389752626419,-0.031418293714523315,-0.9911279082298279,0.1291462481021881,-0.0005946792662143707,-0.017722368240356445,-0.0036576837301254272
1.4362549597077687,-2.910497398097115,2.775733049803617,0.12390316277742386,0.0383140929043293,-0.07039051502943039,-0.030723338946700096,-0.9909629821777344,0.13057149946689606,0.002006273716688156,-0.01617830991744995,0.01736271381378174
1.4353516253151997,-2.916647370238979,2.7821757216540606,0.09199955314397812,0.013111799024045467,-0.03459256887435913,-0.030119404196739197,-0.9908413887023926,0.13163051009178162,0.011137444525957108,-0.019427895545959473,0.026969552040100098
1.4346436873300896,-2.9196676094277594,2.785290439533818,0.06950569897890091,0.0054810428991913795,0.004036316182464361,-0.029876094311475754,-0.9907455444335938,0.13240507245063782,0.026625946164131165,-0.020149409770965576,0.028789043426513672
1.4340764647971045,-2.9195916916819358,2.785325560172769,0.049443040043115616,0.020752940326929092,0.03360139951109886,-0.030009662732481956,-0.9906684160232544,0.13295002281665802,0.023402584716677666,-0.01903623342514038,0.025009140372276306
1.4336864044073006,-2.9166900136303218,2.7826994593392897,0.03489777445793152,0.039464320987463,0.06392033398151398,-0.030481651425361633,-0.9906151294708252,0.1332397758960724,0.021066952496767044,-0.024750590324401855,0.02322399616241455
1.4333786420972134,-2.911397741524157,2.777740724393042,0.023443516343832016,0.03612631559371948,0.09112053364515305,-0.031256143003702164,-0.9905730485916138,0.13337436318397522,0.022848524153232574,-0.026806950569152832,0.026446476578712463
1.4330126805862038,-2.904533917088576,2.7711085216577986,0.030149035155773163,0.02160431444644928,0.10269957780838013,-0.03225548192858696,-0.9905228614807129,0.13350695371627808,0.022169403731822968,-0.01922750473022461,0.017448410391807556
1.4325463759919062,-2.898363253260515,2.7649899404397136,0.02737109176814556,0.0019475193694233894,0.0829586312174797,-0.0331902839243412,-0.9904586672782898,0.13375508785247803,0.010149482637643814,-0.012761056423187256,0.009357333183288574
1.432078235383084,-2.893862553082181,2.760525570024454,0.027475541457533836,0.021536987274885178,0.06358984112739563,-0.033905696123838425,-0.9903940558433533,0.13405412435531616,-0.0019830018281936646,-0.015389204025268555,0.01835097372531891
1.4315741957183195,-2.890987259642141,2.7579946419119072,0.037824586033821106,0.053337790071964264,0.04228322207927704,-0.03441457450389862,-0.9903242588043213,0.13443882763385773,-0.0037324167788028717,-0.013185381889343262,0.025381922721862793
1.4309793576947425,-2.8896615968118327,2.7573137915095822,0.05669412016868591,0.08032277971506119,0.03519875556230545,-0.03473999723792076,-0.990241527557373,0.13496507704257965,-0.007664211094379425,-0.016686320304870605,0.019118458032608032
1.4301079578625824,-2.888033229796268,2.756545818594531,0.09141108393669128,0.09314403682947159,0.05581827834248543,-0.03517574071884155,-0.9901196956634521,0.1357419341802597,0.005283750593662262,-0.013359367847442627,0.014130115509033203
1.428868506164441,-2.885286464122677,2.7547286835422793,0.11967246979475021,0.09937872737646103,0.07574643194675446,-0.0358596071600914,-0.989945113658905,0.1368320733308792,0.01072835922241211,-0.011565566062927246,0.0037627071142196655
1.4273715765429542,-2.8815068472192302,2.7518352208565333,0.1343936175107956,0.0888856053352356,0.10354716330766678,-0.03675782307982445,-0.9897322654724121,0.13812841475009918,0.013640731573104858,-0.014006316661834717,-0.0016535371541976929
1.4257702104700938,-2.876248072008968,2.747326857422329,0.13214759528636932,0.07320871949195862,0.12097227573394775,-0.03789913281798363,-0.9895021319389343,0.1394619196653366,0.01365288719534874,-0.011047303676605225,0.009204626083374023
1.4242899537022262,-2.870702584796884,2.7424026681610494,0.1129446029663086,0.06525012850761414,0.1034018024802208,-0.03906352072954178,-0.9892871379852295,0.1406596451997757,-0.0017995387315750122,-0.003754854202270508,0.01661287248134613
1.423123203215016,-2.866689309623642,2.7389875583347436,0.07366064190864563,0.061598628759384155,0.05998009070754051,-0.0399409756064415,-0.9891161322593689,0.1416124403476715,-0.021216269582509995,0.0010333061218261719,0.022999614477157593
1.4224736078533207,-2.8650265873028937,2.737904459728303,0.028506752103567123,0.055588409304618835,0.010229580104351044,-0.04035220295190811,-0.9890203475952148,0.14216527342796326,-0.036796264350414276,0.003027677536010742,0.03122057020664215
1.4223768270929322,-2.865435933212228,2.738848949465958,-0.009291782975196838,0.049671322107315063,-0.031526871025562286,-0.040320079773664474,-0.9890060424804688,0.14227378368377686,-0.042260512709617615,0.009910404682159424,0.037215590476989746
