attitudeX,attitudeY,attitudeZ,gyroX,gyroY,gyroZ,gravityX,gravityY,gravityZ,accX,accY,accZ
1.511939265571151,2.695870103983808,2.67415795667485,-1.2501227855682373,0.4159446954727173,0.21871058642864227,0.025359289720654488,-0.9982684254646301,0.053076185286045074,-9.06921923160553e-05,0.6327288746833801,0.20272229611873627
1.5241312734086758,2.6157255434654014,2.7583930885020242,-1.3151718378067017,0.37451282143592834,0.13787326216697693,0.023416537791490555,-0.9989113807678223,0.04034699499607086,-0.007944079115986824,0.62063068151474,0.22594952583312988
1.5361253979275105,2.453738258728062,2.923913940882432,-1.4064761400222778,0.29173222184181213,0.12398963421583176,0.0220077745616436,-0.9993990063667297,0.026782073080539703,0.023020951077342033,0.6035860180854797,0.2626774311065674
1.5468631142214764,2.100536618414703,-3.003816600068222,-1.5304124355316162,0.11775962263345718,0.13601674139499664,0.02065456286072731,-0.9997135996818542,0.012094655074179173,0.052755504846572876,0.578372597694397,0.27928733825683594
1.5512080472986371,1.3648304262518975,-2.2677401976860097,-1.684059500694275,-0.07049313932657242,0.16188913583755493,0.019174035638570786,-0.999808132648468,-0.004006005823612213,0.04688131809234619,0.566244900226593,0.28592759370803833
1.5428723383421792,0.676382492086972,-1.5804611817843355,-1.8526753187179565,-0.1840926706790924,0.1672777682542801,0.01748283952474594,-0.9996101260185242,-0.021780159324407578,0.014499606564640999,0.5505742430686951,0.2984679937362671
1.5266185187245989,0.3687992677382177,-1.2748794606341196,-2.012265920639038,-0.24925677478313446,0.12818974256515503,0.015921184793114662,-0.9990243315696716,-0.0411951057612896,-0.024328740313649178,0.5129860639572144,0.2833217978477478
1.5068593149782445,0.22919536054739478,-1.1378104579712471,-2.1772727966308594,-0.2897703945636749,0.12907710671424866,0.014516807161271572,-0.9979567527770996,-0.06222517415881157,-0.05766862630844116,0.4763806462287903,0.22352606058120728
1.4848556081840538,0.15187986163349576,-1.063177950321538,-2.3357832431793213,-0.28658556938171387,0.1206759437918663,0.012986592017114162,-0.9963093400001526,-0.08484721183776855,-0.08062878251075745,0.4141102433204651,0.17177671194076538
1.4610298995189819,0.11029054556130735,-1.0244286858369172,-2.4647703170776367,-0.3226484954357147,-0.00683301268145442,0.012057473883032799,-0.9939817190170288,-0.10888100415468216,-0.12385860085487366,0.30379611253738403,0.13562989234924316
1.4358786479540107,0.0952161435222307,-1.0129998402242437,-2.5418014526367188,-0.4188961386680603,-0.23446078598499298,0.012788139283657074,-0.9909123778343201,-0.13390029966831207,-0.19375735521316528,0.19653970003128052,0.07550513744354248
1.4097841487526181,0.09641212721443006,-1.0188068593121722,-2.6204137802124023,-0.485158771276474,-0.43083831667900085,0.015432664193212986,-0.9870654940605164,-0.15957346558570862,-0.24982288479804993,0.1135302186012268,0.001248478889465332
1.3826948446208374,0.10451894810393687,-1.0325149755211607,-2.7005372047424316,-0.5952887535095215,-0.5724784731864929,0.01950891874730587,-0.9823610186576843,-0.18597419559955597,-0.24001362919807434,0.021057188510894775,-0.0501859188079834
1.3550103104187572,0.11214169382078697,-1.0471196889244565,-2.710064172744751,-0.7371937036514282,-0.5834763050079346,0.023960987105965614,-0.9768083691596985,-0.21277064085006714,-0.2061966359615326,-0.05648636817932129,-0.10938797891139984
1.327902045444056,0.11297756331354264,-1.0562879365275406,-2.5956907272338867,-0.8756809830665588,-0.410738468170166,0.02711482159793377,-0.9706459045410156,-0.23897983133792877,-0.13467398285865784,-0.13593679666519165,-0.2001679390668869
1.302751959440404,0.10277776529635477,-1.0556514654044222,-2.3809375762939453,-1.0351321697235107,-0.08294008672237396,0.027172449976205826,-0.9642906785011292,-0.2634490728378296,-0.02891191840171814,-0.24615871906280518,-0.3251432776451111
1.2806127447614721,0.08082370770778116,-1.044453189558879,-2.0565803050994873,-1.201792597770691,0.27965715527534485,0.023100802674889565,-0.9581913352012634,-0.2851945161819458,0.04684552550315857,-0.3897244334220886,-0.4324108958244324
1.262403124487842,0.05060879954565989,-1.026550653599429,-1.6260948181152344,-1.413476824760437,0.5102445483207703,0.015354669652879238,-0.9528225064277649,-0.30314013361930847,0.06240415573120117,-0.5560888648033142,-0.5233062505722046
1.2486044035023764,0.016717143655543353,-1.0066556230217951,-1.1621745824813843,-1.5546740293502808,0.6112381815910339,0.005293179303407669,-0.9485436081886292,-0.31660228967666626,0.02505660057067871,-0.7234535217285156,-0.6052725315093994
1.2389515368568764,-0.016967642481504244,-0.9876626586967208,-0.7759798169136047,-1.5609266757965088,0.5898242592811584,-0.005527588073164225,-0.9454429149627686,-0.3257410526275635,-0.038905978202819824,-0.884116530418396,-0.6570163369178772
1.232407867695152,-0.047168697511464394,-0.9717315651958234,-0.5110495686531067,-1.4499647617340088,0.4911189377307892,-0.01565268263220787,-0.9432908892631531,-0.33159855008125305,-0.10034459829330444,-1.0284042358398438,-0.6685386300086975
1.2278829940855205,-0.07274034596050928,-0.9589487169306643,-0.34943243861198425,-1.2397838830947876,0.4183019995689392,-0.024436105042696,-0.9417791366577148,-0.3353433609008789,-0.12027820944786072,-1.1410305500030518,-0.6468952894210815
1.2244402165958375,-0.09463671447099425,-0.9476145247526201,-0.2779659926891327,-0.9960135221481323,0.4114174544811249,-0.03207866847515106,-0.9406159520149231,-0.3379538655281067,-0.09264662861824036,-1.2343566417694092,-0.6355872750282288
1.2215014566290865,-0.11459410293913778,-0.9355587948137101,-0.21214434504508972,-0.7203036546707153,0.46868181228637695,-0.03913241624832153,-0.9396142959594727,-0.33999109268188477,-0.04494348168373108,-1.307257890701294,-0.6398518681526184
1.2194039003849337,-0.13346858630471925,-0.9217462400344579,-0.08115851134061813,-0.458708256483078,0.5138497352600098,-0.04580437391996384,-0.9388943314552307,-0.3411444425582886,-0.01857241988182068,-1.350748062133789,-0.6698570251464844
1.2187919622608672,-0.1503629821027875,-0.9073633365402416,0.09589801728725433,-0.21841096878051758,0.47463923692703247,-0.05164705589413643,-0.9386835098266602,-0.3408900201320648,-0.05087670683860779,-1.374777913093567,-0.7082736492156982
1.2198408964563239,-0.163722082451537,-0.8941059152190622,0.2635647654533386,0.03227001428604126,0.38147345185279846,-0.056035760790109634,-0.9390446543693542,-0.33919790387153625,-0.10885068774223328,-1.374157428741455,-0.7073870301246643
1.2231923430600287,-0.17248749067936361,-0.8834256048506849,0.5304100513458252,0.20394907891750336,0.22415468096733093,-0.058466337621212006,-0.9401916265487671,-0.3355916142463684,-0.1489768624305725,-1.348031759262085,-0.6857247352600098
1.2298065006150287,-0.17768658636431736,-0.8752813293967984,0.8653806447982788,0.27804437279701233,0.09391875565052032,-0.05910976976156235,-0.9424241185188293,-0.32915470004081726,-0.17454802989959717,-1.285282850265503,-0.6890488862991333
1.2399460019003659,-0.18175290783311107,-0.8679908605673725,1.20630943775177,0.27409490942955017,0.02238491177558899,-0.058717451989650726,-0.9457664489746094,-0.319496750831604,-0.1530439853668213,-1.2008553743362427,-0.6549140810966492
1.253476656052955,-0.18656239598334035,-0.8603413551212332,1.5307210683822632,0.20875635743141174,-0.03836619481444359,-0.0578744113445282,-0.9500751495361328,-0.30660733580589294,-0.11766264587640762,-1.0948011875152588,-0.5851924419403076
1.2700415181772653,-0.19288061713705013,-0.8519296816342705,1.801045536994934,0.13306185603141785,-0.08652812987565994,-0.05678563565015793,-0.9551131725311279,-0.2907481789588928,-0.09938803315162659,-0.9782366156578064,-0.5133441090583801
1.28892177060784,-0.20048111904638483,-0.8428221649025475,1.9739758968353271,0.09529954195022583,-0.13822250068187714,-0.05539242550730705,-0.9605357050895691,-0.27258580923080444,-0.08979490399360657,-0.8594717383384705,-0.4348878264427185
1.3088911832526435,-0.20833031912835911,-0.8335395294167968,2.006132125854492,0.13186101615428925,-0.18372979760169983,-0.053551897406578064,-0.9658984541893005,-0.25332319736480713,-0.09061309695243835,-0.7359144687652588,-0.3511688709259033
1.3286358445930457,-0.21506046520554495,-0.8247419804861061,1.9196785688400269,0.22346124053001404,-0.21669387817382812,-0.051175110042095184,-0.9708221554756165,-0.2342768907546997,-0.08577248454093933,-0.6167634129524231,-0.25775790214538574
1.347129070284777,-0.21950108922766912,-0.8174683567014167,1.7468887567520142,0.30224713683128357,-0.2508790194988251,-0.0482969768345356,-0.9750905632972717,-0.21648554503917694,-0.07178965210914612,-0.5048289895057678,-0.17816758155822754
1.363811481447462,-0.21985335657451646,-0.813600532925872,1.5334699153900146,0.3768252432346344,-0.31939297914505005,-0.04481908679008484,-0.9786549806594849,-0.20056381821632385,-0.07012534141540527,-0.4098949432373047,-0.1250738501548767
1.3786252657656326,-0.21300510082003857,-0.8165170254230356,1.336197853088379,0.4118463397026062,-0.4384045898914337,-0.040375083684921265,-0.9815918803215027,-0.18667443096637726,-0.07969626784324646,-0.3149169683456421,-0.08232258260250092
1.3922114118222668,-0.19540407506300025,-0.8302019609837421,1.227457046508789,0.4146397113800049,-0.6087915301322937,-0.034490641206502914,-0.9840960502624512,-0.1742570400238037,-0.1184176504611969,-0.22891676425933838,-0.08486759662628174
1.4054588883934573,-0.16398057477506267,-0.8578498329782916,1.2139641046524048,0.4188392460346222,-0.7868249416351318,-0.026868106797337532,-0.986362874507904,-0.16237807273864746,-0.16017407178878784,-0.1488301157951355,-0.148870587348938
1.4190524376361309,-0.11752366082070054,-0.9006122710043328,1.2858123779296875,0.4197245240211487,-0.9133520722389221,-0.017724398523569107,-0.9885089993476868,-0.1501205861568451,-0.16078811883926392,-0.05378854274749756,-0.2109479308128357
1.4335003068409529,-0.05583648868452616,-0.9588120651628104,1.44472074508667,0.3896307945251465,-0.9911296963691711,-0.007638101931661367,-0.9905896782875061,-0.1366519033908844,-0.13623696565628052,0.042027056217193604,-0.2667597532272339
1.4491040520694676,0.022598003563609418,-1.0341553157701027,1.6288925409317017,0.3536033034324646,-0.9820900559425354,0.002742982702329755,-0.9926046133041382,-0.12136097997426987,-0.1060754656791687,0.13409936428070068,-0.3067547082901001
1.465467550704909,0.11982052541249912,-1.128557346974353,1.761192798614502,0.32628193497657776,-0.9061561226844788,0.012567187659442425,-0.9944580793380737,-0.1043810099363327,-0.05710753798484802,0.21168208122253418,-0.3013957738876343
1.4815695962372861,0.24385500309329625,-1.250016179199384,1.8011448383331299,0.3040117025375366,-0.8227457404136658,0.02151527814567089,-0.9960219264030457,-0.08647395670413971,-0.015228599309921265,0.2866559624671936,-0.2574284076690674
1.4960260245346528,0.40638609700522704,-1.4100774545637422,1.7446568012237549,0.2977980375289917,-0.7286253571510315,0.02952898107469082,-0.9972060322761536,-0.06861758232116699,-0.0011323411017656326,0.3560163378715515,-0.20304971933364868
1.5074572141995612,0.6165607417445328,-1.6177801098032412,1.6207153797149658,0.2936829626560211,-0.651153564453125,0.036602046340703964,-0.9979947209358215,-0.05164458975195885,0.013187438249588013,0.407937228679657,-0.14266067743301392
1.5147656323623584,0.8726792691408359,-1.8714476851423747,1.480018138885498,0.2872982919216156,-0.5889378786087036,0.04290258511900902,-0.9984306693077087,-0.035998474806547165,0.015401303768157959,0.4541495442390442,-0.0891081690788269
1.517395820488868,1.1535424264203038,-2.1499171189734825,1.3681092262268066,0.27024364471435547,-0.5764738321304321,0.04879884794354439,-0.9985745549201965,-0.021631691604852676,0.006300687789916992,0.5011988878250122,-0.052785277366638184
1.5154765600190518,1.422522839501566,-2.416671274737553,1.2973767518997192,0.25346946716308594,-0.5898545980453491,0.054688435047864914,-0.9984702467918396,-0.008168797008693218,-0.00895780324935913,0.5456655621528625,-0.03818720579147339
1.5098826716652332,1.6471801559312134,-2.6391139399912955,1.2237306833267212,0.2617731988430023,-0.6142960786819458,0.060703255236148834,-0.998145341873169,0.0046457857824862,-0.017932824790477753,0.5815191268920898,-0.030204057693481445
1.5017613923822284,1.8119084652512403,-2.801344691437372,1.09336256980896,0.31251174211502075,-0.6465921998023987,0.06698675453662872,-0.9976180195808411,0.016471758484840393,-0.02507081627845764,0.6088239550590515,-0.008216500282287598
1.4926148030576407,1.9186704914687458,-2.9049148434135668,0.8793699741363525,0.38052117824554443,-0.651341438293457,0.07342719286680222,-0.9969453811645508,0.026626260951161385,-0.01887696236371994,0.6421020030975342,0.035355094820261
1.483813300911687,1.9783142153636695,-2.960649829963309,0.6114951372146606,0.4336898624897003,-0.636775016784668,0.07976078987121582,-0.9962193369865417,0.03443140909075737,0.0008361935615539551,0.6743960976600647,0.09104180335998535
1.476175505076806,2.0021223116953886,-2.9797881544402784,0.3258991837501526,0.5217944383621216,-0.6134833693504333,0.08582885563373566,-0.9955267906188965,0.03950074687600136,0.01590154320001602,0.6999180316925049,0.13397657871246338
1.4700540949072132,2.001161566084907,-2.972921766601528,0.05819236487150192,0.6528107523918152,-0.5418512225151062,0.09140227735042572,-0.9949297904968262,0.04195941984653473,0.01589760184288025,0.7334245443344116,0.14197015762329102
1.4653863627423471,1.9821765240719964,-2.9466490874493987,-0.1551016867160797,0.7609912753105164,-0.5329710245132446,0.09643770009279251,-0.9944494962692261,0.04207317531108856,0.027204304933547974,0.7691534161567688,0.14246678352355957
1.4613573146791061,1.9523115649382203,-2.9086130683971327,-0.27115797996520996,0.8185621500015259,-0.5164825916290283,0.10136836022138596,-0.9940175414085388,0.04066602140665054,0.015803925693035126,0.801390528678894,0.130293607711792
1.457911211146147,1.9201482685950482,-2.8680141221742113,-0.3180670738220215,0.8035529255867004,-0.44093427062034607,0.1058434471487999,-0.9936352372169495,0.03855815902352333,0.025366947054862976,0.8194711804389954,0.1100625991821289
1.4553722267465212,1.8890201974412455,-2.8289473146350517,-0.3482247292995453,0.7226186394691467,-0.32061290740966797,0.10938715189695358,-0.9933460354804993,0.036034248769283295,0.06503614783287048,0.8439928889274597,0.11826276779174805
1.4540832479518322,1.8600721338289956,-2.793055837229758,-0.3613335192203522,0.6090192794799805,-0.16627398133277893,0.11161131411790848,-0.9931967854499817,0.03321823850274086,0.0915137231349945,0.8807545900344849,0.14379918575286865
1.4542604631393354,1.8339730142967214,-2.761246027015035,-0.3564777672290802,0.4832017123699188,0.00383437005802989,0.11227082461118698,-0.9932173490524292,0.030248671770095825,0.1067691445350647,0.9138867855072021,0.15653443336486816
1.4560269913328159,1.811329454792257,-2.7342420766523237,-0.3304782807826996,0.3526093363761902,0.184864804148674,0.1112213283777237,-0.993421196937561,0.027280570939183235,0.1243896633386612,0.930493950843811,0.16212701797485352
1.4593722508864202,1.793759263534066,-2.713679650794857,-0.26542097330093384,0.21356412768363953,0.3555111289024353,0.10844240337610245,-0.9937987327575684,0.024587426334619522,0.14221376180648804,0.9340452551841736,0.16176843643188477
1.4640116390031745,1.7838345057006635,-2.7023381456271225,-0.1700282245874405,0.0554962083697319,0.49149444699287415,0.10417298227548599,-0.9943039417266846,0.022534772753715515,0.14207342267036438,0.9363510012626648,0.15469622611999512
1.4696060314988564,1.7838780495143949,-2.702484884116766,-0.06081145629286766,-0.06841135770082474,0.6009146571159363,0.09873394668102264,-0.9948846101760864,0.021362699568271637,0.13042259216308594,0.9397392868995667,0.1481626033782959
1.4760018721726047,1.7954152059155737,-2.715221005513074,0.022358085960149765,-0.1578405797481537,0.6979578733444214,0.09227655827999115,-0.9955103397369385,0.02108282409608364,0.11408334970474243,0.9474602937698364,0.15425610542297363
1.4831171119249795,1.8174310516042027,-2.7393527659130927,0.07139061391353607,-0.24781601130962372,0.7787113189697266,0.08492046594619751,-0.9961586594581604,0.02137960121035576,0.10505151003599167,0.9627873301506042,0.17210209369659424
1.4906928687509737,1.8501674032904933,-2.7752673306576336,0.1132323294878006,-0.36459481716156006,0.8326126337051392,0.07691840082406998,-0.9967934489250183,0.02206585370004177,0.0993969514966011,0.9803747534751892,0.1868119239807129
1.4984641666430054,1.8944874329601578,-2.8241535411445593,0.12676145136356354,-0.5181028842926025,0.8662744760513306,0.06851796805858612,-0.9973851442337036,0.022987153381109238,0.08588579297065735,0.9944401383399963,0.1882556676864624
1.5063175202297465,1.9488859362461177,-2.8846253911792616,0.09837210178375244,-0.6633373498916626,0.8837504982948303,0.059887006878852844,-0.9979219436645508,0.02378707379102707,0.060413338243961334,1.0062530040740967,0.18942415714263916
1.5143248388479005,2.00793144648216,-2.951151822954105,-0.008187363855540752,-0.7990626692771912,0.9040960073471069,0.05113819241523743,-0.998405933380127,0.023896129801869392,0.03345657140016556,1.0222094058990479,0.1926109790802002
1.5230287800393634,2.056651680491793,-3.008584456373965,-0.24324341118335724,-0.9121261239051819,0.9152329564094543,0.04222641512751579,-0.9988593459129333,0.02229875884950161,0.016092713922262192,1.036151647567749,0.20311951637268066
1.532857200252664,2.0657023680659177,-3.026937628015649,-0.5438858270645142,-0.9206021428108215,0.8834726214408875,0.033384714275598526,-0.9992803931236267,0.018017947673797607,0.012010220438241959,1.0498936176300049,0.22307109832763672
1.5441695596613187,1.9784487436423832,-2.9482444669018752,-0.901820719242096,-0.7871122360229492,0.9345965385437012,0.024445446208119392,-0.9996455311775208,0.010556594468653202,0.017760425806045532,1.0514185428619385,0.20190691947937012
1.5564092406718355,1.5223774390255338,-2.499449895741238,-1.3135850429534912,-0.6863195896148682,1.0868897438049316,0.014373516663908958,-0.9998965263366699,-0.0006964940694160759,0.046936362981796265,1.05751371383667,0.16999292373657227
1.5546279894040473,0.15086814649547148,-1.1344610884088429,-1.7260823249816895,-0.636501669883728,1.2909762859344482,0.0024311065208166838,-0.9998692870140076,-0.01599166914820671,0.08185848593711853,1.0776584148406982,0.14686650037765503
1.5334732383605576,-0.32278580050780836,-0.6669892939826634,-2.1504616737365723,-0.6396082639694214,1.5157934427261353,-0.011837411671876907,-0.9993035793304443,-0.03539006784558296,0.11007353663444519,1.0783134698867798,0.11568200588226318
1.5056121350796225,-0.4472460096974601,-0.5491694097507704,-2.519465684890747,-0.7282336950302124,1.6671433448791504,-0.028171885758638382,-0.9978762865066528,-0.05873266980051994,0.10039177536964417,1.0318727493286133,0.10559260845184326
1.4740885013384466,-0.49596309441245096,-0.508643750445226,-2.7740225791931152,-0.9464461803436279,1.7771787643432617,-0.045950379222631454,-0.9953274130821228,-0.08492465317249298,0.02487805485725403,0.9513209462165833,0.07757008075714111
1.4403185231120372,-0.5257370393009402,-0.48970849276485284,-2.8588457107543945,-1.2275508642196655,1.8800500631332397,-0.06529554724693298,-0.9914998412132263,-0.11253878474235535,-0.049816735088825226,0.8163744807243347,0.030233070254325867
1.4062982828832502,-0.551066185538997,-0.4766617676250112,-2.7458884716033936,-1.2151947021484375,1.9212278127670288,-0.08574338257312775,-0.9865006804466248,-0.13951697945594788,-0.12888669967651367,0.6153761744499207,-0.055856361985206604
1.3733788678912906,-0.5761189597610734,-0.4629146953422472,-2.5324900150299072,-1.079337239265442,2.011526107788086,-0.10685078799724579,-0.9805763959884644,-0.16447804868221283,-0.16083410382270813,0.3824164867401123,-0.19121937453746796
1.3415163629812066,-0.6040895124878132,-0.44433897787029486,-2.3120036125183105,-0.8649630546569824,2.1797826290130615,-0.12909609079360962,-0.9738302826881409,-0.1870531588792801,-0.1988457590341568,0.1334981918334961,-0.2823070287704468
1.310035955302245,-0.6329645285704799,-0.4222109551750847,-2.1974265575408936,-0.6150835156440735,2.321462631225586,-0.1525074541568756,-0.966194212436676,-0.20787067711353302,-0.24797466397285461,-0.15093225240707397,-0.35380515456199646
1.2781126973502406,-0.6576200786458279,-0.4020139320178305,-2.24743914604187,-0.4345238506793976,2.3705074787139893,-0.1763552874326706,-0.9574730396270752,-0.2283511906862259,-0.3227749466896057,-0.5177162289619446,-0.3487818241119385
1.2452693329549294,-0.6740856214176008,-0.3889864482682115,-2.4283316135406494,-0.3998177945613861,2.280308723449707,-0.1996190845966339,-0.9474823474884033,-0.24985934793949127,-0.3503686785697937,-0.952511727809906,-0.2862885594367981
1.2113705651323479,-0.6817101744897366,-0.3858739537488618,-2.7115304470062256,-0.5448903441429138,2.1122210025787354,-0.2216372787952423,-0.9360989332199097,-0.2731225788593292,-0.3789028525352478,-1.3513767719268799,-0.24505043029785156
1.1764661379233028,-0.6820545834653042,-0.3919830650623784,-2.963984489440918,-0.6395227909088135,1.9221149682998657,-0.24218936264514923,-0.923254132270813,-0.2982388138771057,-0.4452953636646271,-1.6095829010009766,-0.23520827293395996
1.1414444759363715,-0.6766579011953444,-0.4046204857101933,-3.0776326656341553,-0.5689250230789185,1.6657910346984863,-0.2606719434261322,-0.9092357754707336,-0.32456251978874207,-0.5604950189590454,-1.8027853965759277,-0.3258127272129059
1.1082745316360552,-0.6657890403013125,-0.4216904119274293,-2.9817891120910645,-0.3157806694507599,1.2864603996276855,-0.2756127417087555,-0.8949301242828369,-0.3509099781513214,-0.6858129501342773,-2.022489547729492,-0.5439414978027344
1.07930667292189,-0.649637661668731,-0.4411878806147061,-2.6527252197265625,0.09555360674858093,0.827343761920929,-0.2854755222797394,-0.8816308379173279,-0.3758072555065155,-0.7980053424835205,-2.225531816482544,-0.8218244314193726
1.0562805335850316,-0.6290594655063335,-0.4610710496821619,-2.1547889709472656,0.5257622003555298,0.38699787855148315,-0.2895520329475403,-0.8705310821533203,-0.3979138433933258,-0.8767992854118347,-2.3507213592529297,-1.045536994934082
1.0398664597766298,-0.606264310624301,-0.47952201392192007,-1.5624260902404785,0.7989913821220398,0.02189154550433159,-0.28851068019866943,-0.8623366355895996,-0.4160975217819214,-0.8718743324279785,-2.382795810699463,-1.130167007446289
1.0305011066259175,-0.5846071658269559,-0.4949851089320334,-0.8512852191925049,0.8394184708595276,-0.26973405480384827,-0.28387704491615295,-0.8575568795204163,-0.428964227437973,-0.7964605093002319,-2.3547844886779785,-1.1213438510894775
1.0289366490042846,-0.5670058566314614,-0.5064186680414378,-0.0437801294028759,0.6989620327949524,-0.5446998476982117,-0.2770032584667206,-0.8567510843276978,-0.43502509593963623,-0.715184211730957,-2.2844386100769043,-1.1104459762573242
1.035723507809509,-0.554452123164551,-0.5140921468869336,0.7664048075675964,0.4903872013092041,-0.840813398361206,-0.2684530019760132,-0.8602315187454224,-0.4335147440433502,-0.6758829355239868,-2.1662425994873047,-1.0734279155731201
1.0507583569406702,-0.545971776616896,-0.5190956225804196,1.5108169317245483,0.3497536778450012,-1.1521531343460083,-0.25802168250083923,-0.8678002953529358,-0.4246736466884613,-0.6670881509780884,-2.0086188316345215,-0.995995819568634
1.073197705742996,-0.5399923803606003,-0.5225284326250909,2.1250596046447754,0.2464645653963089,-1.439864158630371,-0.24540266394615173,-0.8787313103675842,-0.40940067172050476,-0.6570173501968384,-1.8140177726745605,-0.8981248140335083
1.1015713831377232,-0.5354893749682557,-0.5254665256535712,2.572122573852539,0.13122744858264923,-1.688820719718933,-0.2307380735874176,-0.8919190168380737,-0.3888965845108032,-0.6198631525039673,-1.5862305164337158,-0.7688028812408447
1.134193954670787,-0.5311902160809083,-0.5293798581382149,2.8284618854522705,0.027836866676807404,-1.9041106700897217,-0.21420565247535706,-0.9061936140060425,-0.36459484696388245,-0.5608797669410706,-1.355799913406372,-0.6343368887901306
1.169125358940019,-0.5253508967365699,-0.5359142514981518,2.893817901611328,-0.049958594143390656,-2.0603108406066895,-0.196071594953537,-0.9204090237617493,-0.3382359445095062,-0.5071754455566406,-1.131425380706787,-0.5093286037445068
1.204551151576331,-0.515624825344762,-0.547234196837492,2.8035781383514404,-0.09973441809415817,-2.1771962642669678,-0.17657747864723206,-0.9336785674095154,-0.3115522563457489,-0.45429712533950806,-0.9178535342216492,-0.4018417298793793
1.2392443362254089,-0.4997727951191827,-0.5652438552009554,2.6410398483276367,-0.11084725707769394,-2.250110626220703,-0.15599358081817627,-0.9455382823944092,-0.2856985926628113,-0.40153205394744873,-0.7213320732116699,-0.3390571177005768
1.2725314621617874,-0.47642138733246575,-0.5908751895877792,2.4798359870910645,-0.09239871054887772,-2.2486116886138916,-0.13476604223251343,-0.9558477997779846,-0.2611387073993683,-0.3511500358581543,-0.5350123643875122,-0.3213348388671875
1.3041968777326605,-0.4455557345679461,-0.6238391911382419,2.3658008575439453,-0.0622786283493042,-2.1932952404022217,-0.1135377436876297,-0.964672327041626,-0.23773282766342163,-0.3014860153198242,-0.3576545715332031,-0.33225908875465393
1.3345580863830993,-0.40708015192678615,-0.6640252998031061,2.3284707069396973,-0.02654752880334854,-2.123973846435547,-0.09266649186611176,-0.9722253084182739,-0.21492159366607666,-0.26309213042259216,-0.1990395188331604,-0.3685286045074463
1.3642446829496937,-0.35952010266180584,-0.7128809394469033,2.3658447265625,0.0014585396274924278,-2.073307991027832,-0.07215461134910583,-0.9787439703941345,-0.19197456538677216,-0.24394643306732178,-0.057511091232299805,-0.4180411100387573
1.3938096931059525,-0.2990592158629099,-0.774547279039689,2.454216718673706,-0.024393325671553612,-2.054455518722534,-0.051872413605451584,-0.9843786954879761,-0.16824990510940552,-0.24520090222358704,0.08256888389587402,-0.44553470611572266
1.4233405414859426,-0.21622633711094413,-0.8590485169955392,2.537328004837036,-0.08969083428382874,-2.0804333686828613,-0.03152165561914444,-0.9891480803489685,-0.14350178837776184,-0.24891957640647888,0.20917969942092896,-0.43575215339660645
1.4519601889919758,-0.09088482894316494,-0.9868689919570721,2.56878662109375,-0.1878485381603241,-2.1357109546661377,-0.01076029147952795,-0.9929472804069519,-0.1180686429142952,-0.2572755515575409,0.3149533271789551,-0.3953131437301636
1.4775752075100914,0.11566446482542947,-1.197071143874116,2.5598835945129395,-0.3094833493232727,-2.2250640392303467,0.010743007063865662,-0.9956580400466919,-0.09246622771024704,-0.24740678071975708,0.42319393157958984,-0.33596986532211304
1.4959958873928012,0.45480281176781073,-1.5409878532743317,2.5173261165618896,-0.4026668071746826,-2.235661506652832,0.03282926604151726,-0.9972037672996521,-0.06713655591011047,-0.2228316366672516,0.513286292552948,-0.2949695587158203
1.5014584927501022,0.9095489534651305,-2.0011878294675953,2.4285478591918945,-0.45471057295799255,-2.174415111541748,0.054681241512298584,-0.9975970983505249,-0.04254778102040291,-0.1802457571029663,0.5861132144927979,-0.25496792793273926
1.4923518876247202,1.3234693180871384,-2.420908933874924,2.296776056289673,-0.47759485244750977,-2.1081249713897705,0.07597958296537399,-0.9969248175621033,-0.01918458566069603,-0.15247184038162231,0.6624521613121033,-0.20543986558914185
1.474045390184961,1.5975210469464936,-2.700826397342671,2.1364541053771973,-0.48484745621681213,-2.015192985534668,0.09656685590744019,-0.9953233003616333,0.0025813367683440447,-0.13169249892234802,0.7374496459960938,-0.16398859024047852
1.4522602860277407,1.7616031470880942,-2.8707791973887304,1.9485278129577637,-0.4834447503089905,-1.8906980752944946,0.11611324548721313,-0.992982804775238,0.02242804318666458,-0.10965872555971146,0.8045977354049683,-0.13358807563781738
1.4297949729191632,1.8622863844738466,-2.9768642490983352,1.7802027463912964,-0.4075241684913635,-1.8021074533462524,0.13460782170295715,-0.9900757670402527,0.04038722440600395,-0.11255878210067749,0.8688750863075256,-0.10683906078338623
1.407553115338424,1.928678401744625,-3.0478334278439045,1.6697258949279785,-0.34132224321365356,-1.7139607667922974,0.15222318470478058,-0.9867053627967834,0.05692945793271065,-0.1283888816833496,0.9371294379234314,-0.10116446018218994
1.386106508168543,1.977392145355645,-3.1007665508227786,1.6260484457015991,-0.3393387198448181,-1.5744904279708862,0.16867060959339142,-0.9829932451248169,0.07262786477804184,-0.12538135051727295,0.9978551864624023,-0.09696543216705322
1.365457483302977,2.0172117809618304,3.1384509541978445,1.624068260192871,-0.3286314904689789,-1.4746171236038208,0.18391837179660797,-0.9789919257164001,0.08803100883960724,-0.09672956168651581,1.0425751209259033,-0.09930705279111862
1.3451807351933347,2.0508380758996783,3.100185288075672,1.636712908744812,-0.4289914071559906,-1.4092519283294678,0.19842292368412018,-0.9746565818786621,0.10331165790557861,-0.05482238531112671,1.0671552419662476,-0.09023475646972656
1.325392305985761,2.078744361442661,3.0663150666061614,1.6008739471435547,-0.5649044513702393,-1.288880705833435,0.21227511763572693,-0.9700392484664917,0.1181667223572731,-0.02590419352054596,1.1025617122650146,-0.06251765042543411
1.3075168670814101,2.1006357570706995,3.037357097669901,1.4172329902648926,-0.6511322855949402,-1.099682331085205,0.2245658040046692,-0.9655417203903198,0.13152848184108734,0.02146703004837036,1.1119801998138428,-0.031232237815856934
1.2918921974957975,2.115060752148753,3.0153671434794287,1.1855641603469849,-0.6882234811782837,-0.9822128415107727,0.23552441596984863,-0.9613577127456665,0.1425490826368332,0.03698241710662842,1.11603581905365,0.012724652886390686
1.2783835975526927,2.123117327211773,2.99985009531092,0.9627776741981506,-0.6684055328369141,-0.8500332832336426,0.2454020082950592,-0.9575511813163757,0.15124204754829407,0.003743588924407959,1.159440040588379,0.021197691559791565
1.2676213253878894,2.127740738454849,2.9883799201355683,0.7346525192260742,-0.5873391628265381,-0.610982358455658,0.25343403220176697,-0.9543933868408203,0.1578136384487152,-0.005509138107299805,1.1837022304534912,0.015617981553077698
1.2602326476626393,2.131150329961829,2.9793715042350595,0.508514940738678,-0.4311858117580414,-0.35076892375946045,0.2588602602481842,-0.9521614909172058,0.16242000460624695,0.008473813533782959,1.1904730796813965,0.012751102447509766
1.2559951749949188,2.1350842332909905,2.972156032755229,0.3178637623786926,-0.1435479372739792,-0.13340318202972412,0.2616264522075653,-0.950857937335968,0.16559359431266785,-0.002471059560775757,1.2011781930923462,-0.005772814154624939
1.2543555778327447,2.1406445585096536,2.9663476112464546,0.16768808662891388,0.14303083717823029,0.044885341078042984,0.26201385259628296,-0.9503490328788757,0.16788654029369354,-0.030843079090118408,1.2172555923461914,-0.028222665190696716
1.2547750145434495,2.148060371061082,2.9611750529909697,0.062476448714733124,0.34761112928390503,0.19809219241142273,0.2604277729988098,-0.9504794478416443,0.1696075052022934,-0.03574201464653015,1.2164857387542725,-0.03537571430206299
1.256988043404658,2.157588857124332,2.9555357063553114,-0.01180310919880867,0.4724656939506531,0.365322470664978,0.2570471167564392,-0.9511649012565613,0.17091581225395203,-0.005948424339294434,1.204186201095581,-0.029878631234169006
1.2610907866345467,2.1692184266163284,2.9485968241251506,-0.08635862916707993,0.5232618451118469,0.5475452542304993,0.2518159747123718,-0.9524233341217041,0.17169389128684998,0.04061880707740784,1.190246820449829,-0.006288409233093262
1.2670313492177068,2.1828120358105974,2.939837202574898,-0.15562930703163147,0.5094528198242188,0.7270558476448059,0.24482318758964539,-0.9542170763015747,0.1718471348285675,0.08362230658531189,1.1873867511749268,0.04192863404750824
1.2748134180863895,2.197609001857999,2.929192122059665,-0.23468109965324402,0.4000357389450073,0.8991861939430237,0.23623277246952057,-0.956515908241272,0.171090230345726,0.11709985136985779,1.1878085136413574,0.0988532304763794
1.2843931084298275,2.21293665393806,2.916538477731556,-0.3176324665546417,0.23568542301654816,1.0632672309875488,0.22623425722122192,-0.959266185760498,0.16919516026973724,0.13700136542320251,1.188056230545044,0.14734865725040436
1.2956165713477046,2.2285479355790208,2.901927650030985,-0.3918028473854065,0.08569221198558807,1.2008787393569946,0.21503113210201263,-0.9623763561248779,0.16611337661743164,0.13151128590106964,1.181797742843628,0.16550610959529877
1.3081458561956198,2.244822699762892,2.8855915462681736,-0.47185349464416504,0.029620422050356865,1.2940759658813477,0.2028619647026062,-0.9657052159309387,0.1620519757270813,0.08784854412078857,1.164130449295044,0.15881001949310303
1.321706735658398,2.2614443012044663,2.868655121665606,-0.5694823265075684,0.014440641738474369,1.339489459991455,0.1900274008512497,-0.9691372513771057,0.15704359114170074,0.04573623836040497,1.151601791381836,0.1410217136144638
1.3360647565994517,2.2768654593162765,2.8528038323967495,-0.6990424394607544,0.00872816238552332,1.3349804878234863,0.176975816488266,-0.9725767970085144,0.15091024339199066,0.03260369598865509,1.1473815441131592,0.12768493592739105
1.3516572068354922,2.289649123160157,2.840489762644058,-0.9406425952911377,0.1556161493062973,1.4033844470977783,0.16359943151474,-0.9760849475860596,0.14315608143806458,0.010976448655128479,1.1488754749298096,0.09196685254573822
1.3698668939192644,2.2989630691761103,2.8330665132291895,-1.2099579572677612,0.24130788445472717,1.5145604610443115,0.14896655082702637,-0.9798815250396729,0.13282178342342377,-0.013697326183319092,1.1527329683303833,0.05716562271118164
1.3904054673085295,2.3052664175339643,2.829294940913073,-1.4271576404571533,0.2580932378768921,1.6164556741714478,0.13315920531749725,-0.9837736487388611,0.12024275958538055,0.03587771952152252,1.1467984914779663,0.07098066061735153
1.413280878101064,2.3035553717207105,2.833299147559361,-1.7298802137374878,0.1700855940580368,1.6610881090164185,0.11660303175449371,-0.9876200556755066,0.10493090003728867,0.04370586574077606,1.1281993389129639,0.08522437512874603
1.438460828265837,2.2832642017420617,2.854787582873869,-2.05580735206604,0.026264533400535583,1.7201143503189087,0.09985335171222687,-0.9912564158439636,0.08625621348619461,0.038162462413311005,1.0745999813079834,0.08390998095273972
1.4666638833462353,2.2349101163094978,2.9031851471130623,-2.38847017288208,-0.07796838879585266,1.902714490890503,0.08185259252786636,-0.9945831298828125,0.06406747549772263,0.05883350223302841,1.03411865234375,0.08212720602750778
1.4979374758855195,2.134442927450246,3.0029295890076986,-2.6313533782958984,-0.14463020861148834,2.2000632286071777,0.0615353062748909,-0.9973469972610474,0.038892846554517746,0.043857213109731674,0.9870319366455078,0.059190865606069565
1.5314972747079572,1.8641737144205788,-3.01142754699022,-2.8315045833587646,-0.21783490478992462,2.5760326385498047,0.03760982304811478,-0.9992278814315796,0.011361726559698582,0.03551035374403,0.8828491568565369,-0.009027006104588509
1.5502188735127351,0.529958693192404,-1.6792001218134458,-2.9478800296783447,-0.25210636854171753,2.832108497619629,0.010403386317193508,-0.9997882843017578,-0.017757413908839226,0.014910995028913021,0.7154406905174255,-0.0707433819770813
1.5199178631424426,-0.3761712923268224,-0.7751791541913065,-2.9252758026123047,-0.2489561289548874,2.939471483230591,-0.01868334785103798,-0.9987059831619263,-0.0473020114004612,-0.06281378865242004,0.514895498752594,-0.12107855081558228
1.4807499927597338,-0.5721172517538722,-0.5813474260982816,-2.731476306915283,-0.2698768377304077,3.0318732261657715,-0.04868720844388008,-0.9959485530853271,-0.07560598105192184,-0.15462085604667664,0.2615734338760376,-0.19786185026168823
1.4415163348233606,-0.6677372387825589,-0.48853249618875144,-2.4472618103027344,-0.4205118715763092,3.1550261974334717,-0.07982932031154633,-0.9916549921035767,-0.10123202204704285,-0.2014816701412201,-0.05433511734008789,-0.27881842851638794
1.4030334875179926,-0.7372929764141276,-0.42384543948971853,-2.1766648292541504,-0.7027089595794678,3.241978645324707,-0.11225685477256775,-0.9859607815742493,-0.12361213564872742,-0.24162495136260986,-0.4103558659553528,-0.32726967334747314
1.3657018984920974,-0.7943706459631191,-0.37439272900789144,-1.9261391162872314,-0.9785458445549011,3.215186834335327,-0.1452960968017578,-0.9790417551994324,-0.14271187782287598,-0.3043498694896698,-0.784447193145752,-0.3429294228553772
1.3302041382057683,-0.8411544437886107,-0.3373866689373235,-1.7325127124786377,-1.128977656364441,3.0435352325439453,-0.1776157170534134,-0.9711970686912537,-0.15883690118789673,-0.3932918310165405,-1.1580297946929932,-0.37540364265441895
1.2971637882155593,-0.8761494465099576,-0.31275393893211967,-1.640823245048523,-1.0663925409317017,2.741196632385254,-0.2076130211353302,-0.962795615196228,-0.1729786992073059,-0.5421885848045349,-1.507526159286499,-0.42824792861938477
1.2670439769181148,-0.8970760547908081,-0.3007864851110692,-1.6423606872558594,-0.7994908690452576,2.335933208465576,-0.23375116288661957,-0.9542208909988403,-0.18660998344421387,-0.7393628358840942,-1.8184691667556763,-0.4771166443824768
1.239947652459976,-0.9034188521621175,-0.30068316475351536,-1.7124087810516357,-0.43622398376464844,1.8959310054779053,-0.25514936447143555,-0.9457669854164124,-0.20105628669261932,-0.8949970602989197,-2.1062960624694824,-0.5242395401000977
1.216042343073807,-0.8967550093282242,-0.3104294073029628,-1.7453497648239136,-0.06527362763881683,1.429569125175476,-0.2713944911956787,-0.9377319812774658,-0.2168043851852417,-0.9358656406402588,-2.344693183898926,-0.5612258911132812
1.1960779526191436,-0.8812637184994749,-0.32608490378921046,-1.5971148014068604,0.2252655327320099,0.9658377170562744,-0.28239330649375916,-0.930610716342926,-0.23284757137298584,-0.921265721321106,-2.4767684936523438,-0.6075453758239746
1.1810796354967255,-0.8631096601620779,-0.3422910235483005,-1.2195709943771362,0.3754896819591522,0.5611807703971863,-0.2886941432952881,-0.9250167608261108,-0.24698194861412048,-0.8934347629547119,-2.5102860927581787,-0.6848721504211426
1.1719440037013629,-0.8480121278133742,-0.3545634155403479,-0.6705154180526733,0.3557721674442291,0.19823721051216125,-0.2912580966949463,-0.9215072989463806,-0.2568913698196411,-0.8555161952972412,-2.486619710922241,-0.7435051798820496
1.1694098771822652,-0.8387984043654976,-0.3612466756689703,-0.04672901704907417,0.24584192037582397,-0.16535264253616333,-0.290615051984787,-0.9205201864242554,-0.26112401485443115,-0.8102455139160156,-2.414196729660034,-0.7408747673034668
1.1739587141499686,-0.836372859099139,-0.3619246661070259,0.6117988228797913,0.11472678184509277,-0.542474627494812,-0.2868698835372925,-0.9222878813743591,-0.25901922583580017,-0.76185142993927,-2.29460072517395,-0.6909775733947754
1.1856215363210862,-0.8405274405208578,-0.35677728981919987,1.222416877746582,0.008722827769815922,-0.9196834564208984,-0.27991074323654175,-0.9267327785491943,-0.2506326138973236,-0.7320216298103333,-2.1256356239318848,-0.6308674812316895
1.2037148940731928,-0.850346578839061,-0.3465352309001185,1.710605502128601,-0.06051083654165268,-1.2771074771881104,-0.26971161365509033,-0.9333787560462952,-0.23677010834217072,-0.7043789625167847,-1.9166886806488037,-0.5506595373153687
1.2268225574065619,-0.8636709491326696,-0.3329570185504196,1.98540198802948,-0.050541773438453674,-1.5763012170791626,-0.2563740611076355,-0.9414220452308655,-0.2190825641155243,-0.6578714847564697,-1.6844326257705688,-0.43919670581817627
1.2527962999484714,-0.8773629261510084,-0.3188496472812815,2.0230319499969482,-0.023786595091223717,-1.7814940214157104,-0.24045923352241516,-0.9498626589775085,-0.1998516023159027,-0.5872994661331177,-1.4399232864379883,-0.30847954750061035
1.2795975193439637,-0.8885886355762388,-0.30739910036324447,1.878368616104126,-0.04159969463944435,-1.9019649028778076,-0.22284293174743652,-0.9579004049301147,-0.1810196191072464,-0.5124475955963135,-1.1990821361541748,-0.19323253631591797
1.3057886511114556,-0.8944513710404886,-0.30197477214318413,1.6242969036102295,-0.09269936382770538,-1.9728772640228271,-0.20426009595394135,-0.9650905132293701,-0.16394609212875366,-0.45351576805114746,-0.9786046743392944,-0.11393152177333832
1.3307682158727945,-0.8916139634293886,-0.3061550967402282,1.3331040143966675,-0.13689033687114716,-2.0310420989990234,-0.1849750429391861,-0.9713312983512878,-0.149332195520401,-0.4113536775112152,-0.786038875579834,-0.07814562320709229
1.3542936736368298,-0.877214903522477,-0.3222557341392805,1.0864543914794922,-0.1068810373544693,-2.054814338684082,-0.16518539190292358,-0.9766547083854675,-0.1373310089111328,-0.37332776188850403,-0.6289668083190918,-0.08631694316864014
1.3765870346894986,-0.8500737800290439,-0.35068419037769566,0.9364671111106873,-0.029692718759179115,-2.074082851409912,-0.14500023424625397,-0.9812005758285522,-0.127360537648201,-0.35792943835258484,-0.4858101010322571,-0.14654982089996338
1.3983346164308885,-0.8094150618814626,-0.3919426065637677,0.8982393145561218,0.041921280324459076,-2.145162582397461,-0.12422464787960052,-0.9851652979850769,-0.11839652061462402,-0.3745240867137909,-0.33870255947113037,-0.23283016681671143
1.420504285135,-0.7524995086052697,-0.4489088647319367,0.9673315286636353,0.09816458076238632,-2.2649452686309814,-0.10233351588249207,-0.9887273907661438,-0.10929843783378601,-0.39838361740112305,-0.17895156145095825,-0.30461132526397705
1.443589875201061,-0.6747723243930503,-0.5266164966104048,1.1141148805618286,0.06004861742258072,-2.3655433654785156,-0.079254649579525,-0.9919201731681824,-0.09906193614006042,-0.40348759293556213,-0.019401967525482178,-0.36140239238739014
1.4677631648975096,-0.5634944787726716,-0.6378035796472773,1.3422578573226929,0.10822468996047974,-2.4995365142822266,-0.054937805980443954,-0.9946967959403992,-0.08695053309202194,-0.37178945541381836,0.12988954782485962,-0.3961883783340454
1.492821657031204,-0.38701701216034307,-0.8137409070449333,1.6313796043395996,0.13033078610897064,-2.5884411334991455,-0.029400281608104706,-0.9969615340232849,-0.07213515788316727,-0.3474612236022949,0.18348491191864014,-0.4854055643081665
1.5160541567849477,-0.05460632989672891,-1.1456117897520741,1.8582260608673096,0.11144948750734329,-2.6693851947784424,-0.002986406907439232,-0.9985020160675049,-0.054635386914014816,-0.33258479833602905,0.29697906970977783,-0.48226016759872437
1.5282072428601763,0.5968027832678349,-1.7968551108595878,2.006861686706543,0.06584499031305313,-2.6790268421173096,0.023930467665195465,-0.999093234539032,-0.035220175981521606,-0.3279922902584076,0.45169925689697266,-0.4117095470428467
1.5182470896395988,1.290442885464171,-2.490646154567779,2.1137497425079346,0.05289029702544212,-2.6068954467773438,0.05047750845551491,-0.9986196160316467,-0.014534343965351582,-0.28131240606307983,0.5460743308067322,-0.3472055196762085
1.4942006272299453,1.6637299146890523,-2.86424861636062,2.1983489990234375,0.027149777859449387,-2.5282046794891357,0.07619275152683258,-0.9970679879188538,0.007101321127265692,-0.1996210515499115,0.6031164526939392,-0.300115704536438
1.465389014752989,1.8533048533389775,-3.054613801337264,2.2486965656280518,-0.03713252767920494,-2.444520950317383,0.10104377567768097,-0.99444979429245,0.02933020330965519,-0.1460724025964737,0.6492499709129333,-0.2645442485809326
1.4351797005793736,1.9623116108896719,3.1180489058700087,2.232800245285034,-0.10532036423683167,-2.353142023086548,0.12497228384017944,-0.9908181428909302,0.05159197747707367,-0.11722075939178467,0.7022590637207031,-0.22044551372528076
1.4048692016691093,2.0308395164622683,3.0474717570329775,2.1810317039489746,-0.1365901231765747,-2.2701900005340576,0.14799635112285614,-0.9862656593322754,0.07333257049322128,-0.10711796581745148,0.7611372470855713,-0.16577017307281494
1.375209156581391,2.0771921957315307,2.9991999168614423,2.0910890102386475,-0.07956838607788086,-2.1567444801330566,0.1699536293745041,-0.9809337258338928,0.09426247328519821,-0.10785029828548431,0.8111184239387512,-0.125069722533226
1.3469321936999552,2.1113805070054923,2.964372816812099,1.9773008823394775,0.13985635340213776,-1.9963717460632324,0.1903447061777115,-0.9750468730926514,0.11424945294857025,-0.08234289288520813,0.8515115976333618,-0.09654903411865234
1.32050515983669,2.1396496769650932,2.937999661634226,1.8406929969787598,0.3474263548851013,-1.8362656831741333,0.2086809128522873,-0.9688403606414795,0.13342055678367615,-0.04110881686210632,0.9053179025650024,-0.10792291164398193
1.2960990012140867,2.161949411713379,2.918620542392292,1.6582331657409668,0.37254390120506287,-1.680539846420288,0.22522373497486115,-0.9625073671340942,0.15117624402046204,-0.04100427031517029,0.9478435516357422,-0.0614238977432251
1.274275488147348,2.178561106207461,2.9056396647294696,1.3865399360656738,0.4498237669467926,-1.4912053346633911,0.23987054824829102,-0.9563588500022888,0.16685321927070618,-0.02351611852645874,0.9736165404319763,0.030519351363182068
1.2560381137376773,2.1899678611627422,2.898710222542103,1.0390833616256714,0.5172051787376404,-1.2347184419631958,0.25211524963378906,-0.9508712887763977,0.1796722114086151,0.017629683017730713,1.004917860031128,0.06500266492366791
1.2421686646553278,2.1976508608574066,2.896773845566564,0.673133909702301,0.6465791463851929,-0.9382742643356323,0.26138365268707275,-0.9464861750602722,0.1893223077058792,0.04222053289413452,1.032301425933838,0.10447059571743011
1.2327521778557318,2.2025552683846867,2.89879608683276,0.3311655819416046,0.7008187770843506,-0.6663958430290222,0.2676325738430023,-0.9434050917625427,0.19585677981376648,0.052771568298339844,1.0505064725875854,0.11169958114624023
1.2270246641080986,2.2046684611908325,2.903890497841684,0.080293670296669,0.6733538508415222,-0.4598615765571594,0.27156752347946167,-0.9414901733398438,0.19961899518966675,0.05597776174545288,1.0533217191696167,0.11256074905395508
1.2240852316053012,2.205010743158803,2.9102649984651348,-0.0738619789481163,0.5812667608261108,-0.2690645456314087,0.2737273871898651,-0.9404953718185425,0.20135100185871124,0.04292306303977966,1.055821180343628,0.08725392818450928
1.223338810450479,2.2041289433407423,2.916788868930573,-0.19164720177650452,0.469323992729187,-0.11956131458282471,0.2744706869125366,-0.9402415156364441,0.201525017619133,0.02597498893737793,1.0668587684631348,0.06725886464118958
1.2242028516017056,2.2016175810637786,2.9240280041298456,-0.3067394196987152,0.388384610414505,-0.040111787617206573,0.2743193507194519,-0.9405353665351868,0.20035554468631744,-0.0031248629093170166,1.086836576461792,0.06504079699516296
1.2261774686616207,2.1966714036592196,2.9330485704170655,-0.41721293330192566,0.3144363462924957,-0.004347933456301689,0.2738012969493866,-0.941204309463501,0.1979079246520996,-0.026532530784606934,1.106579065322876,0.0630633682012558
1.2290488718901051,2.1891329544069986,2.9441450029681038,-0.5224890112876892,0.27210813760757446,0.04005484655499458,0.27308186888694763,-0.9421705007553101,0.19427067041397095,-0.033152610063552856,1.1197218894958496,0.06651756167411804
1.2330044197948529,2.179767197976452,2.956892973150989,-0.6193143129348755,0.2599540054798126,0.12219898402690887,0.2718305289745331,-0.9434887170791626,0.18957138061523438,-0.010767847299575806,1.1326671838760376,0.06518946588039398
1.2382915626633464,2.169883288023909,2.9700743237300196,-0.6815000176429749,0.25459975004196167,0.2597770690917969,0.2695675194263458,-0.9452277421951294,0.1840599626302719,0.03093913197517395,1.1503669023513794,0.0560525506734848
1.2450372544893789,2.161047215898508,2.982060121503953,-0.7049944400787354,0.2403547316789627,0.42440515756607056,0.26588019728660583,-0.9474080801010132,0.17811821401119232,0.07646611332893372,1.1649067401885986,0.04215790331363678
1.2532049590584569,2.153935396844441,2.9920177208452787,-0.7153332829475403,0.229534313082695,0.5848088264465332,0.26067233085632324,-0.9499903321266174,0.17195621132850647,0.10564550757408142,1.171105146408081,0.04041589796543121
1.262814065216502,2.1490595338446674,2.9996624350543457,-0.7270237803459167,0.24631009995937347,0.7633156776428223,0.25385043025016785,-0.9529471397399902,0.16568537056446075,0.12392669916152954,1.1705375909805298,0.062128499150276184
1.2741078914982547,2.146625478262558,3.004713301409966,-0.7574171423912048,0.22344020009040833,0.9649907946586609,0.24521014094352722,-0.9563098549842834,0.1591961830854416,0.14623886346817017,1.1870533227920532,0.09356580674648285
1.287455387948049,2.146071246668511,3.0072999588672755,-0.8216416835784912,0.15458789467811584,1.1871356964111328,0.23456676304340363,-0.9601268172264099,0.1521015167236328,0.16722768545150757,1.2040843963623047,0.12533387541770935
1.303244981615499,2.1454436289488528,3.0088005802596087,-0.9704633951187134,-0.009617304429411888,1.4045722484588623,0.2219090610742569,-0.9644211530685425,0.14369605481624603,0.18508872389793396,1.2145583629608154,0.16379928588867188
1.3217290455566066,2.140564473815426,3.0126002264406155,-1.1870344877243042,-0.22976432740688324,1.5854262113571167,0.2075600028038025,-0.969142735004425,0.13297155499458313,0.19870531558990479,1.2128102779388428,0.22028493881225586
1.342745840307271,2.1289930338045266,3.021028546801153,-1.3856879472732544,-0.44271865487098694,1.7272837162017822,0.19176281988620758,-0.9741089940071106,0.11974442005157471,0.2080785632133484,1.1925537586212158,0.2364722341299057
1.365334522758535,2.108767601318044,3.0362364908515374,-1.5071640014648438,-0.613472580909729,1.7652428150177002,0.17520220577716827,-0.9789668917655945,0.10453882813453674,0.1679222583770752,1.1615991592407227,0.18734681606292725
1.3883529277223157,2.0797108903199772,3.0592123636942374,-1.5530754327774048,-0.6671659350395203,1.7645008563995361,0.15844155848026276,-0.9834033250808716,0.08840001374483109,0.07073026895523071,1.1393938064575195,0.10299110412597656
1.4110380233330508,2.040568383203262,3.092308722091141,-1.5703068971633911,-0.6272485852241516,1.708311676979065,0.1418478935956955,-0.9872657656669617,0.07201322168111801,-0.009706705808639526,1.1032934188842773,0.011299967765808105
1.4331251470011714,1.986720250563448,3.1405766682064935,-1.6120387315750122,-0.595551073551178,1.684004545211792,0.12553639709949493,-0.9905382990837097,0.05544847622513771,-0.06263962388038635,1.0717456340789795,-0.03674102947115898
1.4559591322713472,1.909571919720368,-3.070799313014882,-1.7513713836669922,-0.5859306454658508,1.9050703048706055,0.10807254910469055,-0.9934134483337402,0.038080427795648575,-0.04650329053401947,1.0077414512634277,-0.04567909613251686
1.481221646804442,1.785319226973551,-2.9520619498135763,-1.9597845077514648,-0.6416910886764526,2.305349588394165,0.0874067172408104,-0.9959908723831177,0.019043775275349617,0.02654600888490677,0.9378699064254761,-0.040451645851135254
1.5086486348973962,1.5299941052631427,-2.7027391205888027,-2.2725424766540527,-0.6840692162513733,2.7732181549072266,0.062059249728918076,-0.9980694651603699,-0.0025335613172501326,0.026167131960392,0.8311685919761658,-0.06637495756149292
1.5282330622099842,0.8729036353983627,-2.0516051812771625,-2.60636830329895,-0.6582168340682983,3.0568807125091553,0.03260505944490433,-0.9990943074226379,-0.02734561823308468,-0.04891666769981384,0.6182958483695984,-0.10909831523895264
1.5163811578374398,0.017656439039446144,-1.2021152214144337,-2.7263612747192383,-0.6674268841743469,3.199185848236084,0.0009603067301213741,-0.9985198378562927,-0.054382819682359695,-0.17617690563201904,0.3681486248970032,-0.1869652271270752
1.483954112522011,-0.3803845621288866,-0.8101630666420451,-2.4757633209228516,-0.7294321656227112,3.334155559539795,-0.032202765345573425,-0.9962315559387207,-0.08053535968065262,-0.286522775888443,0.08331334590911865,-0.40441930294036865
1.4484041197094917,-0.5771379260246579,-0.619675724345856,-1.939526081085205,-0.7042444944381714,3.421267509460449,-0.06661447882652283,-0.9925194382667542,-0.10231295228004456,-0.3881736993789673,-0.2465553879737854,-0.725247323513031
1.414869134092821,-0.708173788712477,-0.49380763028577795,-1.317777395248413,-0.5587537288665771,3.3347601890563965,-0.10101272165775299,-0.9878679513931274,-0.11795614659786224,-0.4773106276988983,-0.6174635887145996,-0.937768816947937
1.385378978924009,-0.806365151987951,-0.3988906981707142,-0.7603474855422974,-0.3605782687664032,3.0025179386138916,-0.13306522369384766,-0.9828593730926514,-0.1275990754365921,-0.5975713729858398,-0.9774985313415527,-0.9787545204162598
1.36075265581249,-0.8789285861673413,-0.3273238077819654,-0.44412845373153687,-0.11528678238391876,2.5068001747131348,-0.16055959463119507,-0.9780218005180359,-0.1330205649137497,-0.7479028701782227,-1.3293209075927734,-0.9022880792617798
1.3407124013252871,-0.9271654298437133,-0.2779358212193408,-0.36444106698036194,0.10329535603523254,1.964127540588379,-0.18243001401424408,-0.9736472368240356,-0.13685950636863708,-0.8146250247955322,-1.6777658462524414,-0.737774133682251
1.3243541761909698,-0.9542438610531551,-0.2480710833489756,-0.4329856336116791,0.283186137676239,1.5191822052001953,-0.1990375965833664,-0.969786524772644,-0.14106135070323944,-0.7839487791061401,-1.9443371295928955,-0.5556700229644775
1.3104157060894517,-0.9656643708253853,-0.23257947003697013,-0.5198513269424438,0.4198198616504669,1.217178463935852,-0.21173293888568878,-0.9662920832633972,-0.14645510911941528,-0.6908243894577026,-2.120957851409912,-0.3977494239807129
1.2983395434498892,-0.9680999084465488,-0.22540996145600065,-0.5233189463615417,0.46840283274650574,0.9757804274559021,-0.22168613970279694,-0.9631127119064331,-0.15254279971122742,-0.5756618976593018,-2.257239580154419,-0.30595314502716064
1.2888064758579734,-0.9658257256178576,-0.22259899591347232,-0.41364115476608276,0.5301945805549622,0.6619229316711426,-0.22888052463531494,-0.9605036377906799,-0.1582614630460739,-0.5429853200912476,-2.3444738388061523,-0.26979315280914307
1.283134790344443,-0.9601380686062171,-0.22251122855129168,-0.21768511831760406,0.624136209487915,0.26384198665618896,-0.23243629932403564,-0.9589099287986755,-0.1626819670200348,-0.5856941938400269,-2.366895914077759,-0.2481454610824585
1.2820952927784037,-0.9518103964918049,-0.22426427246097838,0.031469058245420456,0.690718948841095,-0.14130258560180664,-0.23188504576683044,-0.9586145281791687,-0.16519008576869965,-0.6197689771652222,-2.333026885986328,-0.21649311482906342
1.285748819070616,-0.9428241231228774,-0.22644144549607184,0.2960287630558014,0.6726997494697571,-0.518264889717102,-0.22755563259124756,-0.9596483111381531,-0.16520845890045166,-0.6165453195571899,-2.2519607543945312,-0.1630537509918213
1.293952557529214,-0.9344870519228461,-0.2285256937081427,0.5800407528877258,0.5853829383850098,-0.8619024157524109,-0.21983058750629425,-0.9619228839874268,-0.16241586208343506,-0.5898159742355347,-2.1257388591766357,-0.11144863069057465
1.3063553732407502,-0.927740445787155,-0.22986617455985692,0.8308905363082886,0.5028236508369446,-1.1569364070892334,-0.2091655433177948,-0.9652387499809265,-0.15672869980335236,-0.5546283721923828,-1.9586350917816162,-0.08045373857021332
1.3222122495094104,-0.921592880668141,-0.23136373858754383,1.0004884004592896,0.43383046984672546,-1.4085962772369385,-0.19598053395748138,-0.9692617654800415,-0.14873908460140228,-0.5158419609069824,-1.757331371307373,-0.04751931130886078
1.3405979298917012,-0.9132339592649901,-0.23584595417848006,1.0434060096740723,0.3659246861934662,-1.621975064277649,-0.18059386312961578,-0.973621129989624,-0.13945573568344116,-0.48523861169815063,-1.5444910526275635,-0.009027406573295593
1.3601859773987497,-0.8983335597689329,-0.2475466934591313,0.9531133770942688,0.3378850519657135,-1.7522649765014648,-0.16354413330554962,-0.9779034852981567,-0.13022539019584656,-0.4401392936706543,-1.3307362794876099,0.028281554579734802
1.3794990427422105,-0.8726642963043919,-0.27022926977951894,0.7826625108718872,0.35317474603652954,-1.7895795106887817,-0.14565028250217438,-0.9817584156990051,-0.12221518158912659,-0.36344394087791443,-1.1130750179290771,0.0470505952835083
1.3975092694750917,-0.8340401031599526,-0.30567244868136495,0.6177319288253784,0.4036126434803009,-1.7470043897628784,-0.12770457565784454,-0.9850233197212219,-0.11584833264350891,-0.2881431579589844,-0.9011157155036926,0.015094704926013947
1.4138564088131487,-0.7833681610629014,-0.35261032312472895,0.5290427207946777,0.46744516491889954,-1.6695818901062012,-0.11029421538114548,-0.987710177898407,-0.11074292659759521,-0.23003777861595154,-0.7055425047874451,-0.058690428733825684
1.4289578052938963,-0.7228097549155156,-0.4087150696140399,0.5406887531280518,0.5493759512901306,-1.60811448097229,-0.09351170063018799,-0.9899577498435974,-0.10601615905761719,-0.20350059866905212,-0.5306569933891296,-0.158983051776886
1.443652513685596,-0.6533171436563568,-0.47274304361527014,0.6398044228553772,0.6550382375717163,-1.5734797716140747,-0.07707341760396957,-0.9919281005859375,-0.10069010406732559,-0.21305713057518005,-0.3731995224952698,-0.2562432885169983
1.4585321931097346,-0.5735598487808996,-0.5458827742476612,0.7856412529945374,0.7671319842338562,-1.5534701347351074,-0.06078965216875076,-0.9937049746513367,-0.09410127252340317,-0.22848641872406006,-0.21505051851272583,-0.3267359733581543
1.4738119472065958,-0.48167312861801026,-0.6300077706745197,0.9674792885780334,0.8645304441452026,-1.48527991771698,-0.04485958814620972,-0.9953007102012634,-0.08581636101007462,-0.217637300491333,-0.06378144025802612,-0.35726815462112427
1.489599477101733,-0.3763781101434643,-0.7267596838939374,1.1767628192901611,0.9072776436805725,-1.3765629529953003,-0.029811996966600418,-0.9967053532600403,-0.07543157041072845,-0.1749456524848938,0.06579703092575073,-0.3743058443069458
1.5058920408665677,-0.24788165931981487,-0.846508758443919,1.3680514097213745,0.891174852848053,-1.2855110168457031,-0.01591353490948677,-0.9978944659233093,-0.06287780404090881,-0.13659802079200745,0.18127447366714478,-0.3718448877334595
1.5220807133271632,-0.058596256496608275,-1.0274739511030693,1.4801740646362305,0.8227047324180603,-1.2284929752349854,-0.00285201333463192,-0.9988136291503906,-0.04861655831336975,-0.12205636501312256,0.2877539396286011,-0.33450090885162354
1.5359138109420731,0.27745902372554143,-1.3558861525675252,1.5152440071105957,0.7596953511238098,-1.184046745300293,0.009554191492497921,-0.9993916749954224,-0.03354640305042267,-0.11264249682426453,0.3733081817626953,-0.2610090374946594
1.5425926140933592,0.8709570401898847,-1.942287652777091,1.5249125957489014,0.7074207067489624,-1.18159818649292,0.021578744053840637,-0.9996023178100586,-0.018169598653912544,-0.10519686341285706,0.4435717463493347,-0.2109561562538147
1.5371137611016354,1.4872735356722673,-2.5521982746196334,1.499739408493042,0.6151043772697449,-1.192214846611023,0.03356199339032173,-0.9994328022003174,-0.002809728030115366,-0.10648369789123535,0.5140811800956726,-0.18752819299697876
1.5237763076970963,1.832730046496336,-2.8924132721600433,1.442353367805481,0.4776359796524048,-1.1717472076416016,0.04540262371301651,-0.9988947510719299,0.012172133661806583,-0.09015661478042603,0.5815362334251404,-0.13483738899230957
1.507909348929958,2.006243487465069,-3.0621102479787985,1.3900244235992432,0.3292723596096039,-1.1613942384719849,0.056983161717653275,-0.998023271560669,0.02651030384004116,-0.056861042976379395,0.6285315752029419,-0.07433116436004639
1.4909178770037834,2.105033185601707,3.124571795070049,1.4099243879318237,0.17714567482471466,-1.1949793100357056,0.0686764195561409,-0.9968113899230957,0.0406305231153965,-0.04574239253997803,0.6690982580184937,-0.046245574951171875
1.4727664484771874,2.1704409942395495,3.0600143896139738,1.503315806388855,0.04221530258655548,-1.243767261505127,0.08079967647790909,-0.9951989054679871,0.05523589253425598,-0.06619694083929062,0.715810239315033,-0.06402479857206345
1.453314964866293,2.2185216611520278,3.0113831408552936,1.6013089418411255,-0.09690476953983307,-1.2975287437438965,0.0934729054570198,-0.99310702085495,0.07072360068559647,-0.08503472059965134,0.7585639357566833,-0.07507216185331345
1.4327057623037254,2.252944639597308,2.9749398921893793,1.6534061431884766,-0.24903039634227753,-1.3621156215667725,0.10684946179389954,-0.9904806613922119,0.08678534626960754,-0.09342166781425476,0.8012257814407349,-0.039421796798706055
1.4114410178892036,2.2753348350513014,2.9490145257652562,1.6321256160736084,-0.3930903971195221,-1.4020262956619263,0.12090189009904861,-0.9873297810554504,0.10277585685253143,-0.08493686467409134,0.8435308933258057,0.008155696094036102
1.3904717623409735,2.287653228094252,2.932221219770918,1.5111067295074463,-0.43683868646621704,-1.3862709999084473,0.1352076679468155,-0.9837855100631714,0.11783649027347565,-0.057647183537483215,0.8708702921867371,0.03737618029117584
1.37101563632695,2.2923580422611147,2.923258900487264,1.2880946397781372,-0.36929240822792053,-1.3033297061920166,0.14899574220180511,-0.9801101088523865,0.1310916244983673,-0.01781584322452545,0.8871838450431824,0.061733976006507874
1.3540309376359911,2.2913713348540172,2.9210542404187945,1.0106810331344604,-0.2505478858947754,-1.1759169101715088,0.161611869931221,-0.9765982031822205,0.14190907776355743,0.008432194590568542,0.9189959764480591,0.08630159497261047
1.3400192962562225,2.2864559642342495,2.9243574381113535,0.7167359590530396,-0.08222491294145584,-1.0171778202056885,0.1726180464029312,-0.9734889268875122,0.1500771939754486,0.020375236868858337,0.957207441329956,0.09455206990242004
1.329219759211412,2.27955913413058,2.931593501679586,0.43831557035446167,0.10999033600091934,-0.8268305659294128,0.18161912262439728,-0.9709619879722595,0.15571655333042145,0.03311789035797119,0.9791253805160522,0.08616602420806885
1.3216815258618078,2.272291506976303,2.9410378561485535,0.19368663430213928,0.2563701868057251,-0.6135739684104919,0.18833184242248535,-0.9691310524940491,0.15911169350147247,0.046638309955596924,1.0015864372253418,0.07759809494018555
1.3171615359129296,2.2653228039121593,2.9513018605495596,0.00419754721224308,0.32776954770088196,-0.4056779146194458,0.19279944896697998,-0.9680067896842957,0.160597026348114,0.054179370403289795,1.0257459878921509,0.07126043736934662
1.3152686138840328,2.259271605221644,2.960966174338977,-0.13280558586120605,0.31853368878364563,-0.19553452730178833,0.19518278539180756,-0.9675300717353821,0.1605917066335678,0.06841287016868591,1.0457160472869873,0.0651012659072876
1.3157470880248432,2.2542603686502707,2.968956586225672,-0.23642556369304657,0.21354709565639496,0.013437691144645214,0.19562628865242004,-0.9676508903503418,0.15931937098503113,0.0875464379787445,1.0564568042755127,0.06821991503238678
1.3183709390806058,2.250186812646292,2.9747380543029185,-0.31529563665390015,0.0935775488615036,0.20642153918743134,0.19429752230644226,-0.9683095216751099,0.15692512691020966,0.10321840643882751,1.0575580596923828,0.07941842079162598
1.3227952995909351,2.2474207250754623,2.9780391286862185,-0.35982605814933777,-0.004176728427410126,0.37507152557373047,0.1913887858390808,-0.9694050550460815,0.15370309352874756,0.10791242122650146,1.0581958293914795,0.07704055309295654
1.3285687555954464,2.2464952045783737,2.978604061280817,-0.37611261010169983,-0.05950230360031128,0.5058771967887878,0.18716062605381012,-0.9708060622215271,0.15002276003360748,0.10242074728012085,1.0572011470794678,0.05473518371582031
1.335381290678411,2.248518877882397,2.9759675520177202,-0.376163125038147,-0.03682732582092285,0.631321907043457,0.18170054256916046,-0.9724175930023193,0.14625105261802673,0.1004955917596817,1.0480551719665527,0.034291163086891174
1.3430984394732859,2.254637117037928,2.9696290415730644,-0.3646894097328186,0.03106543980538845,0.7463009357452393,0.17498041689395905,-0.9741886258125305,0.1426149308681488,0.10753615200519562,1.0434633493423462,0.019738927483558655
1.3514906215874254,2.2654819873608183,2.959199622523849,-0.34360918402671814,0.10398459434509277,0.8346148133277893,0.16713622212409973,-0.9760487079620361,0.1392652839422226,0.11306099593639374,1.041966438293457,0.008531466126441956
1.360225668208586,2.280520531656714,2.9450007288035356,-0.32187992334365845,0.11980004608631134,0.8766182065010071,0.15854951739311218,-0.9779117703437805,0.13620184361934662,0.11200413107872009,1.0343997478485107,0.011595010757446289
1.368980051321219,2.2972700200238427,2.9288388432396593,-0.33902937173843384,0.06060413271188736,0.8663981556892395,0.14984050393104553,-0.9797041416168213,0.13314631581306458,0.08979883790016174,1.0202161073684692,0.03788959980010986
1.3779095313504435,2.312291111880869,2.913611068416899,-0.41724854707717896,-0.04946564510464668,0.8583900332450867,0.14136646687984467,-0.9814549684524536,0.12946826219558716,0.08206802606582642,1.005197525024414,0.08308684825897217
1.3876690201710242,2.324313587936996,2.900028728579323,-0.5339939594268799,-0.21835188567638397,0.9226474165916443,0.1328078657388687,-0.9832789897918701,0.12459872663021088,0.11545267701148987,1.001879334449768,0.12389087677001953
1.398940681760656,2.3357593091916873,2.8851724361775033,-0.6284935474395752,-0.42038434743881226,1.0771427154541016,0.12336885929107666,-0.9852691292762756,0.11842702329158783,0.15972749888896942,1.0051970481872559,0.12980316579341888
1.4119320031392224,2.3510386345520655,2.8641701940015527,-0.6791096329689026,-0.6609047651290894,1.2579394578933716,0.1124379113316536,-0.9874075651168823,0.11128442734479904,0.18489491939544678,1.0056722164154053,0.10297965258359909
1.426044674906319,2.372683549508642,2.834353253985051,-0.6756488680839539,-0.8959356546401978,1.3390142917633057,0.10030236840248108,-0.98954176902771,0.10366591811180115,0.1582120805978775,0.9972474575042725,0.06245671212673187
1.4394636186609886,2.4004914622175426,2.7963302088139246,-0.534463107585907,-1.054936408996582,1.2334461212158203,0.08840864896774292,-0.9913882613182068,0.09660977125167847,0.03315817564725876,0.969049334526062,-0.008703716099262238
1.4503647355276168,2.437323296411161,2.7481805365643845,-0.2949053645133972,-1.112685203552246,1.1155754327774048,0.07778922468423843,-0.9927569031715393,0.09155841916799545,-0.11871322989463806,0.884602427482605,-0.12206053733825684
1.4583773109375016,2.4895480571834376,2.684652636041314,-0.022007543593645096,-1.0371289253234863,1.0339399576187134,0.06807507574558258,-0.993687629699707,0.08916937559843063,-0.2065942883491516,0.7967879772186279,-0.23516523838043213
1.4637146980758124,2.564358020076451,2.59997266620318,0.2013869285583496,-0.8139593005180359,1.1136736869812012,0.05832495540380478,-0.9942722320556641,0.08956215530633926,-0.2482052743434906,0.720514178276062,-0.32177019119262695
1.467912976124483,2.670784470395223,2.4859647913957925,0.244869664311409,-0.5832650661468506,1.3787709474563599,0.046587321907281876,-0.9947121739387512,0.0915302112698555,-0.1759665608406067,0.5988379716873169,-0.3519212007522583
1.4725556829817885,2.8175231008095647,2.3334478967823262,0.05493408069014549,-0.423515647649765,1.8063939809799194,0.031232669949531555,-0.9951782822608948,0.09297872334718704,-0.07630705833435059,0.4769133925437927,-0.29248714447021484
1.4784003616963204,3.0198014519805576,2.1265832637097373,-0.33906397223472595,-0.31420809030532837,2.2660977840423584,0.011209456250071526,-0.9957345128059387,0.09158279001712799,-0.013666093349456787,0.33599013090133667,-0.1560509204864502
1.484095580220371,-2.9924513696497828,1.8514232391348682,-0.8653014302253723,-0.3211434781551361,2.5836546421051025,-0.012866959907114506,-0.9962438344955444,0.08563300967216492,-0.03818890452384949,0.14248394966125488,-0.027222156524658203
1.4869248106405504,-2.6587781778197277,1.5131162589485407,-1.4420019388198853,-0.35272541642189026,2.645591974258423,-0.03889419138431549,-0.9964848160743713,0.0741981714963913,-0.16810649633407593,-0.07744401693344116,0.07823728770017624
1.484582441492154,-2.2949238904375906,1.1444572370000896,-2.0237836837768555,-0.33517998456954956,2.505645751953125,-0.06450169533491135,-0.9962858557701111,0.057045117020606995,-0.32261374592781067,-0.3065858483314514,0.14398956298828125
1.4758147637125536,-1.9421796801247275,0.7873630414070384,-2.536099910736084,-0.23072946071624756,2.2965502738952637,-0.08837451040744781,-0.9954926371574402,0.03441793844103813,-0.4365888237953186,-0.5057281851768494,0.1552184820175171
1.4601048023880812,-1.6370028524694218,0.47884682627418873,-2.9121344089508057,-0.11834193021059036,2.096489667892456,-0.11022569239139557,-0.9938799738883972,0.007308341562747955,-0.48173898458480835,-0.6883101463317871,0.12367331981658936
1.4381017617430107,-1.3979591080215783,0.23714792091812528,-3.125980854034424,-0.06504856050014496,1.9533604383468628,-0.13033577799797058,-0.9912089705467224,-0.022753898054361343,-0.44713306427001953,-0.8680747151374817,0.07222306728363037
1.4113570262098276,-1.2238444478641335,0.06053529834571351,-3.1694722175598145,-0.07013600319623947,1.8686524629592896,-0.1493050456047058,-0.9873164296150208,-0.05398542433977127,-0.3722097873687744,-1.051898717880249,-0.0032501183450222015
1.3819846095353834,-1.1018062982789585,-0.06428874018330641,-3.0864155292510986,-0.11242597550153732,1.7727144956588745,-0.16742604970932007,-0.9822279810905457,-0.08483410626649857,-0.31304264068603516,-1.2305864095687866,-0.07989966124296188
1.3527410981781915,-1.0175557479970396,-0.1517299252194831,-2.8112363815307617,-0.1716187298297882,1.5691543817520142,-0.18406133353710175,-0.9763200283050537,-0.11367128044366837,-0.32030266523361206,-1.387098789215088,-0.1508244425058365
1.3264736546056553,-0.9600412977353288,-0.21289841813495336,-2.3838069438934326,-0.23827046155929565,1.255246639251709,-0.1981678307056427,-0.9703013896942139,-0.13872607052326202,-0.39121806621551514,-1.5329183340072632,-0.26369380950927734
1.30520375932858,-0.9202442670857555,-0.25694841330186025,-1.9000242948532104,-0.32407671213150024,0.8513239622116089,-0.20886990427970886,-0.964937150478363,-0.1589658409357071,-0.46065521240234375,-1.6923354864120483,-0.3542633056640625
1.2900669356526946,-0.8909210478851036,-0.2910123003972098,-1.4066146612167358,-0.36007407307624817,0.3902227282524109,-0.21545343101024628,-0.960853636264801,-0.1741844266653061,-0.5095525979995728,-1.8292922973632812,-0.3959295153617859
1.2810722862630703,-0.8670169127879721,-0.31930066071096863,-0.9720142483711243,-0.2759631872177124,-0.008806157857179642,-0.2178092747926712,-0.9583227634429932,-0.1848699152469635,-0.5326331853866577,-1.9124811887741089,-0.4242912530899048
1.27700474199779,-0.8454877697951466,-0.34397295671374817,-0.6396068930625916,-0.14039956033229828,-0.28983187675476074,-0.21669408679008484,-0.957152783870697,-0.1921001821756363,-0.48186853528022766,-1.9419105052947998,-0.4174119234085083
1.2764404436624361,-0.82503640788496,-0.3660540429990548,-0.3918718993663788,0.0054212892428040504,-0.47470077872276306,-0.21311704814434052,-0.9569892287254333,-0.19685783982276917,-0.3954797089099884,-1.9165003299713135,-0.3745989203453064
1.278462384402992,-0.8043489598130593,-0.38680049356513346,-0.20611438155174255,0.15857356786727905,-0.6376127004623413,-0.20760494470596313,-0.9575738906860352,-0.19988182187080383,-0.3337920904159546,-1.853781819343567,-0.330086350440979
1.2827068032894338,-0.7818791212275811,-0.40781882135587805,-0.05590889975428581,0.3040870726108551,-0.8044933080673218,-0.20019598305225372,-0.9587884545326233,-0.20160996913909912,-0.3258354961872101,-1.765271782875061,-0.29182863235473633
1.2890705103017575,-0.7567719981433704,-0.4301038656077857,0.10346619784832001,0.43649306893348694,-0.9755382537841797,-0.1908784657716751,-0.9605770707130432,-0.20213191211223602,-0.3256467878818512,-1.656991958618164,-0.26892197132110596
1.2977214719407442,-0.7290724348512722,-0.45381271059759193,0.2977302074432373,0.5415195822715759,-1.1429901123046875,-0.17966437339782715,-0.9629461765289307,-0.20113593339920044,-0.31876394152641296,-1.5256098508834839,-0.27463293075561523
1.308796633249966,-0.6991176167061708,-0.47875496474124,0.5106868147850037,0.6294532418251038,-1.2913402318954468,-0.1666860580444336,-0.9658739566802979,-0.19825142621994019,-0.3108071982860565,-1.3613510131835938,-0.2880765199661255
1.3220719245232184,-0.6675535479375289,-0.5046831857960429,0.7135009169578552,0.6534834504127502,-1.3836374282836914,-0.1523943692445755,-0.9692271947860718,-0.1933252066373825,-0.2790020704269409,-1.1791188716888428,-0.286716103553772
1.336925027158,-0.6352747637306334,-0.5312608562948825,0.8658561706542969,0.6343627572059631,-1.4118534326553345,-0.13751737773418427,-0.9727765321731567,-0.1865338236093521,-0.22808314859867096,-0.9991626143455505,-0.26724714040756226
1.3524869691325523,-0.6027534196657217,-0.5582017901786075,0.9506895542144775,0.6149637699127197,-1.3590631484985352,-0.12278226763010025,-0.976265013217926,-0.1784142106771469,-0.17119355499744415,-0.8212511539459229,-0.24385733902454376
1.3677640539374472,-0.5709078157840688,-0.5845459446130957,0.9679890871047974,0.5939114689826965,-1.2357968091964722,-0.10896582901477814,-0.9794596433639526,-0.16966260969638824,-0.11115743964910507,-0.6472494006156921,-0.21256987750530243
1.3820589978223745,-0.5409841667746307,-0.6091012874064379,0.9423564076423645,0.5746996998786926,-1.0772713422775269,-0.09662006795406342,-0.9822419285774231,-0.16082753241062164,-0.0589737594127655,-0.49058228731155396,-0.18859851360321045
1.3949787068679813,-0.5131574949773965,-0.6314420946181808,0.8705036044120789,0.595824658870697,-0.9106927514076233,-0.08587045222520828,-0.984583854675293,-0.15238456428050995,-0.03581833094358444,-0.3540087342262268,-0.1811571568250656
1.4061705916223237,-0.48693988533088906,-0.6516615136703238,0.7517799139022827,0.6714555025100708,-0.7684367895126343,-0.07668523490428925,-0.9864797592163086,-0.14483565092086792,-0.02837151288986206,-0.22294723987579346,-0.16545164585113525
1.415740321708456,-0.4579692030793598,-0.6734485255829712,0.634210467338562,0.8207417130470276,-0.7264679670333862,-0.06828055530786514,-0.9880028963088989,-0.13852202892303467,-0.04854068160057068,-0.1079292893409729,-0.1575440764427185
1.424327723466046,-0.4211288532447394,-0.7013281552130265,0.5659371018409729,1.041953444480896,-0.7676542401313782,-0.05966148525476456,-0.9892926216125488,-0.13319459557533264,-0.10688814520835876,-0.008906960487365723,-0.20580971240997314
1.4325688448256828,-0.3714819915582955,-0.7396771138475415,0.5335460305213928,1.2725951671600342,-0.875420868396759,-0.05001654475927353,-0.9904617667198181,-0.1283894181251526,-0.197404682636261,0.08482211828231812,-0.2514474391937256
1.4407155226276167,-0.30569919698843373,-0.7927760633917474,0.5326884984970093,1.329190731048584,-0.9952868223190308,-0.03903888911008835,-0.991551399230957,-0.12370054423809052,-0.22097083926200867,0.18405622243881226,-0.21661603450775146
1.4488342753308603,-0.22529025494247634,-0.860693244003817,0.5876944065093994,1.2523138523101807,-1.0579262971878052,-0.02717762067914009,-0.9925718307495117,-0.11858591437339783,-0.17762580513954163,0.26957982778549194,-0.17612218856811523
1.4571010720500812,-0.1346606250227779,-0.9402417406604056,0.7052023410797119,1.050773024559021,-1.0678958892822266,-0.015231342054903507,-0.9935436248779297,-0.1124245822429657,-0.10981437563896179,0.34454143047332764,-0.1469288468360901
1.4658949356525073,-0.035118685199782756,-1.0311721939154743,0.8714696168899536,0.7727293968200684,-1.0400946140289307,-0.0036765888798981905,-0.9945029020309448,-0.10464734584093094,-0.060105085372924805,0.43482542037963867,-0.13207730650901794
1.475225994310124,0.07131202537425547,-1.1315799506536768,1.0195549726486206,0.5419473052024841,-0.9185492992401123,0.006799291353672743,-0.9954366087913513,-0.09518396854400635,-0.01130056381225586,0.5215900540351868,-0.12554949522018433
1.4849798235037108,0.183258046526666,-1.2393129287896623,1.14949631690979,0.39429953694343567,-0.7604145407676697,0.015619896352291107,-0.9963200092315674,-0.08427813649177551,0.05283108353614807,0.5811129808425903,-0.11906033754348755
1.4951746804438473,0.30409213759524023,-1.3570281116005851,1.2724909782409668,0.3074341416358948,-0.5882973670959473,0.02262260764837265,-0.9971420168876648,-0.07208654284477234,0.08406689763069153,0.6319531798362732,-0.12220341712236404
1.5055804900753482,0.44616700574463275,-1.4967045538904358,1.3641536235809326,0.24327567219734192,-0.4861643314361572,0.0281225573271513,-0.9978742003440857,-0.05879242718219757,0.09374946355819702,0.6637066006660461,-0.1211848258972168
1.5150142191935276,0.6338810536431828,-1.6822800064498125,1.3775006532669067,0.2652294635772705,-0.48159167170524597,0.03302297741174698,-0.9984445571899414,-0.04492458328604698,0.054303109645843506,0.6586006879806519,-0.10586261749267578
1.5211331822980134,0.8884833636592333,-1.934046752640352,1.3111404180526733,0.3697042167186737,-0.605949342250824,0.03853072226047516,-0.9987670183181763,-0.031305983662605286,-0.03563150763511658,0.6465177536010742,-0.0686541199684143
1.5215806611321971,1.1871640794747926,-2.229155807962367,1.2294788360595703,0.40027356147766113,-0.7927455902099609,0.04562167450785637,-0.9987891316413879,-0.018414301797747612,-0.1162850558757782,0.6418402194976807,-0.02707195095717907
1.5160784869189547,1.455225348834505,-2.493734435792832,1.1516071557998657,0.3615512251853943,-0.9207192063331604,0.05432767793536186,-0.9985033273696899,-0.0063068075105547905,-0.12235131859779358,0.6228929162025452,-0.008524537086486816
1.506997632991611,1.6508117856204696,-2.686510299322401,1.0903880596160889,0.2567659616470337,-0.9024999737739563,0.06355329602956772,-0.9979655742645264,0.005096126813441515,-0.05999794602394104,0.6077829599380493,0.006302356719970703
1.4970947000200008,1.7900019086236223,-2.8241411987398846,1.0691852569580078,0.11899659037590027,-0.7470873594284058,0.07187536358833313,-0.9972852468490601,0.016012784093618393,0.028435975313186646,0.6352245807647705,0.01810610294342041
1.4880978328085064,1.900565482886224,-2.9344275498921446,1.0695046186447144,0.006930233910679817,-0.5052558183670044,0.07815529406070709,-0.9965824484825134,0.026749975979328156,0.10543853044509888,0.6624758839607239,0.014296412467956543
1.4806903187986538,1.9990262852852596,-3.0337152175726363,1.059207797050476,-0.09403417259454727,-0.23883824050426483,0.08185890316963196,-0.9959431886672974,0.03736698627471924,0.15654447674751282,0.6677876710891724,0.003053780645132065
1.4747399816358622,2.0918286372862265,-3.1281177151832456,1.0326457023620605,-0.12878921627998352,-0.028189394623041153,0.08318360894918442,-0.9953901171684265,0.04774184897542,0.16924259066581726,0.646604597568512,-0.00587153434753418
1.4697210706665158,2.177798109834237,3.0677752960394753,0.9358137249946594,-0.03493780642747879,0.08702944964170456,0.08287922292947769,-0.9948962330818176,0.05755675211548805,0.11203658580780029,0.5878526568412781,-0.022140860557556152
1.4654136671978002,2.2502397202608777,2.995391887550002,0.766607403755188,0.12483454495668411,0.10693445056676865,0.08182892948389053,-0.9944523572921753,0.06609659641981125,0.015979938209056854,0.5240238308906555,-0.019633419811725616
1.461722491466034,2.306205684573331,2.9410697590167914,0.5955595970153809,0.25835558772087097,0.08191963285207748,0.08072506636381149,-0.9940573573112488,0.07303250581026077,-0.046087563037872314,0.48090416193008423,0.010631561279296875
1.4586463140438457,2.347042060446881,2.902940890125941,0.4359632730484009,0.3031443655490875,0.051371850073337555,0.07985804975032806,-0.9937177896499634,0.07840947806835175,-0.06276816129684448,0.43993043899536133,0.03943431377410889
1.4564171302157867,2.37613256683302,2.8765144724664875,0.30977365374565125,0.2842918634414673,0.06349697709083557,0.07907779514789581,-0.9934658408164978,0.08229569345712662,-0.03433895856142044,0.386593222618103,0.05652903765439987
1.454942812117332,2.398899761465867,2.8568737429120046,0.21374325454235077,0.35721853375434875,0.060626354068517685,0.07817454636096954,-0.9932965040206909,0.08515377342700958,-0.038791537284851074,0.34797167778015137,0.03560447692871094
1.4539764200694665,2.4161653667290657,2.8432089477318856,0.14377455413341522,0.38409966230392456,0.04964982345700264,0.07732952386140823,-0.9931843280792236,0.08720888197422028,-0.04807838797569275,0.3396655321121216,0.04568016529083252
1.4534242916007936,2.4319916315053733,2.831481943451015,0.12201520055532455,0.4491007626056671,0.09011735767126083,0.07629603892564774,-0.9931198358535767,0.0888366550207138,-0.032304927706718445,0.33104097843170166,0.026031717658042908
1.4534674493460087,2.4507835530748467,2.8172736055818137,0.08205940574407578,0.475532591342926,0.17266903817653656,0.07458622008562088,-0.9931248426437378,0.09022192656993866,0.011885367333889008,0.3066014051437378,0.020816557109355927
1.4545189319627023,2.4723697874122617,2.800201549630189,0.0010585682466626167,0.44042548537254333,0.2699977457523346,0.07197345048189163,-0.993247389793396,0.09099160134792328,0.05739062279462814,0.280173659324646,0.04740583151578903
1.4568703916724892,2.495725291473766,2.7809077991782614,-0.10429032146930695,0.3959560692310333,0.36197400093078613,0.06842297315597534,-0.9935174584388733,0.09078230708837509,0.06704460084438324,0.2579675316810608,0.0774918645620346
1.46045759955578,2.519767346547268,2.76068095669216,-0.20809634029865265,0.395577609539032,0.4191001355648041,0.06414463371038437,-0.9939188361167908,0.0895039513707161,0.05121185630559921,0.23955482244491577,0.08905457705259323
1.4650887427784254,2.5429218996872907,2.741469074628545,-0.3098772466182709,0.417057067155838,0.44405511021614075,0.05946030840277672,-0.9944181442260742,0.08716128021478653,0.03593768924474716,0.20942974090576172,0.09443377703428268
1.4705707609184755,2.563335720953471,2.7253426893626824,-0.41723060607910156,0.45246779918670654,0.4317587614059448,0.05468831956386566,-0.9949816465377808,0.08379039913415909,0.025374609977006912,0.16803157329559326,0.09704171121120453
1.4767099588450785,2.5779019104331957,2.71542552128161,-0.5038135051727295,0.48350584506988525,0.3905726969242096,0.05019759386777878,-0.9955771565437317,0.07941363751888275,0.012790735810995102,0.12520051002502441,0.10126589983701706
1.4831019938710988,2.5868775095372603,2.7113862859834845,-0.528874397277832,0.49991998076438904,0.3517214357852936,0.04613141715526581,-0.9961572885513306,0.07445215433835983,0.002986673265695572,0.10164105892181396,0.08945799618959427
1.4894070978981233,2.5951344216068746,2.7081129600244123,-0.5081990361213684,0.4936404526233673,0.3538348078727722,0.04225025698542595,-0.9966897368431091,0.0694628357887268,0.014756623655557632,0.08847111463546753,0.05181432515382767
1.4954614325385316,2.6067070501718566,2.701403668698241,-0.47128888964653015,0.4806511700153351,0.35366010665893555,0.03836687654256821,-0.9971636533737183,0.06475435942411423,0.02802417054772377,0.07881319522857666,0.031101591885089874
1.5010907227143915,2.62176546142491,2.6909610369440276,-0.420728474855423,0.44350919127464294,0.34571316838264465,0.034597959369421005,-0.9975715279579163,0.06045081093907356,0.02062365412712097,0.07914495468139648,0.03180408477783203
1.5061990861216061,2.6432063980392453,2.6736785717076845,-0.35235556960105896,0.39186596870422363,0.3600503206253052,0.030857250094413757,-0.9979143142700195,0.05670110508799553,0.016750214621424675,0.07701581716537476,0.028977151960134506
1.5107275481594753,2.6782664309972546,2.642102849755593,-0.2601050138473511,0.3112770617008209,0.40895503759384155,0.026832114905118942,-0.9981964230537415,0.05370737239718437,0.03446248546242714,0.058483660221099854,0.014774329960346222
1.5144334388066039,2.7340475577991614,2.5888351324325156,-0.15078838169574738,0.2038547396659851,0.46668171882629395,0.022329052910208702,-0.998412013053894,0.051721666008234024,0.05806952714920044,0.04420351982116699,0.005209088325500488
1.5170649499703048,2.812912689736511,2.511332220432854,-0.035707466304302216,0.09748250246047974,0.510047197341919,0.017336223274469376,-0.9985567927360535,0.05083181709051132,0.06646507978439331,0.04527920484542847,0.0016281530261039734
1.518497227730219,2.9074349366461454,2.417528929950116,0.03450571000576019,0.08593610674142838,0.515430748462677,0.012130102142691612,-0.9986327290534973,0.05085286498069763,0.05038520693778992,0.03915983438491821,-0.005305163562297821
1.5189475381830795,3.0053177600010117,2.320796217763571,0.05776362866163254,0.17392508685588837,0.48682278394699097,0.007041165605187416,-0.998656153678894,0.051348600536584854,0.006874889135360718,0.016051054000854492,-0.008288145065307617
1.5188518670053104,3.099797135490389,2.228349604752758,0.04545529931783676,0.24881263077259064,0.46920862793922424,0.002169478451833129,-0.9986512064933777,0.0518767349421978,-0.009905636310577393,-0.00379025936126709,0.003177158534526825
1.518422002500632,-3.08881816117009,2.1364115561914696,0.03584669902920723,0.29501479864120483,0.4912841320037842,-0.0027615572325885296,-0.9986287951469421,0.05227890983223915,0.0070340633392333984,-0.015149950981140137,0.015790697187185287
1.5176609205508331,-2.9902987529559573,2.0407492724513485,0.011577580124139786,0.29570430517196655,0.5239454507827759,-0.008004949428141117,-0.9985886216163635,0.05250561237335205,0.032083362340927124,-0.01204681396484375,0.02319347858428955
1.5166848142418654,-2.890104894496481,1.9433329715955288,-0.028272364288568497,0.2919686734676361,0.5352383255958557,-0.013459574431180954,-0.9985363483428955,0.05238670855760574,0.037904173135757446,-0.010130822658538818,0.04053950309753418
1.5155673727106647,-2.790786677319368,1.8468439519874842,-0.06662667542695999,0.3013339638710022,0.5326001644134521,-0.018970895558595657,-0.9984752535820007,0.05184124410152435,0.01445433497428894,-0.02168172597885132,0.051277875900268555
1.514188212044228,-2.6945689563274025,1.753489525346329,-0.08039343357086182,0.2959873080253601,0.5356422662734985,-0.024458227679133415,-0.9983981847763062,0.05101952701807022,0.0036757905036211014,-0.030013740062713623,0.04503476247191429
1.512311453309864,-2.603992655907814,1.6656613174104336,-0.06190284714102745,0.28372666239738464,0.5281363725662231,-0.029933162033557892,-0.9982902407646179,0.05020894110202789,-0.0020492076873779297,-0.03131192922592163,0.0319141149520874
1.5098323189250427,-2.5231841051991295,1.5875470269020306,-0.028538886457681656,0.2850697636604309,0.5200192332267761,-0.03532310575246811,-0.9981422424316406,0.049645327031612396,-0.006318092346191406,-0.025920987129211426,0.013327836990356445
1.5068783570420663,-2.453042133294135,1.5201906183668734,-0.016754399985074997,0.2942180037498474,0.5043721199035645,-0.04058803990483284,-0.9979579448699951,0.04932304471731186,-0.007370322942733765,-0.026852965354919434,-0.006338834762573242
1.503806751894537,-2.390538611076571,1.4605266611927932,-0.03962257504463196,0.29423922300338745,0.48249194025993347,-0.04568314552307129,-0.9977570176124573,0.0489339642226696,-0.0032670237123966217,-0.045395076274871826,-0.0033557340502738953
1.5010001690416157,-2.332515236295555,1.4052278551070476,-0.09384986013174057,0.26958608627319336,0.44461700320243835,-0.05046910420060158,-0.9975652098655701,0.04813382402062416,-0.016608506441116333,-0.05466574430465698,0.02155327796936035
1.498649973269234,-2.2773475205349123,1.3523956768430572,-0.1437174379825592,0.21638177335262299,0.4031848609447479,-0.05482795462012291,-0.9973985552787781,0.046798378229141235,-0.03330677002668381,-0.046577274799346924,0.047775860875844955
1.4967076160472677,-2.2266374407370355,1.3031691976631854,-0.16390766203403473,0.09940774738788605,0.346317321062088,-0.058665551245212555,-0.9972566962242126,0.045140933245420456,-0.035618480294942856,-0.044125258922576904,0.05152368173003197
1.4952330772536992,-2.184577725331887,1.261430863890873,-0.16261374950408936,-0.008284138515591621,0.2554579973220825,-0.06171298399567604,-0.9971464276313782,0.04348064586520195,-0.045052703469991684,-0.059250056743621826,0.03807782754302025
1.4944321716042364,-2.1523916136194767,1.2288070566146045,-0.15392199158668518,-0.051272086799144745,0.15637697279453278,-0.0637475773692131,-0.997085690498352,0.04191090166568756,-0.058902524411678314,-0.07983392477035522,0.018331047147512436
1.4942759224679292,-2.1288866770422676,1.2047244161680006,-0.13396765291690826,-0.04850884526968002,0.07006768882274628,-0.06484869122505188,-0.997073769569397,0.04048454761505127,-0.07524222880601883,-0.07371199131011963,-0.0012844763696193695
1.494461087212963,-2.113179367438478,1.1884752469942994,-0.0925898626446724,-0.05154644697904587,0.03508014231920242,-0.06531952321529388,-0.9970878958702087,0.03936634957790375,-0.07207057625055313,-0.05412083864212036,-0.01928555592894554
1.4945175248972293,-2.1043320800898284,1.1790337304897804,-0.03913820907473564,-0.05224010348320007,0.03355645760893822,-0.06561654806137085,-0.9970921874046326,0.03875815123319626,-0.03838733583688736,-0.04789102077484131,-0.036133404821157455
1.4943331019078339,-2.098594461192319,1.1730690206856234,-0.02378641813993454,0.014410562813282013,0.04078667238354683,-0.06599494069814682,-0.9970781207084656,0.03847261145710945,-0.0207970067858696,-0.0532149076461792,-0.05309033766388893
1.494249390588236,-2.092260556947078,1.1673379263998807,-0.04799014329910278,0.10680944472551346,0.01371357124298811,-0.06631220877170563,-0.9970717430114746,0.038096874952316284,-0.03238160163164139,-0.05184823274612427,-0.05123447999358177
1.494655758885554,-2.083417968169098,1.1599123002799587,-0.08768109977245331,0.17576295137405396,-0.03017132729291916,-0.06629134714603424,-0.997102677822113,0.03730914369225502,-0.052147358655929565,-0.048109233379364014,-0.030396699905395508
1.495623053666512,-2.07336852801345,1.151680268291042,-0.1087222546339035,0.18083837628364563,-0.07196016609668732,-0.06581924110651016,-0.9971758127212524,0.03617735207080841,-0.052985675632953644,-0.04490816593170166,-0.005369659513235092
1.4968220601378908,-2.0647940102903304,1.1446142833082982,-0.09217151254415512,0.11499889940023422,-0.08714684844017029,-0.06507238745689392,-0.9972651600837708,0.03504370525479317,-0.03333151340484619,-0.0378912091255188,0.002142190933227539
1.4980458129546346,-2.059695895622274,1.140254978673082,-0.07778176665306091,0.03998566418886185,-0.10070489346981049,-0.06417326629161835,-0.9973548650741577,0.034138601273298264,-0.010274320840835571,-0.03699284791946411,-0.0035140514373779297
1.499444361828216,-2.057043931204153,1.1378953846963389,-0.0863339751958847,0.026912737637758255,-0.13256561756134033,-0.06302987039089203,-0.9974555373191833,0.03331618756055832,-0.00870165228843689,-0.0450555682182312,-0.00659787654876709
1.5012262794266045,-2.054040080685737,1.1352781817560458,-0.10404367744922638,0.051523786038160324,-0.17651675641536713,-0.06155736744403839,-0.9975810050964355,0.032301660627126694,-0.023785032331943512,-0.038399457931518555,-0.003248687833547592
1.5034472061811908,-2.0517688014354034,1.133581263162768,-0.10626714676618576,0.05696489289402962,-0.20710822939872742,-0.05966564640402794,-0.9977328777313232,0.031136369332671165,-0.024394989013671875,-0.02465188503265381,-0.004204392433166504
1.5057871778920975,-2.051411294755787,1.133803058718705,-0.09304091334342957,0.059857893735170364,-0.21644553542137146,-0.05760715901851654,-0.9978876709938049,0.0300359558314085,-0.004206158220767975,-0.01999586820602417,-0.011236902326345444
1.5080583374943441,-2.0533854422353435,1.136491818921456,-0.08264473080635071,0.08164840936660767,-0.22040937840938568,-0.055538374930620193,-0.9980326294898987,0.029096897691488266,0.009197473526000977,-0.01785188913345337,-0.01786625385284424
1.5103345120799596,-2.055987023645668,1.1400942742503974,-0.09223154932260513,0.11861179023981094,-0.22089040279388428,-0.05345120280981064,-0.9981727600097656,0.028180882334709167,0.00982636958360672,-0.014766693115234375,-0.018018249422311783
1.5126542075126088,-2.0565838841193536,1.1421114861864476,-0.10550261288881302,0.1598670780658722,-0.21343061327934265,-0.05138590559363365,-0.9983102083206177,0.027131211012601852,0.018091268837451935,-0.010783970355987549,-0.010544782504439354
1.5149106767517908,-2.053823375045397,1.1411506279747474,-0.11355879157781601,0.20103369653224945,-0.18782582879066467,-0.0494682751595974,-0.9984387755393982,0.02594434842467308,0.029494553804397583,-0.006810367107391357,-0.012073874473571777
1.5169222455095484,-2.0459304656452155,1.1355196280020046,-0.1259792447090149,0.2474169135093689,-0.1505756676197052,-0.04788792133331299,-0.9985491633415222,0.024635545909404755,0.03584875911474228,1.3709068298339844e-05,-0.012535091489553452
1.518540295832306,-2.0319906041437803,1.1240559393128182,-0.1294882893562317,0.24240241944789886,-0.10908080637454987,-0.046778712421655655,-0.9986349940299988,0.023246077820658684,0.04990682005882263,0.003227710723876953,-0.0047370195388793945
1.5198180686675429,-2.0158569118029797,1.1101257929794313,-0.11280597746372223,0.1948431432247162,-0.08163613080978394,-0.04599688947200775,-0.9987009167671204,0.021939482539892197,0.061057355254888535,0.0023780465126037598,0.007281305268406868
1.5209754792655554,-2.0029192474669286,1.098787827121002,-0.08338109403848648,0.12421666085720062,-0.08957570791244507,-0.045227158814668655,-0.9987592101097107,0.02085844799876213,0.05186476930975914,-0.0004628300666809082,0.010834218934178352
1.5222167683582404,-1.9980576907528511,1.0948155861414826,-0.047723233699798584,0.05367245525121689,-0.1193850040435791,-0.044199854135513306,-0.9988202452659607,0.020124657079577446,0.033366139978170395,-0.005132019519805908,0.012498857453465462
1.523600499818396,-2.003956625466432,1.101013413341328,-0.007028770633041859,0.005762445740401745,-0.15031293034553528,-0.04282476007938385,-0.9988864660263062,0.01980437897145748,0.02510935068130493,-0.0051267147064208984,0.010545611381530762
1.5250030474322074,-2.0197183131919973,1.116744183720836,0.017438489943742752,-0.011377925053238869,-0.14635919034481049,-0.04124615713953972,-0.9989516735076904,0.019869355484843254,0.022279497236013412,0.004017353057861328,-0.0003989916294813156
1.52610366948238,-2.036859525705228,1.1338209685558973,0.0278913676738739,-0.00371549092233181,-0.09267644584178925,-0.03991521894931793,-0.9990014433860779,0.020078279078006744,0.036420971155166626,0.01451951265335083,-0.0023626089096069336
1.5266217415202694,-2.048066125429605,1.1450833521349677,0.018240338191390038,0.012340706773102283,-0.014459408819675446,-0.03922870755195618,-0.9990244507789612,0.020286953076720238,0.06167444586753845,0.01937955617904663,0.0036696195602416992
1.5266053133435393,-2.0474936505875543,1.14486743295821,-0.025860369205474854,0.06804315000772476,0.061913155019283295,-0.039256639778614044,-0.9990237355232239,0.02027292177081108,0.06913340091705322,0.022720396518707275,0.01128244586288929
1.5263518874005977,-2.0307409941236605,1.1288097412116875,-0.08632717281579971,0.06698215007781982,0.12831401824951172,-0.03981521725654602,-0.9990125298500061,0.01972365565598011,0.06300860643386841,0.019916951656341553,0.03348398208618164
1.525786871305016,-2.0048486833036696,1.1038129325270571,-0.0879216343164444,0.12347867339849472,0.1578650325536728,-0.040827054530382156,-0.9989872574806213,0.018924763426184654,0.04259711503982544,0.01807582378387451,0.0027581453323364258
1.5250693253204624,-1.977070859257427,1.0772939923036042,-0.11143921315670013,0.12655995786190033,0.13565108180046082,-0.041992101818323135,-0.998954713344574,0.01806538552045822,0.010711614042520523,0.0149306058883667,-0.007231475785374641
1.5246490154855477,-1.94385030580863,1.045291478724753,-0.1596764624118805,0.12452612817287445,0.11466602236032486,-0.04296107217669487,-0.9989354014396667,0.016814136877655983,-0.00034332275390625,0.012027323246002197,0.022553682327270508
1.524504340657645,-1.899093467930791,1.0015389077246737,-0.21730034053325653,0.07871096581220627,0.10152598470449448,-0.043808143585920334,-0.9989287257194519,0.014922075904905796,0.004318445920944214,0.006298542022705078,0.04258847236633301
1.5246497992380978,-1.8441200898915309,0.9469266063905862,-0.28238680958747864,0.006156339310109615,0.09815486520528793,-0.04441879317164421,-0.9989354610443115,0.012452355585992336,0.007065299898386002,0.008945167064666748,0.054335594177246094
1.5250036016739967,-1.776971530949967,0.8793997732836161,-0.3609154224395752,-0.06313085556030273,0.10116317123174667,-0.04480898752808571,-0.9989516735076904,0.00937167089432478,0.013787899166345596,0.01262354850769043,0.07827508449554443
1.525017603532892,-1.691236765519569,0.7927348807102633,-0.4545780420303345,-0.09177052974700928,0.12771761417388916,-0.04543394595384598,-0.998952329158783,0.005498697981238365,0.023995373398065567,0.021092772483825684,0.10547864437103271
1.5241323859741045,-1.586793027780473,0.6874000083232406,-0.5453394055366516,-0.05786103010177612,0.17782898247241974,-0.0466441847383976,-0.998911440372467,0.0007462166831828654,0.03275871276855469,0.03956073522567749,0.11755537986755371
1.5220696848936743,-1.4675977067092543,0.5677219519978236,-0.6244155168533325,-0.02014368586242199,0.21487458050251007,-0.04844895377755165,-0.9988130927085876,-0.005017690360546112,0.03822559863328934,0.048770368099212646,0.12394487857818604
1.5187752524754938,-1.3437048461086933,0.4434889095071014,-0.7124926447868347,-0.025670278817415237,0.2263924926519394,-0.0506647564470768,-0.9986472129821777,-0.011707483790814877,0.037206560373306274,0.051061034202575684,0.14590871334075928
1.5143478176949507,-1.2202241102343372,0.3193026668020847,-0.8297473788261414,-0.08248002082109451,0.23363593220710754,-0.05298830568790436,-0.9984071850776672,-0.019376609474420547,0.03322821855545044,0.06037306785583496,0.18780332803726196
1.5084996651090052,-1.0970852512667222,0.19460482852661698,-0.994825005531311,-0.19120784103870392,0.24154765903949738,-0.05540388077497482,-0.9980601668357849,-0.028402432799339294,0.03573533892631531,0.07668858766555786,0.2530272603034973
1.5007537909879347,-0.9758881895517111,0.07047708464557902,-1.1994824409484863,-0.34011244773864746,0.25845804810523987,-0.05796411633491516,-0.9975480437278748,-0.039223600178956985,0.05538540333509445,0.10326069593429565,0.3280726671218872
1.4904498128313948,-0.8631206074008821,-0.04684643660857509,-1.4414969682693481,-0.5015908479690552,0.31118810176849365,-0.0609893724322319,-0.9967739582061768,-0.05217612162232399,0.07527163624763489,0.1341334581375122,0.3829411268234253
1.4770601476022003,-0.7640179845181556,-0.15227977320830452,-1.7204793691635132,-0.6774611473083496,0.36794427037239075,-0.06475625932216644,-0.9956099987030029,-0.06758619099855423,0.07722270488739014,0.1574903130531311,0.42760223150253296
1.4603407873109577,-0.6785090750046489,-0.24576030921396677,-2.035633087158203,-0.8028856515884399,0.4036732316017151,-0.06918583810329437,-0.9939059615135193,-0.0858173742890358,0.07405343651771545,0.18132954835891724,0.4738485813140869
1.4401569940674444,-0.6050836567288067,-0.3279311356059406,-2.363374948501587,-0.804824709892273,0.4236210286617279,-0.0741012692451477,-0.9914788007736206,-0.1071406677365303,0.06093296408653259,0.21897196769714355,0.49663668870925903
1.416572786397402,-0.5423769242320636,-0.39912285626609356,-2.6731064319610596,-0.7430872917175293,0.43622177839279175,-0.07929115742444992,-0.9881311058998108,-0.13156750798225403,0.021002627909183502,0.27780383825302124,0.48419833183288574
1.3898149377554438,-0.49029384805965204,-0.459182300296481,-2.9482293128967285,-0.6844834089279175,0.458485871553421,-0.08475746214389801,-0.9836674928665161,-0.15879152715206146,-0.001363128423690796,0.32703590393066406,0.4702235460281372
1.3602235690539928,-0.44878466372663933,-0.5083799115334017,-3.1719789505004883,-0.6617645025253296,0.5106728672981262,-0.09068793058395386,-0.9779113531112671,-0.1883223056793213,0.025731295347213745,0.33670639991760254,0.4551529884338379
1.328149005763579,-0.4172236587547959,-0.5473896171644096,-3.3646907806396484,-0.6214678883552551,0.5897968411445618,-0.09736469388008118,-0.9707052707672119,-0.21966257691383362,0.05079492926597595,0.31685078144073486,0.43095117807388306
1.2939312045038132,-0.39340198999788095,-0.578364426009059,-3.5269782543182373,-0.5985963940620422,0.6396432518959045,-0.10478081554174423,-0.9619170427322388,-0.25246119499206543,0.042906470596790314,0.3003111481666565,0.42766281962394714
1.2580751845760254,-0.37478013918412456,-0.6040871979035252,-3.6537957191467285,-0.5954780578613281,0.6550968885421753,-0.11262043565511703,-0.9514999389648438,-0.28629451990127563,0.042536862194538116,0.2862624526023865,0.41861894726753235
1.221006388911836,-0.3598034975855195,-0.6261097122123943,-3.7522225379943848,-0.5701074600219727,0.6653604507446289,-0.12066169828176498,-0.9394447207450867,-0.3207564651966095,0.02707958221435547,0.26590633392333984,0.39821022748947144
1.1831989047113245,-0.34777754371609726,-0.6451573697958186,-3.781464099884033,-0.5818814039230347,0.6596906781196594,-0.12881417572498322,-0.9258198142051697,-0.3553377687931061,0.012664303183555603,0.2570421099662781,0.37364843487739563
1.1454260365263575,-0.33871385410817223,-0.6616608768018605,-3.740788459777832,-0.6350710988044739,0.6498814821243286,-0.1371157467365265,-0.9108859896659851,-0.3892122209072113,-0.007613837718963623,0.24139118194580078,0.32463717460632324
1.1082178883113367,-0.3324778789390591,-0.6758522121274351,-3.6594293117523193,-0.6739612221717834,0.6428645849227905,-0.1456521898508072,-0.8949048519134521,-0.4218185842037201,-0.019966691732406616,0.22606617212295532,0.27342700958251953
1.0718149491539675,-0.3281712034097744,-0.6881899002958911,-3.5786685943603516,-0.6307740211486816,0.6344399452209473,-0.1542365849018097,-0.8780704736709595,-0.452993780374527,-0.018096163868904114,0.19899320602416992,0.2163911759853363
1.0360513867424168,-0.3238988289421278,-0.6994279447165931,-3.5347602367401123,-0.4585362672805786,0.5997523069381714,-0.16219477355480194,-0.8603986501693726,-0.48312222957611084,-0.017172276973724365,0.1476452350616455,0.1518540382385254
1.0006248809931553,-0.3185463549938032,-0.7102265216036731,-3.524972677230835,-0.3151479661464691,0.5566577911376953,-0.16905061900615692,-0.8418084383010864,-0.5126211643218994,-0.04115442931652069,0.11599355936050415,0.11535876989364624
0.965375408498362,-0.31259245541626784,-0.7207799301617115,-3.5203487873077393,-0.26387491822242737,0.5179776549339294,-0.17501585185527802,-0.8222626447677612,-0.5415289998054504,-0.0452294647693634,0.10107117891311646,0.10143512487411499
0.9302334572884727,-0.3072682702011439,-0.7310776218454217,-3.519519567489624,-0.35524851083755493,0.47929418087005615,-0.18076185882091522,-0.8017594814300537,-0.5696550607681274,-0.046334683895111084,0.08371126651763916,0.10732913017272949
0.8951255791240693,-0.3033117186670777,-0.7411962563280303,-3.5285778045654297,-0.4457109570503235,0.4488326609134674,-0.1868022084236145,-0.7802876234054565,-0.5968720316886902,-0.04182019829750061,0.07418704032897949,0.10701930522918701
0.8600177917402628,-0.30056694061905526,-0.7511155548915137,-3.5273609161376953,-0.5283536314964294,0.4233398139476776,-0.1931578367948532,-0.757854163646698,-0.6231751441955566,-0.039782822132110596,0.07224613428115845,0.08972799777984619
0.8252526600829947,-0.29897634655215766,-0.7609522435501813,-3.469255208969116,-0.6118782162666321,0.37077873945236206,-0.1998089700937271,-0.7347192168235779,-0.6482778787612915,-0.051320165395736694,0.07639390230178833,0.041908979415893555
0.7915400418708438,-0.29777073097385537,-0.7711429711866925,-3.360874652862549,-0.6049587726593018,0.2526683211326599,-0.20617984235286713,-0.71143639087677,-0.67182457447052,-0.07429194450378418,0.06441783905029297,-0.03407740592956543
0.7594011043076837,-0.2956823617249459,-0.7824275953112795,-3.2375810146331787,-0.5526145696640015,0.07801707834005356,-0.21133208274841309,-0.6884872317314148,-0.6937752366065979,-0.11377163231372833,0.047312796115875244,-0.08614706993103027
0.7287603378267015,-0.2922151322456806,-0.7953764900633612,-3.1669955253601074,-0.5084750652313232,-0.12659384310245514,-0.21490348875522614,-0.6659453511238098,-0.7143762111663818,-0.15937933325767517,0.038854777812957764,-0.11243647336959839
0.6989869367932547,-0.28748171780025983,-0.8103761492120021,-3.176142692565918,-0.512012243270874,-0.34203192591667175,-0.21704693138599396,-0.6434425115585327,-0.7340793013572693,-0.18740251660346985,0.035181283950805664,-0.08786582946777344
0.6690320907833418,-0.28200573738918316,-0.8274688447012682,-3.3183088302612305,-0.5451787710189819,-0.5008836388587952,-0.21829119324684143,-0.620227038860321,-0.7534371018409729,-0.19482523202896118,0.042147696018218994,-0.012080967426300049
0.6377285509913045,-0.27670804698662066,-0.8462452107558108,-3.492445707321167,-0.6982485055923462,-0.6366647481918335,-0.21949489414691925,-0.5953719615936279,-0.7728869915008545,-0.16594210267066956,0.07005751132965088,0.07389718294143677
0.6053013434689133,-0.2731350448418929,-0.8663890244827259,-3.6031386852264404,-0.9168671369552612,-0.7487391233444214,-0.2218250185251236,-0.5690099000930786,-0.7918468713760376,-0.12227591872215271,0.12981605529785156,0.07820862531661987
0.5723064438147653,-0.2715208602977409,-0.887252206896099,-3.652641534805298,-1.0577096939086914,-0.8040658235549927,-0.22546082735061646,-0.5415723919868469,-0.8098560571670532,-0.09396664798259735,0.14575928449630737,0.018062293529510498
0.5394799409546062,-0.27117069510067676,-0.9077551925360551,-3.565704107284546,-0.9948398470878601,-0.7755547761917114,-0.22981704771518707,-0.5136898756027222,-0.826623797416687,-0.06898054480552673,0.14847064018249512,-0.04959684610366821
0.5078268782020081,-0.26982642226582965,-0.926868464107414,-3.3884057998657227,-0.6082623600959778,-0.7161991000175476,-0.23292464017868042,-0.48627951741218567,-0.842186689376831,-0.087082639336586,0.16209116578102112,-0.17612379789352417
0.4780227850472239,-0.2649362446358543,-0.9444113112724171,-3.156052589416504,-0.07601924240589142,-0.6922026872634888,-0.2324962466955185,-0.46002450585365295,-0.8569265007972717,-0.15767095983028412,0.1829552948474884,-0.196677565574646
0.45056616922746767,-0.2566405857037753,-0.9605963198109717,-2.868807792663574,0.24497048556804657,-0.680042564868927,-0.22850029170513153,-0.43547526001930237,-0.870717465877533,-0.23823551833629608,0.2236221432685852,-0.19370508193969727
0.4259823630868095,-0.247186613714397,-0.9753665117365363,-2.5355582237243652,0.389568954706192,-0.6813603043556213,-0.22281107306480408,-0.4132155478000641,-0.8829542398452759,-0.22263872623443604,0.20774057507514954,-0.23084580898284912
0.40468559965117284,-0.23767593560950864,-0.9888658039902597,-2.174199104309082,0.3914286196231842,-0.6829003691673279,-0.2164267897605896,-0.3937297761440277,-0.8933847546577454,-0.1663399040699005,0.17542216181755066,-0.28067219257354736
0.38693974219841465,-0.23003570635878776,-1.0009002883944655,-1.7761820554733276,0.18990936875343323,-0.6463594436645508,-0.21115493774414062,-0.3773561716079712,-0.9016739726066589,-0.1286430060863495,0.16936349868774414,-0.3149549961090088
0.3730772881478192,-0.22557517556228038,-1.0110866679756438,-1.3384493589401245,-0.03593973442912102,-0.5631006956100464,-0.20828098058700562,-0.3644827604293823,-0.907618522644043,-0.0633101612329483,0.17417505383491516,-0.37334150075912476
0.3634104039547432,-0.22303585623790406,-1.0192330055684224,-0.880014955997467,8.404813706874847e-05,-0.49059852957725525,-0.20674529671669006,-0.3554639518260956,-0.9115381240844727,-0.01900845766067505,0.17260253429412842,-0.44231313467025757
0.35802783818692385,-0.21918460557655742,-1.0256092651041473,-0.4327152371406555,0.3543950021266937,-0.4372938871383667,-0.20364627242088318,-0.3504278063774109,-0.9141818881034851,-0.025815367698669434,0.15995222330093384,-0.4889400005340576
0.3566728672912786,-0.21150654518528436,-1.0304301707139305,-0.03299340605735779,0.8410131335258484,-0.3842165768146515,-0.19672070443630219,-0.3491584360599518,-0.9161819815635681,-0.05953538417816162,0.14980223774909973,-0.5067611336708069
0.3586006754740777,-0.19987585856076695,-1.0338192262958013,0.2624393403530121,1.2183383703231812,-0.3095000982284546,-0.18591782450675964,-0.3509642779827118,-0.9177464842796326,-0.08713820576667786,0.14307841658592224,-0.48294925689697266
0.3624787563977341,-0.1858976842924576,-1.0358280643819302,0.40779998898506165,1.4023993015289307,-0.20692205429077148,-0.17281879484653473,-0.3545930087566376,-0.9189110398292542,-0.07657082378864288,0.1521393060684204,-0.44803231954574585
0.3667989131324438,-0.17097266324447008,-1.0368975437723513,0.3853827118873596,1.492592692375183,-0.1529630422592163,-0.158823162317276,-0.35862913727760315,-0.9198697805404663,-0.04071599245071411,0.1509874165058136,-0.3995577096939087
0.3700796716992878,-0.15590833448290406,-1.0380046767095559,0.20712639391422272,1.3942182064056396,-0.16515125334262848,-0.1447649747133255,-0.3616897165775299,-0.9209905862808228,-0.010630503296852112,0.11869332194328308,-0.3161919116973877
0.37104179452602787,-0.14282666312174336,-1.0398015741460924,-0.0686049610376358,1.089633584022522,-0.1864623874425888,-0.13265523314476013,-0.36258652806282043,-0.9224606156349182,0.03054344654083252,0.07575169205665588,-0.210412859916687
0.3694743145808607,-0.13236564495211248,-1.0417475947182082,-0.272553026676178,0.8663970828056335,-0.11958348751068115,-0.12307313084602356,-0.36112526059150696,-0.9243600964546204,0.10389286279678345,0.024012744426727295,-0.12542933225631714
0.36637966022220436,-0.12450853038085673,-1.042807259443971,-0.350845605134964,0.6215011477470398,-0.0018116618739441037,-0.11594484001398087,-0.35823771357536316,-0.9264029860496521,0.14121341705322266,-0.003136277198791504,-0.10139846801757812
0.36284666871790583,-0.11948086557836542,-1.04276450601507,-0.3417495787143707,0.40643441677093506,0.08604522794485092,-0.1114359125494957,-0.35493698716163635,-0.9282251000404358,0.12042337656021118,0.0072806477546691895,-0.1305517554283142
0.35945746873699963,-0.11628331009257839,-1.042043152967931,-0.3145505487918854,0.29094621539115906,0.11788070201873779,-0.1086062416434288,-0.351766437292099,-0.9297661185264587,0.09249299764633179,0.021535605192184448,-0.15461492538452148
0.35620473900637606,-0.11439747368658344,-1.0411664513612464,-0.31885313987731934,0.16396379470825195,0.11728335916996002,-0.10698270797729492,-0.3487197458744049,-0.9311010837554932,0.0674777403473854,0.010218650102615356,-0.14172905683517456
0.3522744509995552,-0.11420973122250133,-1.0402629712725318,-0.4316123127937317,-0.15234702825546265,0.15200157463550568,-0.10696326196193695,-0.3450334668159485,-0.9324756264686584,0.07656779140233994,-0.01923966407775879,-0.05624806880950928
0.3477153233286087,-0.11815530541653887,-1.0386879544282253,-0.41229960322380066,-0.413497656583786,0.23646825551986694,-0.11082585901021957,-0.3407507538795471,-0.9335986971855164,0.11802803725004196,-0.05756479501724243,-0.05446887016296387
0.3439513128767673,-0.1214412687073809,-1.036798388077784,-0.28782880306243896,-0.10221251845359802,0.1905239075422287,-0.1140475943684578,-0.3372096121311188,-0.9344960451126099,0.05319558084011078,-0.05411738157272339,-0.21481114625930786
0.34138914223154493,-0.12123065315374,-1.035686403933357,-0.20589931309223175,0.21810370683670044,0.07620052993297577,-0.11395488679409027,-0.33479639887809753,-0.9353746175765991,-0.06219252943992615,-0.04600203037261963,-0.2599530816078186
0.3393310518234199,-0.11777324355544601,-1.0357218806857649,-0.21236757934093475,0.4433578848838806,-0.026988249272108078,-0.11080096662044525,-0.33285635709762573,-0.9364452958106995,-0.08208534866571426,-0.05136004090309143,-0.23355287313461304
0.33694410656046636,-0.11327355657189433,-1.0364582124041444,-0.2805791199207306,0.3548988401889801,-0.04660136252641678,-0.1066756471991539,-0.33060458302497864,-0.9377211332321167,-0.06271211802959442,-0.06330111622810364,-0.11852270364761353
0.3338078154008707,-0.11126108528092955,-1.0371184612915283,-0.34792184829711914,-0.008565649390220642,-0.0032259360887110233,-0.10490290820598602,-0.3276430368423462,-0.9389597773551941,-0.008652955293655396,-0.05861803889274597,-0.007405519485473633
0.3301498900437205,-0.1131875574665642,-1.0372546560242626,-0.37714630365371704,-0.3757114112377167,0.05951867252588272,-0.10684624314308167,-0.3241848349571228,-0.9399404525756836,0.04629939794540405,-0.05150192975997925,0.04634004831314087
0.32618674155295174,-0.11888121604761998,-1.0368031978621548,-0.40106502175331116,-0.7358930706977844,0.11065369099378586,-0.11234767735004425,-0.3204331696033478,-0.9405852556228638,0.06467926502227783,-0.0462813675403595,0.08560484647750854
0.3217842037105471,-0.12817366219333112,-1.0361579012147348,-0.4570997953414917,-1.0585483312606812,0.11521036177873611,-0.12126218527555466,-0.3162596821784973,-0.9408906698226929,0.04527345299720764,-0.04107072949409485,0.12694114446640015
0.31672748131236245,-0.1398637738340372,-1.0357903379928226,-0.533263087272644,-1.2231987714767456,0.08517993241548538,-0.13247402012348175,-0.3114584982395172,-0.9409804940223694,0.028470158576965332,-0.03476354479789734,0.15033107995986938
0.31097838642056674,-0.15211758010594162,-1.0361344557974363,-0.6117464303970337,-1.2214635610580444,0.006594045087695122,-0.14426332712173462,-0.3059902489185333,-0.9410409331321716,0.019614309072494507,-0.037012189626693726,0.1537637710571289
0.30448630799216,-0.16339154214125481,-1.037873866521149,-0.7225130796432495,-1.1233906745910645,-0.1357024908065796,-0.1551830768585205,-0.29980313777923584,-0.9412950277328491,-0.022658079862594604,-0.04821941256523132,0.17560899257659912
0.296863562231386,-0.17289359963577108,-1.0415414995312557,-0.8986310958862305,-0.9927921891212463,-0.2949986755847931,-0.16450855135917664,-0.2925224006175995,-0.9420019388198853,-0.05805611610412598,-0.047382473945617676,0.22180235385894775
0.28751831893908947,-0.1802101974118005,-1.0472448516850459,-1.1282739639282227,-0.7721146941184998,-0.4510986804962158,-0.17187881469726562,-0.28357329964637756,-0.9434213638305664,-0.0631370097398758,-0.0224112868309021,0.2773600220680237
0.27612655881892917,-0.18470776313670717,-1.055061452389132,-1.3816910982131958,-0.567222535610199,-0.613298773765564,-0.17670202255249023,-0.2726309895515442,-0.9457529783248901,-0.05710838735103607,0.0016195476055145264,0.3359050154685974
0.26248633209751904,-0.187256897947877,-1.0652085617833482,-1.6525949239730835,-0.4992845058441162,-0.8043913245201111,-0.17978790402412415,-0.2594825327396393,-0.9488651752471924,-0.03993862867355347,0.01824098825454712,0.3882572650909424
0.2466387602050502,-0.18984793222307275,-1.0779995716877004,-1.9102550745010376,-0.6959618330001831,-1.0268808603286743,-0.18299894034862518,-0.24414582550525665,-0.9523152112960815,-0.011504828929901123,0.019414275884628296,0.42268264293670654
0.22873387807109669,-0.19515684437408787,-1.093512171319297,-2.1648008823394775,-1.0896718502044678,-1.239092230796814,-0.18886961042881012,-0.22674456238746643,-0.9554659724235535,0.007305309176445007,0.014067471027374268,0.40994900465011597
0.20885092283396953,-0.20405687735362824,-1.1115205801507813,-2.411254405975342,-1.4766970872879028,-1.4013031721115112,-0.19824020564556122,-0.2073359340429306,-0.9579731822013855,0.013685181736946106,0.01419009268283844,0.4023396372795105
0.1871707200999739,-0.21795361726389434,-1.1313690690542288,-2.6188924312591553,-2.099923610687256,-1.481024980545044,-0.21245554089546204,-0.18607978522777557,-0.9592898488044739,0.030052006244659424,0.03539915382862091,0.4001010060310364
0.16427164872905053,-0.2384381682764335,-1.1521117370746372,-2.739039897918701,-2.6860203742980957,-1.4345669746398926,-0.23300568759441376,-0.16353382170200348,-0.9586266279220581,0.03499242663383484,0.048955515027046204,0.3558587431907654
0.14061407905034923,-0.26406003718149096,-1.1722962738867153,-2.8030152320861816,-2.996542453765869,-1.2322237491607666,-0.2584259510040283,-0.14015115797519684,-0.9558104872703552,0.03824165463447571,0.09690767526626587,0.2547149062156677
0.11672827613818748,-0.2919819365566369,-1.1908182733246278,-2.771561622619629,-2.990764617919922,-0.9905017018318176,-0.2858920097351074,-0.11646337807178497,-0.9511582851409912,0.05206632614135742,0.1450124979019165,0.1993577480316162
0.09340668271820246,-0.3180713294176901,-1.2078673600471055,-2.6728310585021973,-2.5025572776794434,-0.8493586182594299,-0.31137192249298096,-0.0932709127664566,-0.9456997513771057,0.010514408349990845,0.14783626794815063,0.10770231485366821
0.07135934543969254,-0.3389470289586445,-1.2238693605302584,-2.5036613941192627,-1.9573944807052612,-0.7329822182655334,-0.3316480219364166,-0.07129880040884018,-0.9407051205635071,-0.050676167011260986,0.157571941614151,0.03886491060256958
0.05082417008565008,-0.3561836446825904,-1.2378302323993504,-2.282999277114868,-1.6611976623535156,-0.450654000043869,-0.3482497036457062,-0.05080229043960571,-0.9360241889953613,-0.07257243990898132,0.18532371520996094,-0.027965068817138672
0.031474109795039375,-0.37090266073447814,-1.2480635485661342,-2.037346601486206,-1.392928123474121,-0.09494726359844208,-0.3622773587703705,-0.031468912959098816,-0.9315389394760132,-0.001827836036682129,0.25081396102905273,-0.09874969720840454
0.01385694092488605,-0.38506392651694016,-1.2549159013592757,-1.727304220199585,-1.4802886247634888,0.09875724464654922,-0.37558233737945557,-0.013856497593224049,-0.9266854524612427,0.031450867652893066,0.199494868516922,-0.15391147136688232
-0.0013897963666377059,-0.39964399820176505,-1.259935281238106,-1.4728277921676636,-1.3950512409210205,0.11956425756216049,-0.38909003138542175,0.0013897959142923355,-0.9211986660957336,-0.03417348861694336,0.09043754637241364,-0.20244330167770386
-0.014532636710948945,-0.41180017005132347,-1.2644363236110623,-1.2957770824432373,-0.9746659398078918,0.09537174552679062,-0.4002173840999603,0.014532125554978848,-0.9163050055503845,-0.062383294105529785,0.0670870840549469,-0.11799675226211548
-0.02637779459011701,-0.41856325694933366,-1.2682486463822884,-1.178892731666565,-0.3449457883834839,0.18396978080272675,-0.40630677342414856,0.026374734938144684,-0.9133560061454773,-0.05516478419303894,0.05693820118904114,-0.054051220417022705
-0.038078621801474144,-0.41906391076154226,-1.2702318934209813,-1.1202819347381592,0.2381701022386551,0.41849449276924133,-0.4066105782985687,0.03806941956281662,-0.9128080606460571,0.010126203298568726,0.017899781465530396,-0.013278365135192871
-0.050486726278712604,-0.413973716201187,-1.269418145742727,-1.0771044492721558,0.7764468789100647,0.7403100728988647,-0.4017380177974701,0.050465282052755356,-0.9143630862236023,0.036000072956085205,0.039088502526283264,-0.003086864948272705
-0.06382596212359651,-0.4030833608727677,-1.265153344064298,-1.0217325687408447,1.3470805883407593,1.0968897342681885,-0.391457736492157,0.06378263235092163,-0.9179829359054565,0.03403589129447937,0.04257107526063919,-0.010331273078918457
-0.07776767181532089,-0.386449238027742,-1.2573172520197278,-0.9464777112007141,1.8153585195541382,1.3953959941864014,-0.3757627606391907,0.07768930494785309,-0.923453688621521,0.027404606342315674,-0.02033156156539917,-0.038704514503479004
-0.09179753739945776,-0.36640027254396934,-1.246987300585022,-0.905730128288269,1.9819902181625366,1.5157920122146606,-0.3567485511302948,0.09166866540908813,-0.9296920895576477,0.014799118041992188,-0.023660294711589813,-0.1520797610282898
-0.10546924426893002,-0.34499350928060774,-1.2358114130993016,-0.8674178719520569,2.073551893234253,1.5133320093154907,-0.33631134033203125,0.10527382045984268,-0.9358483552932739,-0.02373504638671875,0.009579047560691833,-0.23920047283172607
