attitudeX,attitudeY,attitudeZ,gyroX,gyroY,gyroZ,gravityX,gravityY,gravityZ,accX,accY,accZ
0.910316673012267,0.22506294425910353,2.5024654695916957,0.055170509964227676,0.18914054334163666,0.21819500625133514,0.13691242039203644,-0.78969806432724,-0.5980232954025269,0.010670378804206848,-0.024876952171325684,0.0844428539276123
0.9108898454539807,0.2232971941655407,2.5060341366656083,-0.03551558032631874,0.027330443263053894,0.2315400093793869,0.1357560157775879,-0.7900495529174805,-0.5978227257728577,0.03720216453075409,-0.03548133373260498,0.13233792781829834
0.9108735253844777,0.21991309108654267,2.5099031986746727,-0.05982198566198349,-0.08716843277215958,0.22897298634052277,0.13373495638370514,-0.7900395393371582,-0.5982913374900818,0.044762179255485535,-0.056105971336364746,0.12406319379806519
0.9111129402749499,0.21571080706935877,2.5135884064175267,0.02155773527920246,-0.1689552217721939,0.2247372567653656,0.1311790943145752,-0.7901862859725952,-0.5986632108688354,0.04281666874885559,-0.06834930181503296,0.0699307918548584
0.9125822214187697,0.21113353370484822,2.5168437782574267,0.18843752145767212,-0.22711226344108582,0.2310446798801422,0.12819404900074005,-0.791085958480835,-0.5981215238571167,0.053232744336128235,-0.07472813129425049,-0.009514153003692627
0.9159023321946335,0.20642641647363705,2.5197856478009917,0.3868495523929596,-0.242048978805542,0.2613217234611511,0.1248381957411766,-0.7931125164031982,-0.5961443781852722,0.06687305867671967,-0.08341330289840698,-0.08307027816772461
0.9209736061422101,0.2017604362017835,2.5228202736275955,0.5187188982963562,-0.20323260128498077,0.30886900424957275,0.12124767154455185,-0.7961910963058472,-0.5927721261978149,0.07398836314678192,-0.09603601694107056,-0.12352138757705688
0.9269227534624519,0.1971789060941329,2.526400005459055,0.5511325597763062,-0.14343447983264923,0.3475387990474701,0.11760058999061584,-0.7997764945030212,-0.5886661410331726,0.07675042003393173,-0.11788707971572876,-0.1082945466041565
0.9327873268460102,0.19271465753902284,2.5304080689875725,0.5008155703544617,-0.1156446561217308,0.33792370557785034,0.11407119780778885,-0.803283154964447,-0.5845716595649719,0.08288905769586563,-0.14776653051376343,-0.0515369176864624
0.9378797724641746,0.1888460233732505,2.5341333863910576,0.4160119891166687,-0.051764801144599915,0.29477831721305847,0.11103945970535278,-0.8063058257102966,-0.5809829235076904,0.0738663598895073,-0.17893880605697632,0.016392290592193604
0.9420488385136991,0.185729869380346,2.537730352908392,0.32306021451950073,0.007810376584529877,0.27923426032066345,0.10860680788755417,-0.8087647557258606,-0.5780174732208252,0.0793507844209671,-0.23011451959609985,0.059645652770996094
0.9452178491339209,0.18323292344249595,2.5412938852754348,0.22334502637386322,0.07835948467254639,0.2469598650932312,0.10669563710689545,-0.8106245398521423,-0.5757637619972229,0.13044100999832153,-0.2907089591026306,0.07936471700668335
0.9472798282183491,0.18205264281077857,2.5446695477714294,0.11009569466114044,0.24586699903011322,0.22102653980255127,0.10571315139532089,-0.8118302226066589,-0.5742442011833191,0.13604691624641418,-0.3067914843559265,0.10114526748657227
0.9482198839939936,0.18277366590011046,2.548203663433402,-0.002007173839956522,0.4771503806114197,0.2258518636226654,0.10598839819431305,-0.8123787641525269,-0.573417067527771,0.12460222095251083,-0.3025197982788086,0.11122822761535645
0.9481513996647045,0.18509921987344782,2.5526952124472895,-0.10827714949846268,0.7175307273864746,0.29229798913002014,0.10733187198638916,-0.8123388290405273,-0.5732237696647644,0.12731759250164032,-0.3188256025314331,0.12157869338989258
0.9472675164775286,0.18800357322665118,2.5588647548529146,-0.19375696778297424,0.8393983244895935,0.3863978087902069,0.10913042724132538,-0.8118230104446411,-0.5736148357391357,0.1457979679107666,-0.33321166038513184,0.15076303482055664
0.9460753041696337,0.18914120182628733,2.566958430905613,-0.21006643772125244,0.6548711061477661,0.5007968544960022,0.10996481776237488,-0.8111262917518616,-0.5744404792785645,0.1685231626033783,-0.3461154103279114,0.2059863805770874
0.945150270474815,0.1841755247705198,2.576955271851995,-0.1811761111021042,-0.05309617146849632,0.6104885935783386,0.10724835097789764,-0.8105849623680115,-0.5757168531417847,0.18449951708316803,-0.346824586391449,0.28142040967941284
0.9456909647545682,0.17078595190981244,2.588815032231574,0.06943853199481964,-0.6987585425376892,0.8071023225784302,0.09945585578680038,-0.8109014630317688,-0.5766692161560059,0.12178115546703339,-0.29777151346206665,0.40059781074523926
0.9502067249520594,0.14721472122145715,2.604330910795895,0.565640926361084,-1.5453699827194214,1.1312751770019531,0.08529867231845856,-0.813535749912262,-0.5752249360084534,0.1910683512687683,-0.3849504590034485,0.35616958141326904
0.960426534919797,0.11253032241480392,2.623129909201697,1.1610316038131714,-2.231428861618042,1.2395408153533936,0.0643630251288414,-0.8194361329078674,-0.569545328617096,0.2888167202472687,-0.525626003742218,0.2679551839828491
0.9749792707017532,0.07511084822446526,2.640893722802775,1.5143424272537231,-2.2665414810180664,1.0097438097000122,0.042111482471227646,-0.8276902437210083,-0.5596030354499817,0.24347183108329773,-0.49954962730407715,0.24846088886260986
0.9909557191324373,0.04279706203000837,2.6535255723458273,1.5628719329833984,-2.1033339500427246,0.5597981810569763,0.023440951481461525,-0.8365499973297119,-0.5473889112472534,0.09096924960613251,-0.48090898990631104,0.25980639457702637
1.0059327476827649,0.01886911448448605,2.6584074955707218,1.4000660181045532,-1.8425606489181519,0.07176915556192398,0.01010004710406065,-0.8446616530418396,-0.5352051854133606,-0.07749831676483154,-0.49556344747543335,0.36366569995880127
1.0186941084253198,0.005236460547919416,2.6558807052429936,1.1541508436203003,-1.2748463153839111,-0.28679031133651733,0.002746397163718939,-0.8514238595962524,-0.52447110414505,-0.08102419227361679,-0.5303967595100403,0.5012623071670532
1.0288229928940624,0.00256324316716405,2.6483309140693096,0.8715255856513977,-0.5554665923118591,-0.474054217338562,0.0013221900444477797,-0.8566924333572388,-0.5158258676528931,-0.004511468578130007,-0.5360229015350342,0.5199150443077087
1.0360399826312694,0.008410277553538863,2.6381502180072265,0.5880504846572876,-0.09370745718479156,-0.5531434416770935,0.004286091774702072,-0.8603928089141846,-0.5096134543418884,0.0909285694360733,-0.4626203775405884,0.5731966495513916
1.0414637067901933,0.015537026838642047,2.6274628931736075,0.5435879230499268,-0.371833473443985,-0.4977506101131439,0.00784522108733654,-0.8631442785263062,-0.5048964619636536,0.2025580257177353,-0.3823695182800293,0.687757670879364
1.0474365523959148,0.01618834801938587,2.6199734654297493,0.6783188581466675,-0.7933458089828491,-0.19117867946624756,0.008090470917522907,-0.8661448955535889,-0.49972760677337646,0.28275710344314575,-0.35625189542770386,0.7628499865531921
1.0553670941386974,0.004156124885471396,2.622248010825094,0.9209417104721069,-1.211889386177063,0.46574389934539795,0.0020485830027610064,-0.8700812458992004,-0.4929041266441345,0.4742390513420105,-0.2718711495399475,0.7868645191192627
1.0659266683350748,-0.024105495706108378,2.6391924927265786,1.2135021686553955,-1.460711121559143,1.146995186805725,-0.01165853999555111,-0.8752375245094299,-0.48355287313461304,0.6450811624526978,-0.06967812776565552,0.7045152187347412
1.0787778315632994,-0.06530678856088529,2.6691676001074693,1.4770368337631226,-1.4861763715744019,1.573470115661621,-0.03082939237356186,-0.881381094455719,-0.4713989496231079,0.6007297039031982,0.045611560344696045,0.6151213049888611
1.0927318219507223,-0.11333239192095462,2.7082350170642098,1.614913821220398,-1.1582632064819336,1.7882146835327148,-0.05202833190560341,-0.8878870606422424,-0.45711013674736023,0.3597978949546814,0.08750259876251221,0.5115228295326233
1.1068885013574226,-0.1612321280763,2.7519793202229903,1.745254635810852,-0.6208392381668091,1.7095489501953125,-0.07183056324720383,-0.8943107724189758,-0.44164302945137024,0.12181815505027771,0.19516843557357788,0.4391862154006958
1.1217401636149378,-0.20091330812028294,2.7915478965261045,1.7884646654129028,-0.2778475284576416,1.1336501836776733,-0.08663398772478104,-0.9008572101593018,-0.42538318037986755,-0.23657789826393127,0.3138211965560913,0.3699325919151306
1.1372425852497206,-0.22851951827234293,2.8172219529781923,1.6899908781051636,-0.7169025540351868,0.36813753843307495,-0.09516733139753342,-0.9074785709381104,-0.40917709469795227,-0.5951405167579651,0.2931140065193176,0.37719446420669556
1.1521117930735736,-0.2506036050416432,2.828392402572671,1.3813482522964478,-1.699013590812683,-0.12369398772716522,-0.10082205384969711,-0.9136245250701904,-0.39385926723480225,-0.7083669900894165,0.19118201732635498,0.5659934878349304
1.1633183807651124,-0.2744251385016309,2.8304827828621013,0.7788746356964111,-2.6575095653533936,-0.24975168704986572,-0.10739338397979736,-0.9181232452392578,-0.38146597146987915,-0.6026745438575745,0.18249714374542236,0.7726248502731323
1.1672064290750064,-0.30168024725028675,2.827825350873835,-0.12420590221881866,-3.2367191314697266,-0.15022403001785278,-0.1166875883936882,-0.9196571111679077,-0.37498635053634644,-0.4750789403915405,0.29490137100219727,0.7897963523864746
1.1615925287555584,-0.32965166691267656,2.8219238391996346,-1.071268916130066,-3.410276412963867,0.07903385162353516,-0.12879876792430878,-0.9174379110336304,-0.3764551877975464,-0.43428128957748413,0.4535555839538574,0.6544244289398193
1.147481343670543,-0.3584915028351434,2.8163299778312476,-1.6794555187225342,-3.392939805984497,0.4736386835575104,-0.14412881433963776,-0.9117321968078613,-0.3846701383590698,-0.46056193113327026,0.6015212535858154,0.3339650630950928
1.1288744204064185,-0.39338003486620626,2.8171941024762206,-1.674108624458313,-3.4670939445495605,0.9633501768112183,-0.1639341413974762,-0.9039313793182373,-0.3950110077857971,-0.4480045437812805,0.7319954633712769,-0.15924936532974243
1.1115715724556077,-0.43969820970361556,2.8286483881306554,-1.0159482955932617,-3.7646615505218506,1.3155966997146606,-0.18867798149585724,-0.8963963985443115,-0.4010910093784332,-0.41300681233406067,0.8419379591941833,-0.7338120937347412
1.1010197719510202,-0.49854378126654547,2.8507351565129055,0.046836040914058685,-4.052526950836182,1.3664460182189941,-0.21645089983940125,-0.8916694521903992,-0.3975857198238373,-0.48153209686279297,0.8797220587730408,-1.2964603900909424
1.0993475398241304,-0.5661231434304932,2.8810293144493895,1.015368103981018,-4.014273643493652,1.1326117515563965,-0.24360445141792297,-0.8909112215042114,-0.3833197057247162,-0.6571831703186035,0.7953761219978333,-1.7639429569244385
1.1045946668987667,-0.6315345418643511,2.912567700722245,1.354270339012146,-3.377777338027954,0.6066483855247498,-0.2653755247592926,-0.8932820558547974,-0.36279869079589844,-0.7679956555366516,0.6304953694343567,-1.9802495241165161
1.1116950060276274,-0.6783019033392034,2.933860463986577,0.8202576041221619,-2.0731143951416016,0.05367383733391762,-0.2780595123767853,-0.8964511156082153,-0.34504833817481995,-0.8223741054534912,0.3909122943878174,-1.8875415325164795
1.1149942730007913,-0.6907275745158334,2.9347000135284214,-0.24237461388111115,-0.2800711393356323,-0.414339542388916,-0.2804395258426666,-0.8979082703590393,-0.33928513526916504,-0.7705097794532776,0.18794745206832886,-1.569391131401062
1.1142559296118304,-0.6680394313087222,2.915245867929751,-0.8940070271492004,1.295919418334961,-0.8205747008323669,-0.2730807662010193,-0.8975830078125,-0.34608015418052673,-0.6672881245613098,0.11372393369674683,-1.3532912731170654
1.1122811213245243,-0.6214283343470617,2.8846841706659996,-0.9647248387336731,2.482534885406494,-1.0600848197937012,-0.2576904296875,-0.8967106938362122,-0.3598688840866089,-0.5682222843170166,0.1907781958580017,-1.4287207126617432
1.1118520269562433,-0.568371570469552,2.856163442723305,-0.4719918966293335,2.9291059970855713,-0.9466975331306458,-0.238450288772583,-0.8965206742286682,-0.37335240840911865,-0.4494314193725586,0.30461716651916504,-1.5912930965423584
1.115052293234704,-0.524995149638724,2.8397398518243673,0.2752932608127594,2.7547149658203125,-0.6079534292221069,-0.2205972969532013,-0.8979337811470032,-0.38085654377937317,-0.2276756465435028,0.4572753310203552,-1.6561307907104492
1.1227161084516453,-0.49841678708054843,2.8387998476996836,1.0103381872177124,2.4110794067382812,-0.22324833273887634,-0.2071022391319275,-0.9012804627418518,-0.3805288076400757,-0.05231267213821411,0.5486652255058289,-1.5848033428192139
1.1345749047722975,-0.4871693890676738,2.851624213046673,1.578749179840088,2.1911118030548096,0.048115186393260956,-0.19779182970523834,-0.9063546657562256,-0.37336283922195435,-0.025246143341064453,0.5884988903999329,-1.4830979108810425
1.14953049370596,-0.48531972641796245,2.8736078389403006,1.8944905996322632,2.2211997509002686,0.1482495218515396,-0.19075576961040497,-0.9125720262527466,-0.36169686913490295,-0.12005077302455902,0.5936022996902466,-1.4196600914001465
1.1660551778045998,-0.4847268617058699,2.8987343768811735,1.9598495960235596,2.5394599437713623,0.07084450125694275,-0.1834888756275177,-0.9192043542861938,-0.3484184145927429,-0.2978346049785614,0.5753017663955688,-1.371018409729004
1.183250087684576,-0.4778674623865226,2.9212580490769944,1.8999314308166504,3.002802610397339,-0.13321515917778015,-0.1737992763519287,-0.9258391857147217,-0.3355824947357178,-0.5220627188682556,0.5763520002365112,-1.3187602758407593
1.20068902242293,-0.4610454282005629,2.9379883089587735,1.7799996137619019,3.481052875518799,-0.3408527672290802,-0.16092169284820557,-0.9322885274887085,-0.32394808530807495,-0.7156349420547485,0.5943522453308105,-1.2725028991699219
1.2179636287263695,-0.4334023526070692,2.9482985770354224,1.675674319267273,3.9900355339050293,-0.4934316575527191,-0.14512068033218384,-0.9383976459503174,-0.3136080205440521,-0.8093015551567078,0.5883610844612122,-1.22377610206604
1.2353863334804178,-0.39593289357626016,2.9530715132381316,1.6783479452133179,4.395403861999512,-0.6230627298355103,-0.12694552540779114,-0.944275438785553,-0.303692102432251,-0.8389055728912354,0.594177782535553,-1.1750679016113281
1.2539710711000347,-0.35078337866590653,2.9528376126235947,1.8050185441970825,4.565953254699707,-0.7493996024131775,-0.10705946385860443,-0.950229287147522,-0.29257893562316895,-0.8475611209869385,0.6127203106880188,-1.1087273359298706
1.2741598690742133,-0.30039448204389557,2.9474895084960435,1.9301464557647705,4.490143775939941,-0.8519838452339172,-0.08649220317602158,-0.9563250541687012,-0.27921560406684875,-0.7826638221740723,0.5577656626701355,-0.9802755117416382
1.2953187434571336,-0.2448072615653342,2.935381787482011,1.9620897769927979,4.31041955947876,-0.9529451131820679,-0.06592600792646408,-0.962295413017273,-0.26389625668525696,-0.6674879193305969,0.50213623046875,-0.758320689201355
1.3160543197499008,-0.18127616063546603,2.913161450258954,1.835754632949829,4.122284889221191,-1.065958857536316,-0.04543101042509079,-0.967728316783905,-0.2478664517402649,-0.5699408650398254,0.4624183773994446,-0.4882635474205017
1.3345274518642485,-0.10643848333926674,2.8777005162398446,1.5691003799438477,3.99749755859375,-1.174289584159851,-0.02486778236925602,-0.9722180962562561,-0.23275227844715118,-0.48563042283058167,0.3948408365249634,-0.2353723645210266
1.349133819055256,-0.01868649008686136,2.8286324359644626,1.203354835510254,4.0281548500061035,-1.222890019416809,-0.004108015913516283,-0.9755333065986633,-0.2198132425546646,-0.41723307967185974,0.3539666533470154,-0.025197356939315796
1.3588818280444732,0.07685823706919985,2.7728866220599193,0.8289875388145447,4.234048843383789,-1.1002799272537231,0.01614983379840851,-0.9776300191879272,-0.20971104502677917,-0.32849738001823425,0.3534998297691345,0.10204482078552246
1.3646798085364233,0.17028940008875126,2.7220926500260303,0.6103708148002625,4.521920204162598,-0.8514922261238098,0.03468327596783638,-0.9788330793380737,-0.20170000195503235,-0.19180315732955933,0.3776063323020935,0.12838125228881836
1.3689531806237232,0.2572875582278911,2.6801571084590146,0.6099732518196106,4.648375988006592,-0.6278053522109985,0.05101263150572777,-0.9796987175941467,-0.1938764899969101,-0.10609698295593262,0.4085012674331665,0.07198905944824219
1.374032170360126,0.3347324294215593,2.6478902562653235,0.7485617399215698,4.500410079956055,-0.2729809284210205,0.06422397494316101,-0.9807043075561523,-0.18464656174182892,-0.10728440433740616,0.39472103118896484,0.05577057600021362
1.381886413947125,0.39639704164780115,2.629271763506588,0.9934908151626587,4.1800055503845215,0.16910751163959503,0.07250449061393738,-0.9822095036506653,-0.17322669923305511,-0.018442712724208832,0.32669204473495483,0.13387401401996613
1.3941667494891619,0.4436519311614863,2.6212258787361193,1.3912863731384277,3.6786510944366455,0.555566668510437,0.07542303204536438,-0.9844415187835693,-0.15870195627212524,0.047715283930301666,0.29124999046325684,0.23639947175979614
1.4119321495065438,0.48380665157391833,2.6146163465866574,1.8917776346206665,3.04984450340271,0.8294610977172852,0.07358557730913162,-0.9874076247215271,-0.1400405913591385,0.0019148290157318115,0.20400619506835938,0.3274945616722107
1.434712398793174,0.5270482185402723,2.5986072059242047,2.3105106353759766,2.4656295776367188,0.9513986706733704,0.0682365670800209,-0.9907548427581787,-0.11725328117609024,-0.08050471544265747,0.05456727743148804,0.39677876234054565
1.4602949585193905,0.5872158094850147,2.56085713368701,2.492903709411621,2.119549512863159,0.9620087146759033,0.0610986091196537,-0.9939009547233582,-0.09180433303117752,-0.22020208835601807,-0.054362595081329346,0.5442424416542053
1.4854609845037796,0.6815946341645907,2.487361548593088,2.384115219116211,2.179445505142212,0.839208722114563,0.053699661046266556,-0.9963611364364624,-0.0661894679069519,-0.3765299320220947,-0.18743109703063965,0.7646297216415405
1.5064798369987653,0.839651842731136,2.3519323808261934,2.0389621257781982,2.434361696243286,0.5768900513648987,0.04784600809216499,-0.9979324340820312,-0.04291694611310959,-0.5666906237602234,-0.2727433443069458,1.0131162405014038
1.5204314509800536,1.0854529869949663,2.1309064196700316,1.6335668563842773,2.5675458908081055,0.2530317008495331,0.04452960565686226,-0.9987319707870483,-0.02348586916923523,-0.7663314342498779,-0.36683809757232666,1.3002800941467285
1.5262020164220131,1.394858655711697,1.846190135992073,1.3054033517837524,2.406975269317627,-0.03377501666545868,0.04389273375272751,-0.9990058541297913,-0.007803064305335283,-0.8657921552658081,-0.4823175072669983,1.5565240383148193
1.5253309331564873,1.6818267667872455,1.5811942046622571,1.0813759565353394,2.0338401794433594,-0.20457345247268677,0.04516957327723503,-0.998966634273529,0.005035908427089453,-0.861713171005249,-0.5497851967811584,1.7696067094802856
1.5205610213889498,1.8919048984218847,1.3891222944199488,0.9252907037734985,1.6123099327087402,-0.3275180160999298,0.047647640109062195,-0.9987384676933289,0.015848565846681595,-0.7958471179008484,-0.5581005215644836,1.9226276874542236
1.513841863473408,2.0290199554609254,1.2655636512283976,0.8153697848320007,1.1242287158966064,-0.40575048327445984,0.0510537326335907,-0.9983785152435303,0.025181656703352928,-0.7632730007171631,-0.5392040014266968,2.0138349533081055
1.5063934385012034,2.114831080737326,1.187944389260431,0.7273136973381042,0.5429731607437134,-0.4482033848762512,0.055065762251615524,-0.9979268312454224,0.033310793340206146,-0.7256132364273071,-0.5055063366889954,2.0693347454071045
1.4990387744105746,2.1634784401034737,1.1419681563502009,0.5806336998939514,0.027141302824020386,-0.4450971186161041,0.059469301253557205,-0.9974265098571777,0.04004943370819092,-0.6535855531692505,-0.4782358407974243,2.094304084777832
1.4932872709530638,2.1795863224788055,1.1242228573394917,0.2607763707637787,-0.31670981645584106,-0.34627705812454224,0.06351974606513977,-0.9969976544380188,0.04428084194660187,-0.5863164067268372,-0.3912621736526489,2.092193365097046
1.4909009562373872,2.156756288731447,1.143166519348891,-0.255646288394928,-0.45757734775543213,-0.22200214862823486,0.06649526953697205,-0.9968100786209106,0.04413425177335739,-0.45966851711273193,-0.2736213803291321,2.0647826194763184
1.4919605944955847,2.084013450756606,1.2109810318930843,-0.7542877793312073,-0.5837831497192383,-0.18296846747398376,0.0686085894703865,-0.9968940615653992,0.03866712003946304,-0.3522847890853882,-0.17569810152053833,2.0261518955230713
1.4939390055522097,1.9618540574927612,1.3264100682615196,-1.0015982389450073,-0.8590308427810669,-0.2485799640417099,0.07098560035228729,-0.9970479011535645,0.029266787692904472,-0.309160053730011,-0.09174299240112305,1.9106132984161377
1.494823079267117,1.8168549282518345,1.4610730202865385,-0.9822795987129211,-1.3040814399719238,-0.21010607481002808,0.07361361384391785,-0.997115433216095,0.018487893044948578,-0.2773948013782501,-0.05284184217453003,1.6739861965179443
1.4951281328364063,1.6837086237636942,1.5793454409224823,-0.7794637680053711,-1.7292900085449219,-0.03813764452934265,0.07511445134878159,-0.997138500213623,0.008517573587596416,-0.14333653450012207,-0.0016865134239196777,1.410702109336853
1.496408904194036,1.579925400735323,1.6649671310383711,-0.5231488943099976,-1.9132755994796753,0.2211650311946869,0.07431428134441376,-0.9972345232963562,0.0006784393917769194,-0.004642710089683533,0.05357009172439575,1.1709215641021729
1.499844616850446,1.5006614866693833,1.7258865563953547,-0.3576850891113281,-1.7545158863067627,0.4872165024280548,0.07071858644485474,-0.9974839687347412,-0.004967985209077597,0.03337681293487549,0.10214400291442871,0.9671869277954102
1.5054411626654995,1.4273995567807627,1.783677092426438,-0.33066385984420776,-1.3522403240203857,0.7014435529708862,0.06463711708784103,-0.9978651404380798,-0.009332810528576374,0.024184226989746094,0.1294417381286621,0.8587435483932495
1.512520982362793,1.3265382052494992,1.8737889813720126,-0.5280506610870361,-0.8268769383430481,0.9110056757926941,0.056513477116823196,-0.9983024597167969,-0.014085112139582634,-0.015284299850463867,0.14942556619644165,0.8770608901977539
1.5199342251683403,1.1264488737031086,2.0678490473556708,-0.9874755144119263,-0.4913724660873413,1.177016258239746,0.045903418213129044,-0.9987068176269531,-0.02185473032295704,-0.016637127846479416,0.17303848266601562,1.0114326477050781
1.5227367848227884,0.7913674044700946,2.3976248086038425,-1.3226745128631592,-0.7375455498695374,1.0961881875991821,0.03417101129889488,-0.9988453388214111,-0.03376547619700432,0.057793647050857544,0.20473229885101318,1.275342345237732
1.517526593348848,0.4680946017747022,2.709785533089071,-1.366595983505249,-1.6387758255004883,0.847865879535675,0.024023963138461113,-0.9985815286636353,-0.04751846194267273,-0.07431697845458984,0.2269139289855957,1.5355247259140015
1.5073226380821203,0.23956514019419356,2.9164320081439916,-1.402550220489502,-2.833505868911743,0.7312266826629639,0.015050943940877914,-0.9979861974716187,-0.061619583517313004,-0.2529813051223755,0.16394084692001343,1.5621839761734009
1.4935569072462787,0.0652435389417139,3.0567634882461854,-1.6551854610443115,-4.011337757110596,0.82856285572052,0.005030693951994181,-0.9970185160636902,-0.07699695229530334,-0.2566634714603424,0.20684224367141724,1.5533913373947144
1.4746358601873493,-0.08894966267021928,-3.1158169145407815,-2.1278645992279053,-4.7330145835876465,1.1675885915756226,-0.008528901264071465,-0.995380163192749,-0.09563156962394714,-0.24348533153533936,0.33349984884262085,1.5542190074920654
1.4491224711205377,-0.23224635494799067,-3.0203921945371848,-2.5563883781433105,-4.904125213623047,1.7292009592056274,-0.027935996651649475,-0.9926068782806396,-0.11811555922031403,-0.2311277985572815,0.5317152142524719,1.4042174816131592
1.4173622598133084,-0.36668122118018176,-2.9331151812491862,-2.7844834327697754,-4.707554340362549,2.435934066772461,-0.054793581366539,-0.9882520437240601,-0.1426730453968048,-0.22068870067596436,0.7617201209068298,0.9550964832305908
1.381691829882067,-0.4889249206028071,-2.8581985412898887,-2.565741777420044,-5.137022495269775,2.774301528930664,-0.08828979730606079,-0.982172966003418,-0.16595576703548431,-0.25347667932510376,0.9495648741722107,0.3878183364868164
1.3492511704953976,-0.6049145429288612,-2.7996227243800096,-1.6832236051559448,-6.724430084228516,2.5997190475463867,-0.12496309727430344,-0.9755590558052063,-0.18074549734592438,-0.4606235921382904,1.0434300899505615,0.022252187132835388
1.3245886180085042,-0.7330180869212642,-2.74638990596691,-0.7201040387153625,-8.468947410583496,2.4344327449798584,-0.16308201849460602,-0.9698436856269836,-0.18112829327583313,-0.8138926029205322,0.9009503126144409,-0.3194212317466736
1.3023834540219543,-0.8706989291081454,-2.694061860482179,-0.5820443034172058,-8.761449813842773,2.6539320945739746,-0.20282049477100372,-0.9641930460929871,-0.17086711525917053,-0.960387647151947,0.7738092541694641,-0.6674662232398987
1.2744560937783638,-0.986543061026953,-2.659868243506377,-1.313995122909546,-7.749958515167236,2.978590965270996,-0.24358269572257996,-0.956411600112915,-0.16107256710529327,-0.9643490314483643,0.8423217535018921,-0.8535913228988647
1.2383157872446267,-1.05814744386819,-2.657998844906394,-2.3584327697753906,-6.227236270904541,3.260279417037964,-0.2844308912754059,-0.9452356100082397,-0.16008952260017395,-1.0702598094940186,0.8674312233924866,-0.9369565844535828
1.1964604623655075,-1.0907032005701613,-2.6822381011630307,-3.0158090591430664,-4.909877300262451,3.285208225250244,-0.32431796193122864,-0.9307506680488586,-0.1688818335533142,-1.2054827213287354,0.7570142149925232,-1.1927974224090576
1.1550130043401505,-1.1078108238465052,-2.712588828754054,-2.697361707687378,-4.2223029136657715,3.001857280731201,-0.36138442158699036,-0.914800226688385,-0.18039321899414062,-1.348500370979309,0.6236627101898193,-1.643673062324524
1.1218700984756014,-1.1338248328879919,-2.7295740673055917,-1.4016081094741821,-4.12973690032959,2.306628704071045,-0.39321890473365784,-0.900913655757904,-0.18366706371307373,-1.4740756750106812,0.4069562554359436,-2.3179657459259033
1.1023492440816334,-1.1749834777337547,-2.7282511526897704,-0.17482346296310425,-3.77163028717041,1.2754576206207275,-0.4165928363800049,-0.8922705054283142,-0.17408010363578796,-1.5756711959838867,0.04113537073135376,-2.9713668823242188
1.0958223147507196,-1.2096648821730902,-2.7242547184239028,-0.1421901434659958,-2.328718423843384,0.0723344087600708,-0.42781776189804077,-0.8893045783042908,-0.16158469021320343,-1.545204997062683,-0.38448381423950195,-3.12892746925354
1.0987954982262536,-1.2082937015197555,-2.740239777498252,-1.074712872505188,-0.21402013301849365,-1.1456564664840698,-0.4251215159893036,-0.8906603455543518,-0.16123275458812714,-1.4237403869628906,-0.6453960537910461,-2.6349101066589355
1.10887169195832,-1.1582439395235251,-2.7869053769279435,-2.007551908493042,1.8479827642440796,-2.2867608070373535,-0.4082803726196289,-0.8951963782310486,-0.17869171500205994,-1.1937553882598877,-0.7047180533409119,-2.0259439945220947
1.123473465928698,-1.0681980427079198,-2.8581311418160658,-2.2139501571655273,3.265568733215332,-3.0260934829711914,-0.37906140089035034,-0.9016083478927612,-0.2083628624677658,-0.957685112953186,-0.5597411394119263,-1.7857168912887573
1.1394742932626136,-0.9624144293678711,-2.9355676720014405,-1.6249902248382568,3.7835302352905273,-3.0822043418884277,-0.34305906295776367,-0.908413827419281,-0.2389451116323471,-0.6650435924530029,-0.22391021251678467,-1.8326644897460938
1.1550660617451567,-0.8664036584395934,-2.999652141206293,-0.6315351724624634,3.707062005996704,-2.5559589862823486,-0.30774199962615967,-0.9148216247558594,-0.2615269720554352,-0.23350271582603455,0.17052853107452393,-1.9065029621124268
1.1702280211565559,-0.7937850425898506,-3.0396002275669436,0.3021208643913269,3.5059518814086914,-1.821661353111267,-0.2780333161354065,-0.9208395481109619,-0.27340835332870483,0.14006313681602478,0.4642508029937744,-1.850569486618042
1.1849637783716183,-0.7439038887030642,-3.0560557161627138,0.8927327394485474,3.4709675312042236,-1.1562532186508179,-0.2548382878303528,-0.9264854192733765,-0.27691569924354553,0.2784739136695862,0.6137261390686035,-1.662949562072754
1.1987318131428792,-0.7097712047914437,-3.055170223888069,1.1829763650894165,3.535221815109253,-0.6497476100921631,-0.2369042932987213,-0.9315788149833679,-0.27574875950813293,0.248531311750412,0.6530296802520752,-1.416817307472229
1.2114604375034548,-0.6859980372039965,-3.042616995740766,1.3408902883529663,3.575371265411377,-0.31877633929252625,-0.22275283932685852,-0.9361305832862854,-0.2721043527126312,0.1384020894765854,0.647556483745575,-1.220861554145813
1.2236103602466426,-0.669071548011673,-3.022041602630381,1.4427533149719238,3.7075045108795166,-0.10700894892215729,-0.21104463934898376,-0.940333902835846,-0.26689374446868896,-0.034683093428611755,0.6195637583732605,-1.1437814235687256
1.235381082599182,-0.6557835449114114,-2.995659068969264,1.5051943063735962,3.930049419403076,0.045570071786642075,-0.20071615278720856,-0.9442737102508545,-0.26088353991508484,-0.23463252186775208,0.5989521741867065,-1.1700401306152344
1.2470613501368937,-0.6454755098419614,-2.9644724801673346,1.587465763092041,4.027988433837891,0.13623206317424774,-0.19136790931224823,-0.9480538964271545,-0.2541104257106781,-0.3955920934677124,0.5999705195426941,-1.1990147829055786
1.2593151455546712,-0.6383237036415845,-2.929503932789597,1.6887623071670532,4.065854072570801,0.13268649578094482,-0.1826096773147583,-0.951880693435669,-0.24612408876419067,-0.5181809067726135,0.5722725987434387,-1.1804356575012207
1.2725723283871253,-0.6317259211992542,-2.8934000862068707,1.7329447269439697,4.154747486114502,0.03145095333456993,-0.17351381480693817,-0.9558598399162292,-0.23711799085140228,-0.6190736293792725,0.5173375606536865,-1.1444740295410156
1.2868669933383137,-0.6225485925415858,-2.8593028240295437,1.737635612487793,4.225281715393066,-0.1290079951286316,-0.16334591805934906,-0.9599621295928955,-0.22757622599601746,-0.6949763298034668,0.4790356755256653,-1.0638668537139893
1.3018861019423678,-0.6081997211149428,-2.8297173851653974,1.6488916873931885,4.361082077026367,-0.2893340289592743,-0.15180768072605133,-0.9640610218048096,-0.21803851425647736,-0.7335073947906494,0.43552714586257935,-0.9233801960945129
1.317025097357066,-0.5851588879210788,-2.807835382540112,1.5158517360687256,4.475079536437988,-0.4869052767753601,-0.13866636157035828,-0.9679725170135498,-0.20928658545017242,-0.7087001204490662,0.3763588070869446,-0.7577241659164429
1.3326871113255434,-0.5519320834295189,-2.7960441069003594,1.4693635702133179,4.458658218383789,-0.7193211913108826,-0.12367231398820877,-0.9717856645584106,-0.20084279775619507,-0.6834109425544739,0.3302605152130127,-0.581414520740509
1.3495726816598865,-0.5090953321788011,-2.7947963008973176,1.4994242191314697,4.352206707000732,-0.947022557258606,-0.10694436728954315,-0.9756296873092651,-0.19159765541553497,-0.6771743893623352,0.2864360213279724,-0.4600902199745178
1.3674850408211048,-0.4551390119593337,-2.8062579306808195,1.4597194194793701,4.218170642852783,-1.1327953338623047,-0.08875871449708939,-0.9794033765792847,-0.1813589632511139,-0.6502703428268433,0.28959935903549194,-0.3449627161026001
1.3848512173945493,-0.3880555896744693,-2.8322853342254355,1.30523681640625,4.0979790687561035,-1.2019938230514526,-0.06995495408773422,-0.9827619791030884,-0.1711294800043106,-0.5790929794311523,0.29970234632492065,-0.1598033756017685
1.4005973962349951,-0.30714982361456783,-2.8740830958541337,1.1804161071777344,3.846730947494507,-1.2724683284759521,-0.051210422068834305,-0.985551118850708,-0.16145145893096924,-0.45681580901145935,0.303513765335083,0.04028111696243286
1.4153337708787708,-0.21225484912626857,-2.9333433055990246,1.1994308233261108,3.431896448135376,-1.344435453414917,-0.032618727535009384,-0.9879400134086609,-0.15136240422725677,-0.4019974172115326,0.28771424293518066,0.1749674677848816
1.4297108718190643,-0.10183279185541091,-3.0127282232284514,1.2844831943511963,2.972574472427368,-1.4265859127044678,-0.014294828288257122,-0.9900639653205872,-0.1398899257183075,-0.3732479512691498,0.21818286180496216,0.219876229763031
1.443700683871267,0.03092093315758586,-3.11807969681402,1.4120471477508545,2.73220157623291,-1.4788671731948853,0.003918755333870649,-0.9919342398643494,-0.12669430673122406,-0.3637363314628601,0.19885855913162231,0.24351529777050018
1.4565344208392013,0.1898814551329768,3.0320261598329488,1.4946895837783813,2.666086435317993,-1.4160594940185547,0.021519387140870094,-0.9934791922569275,-0.11196530610322952,-0.39122462272644043,0.1831459403038025,0.26533108949661255
1.4677254829660908,0.3759932756401609,2.8713995354115016,1.6296213865280151,2.612291097640991,-1.2993417978286743,0.037780702114105225,-0.9946929216384888,-0.09570205956697464,-0.3947906494140625,0.17987346649169922,0.32432419061660767
1.4769808001945781,0.5901011430284208,2.6816979445555633,1.7358322143554688,2.457548141479492,-1.1491479873657227,0.05212710425257683,-0.995602548122406,-0.07783625274896622,-0.4136230945587158,0.0928468108177185,0.43176358938217163
1.483300766561077,0.833762582217188,2.4603845722385684,1.8380413055419922,2.173553943634033,-1.0745830535888672,0.06470630317926407,-0.996174693107605,-0.05873164162039757,-0.43967580795288086,0.030735790729522705,0.6037905812263489
1.4848268097484194,1.1016818869577159,2.2110173179395742,1.8789173364639282,1.7204455137252808,-1.1500822305679321,0.0765884518623352,-0.9963068962097168,-0.03881903365254402,-0.4935348629951477,-0.007431507110595703,0.8068241477012634
1.4790725867743646,1.3597045274003747,1.9672300701658925,1.7969757318496704,1.3497544527053833,-1.3679308891296387,0.08956251293420792,-0.9957963228225708,-0.019191822037100792,-0.5797969102859497,-0.0701674222946167,0.977016270160675
1.466933199560861,1.558362642177084,1.7803446838270647,1.5430525541305542,1.1937003135681152,-1.4091137647628784,0.1036686971783638,-0.9946110844612122,-0.0012890503276139498,-0.6845707893371582,-0.13177746534347534,1.149711012840271
1.4528277060709585,1.6895812275686295,1.6590962826359668,1.3170597553253174,0.9255489706993103,-1.26956307888031,0.11686625331640244,-0.9930497407913208,0.013947607949376106,-0.6632224917411804,-0.1502608060836792,1.3345171213150024
1.4385425558830505,1.7847065151016632,1.5705572465936393,1.3780548572540283,0.5189657807350159,-1.1841168403625488,0.1288631558418274,-0.991267204284668,0.027993422001600266,-0.5446194410324097,-0.18483448028564453,1.4952301979064941
1.4239019776713657,1.870208066895219,1.4871006552081212,1.6215556859970093,0.053531330078840256,-1.0527359247207642,0.13985441625118256,-0.9892303943634033,0.04317191615700722,-0.5388259887695312,-0.2414214015007019,1.4986673593521118
1.409200797173271,1.9509770616777857,1.4036144282518388,1.754738450050354,-0.3921758234500885,-0.8576836585998535,0.14940550923347473,-0.9869718551635742,0.05970577523112297,-0.48117735981941223,-0.25526148080825806,1.4572921991348267
1.395624998878756,2.0198699848077903,1.3278622275088479,1.6356977224349976,-0.7582788467407227,-0.5990091562271118,0.15699781477451324,-0.9846966862678528,0.07565929740667343,-0.38967907428741455,-0.22555428743362427,1.5515986680984497
1.3847923714634764,2.0712524245191677,1.26659806132632,1.2974975109100342,-1.0075806379318237,-0.32776036858558655,0.1622539609670639,-0.9827510714530945,0.08873585611581802,-0.3065716028213501,-0.1730564832687378,1.7093747854232788
1.3773509178028092,2.1034851104600203,1.2228594097467955,0.8789339661598206,-1.1259406805038452,-0.17230303585529327,0.16560576856136322,-0.9813477396965027,0.0976303219795227,-0.2530538737773895,-0.11800241470336914,1.807444453239441
1.3725227172187588,2.118304666471199,1.1961342809802278,0.5246203541755676,-1.1491339206695557,-0.12911029160022736,0.16818365454673767,-0.9804080724716187,0.1025385782122612,-0.27038705348968506,-0.08515888452529907,1.7902987003326416
1.369461034033775,2.120136807889418,1.1824323518817452,0.27291935682296753,-1.1861026287078857,-0.10917895287275314,0.17055466771125793,-0.9798004031181335,0.10441325604915619,-0.2807231545448303,-0.05860590934753418,1.660402774810791
1.3677665614725094,2.113403839849647,1.176207260033643,0.13148313760757446,-1.4143357276916504,-0.042946409434080124,0.1726757287979126,-0.9794601798057556,0.10411994904279709,-0.2230450063943863,-0.00564730167388916,1.519887924194336
1.3674485872485749,2.1023103060890986,1.171289040315755,0.07639988511800766,-1.771665096282959,0.09858761727809906,0.17408832907676697,-0.9793959856033325,0.10235568135976791,-0.11476220190525055,0.00852501392364502,1.419891357421875
1.3687884620648259,2.0915885412087656,1.1630062122727336,0.08106227964162827,-1.973329782485962,0.30464011430740356,0.17403744161128998,-0.9796656966209412,0.09983035176992416,0.009083256125450134,0.0017909407615661621,1.3080215454101562
1.3720150139843816,2.0866771139740403,1.1477716055984846,0.12563875317573547,-1.9849255084991455,0.557498037815094,0.17177560925483704,-0.980307936668396,0.09741481393575668,0.07326525449752808,0.038703203201293945,1.1589478254318237
1.3773240211620144,2.090847504429757,1.123692804167869,0.15335027873516083,-1.9056591987609863,0.8275102972984314,0.1668485552072525,-0.9813425540924072,0.09554245322942734,0.10770277678966522,0.06781405210494995,1.0205918550491333
1.3849529267783656,2.103320565618556,1.0920528424748033,0.09435052424669266,-1.832448959350586,1.0874756574630737,0.15918900072574615,-0.9827807545661926,0.09381212294101715,0.13397803902626038,0.05970031023025513,0.9695572853088379
1.39488196813934,2.120826188640027,1.0557089540119033,-0.004316393285989761,-1.8364168405532837,1.2795910835266113,0.14919601380825043,-0.9845669269561768,0.09147898107767105,0.1457257866859436,0.04393887519836426,1.0085420608520508
1.4063958197838864,2.141849454879204,1.0152597143886195,-0.05481162667274475,-1.9558665752410889,1.3893018960952759,0.13769344985485077,-0.9865166544914246,0.08846189081668854,0.11927975714206696,0.02393108606338501,1.0642324686050415
1.4184207998429021,2.1672851875318315,0.9686219052742306,-0.04912364482879639,-2.184798002243042,1.427621603012085,0.12557491660118103,-0.9884132742881775,0.08526469767093658,0.0598955899477005,0.0014443397521972656,1.059495210647583
1.4306797240450055,2.1964721492592316,0.9158683082454998,-0.11598742008209229,-2.4235894680023193,1.4722621440887451,0.11320190131664276,-0.9901997447013855,0.08178979903459549,-0.0031250864267349243,-0.02284640073776245,1.0378388166427612
1.4437284287134013,2.227056375994155,0.8594712175771713,-0.24848447740077972,-2.645861864089966,1.5190988779067993,0.10040245205163956,-0.9919377565383911,0.07732289284467697,-0.028442084789276123,-0.03302568197250366,1.0471274852752686
1.4579289446272476,2.2578920255524686,0.8010406874476773,-0.4444800317287445,-2.7773375511169434,1.5927571058273315,0.08707208186388016,-0.9936372637748718,0.07143960893154144,-0.038991719484329224,-0.03337085247039795,1.0379046201705933
1.474633709372346,2.28941881836118,0.7417832123587574,-0.7936521172523499,-2.685983180999756,1.7664750814437866,0.07227111607789993,-0.9953799247741699,0.06321075558662415,-0.05396066606044769,-0.030819416046142578,0.9652923345565796
1.49516310158304,2.320114211781327,0.6851857186325067,-1.250403881072998,-2.449944257736206,1.9368873834609985,0.05532296374440193,-0.9971411824226379,0.05146823450922966,-0.031687214970588684,0.01140815019607544,0.8819116353988647
1.5195054959083472,2.341160266681033,0.6402987008875162,-1.6770046949386597,-2.328803777694702,1.9550213813781738,0.036793697625398636,-0.9986849427223206,0.03570367395877838,-0.06418333947658539,0.04925251007080078,0.7811295986175537
1.5454132717939295,2.2900442832271066,0.6679037884002532,-1.9862651824951172,-2.411763906478882,1.6856920719146729,0.019096801057457924,-0.9996778964996338,0.01672379858791828,-0.19054466485977173,0.06030088663101196,0.6536250114440918
1.564310765930198,0.8438619805165379,2.0890616522781684,-2.156883716583252,-2.6117923259735107,1.1934820413589478,0.004833009093999863,-0.9999789595603943,-0.0042985351756215096,-0.4056967794895172,0.020334303379058838,0.5025740265846252
1.5440590627650244,-0.19199742122179894,3.098639439566138,-2.234018564224243,-2.638533353805542,0.7298890352249146,-0.0051024118438363075,-0.999642550945282,-0.026248063892126083,-0.585138201713562,-0.01770681142807007,0.3251827359199524
1.5212537513811466,-0.23490096654342857,3.115551945139729,-2.1960434913635254,-2.584416151046753,0.3916122019290924,-0.011526602320373058,-0.9987730383872986,-0.04816417768597603,-0.6268402338027954,0.007943451404571533,0.13314008712768555
1.4994922207760584,-0.23437882909647834,3.08886365397962,-2.1242663860321045,-2.65627384185791,0.3490639925003052,-0.016545850783586502,-0.9974589347839355,-0.06929705291986465,-0.5800729990005493,0.12470197677612305,0.010062158107757568
1.4782609583601902,-0.25087977963398617,3.0780315684468906,-2.0428760051727295,-2.832277536392212,0.5024279356002808,-0.022939832881093025,-0.9957216382026672,-0.08951107412576675,-0.39768412709236145,0.2183016538619995,-0.003995001316070557
1.4576613399521567,-0.28452732861721064,3.0813537188271143,-1.926827073097229,-3.281609535217285,0.6604408621788025,-0.031690020114183426,-0.9936070442199707,-0.10835586488246918,-0.2793910801410675,0.3826603293418884,0.037493810057640076
1.4375244099253333,-0.33140285549100895,3.09284513183196,-1.8548681735992432,-3.818718910217285,0.8293004631996155,-0.043234772980213165,-0.9911324381828308,-0.12564848363399506,-0.28583642840385437,0.46104204654693604,0.07753728330135345
1.4167599725838633,-0.3848226680738862,3.106369545456343,-1.947386384010315,-4.161545753479004,0.9929449558258057,-0.05759584903717041,-0.9881598353385925,-0.14220649003982544,-0.3094850182533264,0.5526741743087769,0.09511764347553253
1.3934326077020094,-0.4348088511478811,3.1143709675813045,-2.249377727508545,-4.2555365562438965,1.0900957584381104,-0.07432101666927338,-0.9843122363090515,-0.1600179523229599,-0.37881940603256226,0.6656325459480286,0.06381107866764069
1.3675084620002118,-0.4715579967169191,3.1078534763875054,-2.5057640075683594,-4.416961193084717,0.9238759279251099,-0.09171392768621445,-0.9794080853462219,-0.1798568069934845,-0.48813554644584656,0.7785567045211792,0.0010846257209777832
1.3419182316719969,-0.4930861087941106,3.0831246698833126,-2.5096869468688965,-4.734891891479492,0.49419164657592773,-0.1073952466249466,-0.973921537399292,-0.19985760748386383,-0.7055627107620239,0.8148030042648315,-0.185350701212883
1.3186552150361595,-0.5029981136065449,3.044338868491193,-2.484553813934326,-4.727368354797363,0.13584446907043457,-0.12026183307170868,-0.9683805108070374,-0.21857769787311554,-0.9353108406066895,0.7478300333023071,-0.5509994626045227
1.2963118721760067,-0.5051108615218123,3.000430950230122,-2.5505547523498535,-4.120090484619141,0.06493300944566727,-0.13116277754306793,-0.9625650644302368,-0.23720237612724304,-0.9746723771095276,0.6995493769645691,-0.9652056097984314
1.2730354976727467,-0.5034815206608578,2.9605511345409243,-2.6030797958374023,-3.214289665222168,0.22697877883911133,-0.1415495127439499,-0.9559957981109619,-0.25697416067123413,-0.8443211317062378,0.7303794026374817,-1.3249657154083252
1.2495189750655242,-0.5017849178000633,2.9292519832915707,-2.4050657749176025,-2.4583489894866943,0.35571011900901794,-0.15188682079315186,-0.9488328099250793,-0.2768512964248657,-0.6558984518051147,0.7365526556968689,-1.6283154487609863
1.2289161789284686,-0.5022972047734898,2.906577117772593,-1.8934787511825562,-1.9659781455993652,0.3035511374473572,-0.1614072024822235,-0.9421259760856628,-0.2938474714756012,-0.5418095588684082,0.6204097867012024,-1.8758151531219482
1.2144319713274445,-0.504145519619595,2.8893848250240297,-1.2062755823135376,-1.6548659801483154,0.0453544557094574,-0.1685246378183365,-0.9371713995933533,-0.3054656684398651,-0.4842465817928314,0.39615583419799805,-2.071441888809204
1.207360690235711,-0.5053159269391463,2.874695475600861,-0.5635285973548889,-1.3029260635375977,-0.26744750142097473,-0.17208577692508698,-0.9346809983253479,-0.31105923652648926,-0.4506866931915283,0.20091646909713745,-2.1539525985717773
1.2059376010508343,-0.5007506730930635,2.859579056512012,-0.2583546042442322,-0.5585712194442749,-0.5285075902938843,-0.1713021993637085,-0.9341741800308228,-0.3130078911781311,-0.3617485463619232,0.01854020357131958,-2.152064800262451
1.2066441180905747,-0.483966554053634,2.8411818055025133,-0.2577773928642273,0.501157283782959,-0.6831855773925781,-0.16571779549121857,-0.9344260692596436,-0.3152548372745514,-0.26180320978164673,-0.04413527250289917,-2.041907787322998
1.2075712900399829,-0.45386076317093166,2.82027086882462,-0.22801177203655243,1.6054255962371826,-0.7112358212471008,-0.15577323734760284,-0.9347558617591858,-0.31932154297828674,-0.19914643466472626,-0.007687926292419434,-1.8820335865020752
1.2093538556665782,-0.4165181794816136,2.8023881482250794,0.052122317254543304,2.4731240272521973,-0.561320960521698,-0.1430688351392746,-0.9353877305984497,-0.323390394449234,-0.124219611287117,0.05553549528121948,-1.834995985031128
1.213837757787837,-0.38335760624921417,2.795517966682342,0.6151729226112366,2.813063859939575,-0.21121199429035187,-0.1306980848312378,-0.9369639158248901,-0.32406261563301086,-0.03182351589202881,0.1700115203857422,-1.831302523612976
1.2227107905690522,-0.3653476747537207,2.805944055146618,1.3063173294067383,2.730438709259033,0.2345535010099411,-0.12186575680971146,-0.9400274753570557,-0.31858617067337036,0.07413602620363235,0.27251654863357544,-1.771578073501587
1.236206338039642,-0.36612598387771333,2.835132477617504,1.8963398933410645,2.6454017162323,0.6116474866867065,-0.117560975253582,-0.9445450305938721,-0.30661705136299133,0.0912393257021904,0.3498643636703491,-1.6749199628829956
1.252971912938782,-0.38169553041393456,2.8799826129953026,2.2545244693756104,2.7772552967071533,0.8173080682754517,-0.11640484631061554,-0.9499175548553467,-0.29001152515411377,-0.011814989149570465,0.39757996797561646,-1.5847749710083008
1.271077764417299,-0.4043558073545499,2.934672889253271,2.3419382572174072,3.1564764976501465,0.8441373109817505,-0.11615973711013794,-0.9554196000099182,-0.27144110202789307,-0.22630874812602997,0.42629069089889526,-1.5012335777282715
1.288841440193108,-0.4242206180026621,2.991154116840538,2.203197956085205,3.7067387104034424,0.6716356873512268,-0.1145239770412445,-0.9605133533477783,-0.253571093082428,-0.4656611680984497,0.42053544521331787,-1.4140316247940063
1.3054847032547037,-0.43283790923516896,3.04105449255787,1.9503157138824463,4.171446800231934,0.39439132809638977,-0.10998370498418808,-0.9650108218193054,-0.238028883934021,-0.6686267256736755,0.4172813892364502,-1.303948163986206
1.3206264349133323,-0.4275439617467814,3.0804271627546767,1.6466162204742432,4.515340805053711,0.18168462812900543,-0.1026512160897255,-0.9688704013824463,-0.2252843827009201,-0.8007303476333618,0.41155844926834106,-1.170193076133728
1.3338067627331913,-0.4101676190493141,3.1105660154577666,1.376361608505249,4.814117908477783,0.08383902907371521,-0.09362073242664337,-0.9720491766929626,-0.2153039574623108,-0.8057782649993896,0.42384660243988037,-1.0513588190078735
1.3455655374530398,-0.38502067559012565,3.135012946869524,1.2598241567611694,4.962654113769531,0.042600877583026886,-0.08387839794158936,-0.974742591381073,-0.20698139071464539,-0.748030960559845,0.4529225826263428,-0.9763073921203613
1.357534124429462,-0.35735226007702686,-3.126033898154464,1.363519310951233,4.88482666015625,-0.020819373428821564,-0.07403374463319778,-0.9773456454277039,-0.1982783079147339,-0.7139913439750671,0.4566854238510132,-0.9414314031600952
1.371465662058708,-0.3300322232395571,-3.104987432704168,1.5711479187011719,4.7134809494018555,-0.1062990203499794,-0.06417085975408554,-0.9801993370056152,-0.18732689321041107,-0.6856614351272583,0.413152277469635,-0.9008080959320068
1.387262625759694,-0.30214982432463267,-3.086149353334247,1.6548055410385132,4.591325759887695,-0.1970643401145935,-0.054308753460645676,-0.9832049012184143,-0.17423775792121887,-0.6513187885284424,0.3827716112136841,-0.8017909526824951
1.4034028104171603,-0.2691559506141003,-3.0729164738587555,1.5728493928909302,4.651636123657227,-0.2610689699649811,-0.04430529102683067,-0.986022412776947,-0.16061390936374664,-0.5795656442642212,0.3953852653503418,-0.5783542394638062
1.4183324978100467,-0.229060122769338,-3.065800082516736,1.3776935338974,4.781726360321045,-0.25282517075538635,-0.03448464348912239,-0.988399863243103,-0.14790615439414978,-0.4935000538825989,0.38271766901016235,-0.3342565894126892
1.4313237231827125,-0.18315718250201402,-3.0642117526384993,1.192721962928772,4.690514087677002,-0.23767611384391785,-0.025320615619421005,-0.9902894496917725,-0.13669592142105103,-0.39319753646850586,0.38988667726516724,-0.11301440000534058
1.4428204508005775,-0.1344447135510157,-3.0678410689336824,1.0776050090789795,4.321856498718262,-0.22291900217533112,-0.017107222229242325,-0.9918222427368164,-0.1264759600162506,-0.31722819805145264,0.36062711477279663,0.09510360658168793
1.4533679808597528,-0.08721116245417913,-3.0742018811626357,1.0073723793029785,3.878826856613159,-0.15400852262973785,-0.010204496793448925,-0.9931132197380066,-0.11671226471662521,-0.2789038419723511,0.3145245313644409,0.24442806839942932
1.4630910701119046,-0.04799275754648457,-3.0766343824499316,0.9391855001449585,3.510885715484619,-0.031193915754556656,-0.0051571279764175415,-0.9942054152488708,-0.10737386345863342,-0.2513584494590759,0.30069345235824585,0.31065118312835693
1.4724910162335456,-0.020441539169392745,-3.0702199752087007,0.9655152559280396,3.306377649307251,0.1002398431301117,-0.0020061135292053223,-0.9951719045639038,-0.0981253907084465,-0.23186540603637695,0.28521114587783813,0.3110920190811157
1.4826206359096445,-0.005571891720821293,-3.052646220807538,1.0727548599243164,3.189657688140869,0.18709377944469452,-0.0004906695103272796,-0.9961150288581848,-0.0880606546998024,-0.25246956944465637,0.23943167924880981,0.2498340606689453
1.4938597531721969,0.008062572331740491,-3.034473422711117,1.1755168437957764,3.1828970909118652,0.08936665207147598,0.0006196849280968308,-0.9970418214797974,-0.076857790350914,-0.2907198369503021,0.15130829811096191,0.19059652090072632
1.505919079559634,0.044396833355856424,-3.039028359921049,1.2364435195922852,3.182488441467285,-0.08496812731027603,0.002877460326999426,-0.9978961944580078,-0.0647697001695633,-0.39556241035461426,0.03389161825180054,0.21233713626861572
1.5182886327565213,0.11330222743626239,-3.0760286200545135,1.2648471593856812,3.225227117538452,-0.13003118336200714,0.005933666136115789,-0.9986217617988586,-0.05214596167206764,-0.4536265730857849,-0.0852862000465393,0.30278652906417847
1.5304535675280928,0.21040846510178524,-3.1410869636653027,1.225608468055725,3.183061122894287,-0.07069035619497299,0.00842439103871584,-0.9991863369941711,-0.0394456647336483,-0.39914095401763916,-0.15825390815734863,0.4087691307067871
1.5419262753678715,0.3431607849585007,3.0399024955383434,1.1917399168014526,2.927544593811035,0.01955002173781395,0.00971327442675829,-0.9995833039283752,-0.02718542329967022,-0.3613978624343872,-0.16434186697006226,0.5728699564933777
1.5533495981254433,0.5873641336670185,2.822821329436432,1.3130847215652466,2.501248598098755,0.09781260788440704,0.00967264361679554,-0.9998478293418884,-0.014529055915772915,-0.4062790870666504,-0.21803253889083862,0.7648491859436035
1.5621059591128366,1.5611538766165909,1.8714681931023707,1.551796317100525,1.9963581562042236,0.12562550604343414,0.008712084032595158,-0.9999622106552124,-8.400843944400549e-05,-0.5033867359161377,-0.29079413414001465,0.8378522992134094
1.5521831624915359,2.7405807363150534,0.7090994099343135,1.8803688287734985,1.4388540983200073,0.13606588542461395,0.007264368236064911,-0.9998267889022827,0.01713348925113678,-0.6462566256523132,-0.3219199776649475,0.8870257139205933
1.5326008747759248,2.994399478562435,0.4667875420911453,2.2407684326171875,0.9009621143341064,0.13652721047401428,0.005600480362772942,-0.9992706179618835,0.03777332603931427,-0.7328343391418457,-0.3615081310272217,0.962501049041748
1.5091868568072913,3.0758527505993065,0.39265375574446393,2.466057777404785,0.6185849905014038,0.09564315527677536,0.004044719971716404,-0.9981027245521545,0.061437446624040604,-0.7846996188163757,-0.3667653799057007,1.019677996635437
1.485119889515448,3.10590065124455,0.36844016734506013,2.3146462440490723,0.5944446921348572,0.010499334894120693,0.0030535967089235783,-0.9963319897651672,0.0855177566409111,-0.833955705165863,-0.36223429441452026,1.1206740140914917
1.464486761308814,3.1152638378096893,0.3658877332586069,1.7838560342788696,0.8089282512664795,-0.08575130254030228,0.0027934384997934103,-0.9943544864654541,0.10607363283634186,-0.8807535767555237,-0.3889617323875427,1.3743185997009277
1.4503735768577428,3.1159101122430286,0.37494613086653095,1.0284205675125122,1.1245086193084717,-0.22050471603870392,0.00308497017249465,-0.9927579164505005,0.12009293586015701,-0.8983638882637024,-0.4144229292869568,1.6359797716140747
1.4435100690844285,3.102387472554961,0.4012831848679989,0.3644762933254242,1.35172438621521,-0.48463064432144165,0.004975585266947746,-0.9919100403785706,0.12684640288352966,-0.9364330768585205,-0.34329521656036377,1.7776638269424438
1.4408983705913945,3.0669693910040126,0.4492424865690465,0.15476711094379425,0.9992824792861938,-0.7793771624565125,0.009657187387347221,-0.9915751218795776,0.12917225062847137,-1.0136702060699463,-0.18948566913604736,1.8298118114471436
1.437689048784388,3.006742621131985,0.516065235286545,0.32394227385520935,0.17886506021022797,-1.017777442932129,0.017842402681708336,-0.9911543130874634,0.131509929895401,-0.9315691590309143,-0.1969255805015564,1.7139639854431152
1.4318962419467711,2.933628689046331,0.5875700569048286,0.4642919898033142,-0.6019078493118286,-1.0649493932724,0.02858665958046913,-0.9903689026832581,0.13547226786613464,-0.741858720779419,-0.19343876838684082,1.5549113750457764
1.4252836260341186,2.865101292189608,0.6480928585570804,0.38432925939559937,-1.0949593782424927,-0.890745997428894,0.03958224132657051,-0.9894316792488098,0.13949227333068848,-0.5175179839134216,-0.06492012739181519,1.49006986618042
1.4203729408026373,2.8127986239246736,0.6881552647057011,0.20341871678829193,-1.4327815771102905,-0.5110475420951843,0.04838911443948746,-0.9887077212333679,0.14182955026626587,-0.3155704736709595,0.10009682178497314,1.4700170755386353
1.4179616221825364,2.78282929353308,0.7026252983511643,0.12576280534267426,-1.7002034187316895,-0.06785625964403152,0.053454216569662094,-0.9883434772491455,0.14254774153232574,-0.1265742927789688,0.2398083209991455,1.4050899744033813
1.4169461730518753,2.7755643756275354,0.6915443861888102,0.19447678327560425,-1.9450072050094604,0.3043695092201233,0.054847460240125656,-0.9881883859634399,0.14309242367744446,-0.02596256136894226,0.32588064670562744,1.2409557104110718
1.4162991473408406,2.7892030616466235,0.6570095024022915,0.30130523443222046,-2.1540703773498535,0.6382415294647217,0.05311161279678345,-0.9880890250205994,0.14442752301692963,-0.009288344532251358,0.35814517736434937,1.0771756172180176
1.4155864789827706,2.8213118999910622,0.6017925722567947,0.3961498439311981,-2.343106508255005,0.9136884212493896,0.048669345676898956,-0.9879791140556335,0.1467265486717224,-0.0005583614110946655,0.35756218433380127,1.0034654140472412
1.4144392270124422,2.8672733278227596,0.5305415559743242,0.46416619420051575,-2.5543363094329834,1.1324079036712646,0.04218342900276184,-0.9878011345863342,0.14989817142486572,0.005515553057193756,0.35102134943008423,0.9913979768753052
1.4129897837740892,2.922945969489205,0.44754292088806724,0.4386596083641052,-2.700788736343384,1.3114465475082397,0.03408757224678993,-0.9875743389129639,0.1534101963043213,0.008804872632026672,0.3125561475753784,1.0064711570739746
1.4119111936123165,2.9843910732728776,0.3578512949063278,0.2842668294906616,-2.716657876968384,1.4219461679458618,0.02476976066827774,-0.9874042868614197,0.15626677870750427,0.00930308923125267,0.2687305212020874,1.0410748720169067
1.4122569614780471,3.0484717146748856,0.2659807882108871,-0.008564405143260956,-2.6066646575927734,1.4637082815170288,0.014680344611406326,-0.9874589443206787,0.15719221532344818,-0.043717846274375916,0.25656288862228394,1.0839574337005615
1.4153232900839494,3.113285681766961,0.17499253568863504,-0.4473172724246979,-2.402926445007324,1.4010367393493652,0.004382682032883167,-0.987938404083252,0.15478558838367462,-0.13136635720729828,0.23574107885360718,1.1387321949005127
1.4223351814674157,-3.1071479698773734,0.08833199759604955,-0.9671339392662048,-2.2065277099609375,1.2065985202789307,-0.005093954969197512,-0.9889998435974121,0.14782948791980743,-0.23019659519195557,0.21424996852874756,1.1984531879425049
1.4332651814232131,-3.0533106905875997,0.011424450285704206,-1.3215974569320679,-2.313812732696533,0.83261638879776,-0.012087550945580006,-0.9905574917793274,0.13656394183635712,-0.34310656785964966,0.2295253872871399,1.2558155059814453
1.4468699726747356,-3.0186648076454508,-0.04889312037823361,-1.5598317384719849,-2.7438840866088867,0.4614589512348175,-0.015156831592321396,-0.9923309683799744,0.12267690896987915,-0.4643964469432831,0.2232726812362671,1.2593265771865845
1.4633928679395427,-2.9992104850249093,-0.09821700683250092,-1.8943591117858887,-3.1606125831604004,0.2549710273742676,-0.015211636200547218,-0.9942377805709839,0.1061137393116951,-0.4812788963317871,0.17520689964294434,1.2098039388656616
1.4839990538592216,-2.9750751226537004,-0.1556362716590139,-2.373952627182007,-3.43831729888916,0.23938091099262238,-0.014368753880262375,-0.9962354898452759,0.08549071103334427,-0.4093068540096283,0.24440425634384155,1.2078897953033447
1.5090680936809038,-2.897734180097261,-0.2684625279899154,-2.8710498809814453,-3.6012516021728516,0.398202508687973,-0.014894523657858372,-0.9980953931808472,0.05986300855875015,-0.35658079385757446,0.36447423696517944,1.1966521739959717
1.5356515788565361,-2.5879077195784888,-0.6151895281243037,-3.2468831539154053,-3.718217134475708,0.6619943380355835,-0.01847550831735134,-0.999382495880127,0.029886610805988312,-0.3047209680080414,0.47568565607070923,1.0934041738510132
1.5444148529942314,-1.4668580015273498,-1.774281425495501,-3.437770128250122,-3.8194828033447266,1.0001579523086548,-0.026232682168483734,-0.9996520280838013,-0.002736442256718874,-0.27767670154571533,0.6050903797149658,0.8780871033668518
1.5183433968629387,-0.8282212719319113,-2.452956675978571,-3.339956283569336,-4.194401741027832,1.2970649003982544,-0.03862421214580536,-0.9986246824264526,-0.035450175404548645,-0.286296546459198,0.7173442840576172,0.6060370802879333
1.4881735186378444,-0.7037958464530162,-2.6247362185508734,-2.5290777683258057,-5.325531005859375,1.154096007347107,-0.05340636149048805,-0.9965886473655701,-0.0629199892282486,-0.3573451042175293,0.8268041610717773,0.3008805513381958
1.4664754084198293,-0.7160160868932491,-2.6736849540320087,-1.3855472803115845,-6.862085342407227,1.0059220790863037,-0.06835111230611801,-0.9945635199546814,-0.07856053113937378,-0.6584098935127258,0.7936204075813293,-0.09340626746416092
1.4517028022211589,-0.7976565916787388,-2.6652095145231782,-0.7403280735015869,-7.679527282714844,1.20509934425354,-0.08503702282905579,-0.9929167628288269,-0.08297733217477798,-0.7758182287216187,0.6538510918617249,-0.4875490665435791
1.435644107168287,-0.9025525714812217,-2.636634093102544,-0.9248390793800354,-7.565471172332764,1.7177363634109497,-0.10575953125953674,-0.9908808469772339,-0.08348652720451355,-0.6941063404083252,0.7555903792381287,-0.5765478610992432
1.412137328913794,-0.985210199070188,-2.6268991299245035,-1.6372969150543213,-7.0449395179748535,2.2566287517547607,-0.13167044520378113,-0.9874400496482849,-0.0873214453458786,-0.6502510905265808,0.8847484588623047,-0.4495592713356018
1.380654174913818,-1.0295617557084598,-2.650384101757134,-2.4071905612945557,-6.4853715896606445,2.6293118000030518,-0.1619855910539627,-0.9819774031639099,-0.09737099707126617,-0.7408771514892578,0.9212017059326172,-0.38622599840164185
1.3432442694513131,-1.0464127670870071,-2.696780129589604,-3.032881498336792,-5.983470439910889,2.8328819274902344,-0.19528107345104218,-0.9742215275764465,-0.11295001208782196,-0.9547435641288757,0.9139799475669861,-0.5307269096374512
1.3025294393396005,-1.0504968801676131,-2.752052873945844,-3.320988178253174,-5.604243278503418,2.842710256576538,-0.22998541593551636,-0.9642317295074463,-0.13177233934402466,-1.172877311706543,0.9004042744636536,-0.8636654615402222
1.2643707470511005,-1.0599611352172251,-2.8006154938058163,-2.7151758670806885,-5.692924976348877,2.382580041885376,-0.2631426155567169,-0.9534178972244263,-0.14747978746891022,-1.3918715715408325,0.8424255847930908,-1.328335165977478
1.236626701642401,-1.091578061356536,-2.8282063030589573,-1.4568558931350708,-5.807700157165527,1.658870816230774,-0.291039377450943,-0.9446830153465271,-0.15122920274734497,-1.723166823387146,0.6147727966308594,-2.01545786857605
1.2209853941996807,-1.1340477144516836,-2.840109449541301,-0.7885039448738098,-4.781614780426025,0.7685648202896118,-0.31054985523223877,-0.9394375085830688,-0.14496919512748718,-1.8243838548660278,0.1285398006439209,-2.761204719543457
1.2147865827454987,-1.1510045857554125,-2.862421649560718,-1.2692279815673828,-2.7293107509613037,-0.29156073927879333,-0.31827521324157715,-0.9372950196266174,-0.14205347001552582,-1.783531665802002,-0.24013417959213257,-2.91200852394104
1.2151650752381338,-1.1118056409948727,-2.920899589774847,-2.433037519454956,-0.3964366316795349,-1.5286794900894165,-0.31214553117752075,-0.9374268651008606,-0.15425992012023926,-1.6909065246582031,-0.5382962822914124,-2.47952938079834
1.2196155990782995,-1.005942586752567,-3.0265232571189657,-3.446078062057495,1.7045856714248657,-2.8091351985931396,-0.29057130217552185,-0.9389671683311462,-0.1841442734003067,-1.452883005142212,-0.7731756567955017,-2.0263051986694336
1.2243451184325729,-0.8475574418065509,3.11492830456134,-3.6216442584991455,3.2399234771728516,-3.681722640991211,-0.25455808639526367,-0.9405836462974548,-0.22472761571407318,-1.181553602218628,-0.7591995596885681,-1.8399697542190552
1.2264061788617653,-0.672238811510174,2.967002929777461,-2.9050724506378174,3.884432554244995,-3.7571699619293213,-0.21025097370147705,-0.9412815570831299,-0.2641660273075104,-0.7625733613967896,-0.5096613764762878,-1.9532108306884766
1.226404146842034,-0.5177549505286664,2.84395304473048,-1.7347382307052612,3.7946829795837402,-3.046604871749878,-0.16710083186626434,-0.9412808418273926,-0.293373167514801,-0.17635948956012726,-0.12665122747421265,-2.0865707397460938
1.227507890656061,-0.4054083630674091,2.7629115077243385,-0.5192013382911682,3.424814224243164,-1.9264026880264282,-0.13274738192558289,-0.9416528940200806,-0.30930250883102417,0.3491320013999939,0.22793829441070557,-2.041253089904785
1.2326255074862653,-0.3368687719545375,2.7248266376399233,0.5175768733024597,3.135221004486084,-0.8518878221511841,-0.10965850949287415,-0.9433630704879761,-0.3131152391433716,0.5923242568969727,0.4464149475097656,-1.904963493347168
1.2427871775095796,-0.30144955762058206,2.7196741277226137,1.2679197788238525,3.0047388076782227,-0.16123023629188538,-0.0956505686044693,-0.9466856122016907,-0.30763205885887146,0.4898916482925415,0.5076138973236084,-1.7844396829605103
1.2571343948262463,-0.2845046671277992,2.7333953209700548,1.699129581451416,3.0163471698760986,0.11514515429735184,-0.08660280704498291,-0.951210081577301,-0.2961409091949463,0.1356443464756012,0.4730454683303833,-1.6664446592330933
1.274118907740142,-0.27230867685427745,2.7532013972382656,1.8729395866394043,3.2440903186798096,0.060242295265197754,-0.07862778007984161,-0.9563131332397461,-0.28157249093055725,-0.2946177124977112,0.4187001585960388,-1.5417613983154297
1.292190821718172,-0.25239974265614695,2.7683237046621496,1.8203299045562744,3.6716158390045166,-0.18190856277942657,-0.06867905706167221,-0.9614399075508118,-0.2663014233112335,-0.6678171157836914,0.3729390501976013,-1.423655390739441
1.309405149823342,-0.21640382830061602,2.7718680026569613,1.5592652559280396,4.2215962409973145,-0.42974957823753357,-0.055488552898168564,-0.9660313725471497,-0.2523968815803528,-0.9214251041412354,0.387509822845459,-1.277312159538269
1.3238908544458439,-0.16309197602560177,2.7623642612549473,1.1916800737380981,4.574707508087158,-0.5731432437896729,-0.03968396037817001,-0.9696733951568604,-0.24116136133670807,-0.9906812310218811,0.4274371266365051,-1.0532267093658447
1.3343811859580255,-0.09908486172110564,2.743981782233499,0.7744989395141602,4.6482133865356445,-0.5606695413589478,-0.023169616237282753,-0.972183883190155,-0.23307032883167267,-0.9123774766921997,0.49789494276046753,-0.7879259586334229
1.3403836502175284,-0.03345456866009194,2.7239426132829125,0.37255412340164185,4.58652925491333,-0.43590548634529114,-0.007638908922672272,-0.9735722541809082,-0.2282516062259674,-0.7732297778129578,0.5661320686340332,-0.5660143494606018
1.3428041548894407,0.02612308873941198,2.7093646684602573,0.14017735421657562,4.508305072784424,-0.22243128716945648,0.005903712008148432,-0.974122166633606,-0.22594453394412994,-0.6592852473258972,0.6579754948616028,-0.4289475977420807
1.3441698216584335,0.07484519709498956,2.705070762782922,0.1797143667936325,4.410338401794434,0.042136985808610916,0.016801374033093452,-0.9744299054145813,-0.22406233847141266,-0.5729691386222839,0.7131690979003906,-0.42574867606163025
1.3472036090827508,0.11249271860487853,2.710778512628171,0.4206298887729645,4.2438645362854,0.2606327533721924,0.024890923872590065,-0.9751071333885193,-0.22033284604549408,-0.503086268901825,0.7015628218650818,-0.5414319038391113
1.353176303787989,0.14217627018194146,2.722795553122171,0.7137342095375061,4.03751802444458,0.40672925114631653,0.03059345856308937,-0.9764140844345093,-0.2137279361486435,-0.4934689700603485,0.6830028891563416,-0.5969259738922119
1.3620446262119552,0.16675021410326551,2.7373254605098962,0.9437420964241028,3.7313427925109863,0.46259623765945435,0.0343971848487854,-0.9782903790473938,-0.20436422526836395,-0.49065035581588745,0.6345404386520386,-0.528393566608429
1.3729204754672704,0.18845968718408537,2.7515364145248378,1.0934274196624756,3.399627685546875,0.4924127459526062,0.03682977706193924,-0.9804863929748535,-0.19310608506202698,-0.4712018370628357,0.5731073617935181,-0.375757098197937
1.3850503099632578,0.20512909256460146,2.7671035846144596,1.165432095527649,2.989349365234375,0.5777527093887329,0.03761801868677139,-0.9827987551689148,-0.18080762028694153,-0.42418429255485535,0.48719340562820435,-0.20801709592342377
1.3982099896182092,0.20998942926392652,2.7898477073394465,1.2583072185516357,2.441894054412842,0.7746210098266602,0.035797156393527985,-0.9851438999176025,-0.16795815527439117,-0.3556825518608093,0.4264129400253296,-0.04510055482387543
1.4132652854423835,0.19495455744815712,2.8263916924055468,1.476421594619751,1.7710469961166382,1.0021555423736572,0.030391281470656395,-0.9876176118850708,-0.15390905737876892,-0.258342444896698,0.350807249546051,0.08606819808483124
1.4309559833469467,0.15871075389952907,2.8777203753452887,1.7337732315063477,1.1639187335968018,1.101473331451416,0.022029291838407516,-0.9902382493019104,-0.13763411343097687,-0.21291683614253998,0.23570632934570312,0.14489702880382538
1.4504035381061602,0.1092181509500858,2.937790460630741,1.9083110094070435,0.891616940498352,0.9174282550811768,0.013091381639242172,-0.9927615523338318,-0.11938753724098206,-0.28027287125587463,0.10943019390106201,0.16650639474391937
1.4705876842614598,0.0749549894898789,2.9808214710613825,2.023359775543213,0.8239630460739136,0.3625892996788025,0.007491596043109894,-0.9949833154678345,-0.09976068139076233,-0.45022544264793396,-0.0440182089805603,0.23734889924526215
1.4903181686790832,0.09758704671938423,2.9657602288177087,1.8863831758499146,0.6918570399284363,-0.2803248465061188,0.007832789793610573,-0.9967634081840515,-0.08000968396663666,-0.7081502676010132,-0.192704975605011,0.347404420375824
1.5054987994682119,0.209409383267386,2.8600582811885684,1.2946957349777222,0.5754672884941101,-0.7562612891197205,0.013564782217144966,-0.9978688955307007,-0.06382673978805542,-0.7638090252876282,-0.3674722909927368,0.6252888441085815
1.510764136368047,0.3930459064589291,2.680583177967212,0.3504132628440857,0.31788647174835205,-1.0573879480361938,0.022979166358709335,-0.9981986284255981,-0.05542223900556564,-0.6120142936706543,-0.45178306102752686,1.0721760988235474
1.5045401138429393,0.5379963337934874,2.5369205075706254,-0.6289783716201782,-0.02647198736667633,-1.0804439783096313,0.03392593562602997,-0.9978058338165283,-0.05685505270957947,-0.45409202575683594,-0.4636504054069519,1.5077978372573853
1.4908571452132744,0.5760354872273542,2.496158597852396,-1.329551100730896,-0.49587544798851013,-0.8683401942253113,0.0434965081512928,-0.9968065619468689,-0.06696748733520508,-0.24656055867671967,-0.5211529731750488,1.7313196659088135
1.4740608850367112,0.5540266344077824,2.511978093998962,-1.61062753200531,-0.7051059007644653,-0.7123860120773315,0.05081428959965706,-0.9953247904777527,-0.08213615417480469,-0.06387591361999512,-0.5409299731254578,1.6725594997406006
1.4565763439506745,0.5253936059080542,2.5344970073395796,-1.6104744672775269,-0.4735783338546753,-0.7030795216560364,0.057162486016750336,-0.9934839606285095,-0.09859921038150787,-0.0821259617805481,-0.5730594396591187,1.405041217803955
1.439499908414465,0.515257840840613,2.5439040651125726,-1.4679986238479614,0.3913958668708801,-0.7942277789115906,0.06451182812452316,-0.9913930296897888,-0.11392171680927277,-0.21934285759925842,-0.5848398804664612,1.1031181812286377
1.4233902643757916,0.5274126452826414,2.5416626249751246,-1.2779752016067505,1.5874269008636475,-0.8713212609291077,0.07392118126153946,-0.9891554117202759,-0.12691493332386017,-0.3513107895851135,-0.5392412543296814,0.8506390452384949
1.4092298893111395,0.5645450464377986,2.5235637965312514,-0.7987920045852661,2.133734703063965,-1.1092246770858765,0.086067333817482,-0.9869765043258667,-0.13590312004089355,-0.38848134875297546,-0.42092132568359375,0.7124409079551697
1.3985096232505028,0.631518888676658,2.474567432971695,-0.02772710472345352,1.467868685722351,-1.4370137453079224,0.10121079534292221,-0.9851953387260437,-0.1383712887763977,-0.44735652208328247,-0.3475835919380188,0.7747693061828613
1.3919939659073106,0.7189034653661068,2.3939989700646023,0.7565764784812927,0.11286511272192001,-1.5344966650009155,0.11712610721588135,-0.9840574264526367,-0.13383856415748596,-0.3685910105705261,-0.44254791736602783,1.027560830116272
1.3895226740383493,0.8098025697475287,2.2962240699983547,1.2752059698104858,-1.1118475198745728,-1.3093254566192627,0.1305522918701172,-0.9836148619651794,-0.1243307814002037,-0.06696897745132446,-0.45213037729263306,1.3378467559814453
1.3900656657473502,0.8921095209113331,2.1976049393832082,1.4266173839569092,-1.762467384338379,-0.9490979909896851,0.13991573452949524,-0.9837126135826111,-0.11284088343381882,0.2486644834280014,-0.33214426040649414,1.5295124053955078
1.3920820946955628,0.9586480600685802,2.1107971953675557,1.2726038694381714,-1.9861639738082886,-0.6123531460762024,0.14548535645008087,-0.9840730428695679,-0.10214836895465851,0.40062662959098816,-0.21226173639297485,1.595724105834961
1.3942263560971815,1.0066038152355423,2.041597416998458,1.0006964206695557,-2.0357346534729004,-0.4030953049659729,0.14843147993087769,-0.9844520092010498,-0.09392824023962021,0.42626020312309265,-0.1396477222442627,1.6193796396255493
1.3958386599317014,1.0378061331884643,1.9895757368610179,0.7271623015403748,-1.9665766954421997,-0.27963492274284363,0.14992213249206543,-0.9847338795661926,-0.08844518661499023,0.36670982837677,-0.1203380823135376,1.5840198993682861
1.3970371058996325,1.0549611740113893,1.952618530732411,0.5155443549156189,-1.8984365463256836,-0.149039626121521,0.1503906100988388,-0.984941840171814,-0.08527820557355881,0.29943835735321045,-0.08764427900314331,1.481014609336853
1.398680745189005,1.0605681102760947,1.9274853408594719,0.4184150695800781,-1.9607774019241333,0.01323140412569046,0.14945323765277863,-0.9852246642112732,-0.08364275842905045,0.307516872882843,-0.05408197641372681,1.3802428245544434
1.4017270703434905,1.0579266697411196,1.9093373583586442,0.4292621314525604,-2.1612870693206787,0.2234506756067276,0.1466163843870163,-0.9857417941093445,-0.08256442099809647,0.35976168513298035,-0.04250228404998779,1.290541410446167
1.4070121435208136,1.0496722941887053,1.8946325001864686,0.5294430255889893,-2.3974456787109375,0.45528990030288696,0.14140932261943817,-0.9866173267364502,-0.0811767727136612,0.41538378596305847,-0.049118757247924805,1.207885503768921
1.4149682633721905,1.0396886510855108,1.8794350864468705,0.6918798685073853,-2.6015853881835938,0.6797158122062683,0.13381922245025635,-0.9878833293914795,-0.07860620319843292,0.4295504093170166,-0.05259817838668823,1.1256945133209229
1.4256396150083857,1.0302862902297933,1.8621624052113779,0.8365699648857117,-2.6833083629608154,0.8878604769706726,0.12402823567390442,-0.9894832372665405,-0.07443220913410187,0.41273006796836853,-0.05197495222091675,1.0422968864440918
1.438273376276258,1.0207138328463803,1.8450822829889943,0.8576747179031372,-2.6035220623016357,1.0208121538162231,0.11264363676309586,-0.9912316799163818,-0.06907518953084946,0.3836483657360077,-0.058206915855407715,0.9890883564949036
1.4513883772354486,1.003226154657601,1.8376540655855538,0.6665467023849487,-2.3562562465667725,1.1046055555343628,0.10044769942760468,-0.992879331111908,-0.06404000520706177,0.3260353207588196,-0.05462139844894409,1.001020908355713
1.463410056091105,0.9636428826697054,1.8557952459383322,0.3125404119491577,-1.948173999786377,1.1244860887527466,0.08802470564842224,-0.9942396283149719,-0.061149898916482925,0.2856781482696533,-0.057029902935028076,1.0683517456054688
1.473190880410844,0.8868298909837926,1.9155830708181616,-0.12314698845148087,-1.5333739519119263,1.1901161670684814,0.07553088665008545,-0.9952403903007507,-0.061576005071401596,0.24417108297348022,-0.022810697555541992,1.1259983777999878
1.4798059383938729,0.7583094495225198,2.0308367416780277,-0.5574899315834045,-1.249699354171753,1.2424813508987427,0.06248844414949417,-0.9958632588386536,-0.06596904247999191,0.2669028639793396,0.022154033184051514,1.1507923603057861
1.4818757706499457,0.5944002165040103,2.1829970779741514,-0.8066977858543396,-1.273479700088501,1.128523588180542,0.04973040148615837,-0.996049165725708,-0.07357141375541687,0.2683388590812683,0.08433663845062256,1.1691980361938477
1.4793889101155313,0.4356042468741712,2.328288834968496,-0.9073285460472107,-1.5577489137649536,0.8937086462974548,0.03851622715592384,-0.9958252310752869,-0.08275557309389114,0.14973127841949463,0.09871536493301392,1.122626543045044
1.4734858785653173,0.30876128426080623,2.438854091234918,-0.9570439457893372,-1.7865179777145386,0.6291175484657288,0.02952389046549797,-0.9952690601348877,-0.09256234019994736,0.022966161370277405,0.08273249864578247,1.039354681968689
1.4652384769743843,0.21674664945501368,2.51251760437278,-1.0234277248382568,-1.9622992277145386,0.37361282110214233,0.02265867590904236,-0.9944339394569397,-0.10289770364761353,-0.08544878661632538,0.13183921575546265,0.9281538128852844
1.4557040837954374,0.1592566215485744,2.549990066900949,-1.0016753673553467,-2.0823569297790527,0.09451694786548615,0.018211789429187775,-0.9933841824531555,-0.11338657140731812,-0.1667715311050415,0.20137661695480347,0.8087751269340515
1.4460325140172705,0.12451590135473561,2.5637846192690295,-0.9834619760513306,-2.126400947570801,-0.008305842988193035,0.015454765409231186,-0.9922270774841309,-0.12347669154405594,-0.2570015788078308,0.23372799158096313,0.6725334525108337
1.4358146901433746,0.08958834362714528,2.577766488032444,-1.139954686164856,-2.086057662963867,0.2010316550731659,0.012040000408887863,-0.9909037947654724,-0.134032741189003,-0.22743326425552368,0.3128337264060974,0.543380081653595
1.4231831014274914,0.032912458704808384,2.6137473821659274,-1.4794247150421143,-2.1841132640838623,0.670946478843689,0.004839828237891197,-0.9891249537467957,-0.14699845016002655,-0.10641779005527496,0.45085591077804565,0.5244243741035461
1.4071011135044516,-0.043358267267827634,2.6668238509813893,-1.694238305091858,-2.6262292861938477,0.9476250410079956,-0.007063677068799734,-0.9866318106651306,-0.16281208395957947,0.012297253124415874,0.5961441993713379,0.5637518763542175
1.3898079122457647,-0.12005009861271128,2.714513478660793,-1.5938490629196167,-3.3532092571258545,0.9420737028121948,-0.02155737578868866,-0.9836662411689758,-0.1787063479423523,-0.13739362359046936,0.6722954511642456,0.5348462462425232
1.3742412604356466,-0.19073941033089253,2.7488189576028392,-1.2867891788482666,-4.030222415924072,0.8138227462768555,-0.03702450171113014,-0.9807451367378235,-0.1917506456375122,-0.40340539813041687,0.6539629697799683,0.2826928496360779
1.3605653198469954,-0.25898611010467504,2.7753443285307156,-1.1974979639053345,-4.364356994628906,0.8800076246261597,-0.053444620221853256,-0.977982759475708,-0.20172639191150665,-0.577125072479248,0.6762555241584778,0.004109621047973633
1.3446037074082784,-0.32734559792513,2.802355152716514,-1.592588186264038,-3.95959210395813,1.1920076608657837,-0.07210937887430191,-0.9745273590087891,-0.21236014366149902,-0.5864143967628479,0.7010593414306641,-0.1941189169883728
1.3204909362934578,-0.3890564263365701,2.8295763691216824,-2.5430383682250977,-3.075961112976074,1.7548658847808838,-0.09395641833543777,-0.9688368439674377,-0.22918865084648132,-0.5689466595649719,0.7789870500564575,-0.2915329933166504
1.2827660700357353,-0.44164927447678043,2.856470466349628,-3.7882461547851562,-2.3246700763702393,2.650266647338867,-0.1214178130030632,-0.95880526304245,-0.2568075358867645,-0.5621761679649353,0.890125572681427,-0.2960032522678375
1.2303541446938708,-0.49134786965694194,2.885214245420165,-4.716979026794434,-2.270792007446289,3.6619465351104736,-0.15754078328609467,-0.9426071047782898,-0.2944023013114929,-0.45232272148132324,0.9840348362922668,-0.2754220962524414
1.1682211411519443,-0.5480344377143302,2.9171900325969045,-4.788707256317139,-3.2447574138641357,4.47683572769165,-0.2041262537240982,-0.920055091381073,-0.3344116806983948,-0.3998931348323822,1.0970876216888428,-0.4878998398780823
1.1078063740444963,-0.6212945821396632,2.952569454111892,-3.4954757690429688,-5.062891960144043,4.540586471557617,-0.2599754333496094,-0.8947210907936096,-0.3631625473499298,-0.6166880130767822,1.156073808670044,-0.9775052666664124
1.0641423826499832,-0.7141069085547969,2.9914302232821046,-1.0588514804840088,-6.496682167053223,3.5872557163238525,-0.3178137242794037,-0.8743730783462524,-0.36669614911079407,-1.1903499364852905,0.9303882718086243,-1.8615295886993408
1.0453793699898866,-0.8160448750738185,3.03375621547229,1.0790029764175415,-6.3182854652404785,1.9634861946105957,-0.3653673827648163,-0.8651148676872253,-0.3436320722103119,-1.90062415599823,0.3786342740058899,-2.9655416011810303
1.0469629014931796,-0.8985638869079381,3.0676426512065653,1.4128730297088623,-4.105648994445801,-0.008810048922896385,-0.3913755714893341,-0.8659080266952515,-0.31149357557296753,-2.3153202533721924,-0.20123040676116943,-3.5255730152130127
1.058757437648578,-0.9205135970072503,3.0657690216770788,-0.3315180540084839,-0.5204976797103882,-1.9370776414871216,-0.38996198773384094,-0.8717473745346069,-0.2966248393058777,-2.3122172355651855,-0.6734490394592285,-3.166586399078369
1.0698947680413693,-0.8530758234331454,3.0038460526105,-2.9243087768554688,3.092759609222412,-3.5467426776885986,-0.3617505431175232,-0.8771499991416931,-0.3158237636089325,-2.0737662315368652,-0.8871322274208069,-2.1270015239715576
1.0715504973013474,-0.7046889478415301,2.8857807153178894,-4.616860866546631,5.7089152336120605,-4.673092365264893,-0.3101416528224945,-0.8779438734054565,-0.36472848057746887,-1.6585627794265747,-0.7245035171508789,-1.1458001136779785
1.060838880822081,-0.5191202501735763,2.746631006362873,-4.691256523132324,6.851162910461426,-5.003365516662598,-0.24217428267002106,-0.872765302658081,-0.42383044958114624,-1.1651288270950317,-0.2723303437232971,-0.9200721979141235
1.0428872183422553,-0.34558825128653003,2.6243136558826463,-3.5493853092193604,6.460484504699707,-4.4092230796813965,-0.1706380546092987,-0.8638622164726257,-0.4739460051059723,-0.5561535954475403,0.223771333694458,-1.1471631526947021
1.0275422078650085,-0.21324296578947985,2.5378881483519393,-1.8087364435195923,5.0971198081970215,-3.1820132732391357,-0.10939697176218033,-0.856031060218811,-0.5052158832550049,0.06052281707525253,0.6265389919281006,-1.2666958570480347
1.0226706432284898,-0.12669581871958926,2.487515631126628,-0.07785679399967194,3.652346134185791,-1.8206157684326172,-0.06584325432777405,-0.8535026907920837,-0.5169118642807007,0.47471752762794495,0.8445153832435608,-1.2968699932098389
1.0298456988173057,-0.07624969627627387,2.464935655706562,1.19514799118042,2.6601269245147705,-0.6906403303146362,-0.03922683745622635,-0.8572195172309875,-0.5134549736976624,0.5743065476417542,0.9281728863716125,-1.26338529586792
1.0457046921296427,-0.04945617078085776,2.4618033632747505,1.8899818658828735,2.232609510421753,0.13317261636257172,-0.02478189766407013,-0.8652780055999756,-0.5006794929504395,0.3921370208263397,0.9635446667671204,-1.135581612586975
1.0658482725415226,-0.035660362441807876,2.4713052553897463,2.1354455947875977,2.2333805561065674,0.5884354710578918,-0.01724747009575367,-0.8751996159553528,-0.4834543764591217,0.10574819892644882,0.9240888953208923,-0.9923300743103027
1.0868209537349598,-0.02606190535289936,2.48721140772645,2.08482027053833,2.5118298530578613,0.7727818489074707,-0.012125274166464806,-0.8851521611213684,-0.4651435911655426,-0.20741841197013855,0.8819937109947205,-0.8635613918304443
1.1063461078050492,-0.0167105542666038,2.506180483113944,1.8446495532989502,2.71397066116333,0.8743575215339661,-0.0074848304502666,-0.8940679430961609,-0.4478686451911926,-0.4498670697212219,0.8430579900741577,-0.7508008480072021
1.1229882554130906,-0.009150394477856635,2.5276093298053057,1.5101701021194458,2.622957229614258,0.973963737487793,-0.0039619808085262775,-0.9013983607292175,-0.43297260999679565,-0.5392511487007141,0.7902076840400696,-0.6061053276062012
1.1362266893122706,-0.006344812213686538,2.5519349045647535,1.1581063270568848,2.330458879470825,1.0890839099884033,-0.002671274356544018,-0.9070513248443604,-0.42101144790649414,-0.5677024722099304,0.7463458776473999,-0.4667755663394928
1.146084689033992,-0.0102424657358322,2.579874777899117,0.8514502644538879,1.9883323907852173,1.2257778644561768,-0.004220415372401476,-0.9111576080322266,-0.41203629970550537,-0.5763919949531555,0.7300664186477661,-0.37344053387641907
1.1537501150344158,-0.020144817411652624,2.6115288198129427,0.7560576796531677,1.8475918769836426,1.3383347988128662,-0.008159337565302849,-0.9142894148826599,-0.40497928857803345,-0.5821728706359863,0.7410717606544495,-0.3421827256679535
1.1612066345562,-0.03282813317943409,2.6461227407478702,0.838148295879364,2.000307321548462,1.3907383680343628,-0.013070894405245781,-0.9172843098640442,-0.39801833033561707,-0.6116546392440796,0.7444481253623962,-0.4980389177799225
1.1694505802698232,-0.043633230790443636,2.6817385974199874,0.921958327293396,2.4173810482025146,1.351305603981018,-0.01704023964703083,-0.9205361008644104,-0.3902856707572937,-0.6853067278862,0.759311854839325,-0.7157630920410156
1.178098410510301,-0.049491364243881245,2.716831576877694,0.9298985600471497,2.8863372802734375,1.283597707748413,-0.018931739032268524,-0.9238799810409546,-0.3822137415409088,-0.7669876217842102,0.6982331275939941,-0.7693519592285156
1.1865990837118066,-0.0508725002790535,2.7513141691789587,0.9106488227844238,3.197584867477417,1.244484305381775,-0.019059550017118454,-0.9270996451377869,-0.3743300139904022,-0.7601612210273743,0.6059327721595764,-0.6755053997039795
1.1952448966009253,-0.05077659246239933,2.7856414580887545,0.9548447728157043,3.165473222732544,1.2191095352172852,-0.01861611381173134,-0.9303054809570312,-0.36631274223327637,-0.7234189510345459,0.5313035845756531,-0.5277304649353027
1.2043031254256782,-0.05331019320474479,2.8208145203930854,0.9850634336471558,2.8775312900543213,1.244245171546936,-0.01909434050321579,-0.9335896968841553,-0.35783490538597107,-0.6590674519538879,0.4457509517669678,-0.36271587014198303
1.2132900638779442,-0.06116334766556128,2.8579642953641478,0.9576696157455444,2.502223014831543,1.2774158716201782,-0.021390119567513466,-0.9367724061012268,-0.3492850065231323,-0.5287961959838867,0.3778277635574341,-0.16855275630950928
1.2216765748631533,-0.07422328070517505,2.896140026392288,0.8957431316375732,2.0513033866882324,1.2422715425491333,-0.025366319343447685,-0.9396741986274719,-0.3411290943622589,-0.4183594286441803,0.3324812650680542,0.0403018593788147
1.2292536126723705,-0.09089467969181338,2.933749857076845,0.8280868530273438,1.7378724813461304,1.1711955070495605,-0.030402449890971184,-0.9422390460968018,-0.3335583209991455,-0.3736504316329956,0.2693418860435486,0.2085275948047638
1.236090709701545,-0.10700355146532427,2.969336043710169,0.7744219303131104,1.8161463737487793,1.031983494758606,-0.03508266061544418,-0.9445070624351501,-0.3266121745109558,-0.31971484422683716,0.1471744179725647,0.2711920440196991
1.242749284893189,-0.11560492877162858,3.0001035099948274,0.7846447229385376,2.3307249546051025,0.8105959892272949,-0.03716439753770828,-0.9466733932495117,-0.32004421949386597,-0.31995245814323425,0.05464470386505127,0.19077154994010925
1.2499395591227116,-0.11343049435872343,3.025032078906095,0.82563316822052,2.794701099395752,0.598109245300293,-0.03569702431559563,-0.9489655494689941,-0.3133530914783478,-0.4192744195461273,0.01763021945953369,0.07154679298400879
1.2577065928789497,-0.10147695184399995,3.042373198105562,0.8415567278862,2.8522164821624756,0.31036266684532166,-0.031201260164380074,-0.9513864517211914,-0.30641528964042664,-0.4250977039337158,-0.05160415172576904,0.10962241888046265
1.2656442353527966,-0.0834781710504013,3.051907063015878,0.7731858491897583,2.531080484390259,0.1457327902317047,-0.02505093812942505,-0.9538012742996216,-0.2993922829627991,-0.3694193959236145,-0.17566949129104614,0.34634333848953247
1.272086431450186,-0.06647693823286639,3.0584687824604906,0.5236423015594482,2.149097442626953,0.1644047349691391,-0.019548924639821053,-0.9557169675827026,-0.2936374545097351,-0.21130140125751495,-0.2836323380470276,0.6077699065208435
1.275449623111233,-0.05395393530867568,3.066189668731525,0.17319419980049133,1.8418681621551514,0.24364636838436127,-0.015696832910180092,-0.9567012786865234,-0.2906479239463806,-0.024388117715716362,-0.336725115776062,0.8418866991996765
1.2754001749852988,-0.04563745450715657,3.075245283331373,-0.14776943624019623,1.5652506351470947,0.2813820540904999,-0.013281316496431828,-0.9566869139671326,-0.2908158302307129,0.0548614077270031,-0.39125919342041016,0.9952833652496338
1.2729018241918975,-0.03962639281350038,3.0845004862271312,-0.2910313308238983,1.440863013267517,0.2728615403175354,-0.011627630330622196,-0.9559565782546997,-0.2932778596878052,0.01991306245326996,-0.526602566242218,1.0590399503707886
1.2705571553390398,-0.032215441415589435,3.092224177920811,-0.12903495132923126,1.5579373836517334,0.18608777225017548,-0.009526029229164124,-0.9552657604217529,-0.29559531807899475,-0.05199751257896423,-0.687846302986145,0.9720324277877808
1.2706897942814943,-0.01808899221095023,3.0953555654910136,0.1697930246591568,1.8876698017120361,-0.011682935059070587,-0.0053472137078642845,-0.9553049802780151,-0.29557371139526367,-0.1949092149734497,-0.7873554229736328,0.7480576038360596
1.2741166764768832,0.006562639107534557,3.0912739704675043,0.5192666053771973,2.2592926025390625,-0.21724674105644226,0.0019185488345101476,-0.9563124775886536,-0.29233992099761963,-0.35706692934036255,-0.8776106834411621,0.647884726524353
1.2808069063537173,0.038917962615609515,3.0817604635067317,0.8263026475906372,2.348456859588623,-0.2931378483772278,0.011125462129712105,-0.9582468867301941,-0.28572526574134827,-0.4459857642650604,-0.8925982713699341,0.6956676244735718
1.2900444754635192,0.07310954817625637,3.0689774881206455,1.0594847202301025,1.9910128116607666,-0.32335540652275085,0.020238999277353287,-0.9608473777770996,-0.27633774280548096,-0.40579816699028015,-0.8344405293464661,0.8810280561447144
1.3012118694136887,0.10513081059197411,3.0529177245635313,1.258558988571167,1.2985215187072754,-0.35266485810279846,0.02794804982841015,-0.9638816714286804,-0.2648605704307556,-0.35465407371520996,-0.7876899242401123,1.1830732822418213
1.31413921981559,0.13406258661655887,3.0321177748101946,1.4390145540237427,0.4691290557384491,-0.42221570014953613,0.03392975777387619,-0.9672439694404602,-0.2515708804130554,-0.31228065490722656,-0.731242299079895,1.4149160385131836
1.328079409702509,0.1616583268621086,3.0046753125664534,1.5067355632781982,-0.23496347665786743,-0.5045647621154785,0.038684044033288956,-0.9706885814666748,-0.23720690608024597,-0.27566835284233093,-0.6821432709693909,1.5421230792999268
1.3414497210296215,0.18887233359086172,2.971854804818376,1.3683648109436035,-0.6722363829612732,-0.5342438220977783,0.04268369451165199,-0.9738151431083679,-0.22329865396022797,-0.22781863808631897,-0.6213996410369873,1.5979931354522705
1.351925576336812,0.21408535631180955,2.93815116887591,0.9533016085624695,-0.8202163577079773,-0.5095070600509644,0.046129632741212845,-0.9761432409286499,-0.21217109262943268,-0.14077997207641602,-0.5224681496620178,1.6180546283721924
1.3571205891993092,0.23410639046099663,2.909856698005944,0.3114427328109741,-0.6792795062065125,-0.4426015019416809,0.04919092357158661,-0.9772580862045288,-0.20626935362815857,-0.06669282913208008,-0.41232937574386597,1.6307075023651123
1.3557288235209561,0.24587241056782455,2.892237904475694,-0.40050190687179565,-0.4078798294067383,-0.347288578748703,0.05194532126188278,-0.9769619703292847,-0.20699486136436462,-0.008793558925390244,-0.2918824553489685,1.6090179681777954
1.3480491350390968,0.2465728709488685,2.888541766242146,-1.0373302698135376,-0.192201629281044,-0.16859635710716248,0.05392003431916237,-0.9752942323684692,-0.2142280787229538,0.05986469238996506,-0.1692063808441162,1.5265446901321411
1.335555790012387,0.23281786158998716,2.9007895952965757,-1.5021415948867798,-0.213357612490654,0.12525984644889832,0.05377554893493652,-0.9724583029747009,-0.22678843140602112,0.168804332613945,-0.06465095281600952,1.3930784463882446
1.3202912167182914,0.2038576140131417,2.926812351041337,-1.7211577892303467,-0.5725429654121399,0.4246833026409149,0.050185658037662506,-0.9687873125076294,-0.24276022613048553,0.3004001975059509,0.036765336990356445,1.2444689273834229
1.3046342474301917,0.16421415687324603,2.9585257676392627,-1.6184399127960205,-1.256165862083435,0.5680442452430725,0.042999498546123505,-0.964787483215332,-0.2594921886920929,0.3455349802970886,0.0898790955543518,1.0990610122680664
1.2912067410742432,0.11989134718265791,2.987468224966141,-1.2465946674346924,-2.0301387310028076,0.5917195081710815,0.03300619125366211,-0.9611687660217285,-0.2739805579185486,0.2662948668003082,0.040926456451416016,0.9274379014968872
1.2816698189896634,0.07284101467262945,3.0124412643000267,-0.7976751923561096,-2.5524184703826904,0.6195297837257385,0.020749708637595177,-0.9584932923316956,-0.28435900807380676,0.1696799099445343,-0.07332116365432739,0.7219045162200928
1.2761562048170088,0.023957903043823,3.035599799300178,-0.3936203420162201,-2.7635304927825928,0.6577988862991333,0.006956600584089756,-0.9569067358970642,-0.29031211137771606,0.12182747572660446,-0.13945245742797852,0.5350017547607422
1.273685590701003,-0.025946638354830846,3.058854173506461,-0.1306815892457962,-2.7600016593933105,0.6992138028144836,-0.007595248986035585,-0.9561863541603088,-0.29266005754470825,0.07442865520715714,-0.1602838635444641,0.42084887623786926
1.2727394568934645,-0.07619349081565528,3.083128077499907,-0.011683572083711624,-2.640998601913452,0.7307363152503967,-0.022353587672114372,-0.9559088945388794,-0.2928112745285034,0.03938227519392967,-0.19753336906433105,0.4095102548599243
1.2719782944528368,-0.1244035815730905,3.1071164018964446,-0.025357119739055634,-2.4158809185028076,0.6749204993247986,-0.036528900265693665,-0.9556851387023926,-0.29211586713790894,-0.0005500614643096924,-0.22992271184921265,0.46301406621932983
1.2701659697392873,-0.16632688851326766,3.1271452979508476,-0.18467433750629425,-2.1469266414642334,0.5457382798194885,-0.04902637004852295,-0.9551500082015991,-0.2920359671115875,-0.0579378679394722,-0.2547650933265686,0.528241753578186
1.2664336661586988,-0.19927447177207472,3.140409670080606,-0.4128425419330597,-1.9262803792953491,0.3613206148147583,-0.059325139969587326,-0.954038143157959,-0.29375454783439636,-0.06421011686325073,-0.29554975032806396,0.6089398860931396
1.2609477050186964,-0.22216498782400615,-3.138210200818775,-0.6007487773895264,-1.8044036626815796,0.13932457566261292,-0.0671854168176651,-0.9523797631263733,-0.2974203824996948,-0.039092160761356354,-0.31919604539871216,0.6865040063858032
1.2544773414419401,-0.23707126940184653,3.141546695582158,-0.7030550837516785,-1.8578001260757446,-0.040822211652994156,-0.07305696606636047,-0.9503868818283081,-0.3023695945739746,-0.023317664861679077,-0.29892629384994507,0.7212231159210205
1.2477274094327209,-0.24847510937400427,3.1332278818140997,-0.730520486831665,-2.010202407836914,-0.13127274811267853,-0.07807616889476776,-0.948265552520752,-0.3077278733253479,0.029186882078647614,-0.2684548497200012,0.7297552824020386
1.2410775677209538,-0.26017090782865165,3.1238835794266584,-0.7102962136268616,-2.0909409523010254,-0.09611915796995163,-0.08329019695520401,-0.9461334347724915,-0.31288042664527893,0.10332483053207397,-0.21377849578857422,0.710585355758667
1.2344084392540353,-0.27499311370099366,3.1176373495464826,-0.6927683353424072,-2.0458078384399414,0.06832171976566315,-0.08962982892990112,-0.9439530968666077,-0.31767722964286804,0.16549637913703918,-0.13491934537887573,0.6705517768859863
1.2271198029222645,-0.29424535530031953,3.117087582176456,-0.7324527502059937,-1.9128868579864502,0.3128451406955719,-0.09772174805402756,-0.9415222406387329,-0.32246923446655273,0.21651127934455872,-0.046438515186309814,0.6207478046417236
1.218746891142471,-0.3170891222491421,3.1214029414787037,-0.7733026742935181,-1.8769632577896118,0.4430588185787201,-0.10751631110906601,-0.9386680126190186,-0.3276318609714508,0.23060879111289978,0.032524943351745605,0.5934550762176514
1.2104378539240643,-0.34063990756558743,3.1252749015999575,-0.7161661982536316,-2.1581742763519287,0.31894344091415405,-0.11780349910259247,-0.9357705116271973,-0.33234918117523193,0.14473509788513184,0.07912689447402954,0.5956088304519653
1.2041489187956587,-0.36255410217337286,3.123176970716678,-0.5270865559577942,-2.646324396133423,-0.04376576840877533,-0.1271425187587738,-0.9335344433784485,-0.3351839482784271,-0.034600794315338135,0.05661195516586304,0.5828949213027954
1.2012277945307572,-0.38176967888465846,3.1124789892749547,-0.31347787380218506,-3.188839912414551,-0.4525817334651947,-0.13457483053207397,-0.9324832558631897,-0.33520838618278503,-0.24726127088069916,0.002872169017791748,0.5368835926055908
1.201346778245698,-0.39888011086031805,3.0946104200912115,-0.17838504910469055,-3.5608134269714355,-0.7298343777656555,-0.14024730026721954,-0.9325262308120728,-0.3327544927597046,-0.3889429569244385,0.020050764083862305,0.44748514890670776
1.2030393636155203,-0.41546899557745376,3.0730493401316634,-0.14422336220741272,-3.766289710998535,-0.802514910697937,-0.14511047303676605,-0.9331361055374146,-0.3289376497268677,-0.42280659079551697,0.1147463321685791,0.3799017667770386
1.204540934611322,-0.43449148791248543,3.0527676934478367,-0.1949073225259781,-3.821255922317505,-0.6147037148475647,-0.15075109899044037,-0.9336749315261841,-0.32484668493270874,-0.39806193113327026,0.23381537199020386,0.3256704807281494
1.204141723496463,-0.45976510396718195,3.03933529498191,-0.3055897355079651,-3.7391533851623535,-0.19607311487197876,-0.1590774953365326,-0.9335318803787231,-0.3212672770023346,-0.3251298666000366,0.3740531802177429,0.2557153105735779
1.2001938506327055,-0.4931044481940621,3.036008630964821,-0.5180473923683167,-3.5518264770507812,0.3639177680015564,-0.17144115269184113,-0.9321092963218689,-0.3190300762653351,-0.2469855397939682,0.500117838382721,0.18185335397720337
1.1909574545304802,-0.5344909218918944,3.043566254675002,-0.8335291147232056,-3.3412017822265625,1.0380116701126099,-0.1888718605041504,-0.9287244081497192,-0.3190588355064392,-0.22058267891407013,0.6241132616996765,0.12409710884094238
1.1754808886823487,-0.5817519561645104,3.058759197194652,-1.167513370513916,-3.3515634536743164,1.522378921508789,-0.21160756051540375,-0.9228751063346863,-0.32175081968307495,-0.2571426033973694,0.7864922285079956,0.07701495289802551
1.157260366159057,-0.6294164091341583,3.072198275488586,-1.192578673362732,-3.7843732833862305,1.337113380432129,-0.2365582436323166,-0.9157056212425232,-0.3248439133167267,-0.5063924193382263,0.9479321837425232,0.0010217130184173584
1.1418443584703297,-0.6742435508726842,3.075644032444938,-1.112992763519287,-4.5887956619262695,0.7563461065292358,-0.25966042280197144,-0.9094021320343018,-0.32490667700767517,-1.064711093902588,0.9572995901107788,-0.2352588176727295
1.1293356260158636,-0.7160866378300436,3.0673590143576313,-1.3148701190948486,-5.24498176574707,0.34791794419288635,-0.28046995401382446,-0.9041285514831543,-0.32231706380844116,-1.442171335220337,0.8255916833877563,-0.5565282702445984
1.1157526128577901,-0.7511348087989298,3.0471158410673507,-1.9322580099105835,-5.348343372344971,0.20836058259010315,-0.299946129322052,-0.8982418179512024,-0.32123833894729614,-1.4292716979980469,0.7524289488792419,-0.8401845097541809
1.0974257757629184,-0.7725621204133734,3.015335524051721,-2.67376971244812,-4.473647117614746,0.2745833694934845,-0.3181978762149811,-0.8900367617607117,-0.3264733552932739,-1.2366118431091309,0.6786416172981262,-1.1972694396972656
1.0754735999651754,-0.7717574235042152,2.9754649727466744,-2.997288703918457,-2.2926974296569824,0.06768103688955307,-0.33148321509361267,-0.8798153400421143,-0.340652197599411,-1.071532130241394,0.5288480520248413,-1.8069003820419312
1.0561982194657442,-0.740894550284721,2.9297268392205607,-2.8074660301208496,0.46347546577453613,-0.6822285056114197,-0.33219945430755615,-0.8704906105995178,-0.3631661832332611,-1.112014651298523,0.4082562327384949,-2.7041709423065186
1.0438628493806827,-0.6794867222922828,2.878556256853232,-2.3725967407226562,2.8686249256134033,-1.552362084388733,-0.31600984930992126,-0.8643532395362854,-0.39119192957878113,-1.2221068143844604,0.3307840824127197,-3.384946346282959
1.0384976400040922,-0.5954173459701965,2.8241223854288307,-1.7500851154327393,4.4532670974731445,-2.1829802989959717,-0.28464218974113464,-0.8616427183151245,-0.4201793372631073,-1.0463058948516846,0.20643043518066406,-3.4258289337158203
1.0383616128751896,-0.5020217618651417,2.771919904610201,-1.0428012609481812,5.147899150848389,-2.2337732315063477,-0.2442721128463745,-0.8615736961364746,-0.4449963867664337,-0.6304992437362671,0.13913124799728394,-3.0396838188171387
1.0408253570458017,-0.41585890711050577,2.7318233535573344,-0.3175542652606964,5.109106063842773,-1.5459082126617432,-0.20421308279037476,-0.8628217577934265,-0.4624236226081848,-0.08001260459423065,0.33024442195892334,-2.4904420375823975
1.0450125066431242,-0.35239189990660036,2.7142407565416518,0.4235813617706299,4.501202583312988,-0.3729962110519409,-0.173224538564682,-0.8649308085441589,-0.47104978561401367,0.4555119276046753,0.6725481748580933,-1.9018903970718384
1.051770925310266,-0.320666991710963,2.7241380481267474,1.1866538524627686,3.555914878845215,0.8393884897232056,-0.1563497930765152,-0.8683030009269714,-0.47074905037879944,0.7576373815536499,0.903367817401886,-1.434478759765625
1.062902188141082,-0.3204051053947729,2.759058153344213,2.0075719356536865,2.6135125160217285,1.6627776622772217,-0.15317276120185852,-0.8737705945968628,-0.461587518453598,0.7038012146949768,0.9719305634498596,-1.1456055641174316
1.0791162591811936,-0.34413822972487274,2.8120291470828676,2.682156801223755,1.9991410970687866,2.0389597415924072,-0.15928231179714203,-0.8815409541130066,-0.44442635774612427,0.3072007894515991,0.9317119121551514,-1.047623872756958
1.0985664144543676,-0.38161150203336347,2.875672356858178,3.0115177631378174,1.8463881015777588,2.064802646636963,-0.16940239071846008,-0.8905561566352844,-0.42215242981910706,-0.17303557693958282,0.8425979018211365,-0.9933140277862549
1.118628566669261,-0.4215238668451278,2.9421282090892618,2.966999053955078,2.1266257762908936,1.7970783710479736,-0.17876498401165009,-0.8995020985603333,-0.39867162704467773,-0.5648875832557678,0.7407649755477905,-0.8904215097427368
1.137148430165515,-0.4530768861023184,3.0033999940691034,2.5851190090179443,2.642639636993408,1.3940376043319702,-0.18392881751060486,-0.9074389934539795,-0.3777892589569092,-0.8751991987228394,0.6366108655929565,-0.7527651190757751
1.1520655715496146,-0.4713968357772533,3.054691549595238,1.974769949913025,3.017726182937622,1.0918298959732056,-0.18465037643909454,-0.9136057496070862,-0.3622553050518036,-1.019512414932251,0.5471354126930237,-0.5573921203613281
1.162093499671178,-0.477956114083125,3.0957320752225077,1.3335907459259033,3.1710073947906494,0.9477904438972473,-0.18279913067817688,-0.9176371097564697,-0.35288336873054504,-0.9831709265708923,0.4952586889266968,-0.33656996488571167
1.1670068186665057,-0.4770379118090397,3.1290856759613943,0.7702963352203369,3.127267360687256,0.9606996178627014,-0.1804027557373047,-0.9195786714553833,-0.349041610956192,-0.8832113146781921,0.47472405433654785,-0.2206454873085022
1.1671352831100403,-0.47361968338460153,-3.12490415087062,0.33680906891822815,2.9190261363983154,1.076779842376709,-0.1791546493768692,-0.9196291565895081,-0.3495509624481201,-0.7716206312179565,0.4883548617362976,-0.1836676001548767
1.1636184241906788,-0.4719923441542321,-3.096401183515727,0.10349511355161667,2.656322956085205,1.248780369758606,-0.18005487322807312,-0.9182420969009399,-0.35272035002708435,-0.6796254515647888,0.5010974407196045,-0.17543232440948486
1.1583682477693635,-0.4737906198302307,-3.066421844065686,0.08794917911291122,2.528635263442993,1.331723928451538,-0.18288592994213104,-0.9161502718925476,-0.35668089985847473,-0.6280273199081421,0.47631585597991943,-0.2071925699710846
1.1544573489949914,-0.4744314531137154,-3.036798937801095,0.3489856421947479,2.8352348804473877,1.110146403312683,-0.1847500205039978,-0.9145756363868713,-0.35974839329719543,-0.6450077891349792,0.4184209704399109,-0.2995840907096863
1.1554834354392873,-0.46637103574282074,-3.0112744392181843,0.7775867581367493,3.4700233936309814,0.617698609828949,-0.18142226338386536,-0.9149901270866394,-0.3603874444961548,-0.7871905565261841,0.29284363985061646,-0.5137888193130493
1.1620734676529199,-0.4455817914609947,-2.993430935419741,1.0078353881835938,3.9230427742004395,0.10476445406675339,-0.17128892242908478,-0.9176291823387146,-0.35863202810287476,-0.974737823009491,0.18006521463394165,-0.6609452366828918
1.171396717122832,-0.41515519632599296,-2.9836667238636227,0.9969557523727417,3.896632432937622,-0.14353537559509277,-0.15684188902378082,-0.921294629573822,-0.3558328449726105,-0.9691805839538574,0.11729377508163452,-0.39929434657096863
1.1802744182649383,-0.3843457812556371,-2.977589283436623,0.8355690240859985,3.367913007736206,-0.0911693349480629,-0.14273369312286377,-0.9247105121612549,-0.35289889574050903,-0.7067537307739258,0.041425108909606934,0.06438547372817993
1.1870165138415354,-0.3607894737909477,-2.970154389998721,0.6485480070114136,2.7212014198303223,0.125396266579628,-0.13217797875404358,-0.9272559881210327,-0.35032182931900024,-0.40204763412475586,-0.050969600677490234,0.45135003328323364
1.1915948728100159,-0.34684024484559556,-2.9592735987672993,0.5196686387062073,2.114772319793701,0.29467201232910156,-0.12583410739898682,-0.9289605617523193,-0.34813520312309265,-0.20612095296382904,-0.11570185422897339,0.6849727630615234
1.1948487221932713,-0.3386318577615402,-2.9480128975340447,0.3682926893234253,1.6480084657669067,0.2325788140296936,-0.12196755409240723,-0.9301601052284241,-0.34630364179611206,-0.21116241812705994,-0.18913298845291138,0.7679800391197205
1.196782401422533,-0.32699404860449915,-2.943912962301169,0.09836525470018387,1.5018982887268066,-0.11205996572971344,-0.11735115945339203,-0.9308683276176453,-0.34599539637565613,-0.30803346633911133,-0.3066955804824829,0.8300344944000244
1.1975800470666198,-0.3016054738264753,-2.954375193046491,-0.1773371696472168,1.6505298614501953,-0.6887951493263245,-0.10830932855606079,-0.931159496307373,-0.3481537997722626,-0.45342785120010376,-0.4342426061630249,0.8903288841247559
1.1970380855440725,-0.25664384130735335,-2.9833138237398322,-0.5019747614860535,1.983873724937439,-1.303180456161499,-0.0926797017455101,-0.9309617280960083,-0.35315826535224915,-0.6167930364608765,-0.5091626644134521,0.8419886231422424
1.193535229905294,-0.19381319315231793,-3.027894699043016,-0.910133421421051,2.26179575920105,-1.7093322277069092,-0.07094991952180862,-0.9296770691871643,-0.3614785671234131,-0.6851841807365417,-0.49627190828323364,0.8359198570251465
1.1852922282242102,-0.12211076143723121,-3.0805546534392674,-1.3155304193496704,2.280830144882202,-1.8852506875991821,-0.04580284655094147,-0.9266089797019958,-0.37322643399238586,-0.5577433705329895,-0.4308585524559021,0.9615440368652344
1.1725629600818643,-0.05211548146982367,-3.1325546915899447,-1.5326064825057983,2.0906288623809814,-1.8347419500350952,-0.02020074613392353,-0.9217475056648254,-0.38726407289505005,-0.3549214005470276,-0.3698325753211975,1.0836445093154907
1.157740418202006,0.008690162046660064,3.1052328223308603,-1.4727625846862793,1.7148786783218384,-1.694571614265442,0.003488276619464159,-0.9158984422683716,-0.40139514207839966,-0.18013934791088104,-0.34017449617385864,1.0587739944458008
1.1437771556876288,0.05898253895296362,3.0664169442965084,-1.184472918510437,1.2668122053146362,-1.5759080648422241,0.024414027109742165,-0.9102043509483337,-0.41343945264816284,-0.07197573781013489,-0.34391552209854126,0.9453452825546265
1.1325054775815842,0.10067712704429402,3.0322741067458936,-0.8305689692497253,0.8992426991462708,-1.4718133211135864,0.04265448451042175,-0.9054783582687378,-0.4222436249256134,-0.048971712589263916,-0.36405283212661743,0.8162558078765869
1.1239447448895192,0.13694757719161152,3.0008121935616234,-0.5607995390892029,0.6895062327384949,-1.4273284673690796,0.05899414047598839,-0.9018120765686035,-0.42808258533477783,-0.04480352997779846,-0.34881341457366943,0.7215698957443237
1.1168970507158125,0.17134914244639124,2.969615653355058,-0.4212076663970947,0.5850371718406677,-1.494999885559082,0.07476493716239929,-0.8987442255020142,-0.43205228447914124,-0.07284238934516907,-0.33154135942459106,0.7000573873519897
1.1100723136411863,0.20619680765406237,2.936601925995733,-0.37850600481033325,0.45175954699516296,-1.638342022895813,0.0910261794924736,-0.8957308530807495,-0.43517863750457764,-0.13887780904769897,-0.31972306966781616,0.728589653968811
1.102423209536542,0.2412192482107262,2.9015425181582644,-0.41735607385635376,0.291843056678772,-1.767687439918518,0.1078418642282486,-0.8923038840293884,-0.4383648931980133,-0.17887163162231445,-0.28854304552078247,0.7667033076286316
1.0935864956386623,0.2750404647979875,2.865965784215035,-0.45530158281326294,0.13632139563560486,-1.8154493570327759,0.12474009394645691,-0.888279914855957,-0.4420393407344818,-0.15838581323623657,-0.22234618663787842,0.7961650490760803
1.0842155747595523,0.3056014461653252,2.8317362544045706,-0.4183030128479004,-0.10163094103336334,-1.7563780546188354,0.1406872421503067,-0.883936882019043,-0.44594040513038635,-0.07402166724205017,-0.14075171947479248,0.7820760011672974
1.0755796857278315,0.33084628940148353,2.800135913476423,-0.27854883670806885,-0.43784382939338684,-1.6185417175292969,0.15437288582324982,-0.8798657655715942,-0.44944992661476135,0.056823939085006714,-0.06968855857849121,0.7229634523391724
1.068750149104797,0.34985740288823935,2.771042693064637,-0.07729475200176239,-0.8851763010025024,-1.4639979600906372,0.16494490206241608,-0.8765997290611267,-0.4520686864852905,0.17547859251499176,-0.04811328649520874,0.6424828767776489
1.0640605063545823,0.36193012935552404,2.7443387259601932,0.09106150269508362,-1.3745315074920654,-1.2930456399917603,0.1718442291021347,-0.874333381652832,-0.4538842439651489,0.22874468564987183,-0.07429027557373047,0.5653494000434875
1.0609608511390882,0.36746817505016827,2.719882320448821,0.167335644364357,-1.782785177230835,-1.163714051246643,0.17532792687416077,-0.8728247880935669,-0.45545244216918945,0.24303744733333588,-0.06580418348312378,0.5324480533599854
1.0584252004020136,0.36780152407502303,2.697375265609,0.1363297998905182,-2.05987548828125,-1.08168363571167,0.17627495527267456,-0.8715845346450806,-0.45745766162872314,0.21621151268482208,-0.06538128852844238,0.5234516859054565
1.055327416046787,0.36449004936711826,2.6769543377922997,-0.006369114387780428,-2.146343469619751,-1.0196559429168701,0.17572082579135895,-0.8700616955757141,-0.4605594575405121,0.1551201343536377,-0.09076893329620361,0.4964173436164856
1.050756766787053,0.3586930058704927,2.659227692916963,-0.2411765605211258,-2.0745766162872314,-0.9440706372261047,0.17444223165512085,-0.8677995204925537,-0.4652892053127289,0.1003379374742508,-0.10835087299346924,0.4410122036933899
1.0439812144192089,0.351424973558841,2.645277569689932,-0.5544787645339966,-1.7784346342086792,-0.8328135013580322,0.17307601869106293,-0.864412784576416,-0.47205445170402527,0.06355716288089752,-0.10415405035018921,0.3807913661003113
1.0345330917115128,0.34416223715686795,2.6356211475474325,-0.8886429071426392,-1.332675814628601,-0.7392497062683105,0.1723911017179489,-0.859623908996582,-0.48096588253974915,0.04492443799972534,-0.1100110411643982,0.30881601572036743
1.0223822704173589,0.33878026305004155,2.629099512263091,-1.1725256443023682,-0.8711617588996887,-0.7170127630233765,0.1732587069272995,-0.853352427482605,-0.49170222878456116,0.009037896990776062,-0.11609935760498047,0.23774996399879456
1.0080474582713066,0.3360379718414722,2.6242585950048176,-1.354778528213501,-0.5216932892799377,-0.7163040637969971,0.17592555284500122,-0.845791757106781,-0.5036728978157043,-0.046790555119514465,-0.12221044301986694,0.16459190845489502
0.9926926275706877,0.3350600476985564,2.6203251235892324,-1.39058518409729,-0.3680596351623535,-0.6951781511306763,0.17968256771564484,-0.8375003337860107,-0.5160497426986694,-0.06682869791984558,-0.10958206653594971,0.07923614978790283
0.9778953589496145,0.33416417515666097,2.616720083594816,-1.2614655494689941,-0.43832340836524963,-0.657096803188324,0.18326497077941895,-0.8293231725692749,-0.5278608202934265,-0.04892672598361969,-0.07399696111679077,-0.011354506015777588
0.9649842751725548,0.33203394642963646,2.61277512150967,-1.0268553495407104,-0.6455702781677246,-0.6093964576721191,0.18561509251594543,-0.8220399618148804,-0.5383283495903015,-0.016685187816619873,-0.03937959671020508,-0.10103034973144531
0.9548544126781069,0.328395042783964,2.608200638990151,-0.7122972011566162,-0.8272503614425659,-0.5466529130935669,0.18633118271827698,-0.8162296414375305,-0.5468546152114868,0.008279263973236084,-0.02488046884536743,-0.18346178531646729
0.9481708834503357,0.3238092357587319,2.6027434735217105,-0.3498844504356384,-0.9837133288383484,-0.4833222031593323,0.18555311858654022,-0.8123501539230347,-0.552862823009491,0.003625229001045227,-0.01762104034423828,-0.27102041244506836
0.9451684986304497,0.318411167218002,2.596509895482235,0.004239288624376059,-1.0986531972885132,-0.3958349823951721,0.18332873284816742,-0.8105956315994263,-0.5561702251434326,0.003530248999595642,0.032489120960235596,-0.3289770483970642
0.9455697174990331,0.3125996279176304,2.590035908125627,0.2980946898460388,-1.104411244392395,-0.30590131878852844,0.1799934208393097,-0.8108305335044861,-0.5569167733192444,0.03988558053970337,0.06606435775756836,-0.3589770197868347
0.9484850777831636,0.3073536203464876,2.5834981808045776,0.4746313691139221,-0.9871959686279297,-0.2516370117664337,0.17635345458984375,-0.8125333786010742,-0.5555979013442993,0.05283340811729431,0.05726921558380127,-0.3607231378555298
0.9525004937433655,0.30421063373086504,2.5767681667972564,0.5133376717567444,-0.7268139123916626,-0.26749059557914734,0.17362764477729797,-0.8148674368858337,-0.5530320405960083,0.0297413170337677,0.041018128395080566,-0.332801878452301
0.9562034530765954,0.30473547860738565,2.5690425712181595,0.4489693343639374,-0.43452295660972595,-0.37095919251441956,0.17301133275032043,-0.8170082569122314,-0.5500586628913879,-0.026176169514656067,0.026511549949645996,-0.2828119993209839
0.9584609620782601,0.308994816934781,2.560187056704433,0.27721476554870605,-0.16019007563591003,-0.46384862065315247,0.17479130625724792,-0.8183079361915588,-0.5475583076477051,-0.06982626020908356,0.004831552505493164,-0.20740097761154175
0.9584910820091713,0.31608405566342224,2.551332444222377,0.040464021265506744,0.13056905567646027,-0.49887558817863464,0.17866098880767822,-0.8183252215385437,-0.5462819933891296,-0.06252652406692505,-0.017078042030334473,-0.11598014831542969
0.9562973280922801,0.3248024387372504,2.5436106743347415,-0.17317743599414825,0.3260805010795593,-0.48187223076820374,0.1839892864227295,-0.8170623779296875,-0.5464036464691162,-0.04281514883041382,-0.011062443256378174,-0.037062108516693115
0.952459030027219,0.33305830924517604,2.537802043007669,-0.32645484805107117,0.3696253299713135,-0.3944379687309265,0.18951794505119324,-0.8148434162139893,-0.5478258728981018,-0.010028943419456482,0.03034341335296631,0.01782691478729248
0.9480190236700642,0.33931395710701057,2.5344420051477266,-0.3716544210910797,0.32253217697143555,-0.2698136866092682,0.19414350390434265,-0.8122615814208984,-0.550035834312439,0.054315194487571716,0.05934727191925049,0.05400288105010986
0.9440353464978652,0.34307335016472323,2.5330565710813837,-0.3160257935523987,0.2007034718990326,-0.15774653851985931,0.19729682803153992,-0.8099315166473389,-0.5523449182510376,0.10102760791778564,0.06035888195037842,0.032645583152770996
0.9412453071682731,0.3448257796128608,2.532450193035813,-0.1802786886692047,0.05074593052268028,-0.1060335710644722,0.19902752339839935,-0.8082919120788574,-0.554122805595398,0.09449034929275513,0.06451773643493652,-0.010422050952911377
0.9400283234808932,0.34542060055237395,2.531336239570558,-0.005661615636199713,-0.1141362264752388,-0.10466603934764862,0.19969001412391663,-0.8075748085975647,-0.5549294948577881,0.06410375237464905,0.06869864463806152,-0.04350513219833374
0.9401670397542282,0.3451639290033108,2.529145316274611,0.10326952487230301,-0.287198930978775,-0.13372181355953217,0.19950968027114868,-0.8076565861701965,-0.554875373840332,0.03321719169616699,0.03989553451538086,-0.048808276653289795
0.9402149794092725,0.3434527004232324,2.526651133428524,-0.03781889006495476,-0.5080460906028748,-0.12045048922300339,0.19854679703712463,-0.8076848983764648,-0.5551794171333313,0.01374855637550354,-0.0064629316329956055,-0.008282065391540527
0.9388245494317429,0.3381081486603058,2.5264821223270375,-0.19787341356277466,-0.5096983909606934,-0.0021981135942041874,0.19594916701316833,-0.8068642616271973,-0.5572916865348816,0.04512429237365723,-0.040486693382263184,0.15806055068969727
0.9363677059296395,0.3321184235788715,2.527992670426982,-0.3235786259174347,-0.4628469944000244,0.0013106008991599083,0.19325342774391174,-0.8054105043411255,-0.5603277087211609,0.07989402115345001,-0.05060756206512451,0.1383151412010193
0.9332667382649215,0.3267712358717516,2.5297166291267934,-0.30980372428894043,-0.316576212644577,-0.00879882462322712,0.19105522334575653,-0.8035686016082764,-0.5637156367301941,-0.006897047162055969,-0.028111577033996582,0.07822656631469727
0.9307485164832751,0.32384106734073437,2.5304733425990804,-0.1905292421579361,-0.14900000393390656,-0.07598931342363358,0.19004592299461365,-0.802067220211029,-0.5661895871162415,-0.026670247316360474,-0.050898969173431396,-0.016314804553985596
0.9293776751484282,0.3240837059635827,2.5290034694342296,-0.01245243288576603,-0.06673400104045868,-0.17502884566783905,0.19053326547145844,-0.8012477159500122,-0.5671852827072144,-0.06438900530338287,-0.06221652030944824,-0.12220704555511475
0.9294115945680014,0.32502405853491445,2.526095677216329,0.11705069988965988,-0.22900307178497314,-0.1257675588130951,0.19105789065361023,-0.8012680411338806,-0.5669801831245422,-0.08697785437107086,-0.045579373836517334,-0.14650577306747437
0.9305571348563353,0.3233331873990692,2.524496290856054,0.15388286113739014,-0.35805433988571167,0.01019820012152195,0.18980714678764343,-0.8019528985023499,-0.5664317011833191,0.010449036955833435,0.013775527477264404,-0.08080053329467773
0.9320561173008427,0.3189891325376002,2.5245840260102397,0.11965857446193695,-0.5021238327026367,0.09013164788484573,0.18696758151054382,-0.8028474450111389,-0.5661088824272156,0.07293522357940674,0.03633755445480347,-0.013511717319488525
0.9333098099660437,0.3123617084478398,2.5258577979752674,0.07370162010192871,-0.6070988774299622,0.12613698840141296,0.18290218710899353,-0.8035942912101746,-0.5663772225379944,0.05334948003292084,0.04248589277267456,0.04997378587722778
0.9343313342395948,0.30479905291800086,2.5276108840212403,0.060904327780008316,-0.6150702238082886,0.13249342143535614,0.17836721241474152,-0.8042018413543701,-0.5669608116149902,0.04621146619319916,0.026354670524597168,0.05692028999328613
0.9353818427237702,0.2975678722359308,2.529284703591007,0.08170857280492783,-0.5571648478507996,0.11449751257896423,0.17401500046253204,-0.8048257827758789,-0.5674278140068054,0.042491793632507324,0.002900242805480957,0.013548791408538818
0.9365511308024513,0.291785945341422,2.5302580303955,0.10741925984621048,-0.4355798363685608,0.060452647507190704,0.17046047747135162,-0.8055192232131958,-0.5675228238105774,0.029780462384223938,0.0007402300834655762,-0.02799743413925171
0.9376820953174752,0.288189651233497,2.5302751460222876,0.10478421300649643,-0.28187277913093567,0.005109031684696674,0.1681593656539917,-0.8061888813972473,-0.567258358001709,-0.0011063069105148315,0.0040801167488098145,-0.04464983940124512
0.9385370874297082,0.2866542499467922,2.5296526109645465,0.07677441835403442,-0.12337981164455414,-0.022474393248558044,0.16709324717521667,-0.8066944479942322,-0.5668545365333557,-0.016397610306739807,0.0036550164222717285,-0.04218500852584839
0.9390371609881298,0.28675940817463447,2.5289772017009646,0.04119046404957771,0.02954726666212082,-0.023942161351442337,0.1670387238264084,-0.806989848613739,-0.5664499402046204,-0.006470665335655212,0.0045607686042785645,-0.02707141637802124
0.939229410754206,0.2879041457221755,2.5285680941174378,0.0073544676415622234,0.12440427392721176,-0.011049266904592514,0.1676429957151413,-0.8071033954620361,-0.5661095976829529,0.010976210236549377,0.016866028308868408,-0.00987941026687622
