attitudeX,attitudeY,attitudeZ,gyroX,gyroY,gyroZ,gravityX,gravityY,gravityZ,accX,accY,accZ
1.1038303758477916,0.07606145894287214,-0.9233036540010396,0.10998709499835968,-0.15627481043338776,0.006353109143674374,0.034208256751298904,-0.8929382562637329,-0.4488773047924042,-0.011518392711877823,0.003946065902709961,-0.0018978416919708252
1.1049014249268438,0.07388294984710517,-0.9228376573631968,0.09223965555429459,-0.19940146803855896,0.059944093227386475,0.03315968066453934,-0.8934199213981628,-0.44799676537513733,-0.005129251629114151,0.0034664273262023926,-0.006364196538925171
1.1058742899287728,0.0705052737683621,-0.9213593726851163,0.08131909370422363,-0.21735437214374542,0.10094159096479416,0.031585074961185455,-0.8938565254211426,-0.4472391903400421,-0.006697952747344971,0.0020108819007873535,-0.011409521102905273
1.106670983521772,0.06603708745304758,-0.9187673677499569,0.07774532586336136,-0.20163589715957642,0.13804464042186737,0.02953941375017166,-0.8942134380340576,-0.44666507840156555,-0.005827220156788826,-0.0019962191581726074,-0.017278343439102173
1.1074790858316919,0.061082658609031684,-0.9154240150306717,0.0789693146944046,-0.18236659467220306,0.15235088765621185,0.02728196606040001,-0.8945748805999756,-0.44608449935913086,-0.00942915678024292,-0.007829785346984863,-0.02286386489868164
1.1082837397418164,0.056236985183959746,-0.9119221734292043,0.08740009367465973,-0.14843827486038208,0.15117843449115753,0.025079606100916862,-0.8949342370033264,-0.44549262523651123,-0.013910144567489624,-0.011651396751403809,-0.02853691577911377
1.109161885194695,0.05180064437162162,-0.9084426838677061,0.08722326159477234,-0.09659425914287567,0.15018559992313385,0.02306230738759041,-0.8953257203102112,-0.4448144733905792,-0.010092288255691528,-0.016005396842956543,-0.024988412857055664
1.1100821514975836,0.048070995020081206,-0.9051449941875752,0.08724702894687653,-0.05371909588575363,0.13986502587795258,0.02136353962123394,-0.8957352042198181,-0.4440740644931793,-0.007661106064915657,-0.02102792263031006,-0.011782228946685791
1.1109415122391602,0.04495323185251628,-0.9022206952646094,0.08127754926681519,-0.06067846715450287,0.12875565886497498,0.0199443269520998,-0.8961169719696045,-0.44336947798728943,-0.006470771506428719,-0.018128573894500732,-0.0001272261142730713
1.1117582610984607,0.04173853701525861,-0.8995943229141706,0.08095292747020721,-0.115969717502594,0.12063876539468765,0.018488390371203423,-0.8964791297912598,-0.4427000880241394,-0.00606769323348999,-0.014104306697845459,0.010403275489807129
1.1126720972596986,0.0380145116046384,-0.8971159413894224,0.10064221173524857,-0.18329042196273804,0.10812030732631683,0.016808491200208664,-0.8968836665153503,-0.4419468641281128,-0.006081521511077881,-0.012646913528442383,0.015784144401550293
1.1138169980920942,0.033946305312619336,-0.8950648263022221,0.13643622398376465,-0.2641126811504364,0.08419204503297806,0.014975564554333687,-0.8973894119262695,-0.4409849941730499,-0.005057306028902531,-0.013590693473815918,0.016683846712112427
1.1154057802946709,0.029355576776796954,-0.8934624513702464,0.1902051866054535,-0.3633396625518799,0.0708826333284378,0.012909108772873878,-0.8980893492698669,-0.4396234452724457,0.00016772747039794922,-0.010937690734863281,0.008776247501373291
1.117559676052499,0.02373045932329032,-0.8917964452375792,0.25227877497673035,-0.45587852597236633,0.08797404170036316,0.010390063747763634,-0.8990345597267151,-0.43775439262390137,0.010697633028030396,-0.0022257566452026367,0.009409666061401367
1.1203544616258567,0.01692993864883649,-0.889696875425409,0.31554216146469116,-0.5267079472541809,0.1109190359711647,0.007370322477072477,-0.9002548456192017,-0.43530094623565674,0.01571628451347351,0.00685274600982666,0.007475018501281738
1.1238383526234605,0.008851801668139033,-0.8869584560653253,0.3707897663116455,-0.5898264646530151,0.1297772377729416,0.0038259143475443125,-0.9017661213874817,-0.4322074353694916,0.024692803621292114,0.013277411460876465,0.00923377275466919
1.1277499902461199,1.2382202590238586e-05,-0.8841132735618484,0.4123654365539551,-0.6516136527061462,0.11125095188617706,5.30817078470136e-06,-0.9034498929977417,-0.42869359254837036,0.020075291395187378,0.003974854946136475,0.014829397201538086
1.1321269133132643,-0.008537529305740501,-0.8819738790328336,0.45844802260398865,-0.6751769185066223,0.06861645728349686,-0.003626145189628005,-0.9053176045417786,-0.4247197210788727,0.009455054998397827,-0.01211702823638916,0.000708460807800293
1.1369321907162904,-0.016920496880517735,-0.8805683437309881,0.4985336661338806,-0.7540315389633179,0.036947477608919144,-0.007112700026482344,-0.907348096370697,-0.4203198552131653,0.0029470911249518394,-0.0027928948402404785,-0.004698514938354492
1.142099625456227,-0.025665220292072646,-0.8799261681835441,0.5301118493080139,-0.8748965859413147,-0.004012885503470898,-0.010667492635548115,-0.9095082879066467,-0.41554874181747437,-0.00047135259956121445,-0.01108485460281372,-0.010324031114578247
1.1475129482104411,-0.034986943867388924,-0.8799061040661614,0.5492621064186096,-0.9716862440109253,-0.02812967263162136,-0.014368169009685516,-0.9117451906204224,-0.4105047285556793,0.019113689661026,-0.02026158571243286,-0.006685853004455566
1.1531684468609766,-0.04464741443819719,-0.8803527285249083,0.5735783576965332,-1.0362428426742554,-0.05189299210906029,-0.018102670088410378,-0.9140536189079285,-0.4051889479160309,0.03725248575210571,-0.030480563640594482,-0.015434831380844116
1.1590635213402374,-0.05469235360568522,-0.8810644590697757,0.5976845026016235,-1.0935269594192505,-0.062043897807598114,-0.021876845508813858,-0.9164287447929382,-0.3995993435382843,0.048717111349105835,-0.03715395927429199,-0.030881643295288086
1.1652320535684402,-0.06524563044546985,-0.8815534202658776,0.6271219253540039,-1.090779185295105,-0.04516362026333809,-0.025723563507199287,-0.9188799262046814,-0.3936976492404938,0.06562533974647522,-0.03664064407348633,-0.04499256610870361
1.1717382611028861,-0.07632319049757935,-0.881036797722623,0.6652040481567383,-1.0096677541732788,-0.005348832346498966,-0.029626617208123207,-0.9214273691177368,-0.3874191641807556,0.08893758058547974,-0.04352301359176636,-0.054811030626297
1.1785891650510705,-0.08783137792047972,-0.8789766760988083,0.7110832929611206,-0.9098596572875977,0.05586819723248482,-0.03352852538228035,-0.9240676760673523,-0.38075530529022217,0.14081311225891113,-0.06975239515304565,-0.06814303994178772
1.1857581946536355,-0.100550398821832,-0.8746843325978373,0.7368488311767578,-0.8374826312065125,0.1327672302722931,-0.03770254924893379,-0.926784098148346,-0.3736971616744995,0.22741511464118958,-0.142231285572052,-0.0801144540309906
1.1929983234385246,-0.11520643147399705,-0.8678980488390315,0.7506036162376404,-0.8341668844223022,0.21276110410690308,-0.04240277782082558,-0.9294791221618652,-0.36642932891845703,0.34007129073143005,-0.24576795101165771,-0.07871538400650024
1.2005258433715298,-0.13239535939117242,-0.8583249361091954,0.8404826521873474,-0.7954574823379517,0.29054778814315796,-0.04776975139975548,-0.9322295188903809,-0.3587007224559784,0.47022464871406555,-0.36678165197372437,-0.0757628083229065
1.2097332659569366,-0.15094304981477033,-0.8457513591933525,1.1374422311782837,-0.5286664962768555,0.33108556270599365,-0.05312122777104378,-0.9355217814445496,-0.3492521345615387,0.6163231730461121,-0.49077820777893066,-0.09207785129547119
1.2232501064448842,-0.16919573129452986,-0.829657143598417,1.7386987209320068,-0.10547368973493576,0.33676767349243164,-0.05735206604003906,-0.940211296081543,-0.3357279896736145,0.8315525650978088,-0.5926254987716675,-0.08411762118339539
1.24377898810245,-0.1907262511300118,-0.80718480503514,2.5735671520233154,-0.03438345342874527,0.4002849757671356,-0.060894228518009186,-0.9470046162605286,-0.3153947591781616,1.097362756729126,-0.7067885398864746,0.024318069219589233
1.272617620202788,-0.22632742818951357,-0.772519670828721,3.4889683723449707,-0.5401270389556885,0.47992414236068726,-0.06592412292957306,-0.9558731317520142,-0.2862871289253235,1.3746247291564941,-0.830366313457489,0.2109697163105011
1.3095979269090479,-0.286269210196291,-0.7199930995577591,4.350526809692383,-1.3742756843566895,0.43765702843666077,-0.07292012125253677,-0.9660812020301819,-0.2477291226387024,1.6596206426620483,-0.8976424932479858,0.5211208462715149
1.352889080273709,-0.383296559744299,-0.6396225210293673,5.018424034118652,-2.40080189704895,0.31697988510131836,-0.08084937185049057,-0.9763520359992981,-0.2004992663860321,1.8172996044158936,-0.7690244317054749,0.9043260812759399
1.3993862797820444,-0.5411728791817672,-0.5080002514908819,5.499129772186279,-3.2976136207580566,0.06906689703464508,-0.08786837756633759,-0.9853452444076538,-0.14619752764701843,1.852135419845581,-0.5233521461486816,1.2045013904571533
1.4439235628239742,-0.8134880498285956,-0.27034552526744926,5.72780179977417,-4.116195201873779,-0.0762583464384079,-0.09194862097501755,-0.9919624328613281,-0.08692281693220139,1.9013054370880127,-0.3195302486419678,1.4170466661453247
1.4725442664094122,-1.300264056424514,0.1731364103194026,5.533572196960449,-5.072470188140869,0.11980883777141571,-0.09452635049819946,-0.995177149772644,-0.02621510997414589,2.076292037963867,-0.05879312753677368,1.5957493782043457
1.4676926838730646,-1.8848779206048025,0.7041463812660914,4.967799663543701,-6.11323356628418,0.636471688747406,-0.09788603335618973,-0.9946895241737366,0.03179669380187988,2.0604562759399414,0.26383936405181885,1.6952234506607056
1.4362201562220702,-2.251510408213632,1.0062368195672506,4.2491865158081055,-7.155281066894531,1.4716969728469849,-0.10426729172468185,-0.9909582734107971,0.08444014936685562,1.9250681400299072,0.5944128632545471,1.6481800079345703
1.3933181564205752,-2.4207451449241235,1.1011546695990766,3.8918919563293457,-7.79317045211792,2.7079179286956787,-0.11652582883834839,-0.9842920303344727,0.13263148069381714,1.7525122165679932,0.9084252715110779,1.314328908920288
1.3405409830543427,-2.495972096178056,1.0960507235473118,4.242153167724609,-8.144640922546387,4.0872931480407715,-0.13732236623764038,-0.973608136177063,0.18229030072689056,1.4541101455688477,1.117284893989563,0.6066499948501587
1.2743393295682905,-2.5378642057012315,1.0547262917024158,5.285244464874268,-8.118130683898926,5.323859691619873,-0.16584892570972443,-0.9563775062561035,0.24049168825149536,0.878342866897583,1.326815128326416,0.01729026436805725
1.1932732961183008,-2.574414147775092,1.009148449386478,6.50988245010376,-7.6617255210876465,5.99807071685791,-0.19804205000400543,-0.929580569267273,0.3109004497528076,0.1691724956035614,1.5560455322265625,-0.3436305820941925
1.1030198282130537,-2.612443228808296,0.9725867620795278,7.170626163482666,-6.489267349243164,5.808180332183838,-0.22761522233486176,-0.8925730586051941,0.38923555612564087,-0.7970123887062073,1.6537883281707764,-0.2561638653278351
1.015535332946591,-2.646148405580128,0.9459354597940547,6.583728313446045,-4.81911039352417,4.94421911239624,-0.2506258487701416,-0.8497628569602966,0.46377691626548767,-1.6386562585830688,1.6231396198272705,0.15554654598236084
0.9441533208979118,-2.666136067217829,0.9228042621945125,4.662055492401123,-3.0031933784484863,4.008887767791748,-0.26843446493148804,-0.8100007176399231,0.5213842391967773,-2.2907543182373047,1.4550508260726929,0.7400596141815186
0.896971029876584,-2.6644242986867286,0.8926885532161899,1.9992384910583496,-1.4585282802581787,3.611823081970215,-0.28657233715057373,-0.7814404964447021,0.5542802810668945,-2.7651548385620117,1.2443159818649292,1.2837932109832764
0.8735323586592848,-2.637649610276827,0.8473369005339111,-0.48942992091178894,-0.24215801060199738,3.6819090843200684,-0.3100692927837372,-0.7666019201278687,0.5622968673706055,-2.983799695968628,1.0630040168762207,1.3683820962905884
0.8658820601560538,-2.5890635518250558,0.7859619689231598,-2.020111322402954,0.5265842080116272,3.890843391418457,-0.3400809168815613,-0.7616671323776245,0.5515508055686951,-3.140540361404419,0.879098653793335,0.9292078614234924
0.8637264964761705,-2.5289136317020215,0.7169944340624765,-2.3964953422546387,0.9710745811462402,3.7029612064361572,-0.37356460094451904,-0.7602686285972595,0.5314513444900513,-3.515732765197754,0.6122279763221741,0.23421919345855713
0.8622040786320339,-2.472177753347043,0.6562618015143566,-2.0051283836364746,1.0921459197998047,2.673065662384033,-0.4038175940513611,-0.7592787146568298,0.5103203058242798,-3.944784641265869,0.23501735925674438,-0.3154962658882141
0.8639200132997368,-2.4333802970020435,0.6185931584477573,-1.3493326902389526,0.9132302403450012,0.7828941345214844,-0.42245998978614807,-0.760394275188446,0.49328306317329407,-4.196268558502197,-0.09190070629119873,-0.619244396686554
0.8745159426735685,-2.420484663665481,0.6125465208210307,-0.7814472913742065,0.7797778248786926,-1.5994274616241455,-0.4234422743320465,-0.76723313331604,0.4817153513431549,-4.119236469268799,-0.15990608930587769,-0.7031357288360596
0.8967698924717262,-2.432191202982555,0.6381102889012167,-0.4793868064880371,0.8206653594970703,-3.623914957046509,-0.4065501391887665,-0.7813149690628052,0.47356507182121277,-3.537022829055786,0.18738186359405518,-0.5515985488891602
0.9265992182021465,-2.462579590226034,0.6858326317774391,-0.37300989031791687,0.6229575872421265,-4.49817419052124,-0.377164751291275,-0.7995821833610535,0.4673489034175873,-2.681825637817383,0.7754274606704712,-0.35872167348861694
0.9564095836199802,-2.5028537107258515,0.7423240534157954,-0.2736590802669525,0.46979570388793945,-4.2744574546813965,-0.34367436170578003,-0.8171271085739136,0.4628077745437622,-1.8830559253692627,1.1855506896972656,-0.32454800605773926
0.9810231327368616,-2.5429791663481374,0.7964453986676401,-0.166131854057312,0.440443754196167,-3.5232348442077637,-0.3134017884731293,-0.8310668468475342,0.45946386456489563,-1.3322432041168213,1.2894713878631592,-0.36243343353271484
0.9990860373107583,-2.5777502820532296,0.8437603073387951,0.0014209137298166752,0.5185055136680603,-2.804417371749878,-0.28916871547698975,-0.8409768342971802,0.45731738209724426,-1.0547337532043457,1.2189370393753052,-0.4025537967681885
1.0118500403467,-2.607343908456627,0.8855676645604349,0.15352018177509308,0.6245421171188354,-2.375859498977661,-0.27002233266830444,-0.8478143811225891,0.4563974142074585,-0.9357271194458008,1.1050469875335693,-0.39188337326049805
1.0215801685444303,-2.6347143865055873,0.9260947201274006,0.2684571444988251,0.7961634397506714,-2.3189656734466553,-0.2534141540527344,-0.852933943271637,0.45638221502304077,-0.9333838224411011,0.9530622363090515,-0.34708359837532043
1.0305021415687705,-2.6635010072250624,0.9700154925461034,0.2940148115158081,0.937495231628418,-2.5421886444091797,-0.23666267096996307,-0.8575574159622192,0.4567122757434845,-0.884308934211731,0.8061504364013672,-0.27270668745040894
1.0402422479741904,-2.6962758899936428,1.0193221056619377,0.187097430229187,0.9698289632797241,-2.802506446838379,-0.21796105802059174,-0.8625268340110779,0.4566618502140045,-0.7114516496658325,0.6906367540359497,-0.14053040742874146
1.0513214402972682,-2.732331459378571,1.0721808620429705,-0.01240094006061554,0.964253306388855,-2.887381076812744,-0.1975429356098175,-0.8680799603462219,0.4554271399974823,-0.4162112772464752,0.5962904691696167,-0.04197514057159424
1.063133208653431,-2.7683322749883033,1.1246577691292168,-0.19758357107639313,0.9752199649810791,-2.737517833709717,-0.17727117240428925,-0.8738829493522644,0.4526625871658325,-0.09558644890785217,0.5170867443084717,-0.03678441047668457
1.0745711416564676,-2.8015424566898575,1.1737496289020775,-0.284614235162735,0.9774201512336731,-2.456221103668213,-0.15879878401756287,-0.8793860673904419,0.44884616136550903,0.22515933215618134,0.42397230863571167,-0.05913689732551575
1.0846644700352728,-2.8299985405721872,1.2171935152855298,-0.3052121698856354,0.9949399828910828,-2.0433852672576904,-0.1432352066040039,-0.8841466903686523,0.44471094012260437,0.49815475940704346,0.31619948148727417,-0.08933395147323608
1.0927891796477425,-2.8507648179979936,1.2526643203952026,-0.2616909444332123,1.145662546157837,-1.567492127418518,-0.13190577924251556,-0.8879134058952332,0.44069281220436096,0.7156460881233215,0.19160932302474976,-0.1300393044948578
1.0986182038375343,-2.8625486850008195,1.27985726543883,-0.15022484958171844,1.3193997144699097,-1.1453278064727783,-0.12527598440647125,-0.8905797600746155,0.43723368644714355,0.8980116844177246,0.04235905408859253,-0.1394127905368805
1.1019770512766471,-2.8667826310705817,1.2996945381518124,-0.009263723157346249,1.341776728630066,-0.767373263835907,-0.12261117249727249,-0.8921024203300476,0.43487849831581116,1.0323708057403564,-0.10167175531387329,-0.08000501990318298
1.1033212736191595,-2.8653146660851525,1.312862211962877,0.05991188436746597,1.2998836040496826,-0.4592477083206177,-0.12292221188545227,-0.892708957195282,0.43354395031929016,1.101605772972107,-0.2212892770767212,0.04835885763168335
1.104021308074677,-2.8596499481347255,1.3211586040342913,-0.011611624620854855,1.30626380443573,-0.32553499937057495,-0.12520219385623932,-0.893024206161499,0.43224018812179565,1.0965768098831177,-0.3185080885887146,0.2167922556400299
1.106210126574273,-2.852035113875319,1.3279995519145469,-0.2532042860984802,1.4554942846298218,-0.4121604263782501,-0.127931609749794,-0.8940070271492004,0.42940014600753784,1.0841542482376099,-0.38431310653686523,0.4160587191581726
1.111881088733764,-2.8435778348343543,1.3362451019743695,-0.6291695237159729,1.7016277313232422,-0.6206274032592773,-0.1300678700208664,-0.8965335488319397,0.4234497845172882,1.1903706789016724,-0.456295371055603,0.6139187812805176
1.1220741840028676,-2.8341717941294196,1.3461009749735264,-1.0530728101730347,1.9338518381118774,-0.7963454723358154,-0.13127288222312927,-0.9010021686553955,0.41347604990005493,1.3429733514785767,-0.482100248336792,0.777762234210968
1.136570163709569,-2.8230168682813943,1.3559998762427843,-1.4188035726547241,2.0566649436950684,-0.8839322328567505,-0.1317717581987381,-0.9071958661079407,0.3995389938354492,1.5656555891036987,-0.4461212158203125,0.910382091999054
1.1537891307456167,-2.8100582083900996,1.3642661696306282,-1.5857553482055664,1.9923346042633057,-0.838843584060669,-0.13183358311653137,-0.9143052101135254,0.3829696774482727,1.807752251625061,-0.37927383184432983,0.985865592956543
1.1710524572158367,-2.796205456058416,1.3688651685255757,-1.5077158212661743,1.5661587715148926,-0.6279687285423279,-0.13176199793815613,-0.9211606979370117,0.3661990463733673,2.000216007232666,-0.2769899368286133,1.0103877782821655
1.1854899900737736,-2.78293495487308,1.36784116440619,-1.1909123659133911,0.8597118258476257,-0.27642104029655457,-0.13192754983901978,-0.9266833662986755,0.3519277274608612,2.1052398681640625,-0.17939579486846924,1.0011911392211914
1.194305342226198,-2.7713524643799716,1.3598921678598717,-0.635633111000061,-0.04251867160201073,0.21510349214076996,-0.1330336481332779,-0.9299604892730713,0.3427470028400421,2.1231002807617188,-0.11146712303161621,0.9375721216201782
1.1950922627054954,-2.7625239131786694,1.3444861518882922,0.09411133825778961,-1.0549981594085693,0.776107668876648,-0.135783389210701,-0.9302495121955872,0.34087881445884705,2.0324509143829346,-0.08847290277481079,0.817385196685791
1.1866047472391255,-2.758706549589781,1.3239010705768217,0.9137962460517883,-1.9663933515548706,1.241064429283142,-0.14002829790115356,-0.927101731300354,0.3476691246032715,1.856123447418213,-0.1461859941482544,0.6521018147468567
1.169255111746902,-2.7622283528828055,1.3028750866585619,1.682640790939331,-2.568174362182617,1.5077654123306274,-0.14473874866962433,-0.9204597473144531,0.3630487620830536,1.65897536277771,-0.2498893141746521,0.488376259803772
1.1449952457775217,-2.7728703245326822,1.2847567150860628,2.256786346435547,-2.81550931930542,1.586058259010315,-0.14887316524982452,-0.9107081294059753,0.3852885067462921,1.5382012128829956,-0.3439762592315674,0.38854551315307617
1.1166483736950625,-2.7878772655021393,1.270290913745543,2.554983615875244,-2.7551636695861816,1.5509530305862427,-0.15195825695991516,-0.8986351490020752,0.41153812408447266,1.5095633268356323,-0.4192054867744446,0.36516469717025757
1.0871619424204237,-2.8030001867851775,1.2575179744020737,2.547677755355835,-2.5160577297210693,1.5347622632980347,-0.154454305768013,-0.8853107690811157,0.43859875202178955,1.5807543992996216,-0.47237062454223633,0.41114795207977295
1.0589455136963895,-2.8139172769300873,1.2429547520592115,2.2866811752319336,-2.208939552307129,1.6269350051879883,-0.15763592720031738,-0.8718394637107849,0.46373113989830017,1.7373632192611694,-0.5022602081298828,0.4725174903869629
1.033821515687315,-2.8180798712834654,1.223908997627049,1.8319247961044312,-1.9095638990402222,1.7745614051818848,-0.16261768341064453,-0.8592601418495178,0.48500245809555054,1.906361699104309,-0.5135577917098999,0.5247631072998047
1.013145267316234,-2.8156232663633687,1.200032421482292,1.2768867015838623,-1.6700572967529297,1.8758606910705566,-0.16946254670619965,-0.8485004901885986,0.501327633857727,2.034681797027588,-0.5134685635566711,0.5513761639595032
0.9976490750949172,-2.8081915485141677,1.1721883867209486,0.6797248125076294,-1.5608018636703491,1.9409865140914917,-0.177465558052063,-0.8401984572410583,0.5124183297157288,2.1113646030426025,-0.4727898836135864,0.5608084797859192
0.9872110309020351,-2.797382337499685,1.139955475492087,0.12266738712787628,-1.6979824304580688,2.0753822326660156,-0.1859433948993683,-0.8344924449920654,0.5186978578567505,2.146545171737671,-0.36651164293289185,0.5548799633979797
0.9807723316703748,-2.785255501326727,1.102483548876566,-0.31380948424339294,-2.1411900520324707,2.250664710998535,-0.19408994913101196,-0.830927312374115,0.5214293003082275,2.114362955093384,-0.19681304693222046,0.5064483284950256
0.9764444989669963,-2.7752027165226427,1.0602341342311903,-0.5064277052879333,-2.878007650375366,2.4605913162231445,-0.20060840249061584,-0.828511655330658,0.5228046774864197,1.962418794631958,0.047520995140075684,0.3831096291542053
0.9713106486108161,-2.770501178811222,1.0138142576559412,-0.3693281412124634,-3.860480785369873,2.774130344390869,-0.204603910446167,-0.8256258964538574,0.5258126854896545,1.7024677991867065,0.3667178750038147,0.17934155464172363
0.9614908123106779,-2.7730709981744157,0.963654039727199,0.19602897763252258,-4.874556541442871,3.240483522415161,-0.2061627358198166,-0.8200456500053406,0.5338743925094604,1.3495343923568726,0.7318193912506104,-0.0908203125
0.94282128437565,-2.7842368990719737,0.9114936852059853,1.1867220401763916,-5.799759864807129,3.699753522872925,-0.20550894737243652,-0.8092188239097595,0.5503913164138794,0.8895910978317261,1.1162714958190918,-0.4030678868293762
0.912690906388265,-2.804981510827053,0.8610307744383497,2.4299793243408203,-6.300200462341309,3.982393741607666,-0.2020118236541748,-0.7911524176597595,0.5772945284843445,0.2783820927143097,1.4924310445785522,-0.6006863713264465
0.8707724391300231,-2.8312843599741244,0.8155403685177697,3.652728319168091,-5.859655380249023,4.035121917724609,-0.19671884179115295,-0.764826774597168,0.6134667992591858,-0.48598983883857727,1.892786979675293,-0.6676051616668701
0.819834312543196,-2.8526223863842506,0.7759537744212,4.427278995513916,-4.151560306549072,3.9551398754119873,-0.19444388151168823,-0.7310327887535095,0.6540508270263672,-1.5314929485321045,2.346099376678467,-0.5583630800247192
0.7654522090958645,-2.855675725677959,0.7384056709185544,4.382564544677734,-1.7612996101379395,4.2335076332092285,-0.2033683955669403,-0.6928631663322449,0.6917962431907654,-2.5197455883026123,2.700507640838623,-0.16449838876724243
0.7130336922617092,-2.8324531236246577,0.6938997235050389,3.646696090698242,0.35619571805000305,5.150657653808594,-0.2301204949617386,-0.6541314125061035,0.720524787902832,-3.184414863586426,2.6765010356903076,0.4219920039176941
0.6640457503882226,-2.7873295434347822,0.6384472938130612,2.8428637981414795,1.4491924047470093,6.038726329803467,-0.27318495512008667,-0.6163079142570496,0.7386028170585632,-3.6872336864471436,2.1849420070648193,0.8756090998649597
0.6172730140244882,-2.7366910044491797,0.5796666402256724,2.3786332607269287,1.58552086353302,5.9679484367370605,-0.32123276591300964,-0.5788135528564453,0.7495227456092834,-4.597895622253418,1.5299854278564453,1.0614207983016968
0.5751884035337647,-2.695210669752727,0.5332842158569099,2.0969088077545166,1.4445092678070068,4.253024101257324,-0.36223918199539185,-0.5439928770065308,0.7568715810775757,-5.507282733917236,0.6771867871284485,1.2047678232192993
0.5467304541085239,-2.673745688008301,0.513757306132887,1.4534120559692383,0.6349071860313416,1.0386906862258911,-0.38522791862487793,-0.5198970437049866,0.7624346613883972,-5.6764936447143555,-0.2934727072715759,1.28799569606781
0.5439605585036409,-2.6805252301745837,0.528259464340706,0.07079388946294785,-0.3718494474887848,-3.003190517425537,-0.3806893527507782,-0.5175289511680603,0.7663154602050781,-5.315493106842041,-0.6842228174209595,1.3299522399902344
0.5703089259948305,-2.708820758523028,0.5736123594801062,-1.4485970735549927,-0.42035385966300964,-5.9357590675354,-0.35301390290260315,-0.5398921370506287,0.7641320824623108,-4.217985153198242,-0.006784677505493164,1.1536383628845215
0.6140897465339588,-2.7463083482355013,0.635774551405602,-2.291511297225952,-0.10943564027547836,-6.715579986572266,-0.31471750140190125,-0.5762147903442383,0.7542740106582642,-2.724695920944214,1.0335359573364258,0.5352156162261963
0.6591710341701867,-2.782776117731496,0.6982071343445385,-2.2847886085510254,0.22709417343139648,-5.732805252075195,-0.2775971293449402,-0.6124617457389832,0.7401557564735413,-1.40010666847229,1.7272382974624634,-0.12060314416885376
0.6946996464775457,-2.8104859587414244,0.7488663390235468,-1.653718113899231,0.5845693945884705,-4.051807403564453,-0.24974887073040009,-0.6401547193527222,0.7265170812606812,-0.642646074295044,1.9550809860229492,-0.563232958316803
0.7165720277232223,-2.8271323565003588,0.7854574450960652,-0.713245689868927,0.7895103096961975,-2.675837993621826,-0.2332337200641632,-0.6568036079406738,0.7170850038528442,-0.381725937128067,1.7746014595031738,-0.7864058017730713
0.7264150332379483,-2.83771909804784,0.8135741552210718,0.08478868007659912,0.7984157204627991,-2.0164637565612793,-0.22368395328521729,-0.6641939282417297,0.713310718536377,-0.4353584051132202,1.436425805091858,-0.7378315329551697
0.7291162754025298,-2.84714174510738,0.8399932504417547,0.5052427053451538,0.8353859782218933,-1.9665873050689697,-0.21643131971359253,-0.6662108302116394,0.7136669754981995,-0.5833580493927002,1.1745574474334717,-0.509718120098114
0.7299457358935595,-2.857855117758282,0.8693654392322937,0.5398310422897339,0.9258508086204529,-2.29482102394104,-0.2086184322834015,-0.6668291687965393,0.7154137492179871,-0.6490474939346313,0.9611255526542664,-0.2481439709663391
0.7326618130916599,-2.871175973228764,0.9032106193202447,0.2901000380516052,0.9096183180809021,-2.6724770069122314,-0.19858574867248535,-0.6688507795333862,0.716381311416626,-0.5353466868400574,0.7592743635177612,-0.03409993648529053
0.7388932722447078,-2.886918130989782,0.9400288622449945,-0.08563929051160812,0.8865866661071777,-2.877916097640991,-0.18623051047325134,-0.6734701991081238,0.7153708934783936,-0.2998839318752289,0.6016166806221008,0.08577638864517212
0.7486884309106197,-2.903128691763665,0.9772620155499282,-0.471425324678421,0.9063209295272827,-2.871657133102417,-0.173043355345726,-0.6806784868240356,0.7118510007858276,0.013467058539390564,0.5036157369613647,0.10231178998947144
0.7612512573280622,-2.918151889505824,1.0125776902863974,-0.7761054635047913,0.9237282872200012,-2.6662371158599854,-0.16042251884937286,-0.6898278594017029,0.7059761881828308,0.30631178617477417,0.46975022554397583,0.06819385290145874
0.7749831229188047,-2.930224756617596,1.0438581631421857,-0.9092512726783752,1.0146827697753906,-2.2888705730438232,-0.14988625049591064,-0.6997039914131165,0.6985329985618591,0.5250388979911804,0.45710456371307373,-0.026185035705566406
0.7881286395660437,-2.937430348259144,1.06977878974615,-0.880160391330719,1.1963204145431519,-1.837983250617981,-0.1429717242717743,-0.7090348601341248,0.6905276775360107,0.6996428966522217,0.38884443044662476,-0.13620656728744507
0.7994241928108079,-2.938690903377967,1.0898772510044696,-0.7515214681625366,1.411939024925232,-1.3668763637542725,-0.140478253364563,-0.7169548273086548,0.6828189492225647,0.8467618823051453,0.2591148018836975,-0.18562668561935425
0.8084303677206084,-2.9337866814738267,1.1042370867299074,-0.6027954816818237,1.6270289421081543,-0.9583128690719604,-0.14248722791671753,-0.7232040166854858,0.6757758855819702,0.9316260814666748,0.11324924230575562,-0.17954492568969727
0.8155090636433129,-2.9236736378324126,1.114245347111369,-0.4999428689479828,1.8309043645858765,-0.7040994763374329,-0.148203507065773,-0.7280746698379517,0.6692855358123779,0.9361978769302368,-0.051268160343170166,-0.0975692868232727
0.8217945895491776,-2.9096585714839707,1.1215101725922485,-0.5200960040092468,2.012768268585205,-0.5455411076545715,-0.15651360154151917,-0.7323689460754395,0.6626754403114319,0.986118733882904,-0.2135385274887085,0.055372416973114014
0.828522476295562,-2.892281071351146,1.1261747498274257,-0.6417169570922852,2.1315665245056152,-0.3846744894981384,-0.16678550839424133,-0.7369334101676941,0.6550658941268921,1.0776132345199585,-0.32784008979797363,0.2007077932357788
0.8365174939869839,-2.8713324337179644,1.1276292274230653,-0.8530970811843872,2.255046844482422,-0.21820168197155,-0.17889195680618286,-0.7423141598701477,0.6457300186157227,1.1605051755905151,-0.3928024172782898,0.324393093585968
0.8462753061824898,-2.84669181611275,1.1256619128835141,-1.092873215675354,2.363954782485962,-0.07748930156230927,-0.19263280928134918,-0.748816967010498,0.6341655850410461,1.216589093208313,-0.4436575770378113,0.41594427824020386
0.8579718534833909,-2.8185406304735996,1.1204274702377488,-1.334980845451355,2.4507193565368652,0.011308273300528526,-0.20761166512966156,-0.756517767906189,0.620143473148346,1.2895972728729248,-0.49177318811416626,0.47194308042526245
0.8714190960900363,-2.78775502775916,1.1127211842675193,-1.514061450958252,2.5205624103546143,0.02992510050535202,-0.22305651009082794,-0.7652432322502136,0.6038614511489868,1.3499791622161865,-0.5467380285263062,0.5139058232307434
0.8858427031676713,-2.7546899905519964,1.1032699421734138,-1.5868752002716064,2.6193675994873047,0.0573122575879097,-0.23870763182640076,-0.7744483947753906,0.585873544216156,1.4473410844802856,-0.5877189636230469,0.5306421518325806
0.8998779034608466,-2.719251612404733,1.0918691226251556,-1.5253031253814697,2.660123109817505,0.1653820127248764,-0.2548351287841797,-0.7832509875297546,0.5670772790908813,1.5717602968215942,-0.5992104411125183,0.5301973223686218
0.9116918325749254,-2.6822069342089607,1.0779613895290114,-1.3185718059539795,2.5078775882720947,0.3920319080352783,-0.2715406119823456,-0.7905409932136536,0.5489174127578735,1.6698102951049805,-0.5712448358535767,0.5486624240875244
0.9194852248905814,-2.6456690760610035,1.0611621622499698,-0.9836277365684509,2.0911808013916016,0.7127367258071899,-0.28847065567970276,-0.7952896356582642,0.5331965684890747,1.7195162773132324,-0.515485942363739,0.5887667536735535
0.9217257697783998,-2.612554085252436,1.0419390485209656,-0.5275985598564148,1.429396629333496,1.0959957838058472,-0.3050660789012909,-0.7966459393501282,0.5218138694763184,1.7189607620239258,-0.48077404499053955,0.6192840337753296
0.9171104463130411,-2.585882215217186,1.0213873867440604,0.04677895829081535,0.6188779473304749,1.5033278465270996,-0.32081013917922974,-0.7938477396965027,0.516610860824585,1.673608660697937,-0.4803222417831421,0.6057340502738953
0.9049032273484295,-2.5676182607307476,1.0012430221887973,0.6944757103919983,-0.1332167685031891,1.8704055547714233,-0.3354283571243286,-0.7863653898239136,0.5187650322914124,1.6108953952789307,-0.5278130769729614,0.5363342761993408
0.8852524912346118,-2.5573782583580194,0.9827328059602265,1.3096210956573486,-0.6728456616401672,2.1991286277770996,-0.349179208278656,-0.7740748524665833,0.5280923843383789,1.5793733596801758,-0.601199746131897,0.467787504196167
0.859199564644481,-2.552509184784983,0.9656630625522039,1.7825230360031128,-0.9294589757919312,2.493612766265869,-0.36283060908317566,-0.7573201060295105,0.5429734587669373,1.560065746307373,-0.6452525854110718,0.42483049631118774
0.8286056505283971,-2.550005607755694,0.9495789978432522,2.0774385929107666,-0.9493147134780884,2.642315149307251,-0.3769373297691345,-0.7369896173477173,0.5610383749008179,1.5003352165222168,-0.7007849216461182,0.4201321005821228
0.7962079597445622,-2.5488947625424268,0.935248836981767,2.1511707305908203,-0.8995042443275452,2.573044538497925,-0.3906974792480469,-0.7147089838981628,0.5801259875297546,1.446407437324524,-0.8763095736503601,0.4716927409172058
0.7650448476334185,-2.5479986140372586,0.921946183380796,1.9060730934143066,-0.7824828028678894,2.4681262969970703,-0.4034833610057831,-0.692569375038147,0.5979537963867188,1.499873161315918,-1.039394736289978,0.5753554105758667
0.7375489598597412,-2.5449930042132847,0.9069703453312992,1.374083399772644,-0.6474716663360596,2.4177846908569336,-0.4158228635787964,-0.6724758744239807,0.6122636795043945,1.6089229583740234,-1.07846999168396,0.6793162822723389
0.7154773050067298,-2.538078584113654,0.8879934365488308,0.6438497304916382,-0.49074140191078186,2.4087564945220947,-0.4283674657344818,-0.655977725982666,0.6214455962181091,1.7295148372650146,-1.050168514251709,0.7492055296897888
0.6994583200585157,-2.5270872691685295,0.8635400571665629,-0.1415470689535141,-0.5244628190994263,2.466728448867798,-0.44117406010627747,-0.6438032984733582,0.6252056360244751,1.8282897472381592,-0.9613906145095825,0.7688828110694885
0.6888948718597989,-2.5144928135747793,0.8328845011162233,-0.8611012101173401,-0.915103554725647,2.5844595432281494,-0.4529789388179779,-0.6356844902038574,0.6250725388526917,1.8388736248016357,-0.8121153712272644,0.7670021653175354
0.6824280155726111,-2.5040546372958508,0.7961964069048924,-1.4196569919586182,-1.6875122785568237,2.7439842224121094,-0.46191564202308655,-0.6306791305541992,0.62360018491745,1.7930926084518433,-0.5920990109443665,0.7150989770889282
0.678315875828149,-2.5002637394473153,0.7546900973086851,-1.7252944707870483,-2.7865381240844727,2.9047770500183105,-0.4658241868019104,-0.6274825930595398,0.623917818069458,1.6487771272659302,-0.2567642331123352,0.5845630764961243
0.6743952228047255,-2.5071743567958067,0.7106473242158601,-1.6858115196228027,-4.111300945281982,3.051643133163452,-0.4629559814929962,-0.6244250535964966,0.6290985941886902,1.4019361734390259,0.14244568347930908,0.37567734718322754
0.6686595085430336,-2.528819043036501,0.6672516999244336,-1.3019530773162842,-5.590659141540527,3.0839972496032715,-0.45128437876701355,-0.6199347376823425,0.6418902277946472,1.0163480043411255,0.5553901195526123,0.13356131315231323
0.6598555393144058,-2.5682956175862786,0.6286509112075105,-0.6039214730262756,-6.982358932495117,2.882020950317383,-0.4285435676574707,-0.6130027174949646,0.6637603044509888,0.5005956888198853,0.9405784606933594,-0.0937379002571106
0.647381841867552,-2.624336135895912,0.5985759867011354,0.2636578381061554,-7.730961322784424,2.4446802139282227,-0.39444345235824585,-0.603100061416626,0.6933140158653259,-0.07313153147697449,1.3446619510650635,-0.31633061170578003
0.6308447827516322,-2.6898927133982116,0.5785314588201295,1.1565766334533691,-7.608641624450684,1.9179387092590332,-0.3524831235408783,-0.5898271799087524,0.7265394926071167,-0.7338663339614868,1.876448154449463,-0.5095900893211365
0.6089100505024257,-2.7546296981141465,0.5675272882066438,2.1342239379882812,-6.410778522491455,1.5302070379257202,-0.30955222249031067,-0.5719737410545349,0.7596203684806824,-1.5230282545089722,2.564146041870117,-0.7147597074508667
0.5775017034049533,-2.803276569112303,0.5605418185746622,3.3383126258850098,-3.9304239749908447,1.8843108415603638,-0.278074711561203,-0.5459324717521667,0.7903366088867188,-2.2043776512145996,3.2231786251068115,-0.8560258150100708
0.5321860428320685,-2.822018432770299,0.5469622393076894,4.431424140930176,-1.3380452394485474,3.315908432006836,-0.27071359753608704,-0.5074182748794556,0.8180711269378662,-2.4746477603912354,3.4367854595184326,-0.6932697296142578
0.4734919080049807,-2.814190742813637,0.5181794845147639,5.0052971839904785,-0.013320602476596832,5.128838539123535,-0.2862037122249603,-0.4559967815876007,0.8427062034606934,-2.6589713096618652,3.0201141834259033,-0.10105305910110474
0.40685999029195785,-2.794094028246976,0.4776028033300946,5.043027877807617,0.5550192594528198,5.982325553894043,-0.3127474784851074,-0.39572760462760925,0.8634747862815857,-3.31547212600708,2.335684299468994,0.6642351150512695
0.34196569859386955,-2.7723895667392675,0.43873716090620657,4.450617790222168,0.8580052256584167,5.063826560974121,-0.3399767279624939,-0.33533960580825806,0.8786140084266663,-4.047001361846924,1.4643069505691528,1.3303548097610474
0.29172955105136417,-2.757992637184964,0.41538012429345816,3.13912034034729,0.4584660530090332,2.5554280281066895,-0.35844796895980835,-0.28760913014411926,0.8881419897079468,-4.386928558349609,0.424221009016037,1.7178303003311157
0.27012668787383015,-2.759905845523628,0.4166362776650898,0.805122971534729,-0.818071186542511,-1.2895435094833374,-0.3589789569377899,-0.26685354113578796,0.8943842649459839,-4.235945701599121,-0.2885206639766693,1.9043216705322266
0.28799858317847743,-2.7802135736036924,0.44567178190673945,-2.0961873531341553,-1.499467134475708,-5.007439136505127,-0.3390026390552521,-0.28403380513191223,0.8968842625617981,-3.7887439727783203,-0.23259824514389038,1.9847681522369385
0.3390839593285358,-2.8084052988424797,0.4930543149780443,-4.2649993896484375,-1.0961861610412598,-6.5895161628723145,-0.3084340989589691,-0.33262336254119873,0.8911960124969482,-2.699225902557373,0.4883239269256592,1.4356168508529663
0.40519168653845966,-2.8334066364692196,0.5431237367544013,-5.1761393547058105,-0.2522282600402832,-6.221646308898926,-0.27876901626586914,-0.39419493079185486,0.8757272958755493,-1.4013609886169434,1.3364861011505127,0.3091634511947632
0.47178491402852774,-2.8496076216657498,0.5860023409216323,-5.112253665924072,0.6497001051902771,-5.026690483093262,-0.2564082443714142,-0.454476922750473,0.8530566692352295,-0.7870792746543884,1.9997344017028809,-0.3095996379852295
0.5297162825358124,-2.8547268609412813,0.6182204344739048,-4.2702250480651855,1.3595157861709595,-3.687058448791504,-0.24416957795619965,-0.5052885413169861,0.8276860117912292,-0.433991938829422,2.2441344261169434,-0.7326545715332031
0.5736913338457691,-2.851673506791188,0.6417388545114568,-2.967698335647583,1.6638026237487793,-2.6839046478271484,-0.24010701477527618,-0.5427361130714417,0.8048511743545532,-0.28104156255722046,1.9742395877838135,-1.0208091735839844
0.6024485933560592,-2.8452386454925898,0.6612409501506918,-1.6092798709869385,1.758626103401184,-2.123570203781128,-0.24062246084213257,-0.5666617155075073,0.7880325317382812,-0.30193430185317993,1.5175282955169678,-1.0230789184570312
0.6187659115306062,-2.8395710045681737,0.6813960636261278,-0.5909389853477478,1.6614476442337036,-2.0346620082855225,-0.24230195581912994,-0.5800303220748901,0.7777237296104431,-0.3910902738571167,1.1516857147216797,-0.8157945871353149
0.6281200469352497,-2.8379481784597678,0.705794110003247,-0.06809122115373611,1.500767469406128,-2.3275678157806396,-0.24193093180656433,-0.5876246690750122,0.7721183896064758,-0.5301637649536133,0.8921900391578674,-0.49213480949401855
0.6358667207366688,-2.841557480863265,0.7364435831452085,0.014158787205815315,1.398660659790039,-2.8462212085723877,-0.23778988420963287,-0.5938750505447388,0.7686142921447754,-0.6043425798416138,0.6826508045196533,-0.1915576457977295
0.6457187766710056,-2.8493712283683443,0.7730426438267901,-0.21628081798553467,1.4109660387039185,-3.2966957092285156,-0.23008020222187042,-0.601772665977478,0.7648087739944458,-0.4824441373348236,0.5332302451133728,0.03359192609786987
0.6594751002514888,-2.8592360457065666,0.812647988845409,-0.6494643092155457,1.406458854675293,-3.4471020698547363,-0.22019697725772858,-0.6127020716667175,0.7590184807777405,-0.16281382739543915,0.4629218578338623,0.1554710865020752
0.6771408703434748,-2.868569555840715,0.8504961848215179,-1.104296326637268,1.4119014739990234,-3.1571414470672607,-0.2101515233516693,-0.6265673041343689,0.7504995465278625,0.23834984004497528,0.4275011420249939,0.17601394653320312
0.6970341252131026,-2.873997853426051,0.8816835417220509,-1.4060043096542358,1.44915771484375,-2.506237268447876,-0.20273813605308533,-0.6419464349746704,0.7394602298736572,0.5784401297569275,0.37815260887145996,0.08050107955932617
0.7167080330665491,-2.873473087241271,0.9039863624073274,-1.4486713409423828,1.5565643310546875,-1.815603494644165,-0.19974131882190704,-0.6569061875343323,0.7270333766937256,0.7491493225097656,0.2559815049171448,-0.07562059164047241
0.7341420313925131,-2.8669979912859618,0.9193953447002561,-1.2653862237930298,1.7855253219604492,-1.3630930185317993,-0.20130836963653564,-0.6699504256248474,0.7145916819572449,0.7683249711990356,0.03898423910140991,-0.20061475038528442
0.7485668481696282,-2.8558687376893697,0.9313862439067109,-1.0071732997894287,2.0416691303253174,-1.151292324066162,-0.20650315284729004,-0.6805894374847412,0.7029611468315125,0.7396605014801025,-0.15743857622146606,-0.237751305103302
0.7603488435501305,-2.842036374729381,0.9424027545750895,-0.7941381335258484,2.2103776931762695,-1.0627285242080688,-0.21382537484169006,-0.689174234867096,0.6923272609710693,0.7187693119049072,-0.291370689868927,-0.14352983236312866
0.7705785624418692,-2.8267091042969628,0.9527593230392915,-0.7184926867485046,2.2539546489715576,-0.9641492366790771,-0.22221626341342926,-0.6965504884719849,0.6822296380996704,0.8007838129997253,-0.38957011699676514,0.01764512062072754
0.7803980147701912,-2.810098458009945,0.9611626039587375,-0.7724841833114624,2.223090887069702,-0.7856366634368896,-0.23127998411655426,-0.703562319278717,0.6719442009925842,0.9126155376434326,-0.4534810185432434,0.17926710844039917
0.7905926547384291,-2.7917759360249637,0.9664148226934084,-0.9004663825035095,2.1620609760284424,-0.5988758206367493,-0.24108140170574188,-0.710770308971405,0.6608214378356934,0.9952929019927979,-0.5167229175567627,0.2842772603034973
0.8016520045956623,-2.7723771370126307,0.9689408620462949,-1.0358426570892334,2.058359384536743,-0.524458110332489,-0.25100210309028625,-0.7185060977935791,0.6486497521400452,1.004832148551941,-0.5842892527580261,0.34762686491012573
0.8137116728884808,-2.753252116860808,0.9702660501308783,-1.1255912780761719,1.9433444738388062,-0.5430456399917603,-0.2600608468055725,-0.726841390132904,0.6356647610664368,0.9928795099258423,-0.6238055229187012,0.3902902603149414
0.8264598786668906,-2.734941689164772,0.9713522111910882,-1.1504095792770386,1.883167028427124,-0.5826539993286133,-0.2679688334465027,-0.735537588596344,0.6222350597381592,0.9768465161323547,-0.6150176525115967,0.40512359142303467
0.8393772696489257,-2.7170086148378965,0.9729832689801668,-1.1081857681274414,1.9399304389953613,-0.6606944799423218,-0.2751467227935791,-0.7442273497581482,0.6086211800575256,1.0137637853622437,-0.624730110168457,0.3991149067878723
0.8519743384492604,-2.69927044067961,0.9756091366269842,-1.0196268558502197,1.980701208114624,-0.6973808407783508,-0.281863272190094,-0.7525819540023804,0.5951247215270996,1.0959502458572388,-0.6337857842445374,0.42310941219329834
0.8637046614842654,-2.681732186333033,0.978349083315053,-0.9318150281906128,1.9062275886535645,-0.6292398571968079,-0.2883186936378479,-0.760254442691803,0.5821385979652405,1.1650277376174927,-0.5791009664535522,0.47769105434417725
0.8743380256369876,-2.664877640669521,0.979914137169516,-0.868304431438446,1.6680617332458496,-0.4994189441204071,-0.2943626940250397,-0.7671189904212952,0.5699813961982727,1.2166039943695068,-0.5043500065803528,0.5465803742408752
0.8836712138542605,-2.649870849708222,0.9795946600539992,-0.7932227253913879,1.2568609714508057,-0.32962483167648315,-0.29948943853378296,-0.7730727791786194,0.55916428565979,1.2498068809509277,-0.4527878761291504,0.6006256937980652
0.8911666343595839,-2.6379900777282046,0.9774220157921562,-0.6328550577163696,0.777303159236908,-0.14035440981388092,-0.30330654978752136,-0.777805507183075,0.5504761338233948,1.2414016723632812,-0.4152488112449646,0.5798643827438354
0.8957248649260247,-2.629951088177728,0.9743200962893945,-0.3370356559753418,0.34868738055229187,0.03539983928203583,-0.3059828579425812,-0.7806622982025146,0.5449228882789612,1.1930830478668213,-0.3988116979598999,0.4696492552757263
0.8964579359232139,-2.6262494006582835,0.9716054097400058,0.04956597834825516,-0.03214272856712341,0.18374504148960114,-0.3077155649662018,-0.781120240688324,0.5432880520820618,1.123694658279419,-0.4021987318992615,0.33162015676498413
0.8930305306143009,-2.627047120664528,0.969994459240559,0.44150206446647644,-0.37165743112564087,0.3317456841468811,-0.3085978627204895,-0.7789756059646606,0.545860767364502,1.0500072240829468,-0.38087528944015503,0.22888880968093872
0.8855517457321105,-2.631539937741968,0.9690640251525781,0.7942484617233276,-0.6653755903244019,0.5047711133956909,-0.30897802114486694,-0.7742642760276794,0.5523107051849365,0.9984006881713867,-0.3528871536254883,0.15337765216827393
0.8742924972263552,-2.6387091296025376,0.9680967518765594,1.1060718297958374,-0.90303635597229,0.6936858892440796,-0.3091924786567688,-0.7670897841453552,0.5621144771575928,0.9525794982910156,-0.3640288710594177,0.07915109395980835
0.8595186874509482,-2.6472741427638136,0.9665470217113047,1.3791942596435547,-1.019721269607544,0.8867489695549011,-0.30970993638038635,-0.7575284242630005,0.5746563076972961,0.918337345123291,-0.4111267924308777,0.011311471462249756
0.8418874953337272,-2.6560540774781574,0.964657205981565,1.596526861190796,-0.9972792863845825,0.9702310562133789,-0.31083810329437256,-0.7459016442298889,0.5890755653381348,0.9004530906677246,-0.49340182542800903,-0.031244933605194092
0.8226180322351722,-2.6646646731500834,0.9634966575581813,1.7214056253433228,-0.8846341967582703,0.9409503936767578,-0.31229522824287415,-0.7329294085502625,0.6043888330459595,0.9080594778060913,-0.6075399518013,-0.019763827323913574
0.8030893435311127,-2.6722864513772873,0.963059198899608,1.6977356672286987,-0.680073082447052,0.8885905146598816,-0.31409409642219543,-0.7195050120353699,0.6194009184837341,0.988502025604248,-0.6831898093223572,0.051711082458496094
0.7846479149177957,-2.6770680379234575,0.9622748153968635,1.5150460004806519,-0.3863053023815155,0.870714008808136,-0.31701990962028503,-0.7065760493278503,0.6326521039009094,1.151660442352295,-0.7126286625862122,0.15926367044448853
0.7683854415025879,-2.677953792015314,0.9595157325004247,1.1935566663742065,-0.18953019380569458,0.9471176862716675,-0.32155588269233704,-0.6949751973152161,0.6431257724761963,1.3299483060836792,-0.7119155526161194,0.28358596563339233
0.7549396960712141,-2.674888566667935,0.9527632513887967,0.75612872838974,-0.14250224828720093,1.1334030628204346,-0.3277009129524231,-0.6852447390556335,0.6504241824150085,1.4723542928695679,-0.707104504108429,0.4045836329460144
0.7446618221240169,-2.6684415108929143,0.9406887051838889,0.2726408839225769,-0.22447462379932404,1.3655065298080444,-0.3350791037082672,-0.6777231693267822,0.6545325517654419,1.5846519470214844,-0.670299232006073,0.4738242030143738
0.7374835381032387,-2.6596888333446898,0.9231319908739202,-0.18470051884651184,-0.40882769227027893,1.5833408832550049,-0.3430410623550415,-0.6724274754524231,0.6558688282966614,1.6411521434783936,-0.5820738673210144,0.47741663455963135
0.7329893510748005,-2.6504703975136374,0.900510905865489,-0.579761803150177,-0.8125224113464355,1.7900972366333008,-0.35049423575401306,-0.6690942645072937,0.6553369760513306,1.6850279569625854,-0.5046117901802063,0.4490482807159424
0.7305948125028661,-2.643108699376212,0.8730671799177998,-0.9194424748420715,-1.3921905755996704,2.022050380706787,-0.35607415437698364,-0.667312741279602,0.6541445255279541,1.738169550895691,-0.4152373671531677,0.4119107127189636
0.7293375915434549,-2.639396173969811,0.8411810614486488,-1.1062238216400146,-2.128894329071045,2.2524309158325195,-0.35890376567840576,-0.6663758754730225,0.6535528898239136,1.6964434385299683,-0.20007926225662231,0.30938345193862915
0.7276079872314112,-2.6421011443710998,0.8064483524829755,-1.0382250547409058,-3.038583517074585,2.4392707347869873,-0.3576861321926117,-0.6650852560997009,0.6555321216583252,1.543843388557434,0.07757598161697388,0.13180607557296753
0.7235293071765287,-2.654488505256023,0.7711494878507688,-0.7104799151420593,-4.112595558166504,2.5698800086975098,-0.3508053421974182,-0.6620339155197144,0.6623040437698364,1.303655743598938,0.35865867137908936,-0.07345223426818848
0.7156715543844989,-2.6794137644992198,0.7378305591285083,-0.1605381816625595,-5.229475021362305,2.561077356338501,-0.33649930357933044,-0.6561243534088135,0.6754769682884216,0.9216433763504028,0.6447870135307312,-0.25389188528060913
0.7036770601257324,-2.7181905772662,0.7093939236654934,0.47397327423095703,-6.140551567077637,2.313931703567505,-0.31327101588249207,-0.6470257043838501,0.6951393485069275,0.41133934259414673,0.9209514856338501,-0.3705850839614868
0.6886563598397883,-2.767883225040551,0.6881527255813137,0.9985874891281128,-6.372122287750244,1.8134485483169556,-0.2818716764450073,-0.6355003118515015,0.7188095450401306,-0.1565742790699005,1.2238335609436035,-0.4032427668571472
0.6723219444279399,-2.820573041494553,0.6748187689827326,1.3313555717468262,-5.672428607940674,1.2623265981674194,-0.24686694145202637,-0.6228042840957642,0.7424092292785645,-0.7715504169464111,1.6215529441833496,-0.3982779383659363
0.6552009374597345,-2.863869062416701,0.6656071195907645,1.4882713556289673,-3.986844301223755,1.2242908477783203,-0.2173941433429718,-0.6093185544013977,0.762542188167572,-1.3174264430999756,2.187290906906128,-0.4226984977722168
0.6355413365638937,-2.883919294391115,0.6506590271144019,1.7075234651565552,-1.7589752674102783,2.2605183124542236,-0.20507566630840302,-0.5936132669448853,0.7781819105148315,-1.794741153717041,2.8295750617980957,-0.3980703353881836
0.6081129900923138,-2.8721516052731766,0.6189661721404323,2.2882449626922607,0.37818753719329834,4.177889347076416,-0.21847154200077057,-0.5713197588920593,0.7911150455474854,-2.2357521057128906,3.107666492462158,-0.32463908195495605
0.5683539883862837,-2.8324118866976513,0.5692291507495943,2.9301741123199463,1.947677493095398,5.893393039703369,-0.25644198060035706,-0.5382455587387085,0.8028252124786377,-2.751431465148926,2.5776286125183105,-0.05380219221115112
0.5183329201198849,-2.7780119325044863,0.5114644197886108,3.163041591644287,2.885540246963501,6.526315212249756,-0.3089107573032379,-0.4954327344894409,0.8118624687194824,-3.50954008102417,1.6801707744598389,0.6090206503868103
0.4670410904730044,-2.722336413216438,0.46020904242427996,2.7682104110717773,3.28955340385437,5.433660984039307,-0.36348459124565125,-0.45024624466896057,0.815571665763855,-4.320215702056885,0.7800496816635132,1.216670036315918
0.4299829043473426,-2.6784888799624493,0.43035330540296457,1.4918006658554077,2.6827635765075684,2.342266798019409,-0.40606290102005005,-0.4168552756309509,0.8132311701774597,-4.744968891143799,-0.2139127254486084,1.5936293601989746
0.4262722693923326,-2.660686480080098,0.43066871739782026,-0.8961479067802429,0.8724825978279114,-2.1365692615509033,-0.4211876690387726,-0.4134795367717743,0.8072391748428345,-4.687302112579346,-0.7873566150665283,1.9019585847854614
0.4647384358823559,-2.6698124950944284,0.4608525437179379,-3.361633539199829,0.08678952604532242,-6.000807285308838,-0.4062708020210266,-0.44818899035453796,0.7962855696678162,-4.354852676391602,-0.3775404691696167,1.9861392974853516
0.5337466912696763,-2.692093723773201,0.5116537830433593,-4.767388820648193,0.5420598387718201,-7.748320579528809,-0.3740764856338501,-0.5087624788284302,0.7753889560699463,-3.2811665534973145,0.7708472609519958,1.2888507843017578
0.6097956476316639,-2.7127704622102513,0.5693696955054716,-4.724388122558594,1.554967999458313,-7.26016092300415,-0.3408581614494324,-0.5726999640464783,0.7455401420593262,-1.6729052066802979,1.8201823234558105,-0.050822913646698
0.6770050562638633,-2.72474063534279,0.6215350948119135,-4.027027606964111,2.2524683475494385,-5.723978519439697,-0.3155876398086548,-0.6264614462852478,0.7127059102058411,-0.8752691745758057,2.30955171585083,-0.4674822688102722
0.7290597608674785,-2.7252229129994436,0.6604132401517576,-3.0669357776641846,2.6106228828430176,-3.904963970184326,-0.3016340434551239,-0.6661686897277832,0.6820822358131409,-0.3584458529949188,2.2540745735168457,-0.5327140688896179
0.7658451468672717,-2.715591755642529,0.6857310252336103,-2.1236913204193115,2.7307801246643066,-2.5458309650421143,-0.29785671830177307,-0.6931464076042175,0.6563762426376343,-0.1521402895450592,1.8228611946105957,-0.5954477787017822
0.7905503270334969,-2.699397423951796,0.7032220559893863,-1.330353856086731,2.9808924198150635,-1.8674033880233765,-0.3010253310203552,-0.7107405066490173,0.6357920169830322,-0.3100281059741974,1.404069423675537,-0.512455403804779
0.8082560303332968,-2.6799396555713138,0.7204855566236051,-0.8421423435211182,3.3463029861450195,-1.9150351285934448,-0.30768445134162903,-0.7230836153030396,0.6184497475624084,-0.5524076819419861,1.1045838594436646,-0.3140065670013428
0.8249614343880656,-2.6622221294269313,0.7436343674852881,-0.7406015992164612,3.5214321613311768,-2.443601608276367,-0.31297752261161804,-0.7345216274261475,0.6020986437797546,-0.6919052004814148,0.871103048324585,-0.0007804632186889648
0.8452748965789996,-2.649382243822327,0.7737972239153974,-0.9847860336303711,3.4618313312530518,-2.9829328060150146,-0.3135656714439392,-0.748153567314148,0.5847588181495667,-0.540743350982666,0.6862791180610657,0.3306463360786438
0.8707209753005472,-2.6414178046058328,0.8073006211437538,-1.3948500156402588,3.155818223953247,-3.235297679901123,-0.3089808523654938,-0.7647936344146729,0.5653506517410278,-0.19118696451187134,0.5635913014411926,0.5190913677215576
0.9002009500738013,-2.637149014112841,0.8402401246563429,-1.7689636945724487,2.7695250511169434,-3.2273361682891846,-0.3003605306148529,-0.7834517955780029,0.5440462827682495,0.18295952677726746,0.44940656423568726,0.5334529280662537
0.932582308174771,-2.634664301049007,0.8703209413717531,-2.078774929046631,2.513237476348877,-3.053680419921875,-0.28923869132995605,-0.803161084651947,0.5208383798599243,0.460595041513443,0.27383387088775635,0.5101519823074341
0.9651467057106635,-2.630352621087953,0.8951526150066464,-2.1565682888031006,2.356752634048462,-2.610689163208008,-0.27853333950042725,-0.8221324682235718,0.49650511145591736,0.7567896842956543,0.10406911373138428,0.3445897102355957
0.9954038870004591,-2.6226787352430723,0.9133742453245844,-2.0812244415283203,2.207648277282715,-2.115596294403076,-0.26987117528915405,-0.8389788269996643,0.47252923250198364,0.9274640083312988,-0.05597960948944092,0.19357788562774658
1.0224967660779507,-2.609902773957876,0.9243902787560505,-2.019197702407837,2.214388370513916,-1.6055703163146973,-0.26426219940185547,-0.8534120917320251,0.44928091764450073,1.017985463142395,-0.16807234287261963,0.17739754915237427
1.0470615944626043,-2.588987836309502,0.9268237953317408,-2.0594985485076904,2.38555645942688,-1.1452594995498657,-0.2625148892402649,-0.8659574389457703,0.42568033933639526,1.0158261060714722,-0.203546404838562,0.23864156007766724
1.0702755698214619,-2.5579607260284645,0.920091484760309,-2.214085340499878,2.636770009994507,-0.8029263615608215,-0.2644430994987488,-0.8773328065872192,0.400445818901062,0.971153974533081,-0.24675166606903076,0.31827354431152344
1.0935417583254339,-2.515448326786487,0.9038524505221281,-2.4724392890930176,2.9937329292297363,-0.6031792163848877,-0.2691859304904938,-0.8882593512535095,0.37220174074172974,0.9308834075927734,-0.3549809455871582,0.3848782777786255
1.1178607463964008,-2.460722073214206,0.878536776531382,-2.752349853515625,3.3958325386047363,-0.5718711614608765,-0.27546024322509766,-0.8991663455963135,0.3400314152240753,0.8523340225219727,-0.46852463483810425,0.4151259660720825
1.1438833149613115,-2.3951086606804735,0.8453176910650301,-3.0076982975006104,3.671809673309326,-0.7106314897537231,-0.28117409348487854,-0.9102482795715332,0.30395540595054626,0.7620701789855957,-0.5233148336410522,0.4553828239440918
1.1717719427993039,-2.3205358476258198,0.8048548432123511,-3.206251382827759,3.7861764430999756,-0.92649906873703,-0.28434425592422485,-0.9214404821395874,0.2647557854652405,0.7102323770523071,-0.5102306008338928,0.48861634731292725
1.2011367584515036,-2.238173829369435,0.7567466499638248,-3.3169538974761963,3.7082087993621826,-1.1800973415374756,-0.2837807834148407,-0.9324504137039185,0.22361767292022705,0.7058389186859131,-0.4842366576194763,0.4977872669696808
1.2311181240011795,-2.1496393433444383,0.7004386254823842,-3.320230484008789,3.390915870666504,-1.3810203075408936,-0.27890709042549133,-0.9428619146347046,0.18227025866508484,0.7152626514434814,-0.41582655906677246,0.5006063580513
1.2600992023280877,-2.055004593997981,0.6344871816272767,-3.209214210510254,3.0132944583892822,-1.4543975591659546,-0.27057746052742004,-0.9521206617355347,0.1423160284757614,0.7090998888015747,-0.28167444467544556,0.4574458599090576
1.2863466755954542,-1.954469319475602,0.5591869112305611,-2.9642956256866455,2.6771678924560547,-1.4266184568405151,-0.26022568345069885,-0.9598162174224854,0.10504736751317978,0.7361321449279785,-0.20995283126831055,0.3584839999675751
1.308545844291784,-1.850858045344898,0.47806889112966827,-2.586552619934082,2.4125826358795166,-1.3297464847564697,-0.24915333092212677,-0.9658089876174927,0.07166177034378052,0.7459490895271301,-0.20746976137161255,0.2355891466140747
1.3263285427132745,-1.7499831632103997,0.3979475483925021,-2.107574462890625,2.250162363052368,-1.202264666557312,-0.23816384375095367,-0.9702662825584412,0.04313851147890091,0.6849870681762695,-0.2064913511276245,0.1437053680419922
1.3400258480340748,-1.6577290196057766,0.32595988693139727,-1.6058775186538696,2.2021169662475586,-1.0503315925598145,-0.227863609790802,-0.9734904766082764,0.01985885016620159,0.6376079320907593,-0.18663519620895386,0.09529924392700195
1.3505033626946557,-1.57761792517662,0.26646552505749294,-1.1489702463150024,2.214768886566162,-0.9182992577552795,-0.2185104638338089,-0.9758334755897522,0.001490613678470254,0.5575302839279175,-0.18438374996185303,0.10565650463104248
1.3591655375017522,-1.510234604557111,0.22073130086536677,-0.7726531624794006,2.322566509246826,-0.8686501979827881,-0.2096695750951767,-0.9776896834373474,-0.012713497504591942,0.4381547272205353,-0.21690571308135986,0.13269329071044922
1.3670840984682842,-1.4520607348599477,0.18569567834783424,-0.5431115627288818,2.4295809268951416,-0.8262995481491089,-0.20088212192058563,-0.9793223142623901,-0.02396458201110363,0.3657533824443817,-0.22242945432662964,0.1916738748550415
1.37404502853468,-1.396567932527486,0.15403557346558022,-0.522862434387207,2.433671474456787,-0.7186650037765503,-0.19252417981624603,-0.9807068109512329,-0.033886756747961044,0.3596537709236145,-0.16699808835983276,0.2904021739959717
1.3791084154866007,-1.3357645166438121,0.11686551024075167,-0.6908714175224304,2.406926155090332,-0.5525151491165161,-0.1852782517671585,-0.9816840887069702,-0.04436623677611351,0.368185430765152,-0.11479717493057251,0.38916903734207153
1.3813854735288063,-1.2644741186688155,0.06842252209132223,-0.9574105739593506,2.3163886070251465,-0.3771054148674011,-0.17951588332653046,-0.9821153283119202,-0.05677676200866699,0.37841424345970154,-0.07054269313812256,0.4412981867790222
1.380627235638537,-1.183224163553956,0.008482946998182453,-1.2032195329666138,2.1281371116638184,-0.2522100806236267,-0.17500455677509308,-0.9819722771644592,-0.07144030183553696,0.36294713616371155,-0.040824294090270996,0.42594772577285767
1.3772568556273088,-1.0985419434645924,-0.05751654014655379,-1.3377552032470703,1.8266828060150146,-0.19174987077713013,-0.17128156125545502,-0.981329619884491,-0.08749151974916458,0.3237932324409485,-0.017129182815551758,0.3518041968345642
1.3722652123096453,-1.0186784628259993,-0.1220498414071852,-1.3128793239593506,1.4757733345031738,-0.1740955114364624,-0.1679242104291916,-0.9803573489189148,-0.10344516485929489,0.28297552466392517,0.01662755012512207,0.2410183548927307
1.3668007489889369,-0.9503663785406156,-0.17833650491573802,-1.1461386680603027,1.1531227827072144,-0.16053327918052673,-0.16482731699943542,-0.9792649745941162,-0.1177787259221077,0.22970779240131378,0.05397212505340576,0.11289585381746292
1.3616223677093642,-0.8967648614876031,-0.2231103156786686,-0.9339638352394104,0.7934552431106567,-0.11653652787208557,-0.16224047541618347,-0.978202760219574,-0.12960371375083923,0.21987302601337433,0.09127050638198853,0.039698854088783264
1.3571058002465106,-0.8583094298356843,-0.2555470854550212,-0.6841301321983337,0.5725190043449402,-0.06257613003253937,-0.1604798138141632,-0.9772549271583557,-0.13863243162631989,0.2022584080696106,0.10994541645050049,-0.031289517879486084
1.3538073666141333,-0.8325882344952129,-0.276851450539313,-0.436420202255249,0.40649887919425964,-0.05406440049409866,-0.1592448204755783,-0.9765501022338867,-0.14488236606121063,0.15279042720794678,0.12712395191192627,-0.08209216594696045
1.3518609609097247,-0.8157299879836839,-0.2904882971055515,-0.2749151587486267,0.3151606321334839,-0.060274556279182434,-0.15816344320774078,-0.9761292338371277,-0.14884835481643677,0.11060185730457306,0.13680440187454224,-0.10092280805110931
1.3506064594386151,-0.8026765608106625,-0.3007088145653389,-0.23263828456401825,0.3160170912742615,-0.0670110285282135,-0.15708771347999573,-0.9758560061454773,-0.15175093710422516,0.0780777782201767,0.13941508531570435,-0.08364640176296234
1.3495006787218347,-0.788195001788407,-0.31174522843254104,-0.2742324471473694,0.43666356801986694,-0.12222397327423096,-0.1556384116411209,-0.9756138920783997,-0.15477024018764496,0.03959542512893677,0.13650280237197876,-0.07481357455253601
1.3483546969946867,-0.76672974346169,-0.3283571157482817,-0.4158340394496918,0.612398087978363,-0.2430417388677597,-0.15305691957473755,-0.975361704826355,-0.15888097882270813,-0.014911815524101257,0.11807715892791748,-0.05330778658390045
1.346604966260212,-0.7343500127054421,-0.3543701159121719,-0.6247319579124451,0.7796755433082581,-0.3527434766292572,-0.14897607266902924,-0.9749742150306702,-0.16501887142658234,-0.04935760796070099,0.10360592603683472,-0.02473948895931244
1.3435516726613341,-0.6924324075761483,-0.388754501416667,-0.8314763307571411,0.8891698122024536,-0.40028196573257446,-0.1438300758600235,-0.9742908477783203,-0.17340756952762604,-0.05102461576461792,0.11749470233917236,-0.017815589904785156
1.3389046728353098,-0.6457699701192406,-0.4272158132883809,-0.9647395610809326,0.9380012154579163,-0.3858458697795868,-0.13830798864364624,-0.9732334017753601,-0.18354161083698273,-0.02865360677242279,0.14111071825027466,-0.03995393216609955
1.3329535669751291,-0.6000518132247499,-0.4647416268362874,-1.0071128606796265,0.8902605772018433,-0.3336505889892578,-0.13304336369037628,-0.9718484878540039,-0.194447323679924,-0.009351596236228943,0.14528000354766846,-0.07569430768489838
1.3261910738367297,-0.5589333957537437,-0.4983487545601079,-0.9956845641136169,0.8037654161453247,-0.2700669765472412,-0.1284198760986328,-0.9702330231666565,-0.2053191363811493,0.0019856393337249756,0.14081120491027832,-0.09241041541099548
1.31907591165773,-0.5227324049119467,-0.5277339801960383,-0.9557898640632629,0.7386782765388489,-0.23948347568511963,-0.12434826791286469,-0.9684853553771973,-0.21580909192562103,0.004612579941749573,0.12534570693969727,-0.09545502066612244
1.3120907643984197,-0.4901190163112352,-0.5539518877840839,-0.9028052687644958,0.7105599045753479,-0.24083280563354492,-0.12042678892612457,-0.9667219519615173,-0.22571232914924622,0.007343977689743042,0.10873556137084961,-0.10042905807495117
1.305384578939107,-0.4600077775699572,-0.5777921082105483,-0.8512882590293884,0.7039459347724915,-0.2428797036409378,-0.11645232886075974,-0.9649845957756042,-0.23503954708576202,0.0032321512699127197,0.10641837120056152,-0.10079115629196167
1.2989827498701938,-0.4319852084724156,-0.5993831678314673,-0.792061448097229,0.736644983291626,-0.23410984873771667,-0.11240524053573608,-0.9632855653762817,-0.24381540715694427,-0.0015931129455566406,0.09695261716842651,-0.0922594666481018
1.292947687009057,-0.4061774003599781,-0.6182706486664944,-0.7210171222686768,0.7823456525802612,-0.21082822978496552,-0.10837110131978989,-0.9616477489471436,-0.25197070837020874,0.01634541153907776,0.07761460542678833,-0.08062511682510376
1.2874214508661843,-0.3824932952319643,-0.6344523248544658,-0.6373372673988342,0.8419783711433411,-0.19148112833499908,-0.10435526072978973,-0.9601172804832458,-0.25939232110977173,0.039520762860774994,0.06274813413619995,-0.064566969871521
1.282530796006228,-0.36045429070135226,-0.6484399652074576,-0.5572202801704407,0.862837553024292,-0.185953751206398,-0.10026877373456955,-0.958738386631012,-0.2660202383995056,0.05189848691225052,0.046949565410614014,-0.03265532851219177
1.2780665951957455,-0.3407619455208707,-0.6603577358019992,-0.5153374075889587,0.776756763458252,-0.13861268758773804,-0.09644048660993576,-0.9574597477912903,-0.2719740867614746,0.05472300201654434,0.043504178524017334,0.017274409532546997
1.2735643005682191,-0.3255530871272836,-0.6687922828450636,-0.48838913440704346,0.6475353837013245,-0.023243224248290062,-0.09367084503173828,-0.9561508297920227,-0.2774908244609833,0.08500389009714127,0.04332447052001953,0.049753338098526
1.2689872337170975,-0.3164997932163161,-0.6721161547887711,-0.4325287342071533,0.5250240564346313,0.12546581029891968,-0.09251614660024643,-0.9548003077507019,-0.2824840247631073,0.11613678187131882,0.02045881748199463,0.0429057776927948
1.2646862169753779,-0.3141152416301307,-0.669744440412682,-0.3358008563518524,0.3986909091472626,0.27265340089797974,-0.09311027824878693,-0.9535130262374878,-0.28660690784454346,0.129380464553833,-0.0016567111015319824,0.023194342851638794
1.261007079438357,-0.3176016568174323,-0.6624312622450803,-0.2241474688053131,0.29587605595588684,0.3692012429237366,-0.09520372003316879,-0.9523978233337402,-0.2896108627319336,0.11159172654151917,-0.01404803991317749,0.017516136169433594
1.2580730776734848,-0.3248912789957474,-0.6520638213802094,-0.13415312767028809,0.22257201373577118,0.4131591022014618,-0.09820393472909927,-0.9514992833137512,-0.2915562689304352,0.05747827887535095,-0.028282761573791504,0.015463709831237793
1.2558380207046378,-0.3342495552644401,-0.6401196994769595,-0.050535138696432114,0.18296602368354797,0.42440065741539,-0.10162539780139923,-0.9508092999458313,-0.29263249039649963,0.012147940695285797,-0.05242544412612915,0.008391767740249634
1.254360372923753,-0.3444484277311073,-0.6275128806877078,0.03325696289539337,0.17408889532089233,0.4059414863586426,-0.10507886856794357,-0.9503505229949951,-0.2929028868675232,-0.009545080363750458,-0.07897675037384033,-0.006093114614486694
1.2537903815250446,-0.3546889786876592,-0.6149896397769977,0.12373080104589462,0.15480898320674896,0.3622509241104126,-0.1082608625292778,-0.950173020362854,-0.29231929779052734,-0.00956743210554123,-0.09328389167785645,-0.013604134321212769
1.2540908107637811,-0.3643616043320825,-0.603273844309328,0.1794973909854889,0.14126121997833252,0.29508891701698303,-0.11098168790340424,-0.9502665996551514,-0.2909921705722809,-0.01983185112476349,-0.10165905952453613,-0.004387527704238892
1.2547934978337443,-0.37206433615733286,-0.5937464666749525,0.15055251121520996,0.12427643686532974,0.20748604834079742,-0.11297689378261566,-0.9504852294921875,-0.2895062267780304,-0.04936130344867706,-0.10365283489227295,0.027497559785842896
1.2550755046877744,-0.37680817083448975,-0.5875304477954887,0.03416145592927933,0.11566697806119919,0.12869936227798462,-0.114250548183918,-0.9505727887153625,-0.28871825337409973,-0.07028919458389282,-0.08952724933624268,0.06403255462646484
1.2544455499937168,-0.3777283501004942,-0.5851659415761232,-0.09681293368339539,0.15346091985702515,0.05061900615692139,-0.11473701894283295,-0.9503770470619202,-0.2891696095466614,-0.06574387848377228,-0.08946371078491211,0.07246425747871399
1.2530544724933337,-0.37452561098865456,-0.5866862487620866,-0.19115328788757324,0.19850456714630127,-0.039110880345106125,-0.11429376900196075,-0.9499433636665344,-0.29076555371284485,-0.056711435317993164,-0.0875626802444458,0.04998183250427246
1.2513118703901365,-0.3672837353047204,-0.5918605103840464,-0.24386079609394073,0.27273809909820557,-0.13657927513122559,-0.11277925968170166,-0.9493974447250366,-0.29312992095947266,-0.049192726612091064,-0.07545900344848633,0.018044471740722656
1.2495480256986766,-0.356198698778177,-0.6002411167235056,-0.2697502076625824,0.35021957755088806,-0.23364830017089844,-0.11010686308145523,-0.9488419890403748,-0.2959311604499817,-0.05880787968635559,-0.06045049428939819,-0.0059029459953308105
1.247874879608883,-0.3416180759714786,-0.6115967207890194,-0.2861361503601074,0.4106847941875458,-0.32041388750076294,-0.10631214827299118,-0.9483124017715454,-0.29900047183036804,-0.05842166393995285,-0.038320839405059814,-0.014262467622756958
1.2463293828688562,-0.32468884980488316,-0.6248942849750478,-0.27998319268226624,0.4509350061416626,-0.37503746151924133,-0.10170280188322067,-0.947820782661438,-0.30214616656303406,-0.022152721881866455,-0.018655598163604736,-0.01976853609085083
1.244957389599058,-0.30657578955249243,-0.6390238559491755,-0.2583324611186981,0.4900021553039551,-0.39184674620628357,-0.09660586714744568,-0.9473825097084045,-0.3051777482032776,0.010927833616733551,-0.006993591785430908,-0.026883989572525024
1.243654890102469,-0.2885029170529384,-0.6528887513740699,-0.2526812255382538,0.48810672760009766,-0.3746693730354309,-0.09142592549324036,-0.9469648003578186,-0.3080563545227051,0.02244097739458084,0.008549392223358154,-0.026126354932785034
1.2420987684108293,-0.271524289945849,-0.6657396445230174,-0.2779017388820648,0.4698747992515564,-0.32887357473373413,-0.0865778997540474,-0.9464635848999023,-0.3109839856624603,0.028564028441905975,0.023169517517089844,-0.009343832731246948
1.240006530786729,-0.25598031795649206,-0.6770665710638368,-0.31880709528923035,0.494527667760849,-0.2640886902809143,-0.08223491162061691,-0.9457861185073853,-0.31420713663101196,0.0408836305141449,0.02778691053390503,0.0013713836669921875
1.2371794895737303,-0.241996216000345,-0.6864414450451253,-0.3762676417827606,0.5283664464950562,-0.18518896400928497,-0.07847344875335693,-0.9448641538619995,-0.3179205656051636,0.05375424027442932,0.03412812948226929,0.011173129081726074
1.2335561885186512,-0.22997781991072877,-0.6934094254093626,-0.43125927448272705,0.5535042881965637,-0.09005472809076309,-0.0754268616437912,-0.943671464920044,-0.3221718370914459,0.06709562242031097,0.04500526189804077,0.02055138349533081
1.229166679151009,-0.2203218526889682,-0.6977555934504802,-0.4836505949497223,0.5519094467163086,0.0002125464379787445,-0.07321711629629135,-0.9422099590301514,-0.32692432403564453,0.06502319127321243,0.04921990633010864,0.02180960774421692
1.224144623308254,-0.21293810627353,-0.6997862562539314,-0.5182738304138184,0.5356982946395874,0.07639545947313309,-0.07180029898881912,-0.9405155777931213,-0.332076758146286,0.0515824630856514,0.04142206907272339,0.01390048861503601
1.2187726370870993,-0.20717241975200573,-0.7002542935168558,-0.5333675742149353,0.5273628234863281,0.11456974595785141,-0.07092273235321045,-0.9386768937110901,-0.3374249339103699,0.026672303676605225,0.028139233589172363,-0.00020629167556762695
1.2133129813640806,-0.20205912777626897,-0.6999870500409113,-0.5271791815757751,0.548740029335022,0.11696872115135193,-0.07022392749786377,-0.9367803931236267,-0.34279876947402954,-0.007214397192001343,0.017240047454833984,-0.013494014739990234
1.207983437588722,-0.19620570912146337,-0.700116597156502,-0.513921320438385,0.5922094583511353,0.08105014264583588,-0.06918848305940628,-0.9349021911621094,-0.3480956554412842,-0.032129816710948944,0.004253566265106201,-0.017794817686080933
1.2029180001719109,-0.18894652496447356,-0.7014352566035463,-0.49286478757858276,0.6073058843612671,0.01903630793094635,-0.06754839420318604,-0.933092474937439,-0.35323554277420044,-0.04554968327283859,-0.009656369686126709,-0.017156332731246948
1.1981678411656715,-0.18031637522703184,-0.7041780015082091,-0.47217676043510437,0.5966780781745911,-0.03906382620334625,-0.06529161334037781,-0.9313735961914062,-0.3581618368625641,-0.04052802175283432,-0.01891303062438965,-0.009574979543685913
1.1937210452475455,-0.17118886973529873,-0.707869478795108,-0.4503292441368103,0.5324982404708862,-0.06995382905006409,-0.06272473931312561,-0.9297454953193665,-0.3628203868865967,-0.023212693631649017,-0.01800823211669922,0.005749493837356567
1.1894404918218549,-0.16264339544407777,-0.7118912264224622,-0.4448873996734619,0.42654356360435486,-0.0767032653093338,-0.0602659210562706,-0.9281608462333679,-0.3672671616077423,-0.009939722716808319,-0.014938950538635254,0.01823762059211731
1.1851655246679482,-0.1553556164099294,-0.7156671927248681,-0.44142234325408936,0.33021968603134155,-0.06308439373970032,-0.05820121988654137,-0.9265613555908203,-0.37161341309547424,0.0001721121370792389,-0.010755419731140137,0.026322275400161743
1.1808962991684386,-0.1495056341047221,-0.718813250396983,-0.4338667690753937,0.2574555575847626,-0.04460761696100235,-0.056614991277456284,-0.9249470829963684,-0.3758556842803955,0.004704628139734268,-0.008631289005279541,0.021149903535842896
1.1767035625648143,-0.1447295857197632,-0.721517518710686,-0.4200015366077423,0.1992037147283554,-0.03749378025531769,-0.05537808686494827,-0.9233452677726746,-0.37995606660842896,-0.00014859437942504883,-0.012506663799285889,0.006329357624053955
1.1727364226592243,-0.14063283975446475,-0.7239860780809647,-0.38872459530830383,0.16208291053771973,-0.03641735017299652,-0.05433405935764313,-0.9218147397041321,-0.3838035762310028,-0.007860716432332993,-0.01170259714126587,-0.009140759706497192
1.1691449248229147,-0.13700580529439663,-0.7263358271445415,-0.34217706322669983,0.13146214187145233,-0.046130165457725525,-0.05339350551366806,-0.9204166531562805,-0.3872756361961365,-0.019573986530303955,-0.006112217903137207,-0.0251847505569458
1.166196054467886,-0.13351864133451194,-0.7287616579447995,-0.2658683657646179,0.12202901393175125,-0.06897438317537308,-0.05240371823310852,-0.9192598462104797,-0.39014732837677,-0.026240013539791107,-0.009100019931793213,-0.043522655963897705
1.1641150918213026,-0.1293320029870223,-0.7318465711614901,-0.18005013465881348,0.1478225439786911,-0.12099790573120117,-0.051016464829444885,-0.9184386730194092,-0.3922594487667084,-0.031121548265218735,-0.01767265796661377,-0.054151684045791626
1.1628928562902985,-0.12369340092781288,-0.7362632041353736,-0.1111702099442482,0.1647798866033554,-0.19469407200813293,-0.04894239455461502,-0.9179545044898987,-0.39365506172180176,-0.0502091720700264,-0.023512840270996094,-0.04949074983596802
1.162221157880709,-0.11654018992179124,-0.7423030014408563,-0.08275242149829865,0.15377305448055267,-0.2599465847015381,-0.04619692265987396,-0.9176878333091736,-0.3946071267127991,-0.05246635898947716,-0.021032750606536865,-0.030441731214523315
1.1617948417056114,-0.10845012559493332,-0.7494751463650418,-0.06785384565591812,0.14688073098659515,-0.2893470227718353,-0.04304539039731026,-0.9175183773040771,-0.39535683393478394,-0.03175315260887146,-0.019813716411590576,-0.012510597705841064
1.161410617540156,-0.1001549917554527,-0.7570909556953239,-0.07400761544704437,0.10913202166557312,-0.30113470554351807,-0.03979965299367905,-0.9173654913902283,-0.3960510194301605,-0.01508617028594017,-0.020180165767669678,0.0009551942348480225
1.160827988701489,-0.09207531689594546,-0.765010263903073,-0.10074695199728012,0.05670586973428726,-0.313114732503891,-0.03664754703640938,-0.9171334505081177,-0.39689165353775024,-0.00687047466635704,-0.019267797470092773,0.012629538774490356
1.1600212154671987,-0.08399273273581488,-0.7732316081361099,-0.11535172909498215,0.06485354900360107,-0.321631520986557,-0.03350056707859039,-0.9168115854263306,-0.3979124128818512,0.0024947524070739746,-0.017087280750274658,0.010842680931091309
1.159172521779685,-0.07537389301832596,-0.7815081723213394,-0.10575059056282043,0.1426609754562378,-0.32140275835990906,-0.030128389596939087,-0.9164723753929138,-0.3989619016647339,0.004768341779708862,-0.014191627502441406,-0.0004674196243286133
1.1583864170260023,-0.06634331155952629,-0.7894516779206008,-0.09511632472276688,0.19987499713897705,-0.2949775457382202,-0.02657211944460869,-0.9161575436592102,-0.3999366760253906,0.014258325099945068,0.0019119977951049805,0.001697540283203125
1.15750453270852,-0.058036509161974593,-0.7962711610608909,-0.1286349892616272,0.2259652018547058,-0.23288105428218842,-0.023295879364013672,-0.9158037304878235,-0.4009496569633484,0.03457218408584595,0.022920548915863037,0.033853739500045776
1.1556878083277318,-0.05188261370285736,-0.8011767051614284,-0.26155441999435425,0.06413102895021439,-0.13310973346233368,-0.020914312452077866,-0.9150725603103638,-0.4027465581893921,0.07955387234687805,0.029620349407196045,0.12644034624099731
1.1526990278095433,-0.05047352739600078,-0.8030755687766394,-0.3242391347885132,-0.10265201330184937,0.008934084326028824,-0.020484674721956253,-0.9138631224632263,-0.4055051803588867,0.07378366589546204,0.02990633249282837,0.050738364458084106
1.149641834665922,-0.052540906373521344,-0.8021705935637168,-0.27313998341560364,-0.13929976522922516,0.08266343176364899,-0.02146957628428936,-0.912617564201355,-0.4082498550415039,0.03610280528664589,0.012593388557434082,-0.024107933044433594
1.1473957454708863,-0.05538727464254073,-0.800578532814506,-0.15960851311683655,-0.13278068602085114,0.06425049155950546,-0.02274494245648384,-0.9116970300674438,-0.4102328419685364,-0.007726816460490227,0.013244390487670898,-0.08613559603691101
1.1465454013785301,-0.057226476746633385,-0.7998736268136855,-0.0034926887601614,-0.10565399378538132,0.0003229076974093914,-0.02354375272989273,-0.9113473296165466,-0.4109644293785095,-0.04548695683479309,0.007920265197753906,-0.13304191827774048
1.1473776814398933,-0.057635218122085115,-0.8004683547094148,0.16304224729537964,-0.08350016921758652,-0.05440104007720947,-0.023668022826313972,-0.9116896390914917,-0.41019725799560547,-0.05894303321838379,0.0018844008445739746,-0.14938831329345703
1.1496850953602926,-0.057106627363830084,-0.8019210070265581,0.27832114696502686,-0.078252412378788,-0.08620370924472809,-0.023331064730882645,-0.9126352667808533,-0.4081084430217743,-0.045653849840164185,-0.0018086433410644531,-0.1239808201789856
1.152734636269502,-0.05631629883453789,-0.8037466956689231,0.3078453838825226,-0.10339376330375671,-0.08999065309762955,-0.022851750254631042,-0.9138776063919067,-0.40534600615501404,-0.027532726526260376,-0.0015123486518859863,-0.06694406270980835
1.1557636052172284,-0.05647358646703145,-0.8049926098226827,0.286520391702652,-0.15993718802928925,-0.03902866691350937,-0.02275916375219822,-0.9151031374931335,-0.4025769531726837,-0.008109331130981445,0.01309514045715332,-0.026240825653076172
1.158461945641327,-0.058740298750871,-0.8045031956718642,0.25200188159942627,-0.20189185440540314,0.051478952169418335,-0.023526571691036224,-0.9161878228187561,-0.4000576436519623,0.017911376431584358,0.022495925426483154,-0.009091466665267944
1.1608140010093329,-0.06358829397950519,-0.8015505430322444,0.2296784669160843,-0.2228301465511322,0.15398003160953522,-0.025328760966658592,-0.9171278476715088,-0.3977872431278229,0.04090800881385803,0.019224584102630615,-0.005624622106552124
1.1628965172995613,-0.0709219012000104,-0.7960675982491762,0.2166351079940796,-0.2316117286682129,0.24992452561855316,-0.028109868988394737,-0.9179559350013733,-0.3956848680973053,0.05112016201019287,0.011156737804412842,-0.014135688543319702
1.16483438683717,-0.08000864294526415,-0.78868147634443,0.2121836245059967,-0.22115004062652588,0.29091140627861023,-0.03156190738081932,-0.918722927570343,-0.39363911747932434,0.03819954767823219,0.00029659271240234375,-0.01685279607772827
1.166658848400933,-0.08911045948304538,-0.7809777745076059,0.2014850676059723,-0.17208415269851685,0.27072182297706604,-0.03499417006969452,-0.9194418787956238,-0.391665518283844,-0.004327680915594101,-0.01413649320602417,-0.014080971479415894
1.1684391658768005,-0.09660515890237313,-0.7743845649174763,0.20329095423221588,-0.11217395961284637,0.206025630235672,-0.03777061030268669,-0.9201405048370361,-0.38976216316223145,-0.04096468910574913,-0.02012115716934204,-0.01125401258468628
1.170390905617173,-0.10191831667371529,-0.7696369183417766,0.218919038772583,-0.07767617702484131,0.12613578140735626,-0.039658162742853165,-0.9209030270576477,-0.3877689242362976,-0.04632505774497986,-0.02149498462677002,-0.011294245719909668
1.172562897921933,-0.10548617145682765,-0.7665389778511167,0.23410677909851074,-0.07047978788614273,0.07189677655696869,-0.040830712765455246,-0.9217475056648254,-0.3856349289417267,-0.033281177282333374,-0.018666863441467285,-0.0016484260559082031
1.1748158879554318,-0.10818099916620968,-0.7645358251387713,0.22634725272655487,-0.0970984399318695,0.03497502952814102,-0.04164546728134155,-0.9226188659667969,-0.38345810770988464,-0.030940532684326172,-0.014423370361328125,0.019627511501312256
1.176972155494252,-0.11051051219393049,-0.7632588524346399,0.2101730853319168,-0.13178610801696777,0.015042333863675594,-0.04231908917427063,-0.923448383808136,-0.3813816010951996,-0.026009734719991684,-0.013288497924804688,0.03148233890533447
1.1790078802439337,-0.11266970325764437,-0.7624525963394668,0.20018431544303894,-0.1488986760377884,0.0015323357656598091,-0.04293103888630867,-0.9242276549339294,-0.37942075729370117,-0.018668651580810547,-0.014325141906738281,0.03588438034057617
1.1809779016201514,-0.11469077330998323,-0.7618836090914631,0.19644470512866974,-0.1492677927017212,0.00019968952983617783,-0.04348933696746826,-0.9249780774116516,-0.3775236904621124,-0.011884748935699463,-0.007822155952453613,0.03778672218322754
1.182873626953342,-0.11682344606081053,-0.761360573524045,0.18428686261177063,-0.1854032427072525,-0.005870572291314602,-0.0440899096429348,-0.925696849822998,-0.375687837600708,-0.014519065618515015,3.7729740142822266e-05,0.03711056709289551
1.1847115494451708,-0.11905872769671776,-0.7612389140297665,0.18652819097042084,-0.23835620284080505,-0.029803868383169174,-0.044727396219968796,-0.9263904690742493,-0.37389832735061646,-0.033214446157217026,-0.0030832886695861816,0.015057414770126343
1.186818746083617,-0.12113816702594024,-0.7618000419292703,0.2280610054731369,-0.27976852655410767,-0.0629362165927887,-0.04526881128549576,-0.9271818995475769,-0.3718659579753876,-0.034870292991399765,-0.008135974407196045,-0.014272958040237427
1.1895018185917696,-0.12304949861308469,-0.7629177212810688,0.29499316215515137,-0.3063860237598419,-0.08259567618370056,-0.045673977583646774,-0.9281836748123169,-0.3693085014820099,-0.021205242723226547,-0.005120038986206055,-0.03550717234611511
1.1928723894564996,-0.12501007341067305,-0.7642375914650856,0.3533812463283539,-0.32726386189460754,-0.09200186282396317,-0.04600759968161583,-0.9294326901435852,-0.36611202359199524,-0.010831322520971298,0.0008286833763122559,-0.03856632113456726
1.1965990715133659,-0.12716994319998326,-0.7655040665975554,0.36947980523109436,-0.33482351899147034,-0.09179733693599701,-0.04635867476463318,-0.9308013319969177,-0.36257386207580566,-0.010403990745544434,0.0022735595703125,-0.018712759017944336
1.2003873501440643,-0.1293069684517957,-0.7667388724671819,0.3672317564487457,-0.32181450724601746,-0.09335722774267197,-0.0466783232986927,-0.9321793913841248,-0.35897427797317505,-0.004240211099386215,0.00027948617935180664,-0.002430170774459839
1.2041177486289765,-0.13134136428998425,-0.7679856183106032,0.35920631885528564,-0.31427323818206787,-0.086807981133461,-0.04695279523730278,-0.9335232973098755,-0.3554287552833557,0.008882168680429459,0.0011045336723327637,0.002462416887283325
1.207780612175691,-0.13364564314034694,-0.7688055223610766,0.35577526688575745,-0.2919522523880005,-0.062319181859493256,-0.04731573536992073,-0.9348301887512207,-0.35192838311195374,0.024641215801239014,0.005524277687072754,0.0038906335830688477
1.2113028549703,-0.13617611686206668,-0.7689382128837525,0.33865833282470703,-0.23414543271064758,-0.044802241027355194,-0.04775884374976158,-0.9360751509666443,-0.348543256521225,0.026884883642196655,0.0050449371337890625,0.007524549961090088
1.2145521376540844,-0.13789651503582756,-0.7692163830639882,0.30217620730400085,-0.16545265913009644,-0.06871849298477173,-0.047940049320459366,-0.9372133016586304,-0.3454459607601166,-0.004138141870498657,-0.010021746158599854,0.0065482258796691895
1.2175668495725276,-0.13789487213339383,-0.7707676849881553,0.28103843331336975,-0.13441777229309082,-0.12107624113559723,-0.047550883144140244,-0.9382604360580444,-0.3426458537578583,-0.026622027158737183,-0.012255251407623291,0.009134531021118164
1.220574200368997,-0.13651156461760955,-0.7737983850401551,0.2832928001880646,-0.16166968643665314,-0.1599102020263672,-0.046692658215761185,-0.939296543598175,-0.3399144113063812,-0.0033713877201080322,-0.005375027656555176,0.009332776069641113
1.2236766280005573,-0.13507594714693752,-0.7772387699169638,0.29637718200683594,-0.19488117098808289,-0.1496138870716095,-0.0458119697868824,-0.9403564929962158,-0.3370918929576874,0.028416991233825684,-0.0013091564178466797,0.00496906042098999
1.2268527838264627,-0.13448340063941416,-0.7800435252701696,0.299497127532959,-0.21324661374092102,-0.12399598211050034,-0.045211538672447205,-0.9414322376251221,-0.3341575860977173,0.039581090211868286,0.0035660266876220703,0.008794426918029785
1.2298542474232281,-0.1346388001249733,-0.782196730846115,0.26886916160583496,-0.2195705622434616,-0.09959236532449722,-0.04488397389650345,-0.9424400925636292,-0.3313489854335785,0.02655821666121483,0.006511688232421875,0.014347642660140991
1.23242067773422,-0.13515581697631313,-0.7839029818801909,0.22260230779647827,-0.20286452770233154,-0.07819803059101105,-0.044729214161634445,-0.9432951211929321,-0.3289279341697693,0.018758803606033325,0.005108535289764404,0.01827418804168701
1.2345086765117401,-0.13594232194604916,-0.7851195053847495,0.18120639026165009,-0.1882999688386917,-0.06021317094564438,-0.044720862060785294,-0.943986177444458,-0.3269403874874115,0.01986435055732727,0.004426300525665283,0.01981145143508911
1.2361169960122627,-0.1368398224155402,-0.7862181786612197,0.12516853213310242,-0.1964898556470871,-0.057760089635849,-0.04480711743235588,-0.9445157051086426,-0.32539573311805725,0.00931522250175476,-0.0046877264976501465,0.017763257026672363
1.2371760480420646,-0.13716404532201965,-0.7878658963629882,0.06902670860290527,-0.16940844058990479,-0.08129151165485382,-0.044775817543268204,-0.9448630213737488,-0.32439011335372925,-0.00995740294456482,-0.018744707107543945,0.012347817420959473
1.2378300382121898,-0.1358572613686448,-0.7907298175257553,0.03978357091546059,-0.112980417907238,-0.12396897375583649,-0.044268157333135605,-0.9450770020484924,-0.32383596897125244,-0.02415221557021141,-0.026678919792175293,0.0008073747158050537
1.2383604610108019,-0.13292064122999894,-0.7949278373071736,0.03299624100327492,-0.09566401690244675,-0.157344788312912,-0.043250568211078644,-0.9452502131462097,-0.32346782088279724,-0.025032460689544678,-0.018464326858520508,-0.009982466697692871
1.2389486522363928,-0.12936993051111773,-0.7997660853112347,0.04212193191051483,-0.109105184674263,-0.16631826758384705,-0.042029980570077896,-0.9454420208930969,-0.32306766510009766,-0.013206776231527328,-0.009727537631988525,-0.01581481099128723
1.2396123294765327,-0.12607649063202134,-0.8043877552060841,0.05228056013584137,-0.10442255437374115,-0.14741195738315582,-0.040886882692575455,-0.9456580281257629,-0.32258206605911255,-0.002493828535079956,-0.004048943519592285,-0.01726168394088745
1.240376508876207,-0.12335977542662623,-0.8083004026109695,0.06626786291599274,-0.09845175594091415,-0.12199297547340393,-0.039921414107084274,-0.9459062218666077,-0.3219745457172394,0.006092756986618042,-0.0005048513412475586,-0.019379854202270508
1.2412563392268072,-0.12157699065366777,-0.8113655116136684,0.08170434832572937,-0.12334538996219635,-0.09561702609062195,-0.03924638405442238,-0.9461913108825684,-0.321218878030777,0.0068978071212768555,0.00393068790435791,-0.02143251895904541
1.2422874612104648,-0.1207945444620144,-0.8135609665285607,0.1085110753774643,-0.13382118940353394,-0.07092331349849701,-0.0388774611055851,-0.9465245008468628,-0.32028090953826904,0.007246047258377075,0.004584193229675293,-0.028779149055480957
1.2437154169236673,-0.12123588136226306,-0.8145616461240521,0.14720921218395233,-0.13408802449703217,-0.04620544612407684,-0.03885532170534134,-0.9469842314720154,-0.318921834230423,0.0035617947578430176,0.00045108795166015625,-0.036516427993774414
1.2454023445310654,-0.12276347654126199,-0.814514120888137,0.18034982681274414,-0.1500004678964615,-0.031522393226623535,-0.039146799594163895,-0.9475248456001282,-0.3172762989997864,-0.0016246438026428223,-0.0012208223342895508,-0.0354154109954834
1.2472705633638141,-0.12480112742074588,-0.814104437797181,0.20564666390419006,-0.1667296439409256,-0.026451202109456062,-0.03957274556159973,-0.9481204152107239,-0.31543847918510437,-0.008416082710027695,-0.0007167458534240723,-0.03368261456489563
