attitudeX,attitudeY,attitudeZ,gyroX,gyroY,gyroZ,gravityX,gravityY,gravityZ,accX,accY,accZ
1.3027258546532086,-0.13494381571156985,-0.8680636753849097,0.5680773854255676,-0.6809675693511963,-0.16825969517230988,-0.035634323954582214,-0.9642837643623352,-0.2624630331993103,0.2002461850643158,0.009480416774749756,-0.012988656759262085
1.3083198387211172,-0.1422149472114619,-0.8677109037404246,0.5319944024085999,-0.6953747868537903,0.04233347624540329,-0.03677664324641228,-0.9657503366470337,-0.25685325264930725,0.23889461159706116,0.03914523124694824,0.03244221210479736
1.3128773755491676,-0.15787774079905198,-0.8585393330489057,0.42703181505203247,-0.6495798826217651,0.28845348954200745,-0.040102601051330566,-0.9669228792190552,-0.25189653038978577,0.28201550245285034,0.04678744077682495,0.07872450351715088
1.3156909926236178,-0.18153760390227944,-0.8402784251873681,0.2778192162513733,-0.5359595417976379,0.5229182839393616,-0.045559342950582504,-0.9676367044448853,-0.2482006847858429,0.3159298896789551,0.031372666358947754,0.11538812518119812
1.3164624846023283,-0.2105215231179342,-0.814917071385192,0.11879546195268631,-0.3329241871833801,0.6804887652397156,-0.052577026188373566,-0.9678311347961426,-0.24604608118534088,0.30579668283462524,-0.005115091800689697,0.1186504065990448
1.3151978918805107,-0.2393867652614974,-0.7870101039746521,-0.0534043125808239,-0.030512986704707146,0.732598602771759,-0.0599464550614357,-0.9675121903419495,-0.2456149160861969,0.2617134749889374,-0.05105781555175781,0.10895714163780212
1.3120803720713783,-0.2640980072781248,-0.7602758483594922,-0.2046167254447937,0.2499104142189026,0.7306939363479614,-0.06678390502929688,-0.9667192697525024,-0.24696879088878632,0.22997671365737915,-0.10000729560852051,0.10919713973999023
1.3076854175076884,-0.28410002256706396,-0.7357785390185537,-0.2871703803539276,0.4781620502471924,0.7243714332580566,-0.07290028035640717,-0.9655855298042297,-0.2496596723794937,0.24408870935440063,-0.1543789505958557,0.10056596994400024
1.3028049758899984,-0.30102866242383236,-0.7120485024859022,-0.2719626724720001,0.723253071308136,0.7454535365104675,-0.07851230353116989,-0.9643047451972961,-0.25288721919059753,0.28833597898483276,-0.2038317322731018,0.07294031977653503
1.2985320587564533,-0.31589899022835144,-0.6874880745621432,-0.12760071456432343,1.037980318069458,0.7559472918510437,-0.08354348689317703,-0.9631644487380981,-0.255606472492218,0.3461015224456787,-0.24491959810256958,0.05864596366882324
1.2960424343152992,-0.3296968156099595,-0.6609496518319095,0.12329807877540588,1.2812739610671997,0.7578770518302917,-0.08783821016550064,-0.9624919891357422,-0.2566971480846405,0.4466639459133148,-0.29115474224090576,0.09524387121200562
1.2963825238989883,-0.34616656125453127,-0.6307443770016048,0.5141893029212952,1.1816693544387817,0.7497256994247437,-0.09194272756576538,-0.9625841975212097,-0.25490766763687134,0.5754785537719727,-0.35728561878204346,0.18097880482673645
1.301020925718177,-0.36941845476862606,-0.5947781321901452,1.0227755308151245,1.0456596612930298,0.7433159947395325,-0.09623140096664429,-0.9638307690620422,-0.2485351860523224,0.8393955230712891,-0.435339093208313,0.28851318359375
1.3098789901391892,-0.4055999580197136,-0.5486115130172209,1.5275983810424805,0.5965474843978882,0.8289061784744263,-0.1017860695719719,-0.9661537408828735,-0.2370370626449585,1.0075936317443848,-0.4372275471687317,0.491996169090271
1.3225107495765305,-0.46124588533182953,-0.4875285906993607,2.040111541748047,0.08820705115795135,0.8945155739784241,-0.10937092453241348,-0.96933513879776,-0.22006158530712128,1.1735799312591553,-0.40886902809143066,0.7058861255645752
1.3379230954570198,-0.5406993728422006,-0.40773451357211005,2.451678991317749,-0.4836723506450653,0.9567058086395264,-0.11878760904073715,-0.973007321357727,-0.19785381853580475,1.3480356931686401,-0.3787229657173157,0.942925214767456
1.3539211039865917,-0.6473515857441663,-0.306422279975274,2.6779611110687256,-1.0942111015319824,0.9589822888374329,-0.12976908683776855,-0.9765745997428894,-0.17164455354213715,1.4477165937423706,-0.30530089139938354,1.1823562383651733
1.368358337294735,-0.7780379166434322,-0.18689411058789013,2.7114689350128174,-1.6246545314788818,0.9482617378234863,-0.14111869037151337,-0.9795793294906616,-0.1432114690542221,1.4054315090179443,-0.20416682958602905,1.3409043550491333
1.377678835868204,-0.9307536141767988,-0.04985943654089313,2.517704725265503,-2.048884153366089,1.2096619606018066,-0.1539323776960373,-0.9814106822013855,-0.11461962014436722,1.5784929990768433,-0.03052157163619995,1.4499008655548096
1.3780396106831934,-1.0939205266365826,0.09259527167759742,2.111717462539673,-2.6128792762756348,1.631993293762207,-0.17019222676753998,-0.9814798831939697,-0.08792918175458908,1.6121937036514282,0.19646114110946655,1.5371936559677124
1.3678871422350296,-1.2459714718871773,0.21778146028002518,1.6090073585510254,-3.2364373207092285,2.152656078338623,-0.1909809708595276,-0.9794844388961792,-0.0643133670091629,1.511568307876587,0.4069138169288635,1.545743465423584
1.347691813691124,-1.3730987931794907,0.3108013716140908,1.1513614654541016,-3.989975929260254,2.7650146484375,-0.21694748103618622,-0.9752152562141418,-0.04345763102173805,1.3715343475341797,0.6118884682655334,1.4680486917495728
1.3178587611242518,-1.4769577703307533,0.3720360337833525,0.8552458882331848,-4.854512691497803,3.568363904953003,-0.249147430062294,-0.9681814908981323,-0.023448502644896507,1.1685506105422974,0.8721581101417542,1.2646594047546387
1.2777445419349567,-1.5650896592497587,0.40851480715790645,0.719500720500946,-5.694830417633057,4.533411026000977,-0.28887036442756653,-0.9573667645454407,-0.0016485049854964018,0.8644014596939087,1.111801028251648,0.9944005012512207
1.2269778321557463,-1.6411129907722302,0.4243012540372084,0.5802315473556519,-6.443760871887207,5.553300380706787,-0.33625155687332153,-0.9414743781089783,0.023683132603764534,0.3781064450740814,1.2824931144714355,0.7478011846542358
1.1670095111429883,-1.7040251298424858,0.4197810877227697,0.2707703709602356,-6.870486736297607,6.343094825744629,-0.38942140340805054,-0.9195797443389893,0.05219130963087082,-0.4498119056224823,1.4102566242218018,0.5087827444076538
1.1025583603267886,-1.7514415811166146,0.395641396253486,-0.30877766013145447,-6.883240699768066,6.609879970550537,-0.44397079944610596,-0.8923649191856384,0.08108515292406082,-1.5707234144210815,1.4808048009872437,0.3139190673828125
1.0396680185037734,-1.7840160569903196,0.35539980679132693,-0.988328754901886,-6.62358283996582,6.403048038482666,-0.4950365126132965,-0.8622361421585083,0.10718073695898056,-2.898502826690674,1.6002885103225708,0.04488825798034668
0.9820675546594352,-1.80950726764797,0.3099321981363159,-0.9813253879547119,-6.0820136070251465,5.800175189971924,-0.5395578742027283,-0.8316472768783569,0.1313018798828125,-4.2233662605285645,1.644940733909607,-0.678009033203125
0.9333574197252598,-1.8419528711895607,0.2795532811315842,0.16454432904720306,-5.288780689239502,4.310749530792236,-0.5733940601348877,-0.8036226034164429,0.1594056487083435,-5.394028663635254,1.2785370349884033,-1.8243684768676758
0.9014597509677416,-1.8884186433487509,0.2805797055599169,1.7871745824813843,-3.711327314376831,1.628308653831482,-0.5894303321838379,-0.7842334508895874,0.19377680122852325,-6.336061000823975,0.655968189239502,-2.443258047103882
0.892161246456601,-1.944212085646963,0.31579664928737555,2.8243391513824463,-1.9986679553985596,-1.3595149517059326,-0.5844717621803284,-0.7784302234649658,0.22899487614631653,-6.178009986877441,0.09273093938827515,-2.2075259685516357
0.9051248994339902,-2.0059053112795393,0.3762064666821023,2.9722483158111572,-0.9623425006866455,-3.8654186725616455,-0.5600428581237793,-0.7865023016929626,0.26031866669654846,-5.223007678985596,0.11395597457885742,-1.4884376525878906
0.9334636539109334,-2.07458015159134,0.45390086589000495,2.8301727771759033,-0.5006615519523621,-5.253142356872559,-0.5211255550384521,-0.8036858439445496,0.2872578501701355,-3.7555007934570312,0.6307427883148193,-0.7269246578216553
0.9652112832886197,-2.152305877530699,0.5413666332176675,2.5938594341278076,-0.9309844374656677,-5.256170749664307,-0.4756791293621063,-0.8221691846847534,0.312677264213562,-2.3881514072418213,1.1970624923706055,-0.13044166564941406
0.9903728548534836,-2.238495000047691,0.6287670518109024,2.3940932750701904,-1.7673876285552979,-4.434511661529541,-0.43061310052871704,-0.8362305164337158,0.33954498171806335,-1.4882558584213257,1.4120819568634033,0.030007481575012207
1.0044733782427493,-2.325581716983567,0.7087181409770821,2.341383934020996,-2.1272666454315186,-3.3267672061920166,-0.3908204734325409,-0.8438795208930969,0.36759597063064575,-0.8925657868385315,1.3229444026947021,-0.01490446925163269
1.0077347285672809,-2.4054522639250284,0.7775980227774363,2.341050148010254,-2.1789979934692383,-2.4291698932647705,-0.3583954870700836,-0.8456248641014099,0.39556390047073364,-0.5951108932495117,1.1649916172027588,-0.0793408751487732
1.0043006292753558,-2.477063569526488,0.8370970675171069,2.258213520050049,-2.0339548587799072,-2.0508928298950195,-0.33096349239349365,-0.8437868356704712,0.42247727513313293,-0.5624538660049438,1.0468659400939941,-0.06641346216201782
0.9990809935282631,-2.5414280061491876,0.8914547679813045,2.0045528411865234,-1.6520060300827026,-2.0796477794647217,-0.3055875897407532,-0.8409740924835205,0.4465183615684509,-0.5629884004592896,0.9591229557991028,0.021529674530029297
0.9955273047344813,-2.599520468743505,0.9431539576937323,1.5979316234588623,-1.2834402322769165,-2.245695114135742,-0.2806873321533203,-0.8390459418296814,0.46606457233428955,-0.44946086406707764,0.859736979007721,0.11837741732597351
0.9952090358761488,-2.6521769111532065,0.9924679495555887,1.0871555805206299,-0.9769929051399231,-2.3673627376556396,-0.2558939754962921,-0.8388727903366089,0.48042768239974976,-0.20870554447174072,0.7380578517913818,0.18461138010025024
0.998691257350943,-2.69928845926523,1.0384406878628991,0.5212827920913696,-0.723408579826355,-2.3682122230529785,-0.2317330539226532,-0.8407631516456604,0.48930278420448303,0.09083345532417297,0.6257057189941406,0.18791276216506958
1.0058205499366075,-2.7395315259506803,1.0790812142129527,-0.022500796243548393,-0.47482097148895264,-2.1698522567749023,-0.20950883626937866,-0.844601571559906,0.4927012324333191,0.37714195251464844,0.5237091183662415,0.12462365627288818
1.0156862348081261,-2.77118064722582,1.1121637565187572,-0.46239137649536133,-0.24803709983825684,-1.7996243238449097,-0.19078700244426727,-0.8498424291610718,0.4912920594215393,0.6628177165985107,0.40700191259384155,0.02295944094657898
1.026802258438082,-2.7933383474880076,1.1364336393583672,-0.6890928745269775,-0.05062669515609741,-1.344496488571167,-0.17662036418914795,-0.8556483387947083,0.4864885210990906,0.9102477431297302,0.2506526708602905,-0.09760308265686035
1.0371886228796603,-2.8069007106268984,1.1528703090725312,-0.6689913868904114,0.1739741861820221,-0.9498003125190735,-0.1670779287815094,-0.8609776496887207,0.48041853308677673,1.048898696899414,0.07086247205734253,-0.22930487990379333
1.0451872039928216,-2.8131336019993154,1.1643302800199473,-0.44590869545936584,0.5788270831108093,-0.67803955078125,-0.16185365617275238,-0.8650184869766235,0.47491705417633057,1.115939974784851,-0.10087805986404419,-0.3387782871723175
1.0499124519001055,-2.8126067029518067,1.1737430567773701,-0.13594016432762146,1.1710906028747559,-0.5323765873908997,-0.16078148782253265,-0.8673796653747559,0.47095823287963867,1.1815030574798584,-0.23738712072372437,-0.3849445581436157
1.0513540987810908,-2.805972771757327,1.1834318995313715,0.17164365947246552,1.8200494050979614,-0.4730416536331177,-0.1634901762008667,-0.8680961728096008,0.46869996190071106,1.2682113647460938,-0.3507300019264221,-0.2903248369693756
1.0501986093285913,-2.793520697334347,1.1935496663358338,0.35842207074165344,2.40305495262146,-0.39005887508392334,-0.16965560615062714,-0.8675220012664795,0.46757036447525024,1.414894938468933,-0.4160013794898987,-0.10187843441963196
1.0479078313899581,-2.7748848861688447,1.2026052328692738,0.3630962073802948,2.8493804931640625,-0.29141324758529663,-0.17905139923095703,-0.8663803339004517,0.46618199348449707,1.6321460008621216,-0.4738296866416931,0.16077107191085815
1.0459885884652957,-2.7508852206339403,1.2091394240897038,0.2166774719953537,3.017824172973633,-0.1688833236694336,-0.19081977009773254,-0.8654202818870544,0.463287353515625,1.8388148546218872,-0.5062989592552185,0.43994125723838806
1.045391820138584,-2.723045095712457,1.2114327688895183,-0.020180601626634598,2.892794609069824,0.012575026601552963,-0.20385219156742096,-0.8651211261749268,0.45826825499534607,2.0393166542053223,-0.4967105984687805,0.6631000638008118
1.0459057931663993,-2.6927878590259438,1.2077326231677257,-0.21432238817214966,2.456394672393799,0.29081490635871887,-0.21742947399616241,-0.8653787970542908,0.451490193605423,2.226386547088623,-0.4672015309333801,0.7838764190673828
1.04578717678775,-2.6628527314491994,1.197131075078183,-0.20744961500167847,1.630494236946106,0.6772216558456421,-0.2308928519487381,-0.8653193712234497,0.4448714256286621,2.361828565597534,-0.4138858914375305,0.8205245733261108
1.042304747355437,-2.6376950361529476,1.1803617045867913,0.053944963961839676,0.4719507098197937,1.1362051963806152,-0.24346433579921722,-0.8635686635971069,0.44155919551849365,2.375483512878418,-0.3542354106903076,0.7818141579627991
1.0332504734894865,-2.6212401744996057,1.1596903866616874,0.5074887871742249,-0.7358452081680298,1.564801573753357,-0.25457388162612915,-0.8589678406715393,0.44425931572914124,2.3115806579589844,-0.34632396697998047,0.6984713673591614
1.0180214141496227,-2.6155161231278945,1.137993456909342,0.9894961714744568,-1.7867485284805298,1.8705745935440063,-0.26365116238594055,-0.8510708212852478,0.4540553390979767,2.2069344520568848,-0.3843874931335449,0.6083072423934937
0.998063700885769,-2.619774903822675,1.1174516107667591,1.3356760740280151,-2.4730138778686523,1.9922635555267334,-0.27012890577316284,-0.8404232263565063,0.46980738639831543,2.09057879447937,-0.4024661183357239,0.5589858293533325
0.9758135033937182,-2.630146634496977,1.098151400115672,1.4339574575424194,-2.757970094680786,2.04272723197937,-0.27432769536972046,-0.8281581401824951,0.48877227306365967,2.0295615196228027,-0.4030735492706299,0.5695619583129883
0.9538050335026254,-2.640952255659384,1.07769034958264,1.2397608757019043,-2.7148354053497314,2.1248912811279297,-0.2777128517627716,-0.8156229257583618,0.507577121257782,2.078555107116699,-0.41411328315734863,0.609198272228241
0.9341800969779106,-2.6471267142223804,1.052909547602059,0.7936079502105713,-2.5068328380584717,2.303542137145996,-0.282116174697876,-0.8041119575500488,0.5232722759246826,2.1771512031555176,-0.3844560384750366,0.643460214138031
0.9180393424716391,-2.645711562947913,1.0210273849129583,0.22010089457035065,-2.30185604095459,2.5993096828460693,-0.28899484872817993,-0.7944123148918152,0.5342196822166443,2.2425320148468018,-0.263616681098938,0.6582087874412537
0.9051248362683649,-2.6366635972709065,0.9807690300428145,-0.29650333523750305,-2.2751846313476562,2.9561545848846436,-0.298755019903183,-0.7865022420883179,0.5405178666114807,2.222156047821045,-0.0897948145866394,0.6162202954292297
0.8934979635421031,-2.6235471167676443,0.9330052810474748,-0.5365062355995178,-2.6076812744140625,3.35323166847229,-0.3103262484073639,-0.7792686223983765,0.5444610714912415,2.1255271434783936,0.09587317705154419,0.493014395236969
0.8797850637226865,-2.611879721143541,0.8801570668510892,-0.3783392012119293,-3.27764892578125,3.7791571617126465,-0.3220271170139313,-0.7706019282341003,0.5499740839004517,1.9326533079147339,0.3093438744544983,0.3131852149963379
0.8605710603384613,-2.607741091386666,0.8255680202153637,0.1589089184999466,-4.245421409606934,4.209407329559326,-0.3317742943763733,-0.7582150101661682,0.5612804293632507,1.6301294565200806,0.5740566253662109,0.11874264478683472
0.8335109292433327,-2.615986033708829,0.7724461346785297,0.9704515933990479,-5.329065322875977,4.5343852043151855,-0.3373085856437683,-0.7402962446212769,0.5815359354019165,1.2302377223968506,0.8659982085227966,-0.02591782808303833
0.7985157803250338,-2.6392603753844655,0.724446958139637,1.8721787929534912,-6.231361389160156,4.56390380859375,-0.33595624566078186,-0.7163212299346924,0.6115692853927612,0.6767613887786865,1.1192753314971924,-0.09351831674575806
0.7576910112141755,-2.6754969543915763,0.6839658093341117,2.612011194229126,-6.545861721038818,4.281074523925781,-0.32645657658576965,-0.6872459650039673,0.6489366292953491,-0.011479765176773071,1.3495843410491943,-0.09847599267959595
0.7147590010733982,-2.715742858999428,0.6507701095413573,2.943389415740967,-5.741018295288086,3.844332456588745,-0.311990350484848,-0.6554354429244995,0.6877982020378113,-0.9131530523300171,1.5996798276901245,-0.07242655754089355
0.6729445592067094,-2.7446056526443594,0.6210488463507066,2.8365256786346436,-3.6527459621429443,3.7288143634796143,-0.30234968662261963,-0.6232913136482239,0.7211746573448181,-1.9939302206039429,2.028747797012329,0.08261257410049438
0.6334474732038137,-2.747416500236248,0.5884949439543169,2.429640531539917,-0.8360478281974792,4.104401111602783,-0.3095392882823944,-0.5919269323348999,0.7441830039024353,-2.9166417121887207,2.471702814102173,0.37884873151779175
0.5957982702051845,-2.722032168571121,0.5496823792359955,1.9816724061965942,1.2857232093811035,4.657420635223389,-0.3371714651584625,-0.5611696839332581,0.755912721157074,-3.602296829223633,2.355557441711426,0.7222824096679688
0.5591739403820493,-2.68107141933777,0.5071761697897048,1.5994579792022705,2.1134772300720215,4.769767761230469,-0.37672773003578186,-0.5304861068725586,0.7593814730644226,-4.280742645263672,1.9127492904663086,1.0450615882873535
0.527092643608506,-2.640186936909202,0.4698294802101117,1.0984792709350586,2.111172676086426,3.644246816635132,-0.41542038321495056,-0.5030227303504944,0.7578877806663513,-4.933197021484375,1.391129970550537,1.3009347915649414
0.5086404096689068,-2.6118446508347244,0.45005307315418075,0.390608012676239,1.538282871246338,0.9917559027671814,-0.441346675157547,-0.48699021339416504,0.7536933422088623,-5.1962571144104,0.691351056098938,1.3495018482208252
0.512368199745133,-2.602448208664075,0.456035769901404,-0.5213302373886108,0.9695735573768616,-2.2449350357055664,-0.44747379422187805,-0.49024271965026855,0.7479496598243713,-4.766011714935303,0.23018723726272583,1.2286736965179443
0.5385077260327117,-2.6088442341581604,0.48494925219169815,-1.3903411626815796,0.6395047903060913,-4.52982759475708,-0.43602168560028076,-0.5128554701805115,0.7395024299621582,-3.4304027557373047,0.3305588364601135,0.8679649829864502
0.5778063945011693,-2.6250257818790703,0.5258420876905606,-1.8465566635131836,0.4593539237976074,-5.161685943603516,-0.4137198030948639,-0.5461877584457397,0.7283643484115601,-1.881446123123169,0.7261499166488647,0.3655533790588379
0.6175318478349382,-2.644119370523754,0.5665966519661232,-1.753896951675415,0.32075613737106323,-4.433475494384766,-0.38907137513160706,-0.579024612903595,0.7164872884750366,-0.7009097337722778,1.1077568531036377,-0.1047930121421814
0.648723328076807,-2.6602996490383592,0.5994053761465296,-1.198970913887024,0.3429298996925354,-3.1177821159362793,-0.36888498067855835,-0.6041695475578308,0.7063306570053101,-0.05903241038322449,1.298368215560913,-0.44131606817245483
0.6673355201854474,-2.6708406456738922,0.6231607522784199,-0.3708874583244324,0.4656651020050049,-1.9729446172714233,-0.35625654458999634,-0.6188952922821045,0.7000352144241333,0.1361333429813385,1.253401517868042,-0.6698841452598572
0.6747325467131485,-2.6769623139184766,0.6421501049969468,0.358815461397171,0.6814018487930298,-1.4086055755615234,-0.3499037027359009,-0.6246885061264038,0.6980915069580078,0.05031266808509827,1.0094997882843018,-0.6712360978126526
0.6754624924939646,-2.680410874304265,0.6608477464880487,0.7632559537887573,0.9642400145530701,-1.3010236024856567,-0.3472912013530731,-0.6252583265304565,0.698885440826416,-0.1043688952922821,0.7371051907539368,-0.4781518578529358
0.6741899075876695,-2.6817909433390703,0.6807970185341274,0.800417959690094,1.240105152130127,-1.3836326599121094,-0.34667906165122986,-0.624264657497406,0.7000763416290283,-0.20204216241836548,0.5521822571754456,-0.23012101650238037
0.6745808135306132,-2.6809542298616313,0.7015789226152626,0.5430744290351868,1.5064364671707153,-1.5587236881256104,-0.3471561670303345,-0.6245700120925903,0.6995672583580017,-0.1914484202861786,0.4042637348175049,-0.03524559736251831
0.6785784927387633,-2.6780242783188415,0.7226389432069616,0.2039659023284912,1.6850885152816772,-1.7112176418304443,-0.3480851352214813,-0.6276870369911194,0.6963081955909729,-0.10746592283248901,0.2591722011566162,0.07546579837799072
0.6857505573793935,-2.6735288805202457,0.742829354419551,-0.06283053010702133,1.7389599084854126,-1.704192042350769,-0.34917184710502625,-0.6332540512084961,0.6907011270523071,0.0040791332721710205,0.18888765573501587,0.08697813749313354
0.6944522842507592,-2.667861957070585,0.7613565101470414,-0.16898015141487122,1.7348085641860962,-1.616462230682373,-0.35055315494537354,-0.6399646401405334,0.6837818026542664,0.13178792595863342,0.13968998193740845,0.04332989454269409
0.7028305064389577,-2.661963912349102,0.778578978810754,-0.08734893798828125,1.6273125410079956,-1.478655457496643,-0.35209354758262634,-0.6463800072669983,0.6769219636917114,0.24392399191856384,0.07116925716400146,-0.03278738260269165
0.7090023985512484,-2.6571742534865863,0.7947146433313466,0.14455220103263855,1.4024033546447754,-1.2495352029800415,-0.3534669280052185,-0.6510769128799438,0.6716841459274292,0.3324403762817383,0.029906928539276123,-0.09360510110855103
0.7116701949165394,-2.654160836564185,0.8096009196644077,0.435642808675766,1.135744333267212,-0.9918241500854492,-0.35467445850372314,-0.6530994772911072,0.6690786480903625,0.38218623399734497,-0.01270228624343872,-0.1382104754447937
0.7107539486084777,-2.6527832548126993,0.8234780615727528,0.7015911340713501,0.9651878476142883,-0.7846251130104065,-0.35587674379348755,-0.6524053812026978,0.6691176295280457,0.3828696310520172,-0.08581477403640747,-0.14369672536849976
0.7070758976254337,-2.652249834605158,0.8369638813390289,0.8894413113594055,0.8995246887207031,-0.6887515783309937,-0.3573592007160187,-0.6496134400367737,0.6710413098335266,0.32722318172454834,-0.16511428356170654,-0.11974143981933594
0.7019380018848078,-2.6519244230092225,0.8508016237653325,0.9841395616531372,0.9736766815185547,-0.6924973130226135,-0.35914257168769836,-0.6456987261772156,0.6738613843917847,0.25211748480796814,-0.24134033918380737,-0.059024035930633545
0.6968255063202069,-2.6504019977935345,0.8651784003313132,0.927280068397522,1.1758164167404175,-0.7713602781295776,-0.3617205321788788,-0.6417864561080933,0.6762161254882812,0.22924381494522095,-0.32044804096221924,0.0372999906539917
0.6934171427502315,-2.647061151954591,0.8799531193301624,0.7253051400184631,1.3713457584381104,-0.9080302715301514,-0.3650136888027191,-0.639168918132782,0.6769253015518188,0.20180577039718628,-0.39441561698913574,0.1469271183013916
0.6930877775546644,-2.6418299740592204,0.8948164279926721,0.39947980642318726,1.5600035190582275,-1.0627717971801758,-0.36865076422691345,-0.6389155983924866,0.6751914620399475,0.18557587265968323,-0.4300541877746582,0.28005439043045044
0.6969341753322199,-2.6346631497096733,0.9088528953815416,-0.04356206953525543,1.6423345804214478,-1.1818422079086304,-0.3722843527793884,-0.6418697834014893,0.6703786849975586,0.23350569605827332,-0.412924587726593,0.42280668020248413
0.705249560679034,-2.6261037120653334,0.9211342664731048,-0.48100051283836365,1.6355654001235962,-1.2582497596740723,-0.3753643333911896,-0.648223876953125,0.6625004410743713,0.2919294238090515,-0.3570860028266907,0.48813408613204956
0.7174466837471457,-2.6167487970292354,0.931571608958351,-0.8330027461051941,1.5799884796142578,-1.317315697669983,-0.3775554299354553,-0.6574629545211792,0.6520689129829407,0.37560245394706726,-0.30985260009765625,0.5000762939453125
0.7325343258962809,-2.6073022354367477,0.940599151553943,-1.0660544633865356,1.496264934539795,-1.362443208694458,-0.3786035478115082,-0.6687560081481934,0.6398627758026123,0.5203273296356201,-0.30562442541122437,0.47787386178970337
0.749273340678717,-2.598195209808828,0.948857918934431,-1.1576879024505615,1.4333666563034058,-1.389262318611145,-0.3785734176635742,-0.6811068654060364,0.626717746257782,0.6783171892166138,-0.3249202370643616,0.42307156324386597
0.7664190433468202,-2.5895473887339207,0.9570474074978922,-1.1304774284362793,1.42717707157135,-1.399741291999817,-0.3777984380722046,-0.6935599446296692,0.6133860349655151,0.8133606910705566,-0.32604748010635376,0.37533754110336304
0.7831150223032057,-2.5806431047345906,0.9654411993051238,-1.0619577169418335,1.5320079326629639,-1.3656342029571533,-0.37703177332878113,-0.7054905295372009,0.6001080870628357,0.9584985971450806,-0.3137964606285095,0.36360639333724976
0.7988712034045099,-2.5700238559734063,0.9734238495111203,-0.9930919408798218,1.7260876893997192,-1.2497104406356812,-0.37732285261154175,-0.716569185256958,0.5866482853889465,1.133151650428772,-0.29243361949920654,0.4029299020767212
0.8133394331113912,-2.555843589696868,0.9795333113466704,-0.9684507250785828,1.9732649326324463,-1.0203310251235962,-0.37983185052871704,-0.7265856862068176,0.5725390911102295,1.3503671884536743,-0.2673413157463074,0.48161423206329346
0.82632392072067,-2.537153038932231,0.9819562037572884,-0.9956997036933899,2.082008123397827,-0.6939774751663208,-0.38507139682769775,-0.735445499420166,0.5575296878814697,1.6120460033416748,-0.27749383449554443,0.5871844291687012
0.8376247535067347,-2.514372873791504,0.9792428524399854,-1.0611345767974854,2.0348751544952393,-0.30430537462234497,-0.39276808500289917,-0.7430556416511536,0.5418499112129211,1.8864052295684814,-0.33908236026763916,0.692540168762207
0.846952611052007,-2.488323844542463,0.9702962816824132,-1.1369322538375854,1.8043427467346191,0.15272973477840424,-0.40251779556274414,-0.7492656707763672,0.5259091258049011,2.1820740699768066,-0.4487323760986328,0.7890627980232239
0.8533790625260054,-2.4602368139599182,0.9546066260687853,-1.1332788467407227,1.4228841066360474,0.6832135915756226,-0.4140869975090027,-0.7535062432289124,0.5106471180915833,2.4469850063323975,-0.5742984414100647,0.825534462928772
0.8554038428340878,-2.432284756476267,0.9324906712296891,-1.0147982835769653,0.7873826026916504,1.2901055812835693,-0.4272023141384125,-0.754835844039917,0.49771571159362793,2.615236282348633,-0.6877911686897278,0.8358566164970398
0.8517090307807169,-2.407845746802183,0.9050887441279939,-0.7984653115272522,-0.050018277019262314,1.8772680759429932,-0.44110196828842163,-0.7524072527885437,0.4891957938671112,2.6413278579711914,-0.7330359220504761,0.8518839478492737
0.8424226908769125,-2.3901854003461707,0.8745230863233543,-0.5713228583335876,-1.0067933797836304,2.3300390243530273,-0.4544222950935364,-0.7462579607963562,0.48641452193260193,2.5960240364074707,-0.7716405391693115,0.8579151630401611
0.8285297777684801,-2.381363995740123,0.8422600709158414,-0.3825196921825409,-2.01027250289917,2.697793483734131,-0.4657954275608063,-0.7369383573532104,0.48985370993614197,2.494985580444336,-0.7958071827888489,0.8359061479568481
0.8112550108907655,-2.38170876729179,0.8083257095035085,-0.32306429743766785,-3.00260329246521,3.012204885482788,-0.4743258059024811,-0.7251519560813904,0.4991692006587982,2.3294129371643066,-0.7271950244903564,0.7908698320388794
0.7920241216034152,-2.3903681036276963,0.7719360700254986,-0.35807526111602783,-3.91316556930542,3.2847955226898193,-0.47941625118255615,-0.7117764949798584,0.51335608959198,2.1044774055480957,-0.5738528370857239,0.7297773957252502
0.771833274339117,-2.4058975184585956,0.7329080474216791,-0.41794508695602417,-4.647008419036865,3.4936695098876953,-0.480934202671051,-0.6974502205848694,0.5312860608100891,1.8369066715240479,-0.37223654985427856,0.5840243101119995
0.7513929787902618,-2.4274801639467025,0.6919881261910145,-0.44442036747932434,-5.278929710388184,3.6166739463806152,-0.47859522700309753,-0.6826573014259338,0.552200973033905,1.5022615194320679,-0.1478329300880432,0.39111268520355225
0.7313673258378622,-2.455252759486346,0.6502589090869653,-0.4603358209133148,-5.864206314086914,3.623462200164795,-0.47164613008499146,-0.6678879261016846,0.5757389664649963,1.1253327131271362,0.10056614875793457,0.22582030296325684
0.7133209949223825,-2.4897005802722183,0.6094070064852627,-0.5224862694740295,-6.379563331604004,3.3645098209381104,-0.45877566933631897,-0.6543486714363098,0.6011257171630859,0.6579487323760986,0.32536929845809937,0.13558357954025269
0.6998020443643114,-2.5309935195064064,0.5715185669227167,-0.7114970684051514,-6.71305513381958,2.842360496520996,-0.4386017918586731,-0.6440662741661072,0.6267431378364563,0.18330705165863037,0.5293049216270447,0.11085128784179688
0.6926245333010577,-2.5769324863430327,0.5379773428981396,-0.937699019908905,-6.660886764526367,2.2350215911865234,-0.41182032227516174,-0.6385591626167297,0.6501120924949646,-0.3281698226928711,0.8397769331932068,0.053180575370788574
0.6904958689345325,-2.621831731158822,0.5086943266549838,-0.990706205368042,-5.923766136169434,1.8892077207565308,-0.3828999698162079,-0.6369195580482483,0.669119656085968,-0.8868143558502197,1.354830265045166,-0.13161367177963257
0.6890894962704279,-2.657995066487498,0.48153663474833885,-0.7121357917785645,-4.67665958404541,1.9645061492919922,-0.35887330770492554,-0.6358346939086914,0.6833181977272034,-1.3642559051513672,2.003800392150879,-0.34017878770828247
0.6818503709819077,-2.679305630040155,0.4536343748088488,0.122620590031147,-3.061352014541626,2.6136317253112793,-0.34627485275268555,-0.630230724811554,0.6949118375778198,-1.8319629430770874,2.517819404602051,-0.46215444803237915
0.6609085782366743,-2.682024788094925,0.42151816929132835,1.4470148086547852,-1.4733994007110596,3.7806665897369385,-0.35016220808029175,-0.6138343811035156,0.7075260877609253,-2.3248255252838135,2.7404518127441406,-0.5492469668388367
0.6226703299761635,-2.668411780456992,0.3853443812452515,2.7358458042144775,-0.126077800989151,4.738784313201904,-0.3701922595500946,-0.5832064151763916,0.7230684161186218,-2.882310152053833,2.5320284366607666,-0.3582614064216614
0.5717084860364833,-2.6435404518719303,0.3503437043014507,3.4683940410614014,1.117570400238037,4.9863200187683105,-0.40174785256385803,-0.5410696268081665,0.738811194896698,-3.4196174144744873,2.0495688915252686,0.2425270676612854
0.5184620201011194,-2.6139661544626205,0.32286324664531346,3.3857555389404297,1.8496458530426025,4.147443771362305,-0.43731746077537537,-0.4955448508262634,0.7504592537879944,-3.9485924243927,1.3928073644638062,0.8832080364227295
0.47618987464607493,-2.588490579355642,0.3092075769703274,2.5338759422302246,1.8398046493530273,2.101789951324463,-0.4668853282928467,-0.4583962559700012,0.7562347650527954,-4.273608207702637,0.643744707107544,1.298223853111267
0.45731391156210366,-2.5751368665495766,0.31362567621760923,0.986984133720398,1.1369799375534058,-0.8428795337677002,-0.4814999997615814,-0.4415396451950073,0.7570998072624207,-4.189245700836182,0.18221652507781982,1.5165969133377075
0.47037002110971843,-2.578003777455526,0.3360232783293555,-1.0652083158493042,0.32804203033447266,-3.8579866886138916,-0.47620707750320435,-0.45321616530418396,0.7535394430160522,-3.651890277862549,0.2697291970252991,1.5562900304794312
0.5124204986466914,-2.5924457616238255,0.3714609238316418,-2.63948655128479,0.2189280390739441,-5.634131908416748,-0.45491930842399597,-0.49028828740119934,0.7434147596359253,-2.633780002593994,0.6794209480285645,1.203438639640808
0.5688830384079722,-2.609169232889506,0.4113731683520076,-3.387714385986328,0.5749971866607666,-5.836777687072754,-0.427673876285553,-0.5386913418769836,0.7258834838867188,-1.5590510368347168,1.1140697002410889,0.4921950697898865
0.6256831256307346,-2.621516131230796,0.4481109478122934,-3.255518913269043,1.0771902799606323,-4.99443244934082,-0.40280649065971375,-0.5856510996818542,0.7033913135528564,-0.7736459970474243,1.4834020137786865,-0.07521766424179077
0.6724947404968729,-2.6269868213625593,0.4781612066344965,-2.439077377319336,1.4267812967300415,-3.7560460567474365,-0.38502660393714905,-0.6229394674301147,0.6809552907943726,-0.2997418940067291,1.6501765251159668,-0.47369545698165894
0.7047230727760034,-2.626886268151594,0.501963365413829,-1.3409407138824463,1.5933873653411865,-2.6271307468414307,-0.3750137984752655,-0.647822916507721,0.6630910634994507,-0.08624404668807983,1.5485798120498657,-0.652043879032135
0.7227286478166279,-2.6234880814338597,0.5221114558978807,-0.30979135632514954,1.7155017852783203,-1.8292945623397827,-0.3714275062084198,-0.6614336371421814,0.6515726447105408,-0.09050169587135315,1.3006854057312012,-0.6320415139198303
0.7298682189922203,-2.6186389119857623,0.5415548007794923,0.4736281633377075,1.8222576379776,-1.4481568336486816,-0.3722146153450012,-0.666771411895752,0.6456560492515564,-0.22324427962303162,1.0647817850112915,-0.4642598032951355
0.7310204539792787,-2.6143039782743607,0.5632152090477811,0.8868783712387085,1.9197019338607788,-1.4979840517044067,-0.3746230900287628,-0.6676297187805176,0.6433720588684082,-0.34611043334007263,0.8614469170570374,-0.23133915662765503
0.7313863994446677,-2.6118119086193246,0.5885824141851753,0.9065842628479004,1.9352284669876099,-1.8145098686218262,-0.3761017918586731,-0.6679021120071411,0.6422256231307983,-0.41010719537734985,0.6596319675445557,0.01887643337249756
0.734802076979205,-2.611777654639925,0.6174426001398075,0.6378340125083923,1.9295519590377808,-2.2184150218963623,-0.37496867775917053,-0.6704403162002563,0.6402404308319092,-0.4260871410369873,0.4797818064689636,0.23837560415267944
0.743086656005036,-2.613142745459429,0.6481836966921504,0.21317178010940552,1.9103550910949707,-2.5004146099090576,-0.3712810277938843,-0.67656409740448,0.6359330415725708,-0.2637133300304413,0.37961286306381226,0.3640361428260803
0.7558180652345026,-2.6148531773917343,0.6782451680364664,-0.17839545011520386,1.8265899419784546,-2.5340969562530518,-0.36583268642425537,-0.6858842372894287,0.6290698051452637,-0.028713732957839966,0.3349931836128235,0.337238609790802
0.7706497581101066,-2.61576618202213,0.7055861308525718,-0.3725038766860962,1.7695075273513794,-2.3359792232513428,-0.36011216044425964,-0.6966015696525574,0.6205360293388367,0.18387320637702942,0.31461310386657715,0.20235496759414673
0.7849190411738941,-2.6147610412181312,0.7296233797452389,-0.35011470317840576,1.7981129884719849,-2.033750295639038,-0.3557012379169464,-0.7067679166793823,0.6115185618400574,0.36046215891838074,0.27424246072769165,0.05178070068359375
0.7965481105357892,-2.611382023704768,0.7505577183873205,-0.1607852727174759,1.8483796119689941,-1.6697564125061035,-0.3535851836204529,-0.7149468660354614,0.6031818389892578,0.49681949615478516,0.19257748126983643,-0.06451618671417236
0.8045144673660818,-2.605815784426955,0.7692294063429208,0.11447080224752426,1.9293874502182007,-1.3856784105300903,-0.35401809215545654,-0.7204940319061279,0.5962876677513123,0.5757589936256409,0.050801217555999756,-0.11246216297149658
0.8091725424094693,-2.598922715297868,0.7872943131162599,0.35853859782218933,2.0419530868530273,-1.242655873298645,-0.35638293623924255,-0.7237163782119751,0.59095299243927,0.5682666301727295,-0.11986565589904785,-0.057719528675079346
0.8118330449596866,-2.591152523235031,0.8054248032266316,0.4616988003253937,2.1214962005615234,-1.1644680500030518,-0.3599553406238556,-0.7255498170852661,0.58652263879776,0.5495154857635498,-0.22469109296798706,0.07697498798370361
0.814082359775619,-2.5820842008657605,0.8224199028796007,0.354396790266037,2.1342427730560303,-1.041456699371338,-0.36439248919487,-0.727095901966095,0.5818502902984619,0.5879946947097778,-0.24812394380569458,0.26357805728912354
0.8173468876561281,-2.5708619785726055,0.8359640747386834,0.07307270914316177,2.054964542388916,-0.867235004901886,-0.3696145713329315,-0.729333221912384,0.5757237076759338,0.6636820435523987,-0.2477327585220337,0.42773985862731934
0.8224102048475824,-2.557433831402587,0.8447419143882899,-0.26796427369117737,1.8899577856063843,-0.6885898113250732,-0.37527066469192505,-0.7327880263328552,0.5676211714744568,0.721217930316925,-0.27999889850616455,0.5218105912208557
0.8294024391738404,-2.5424893027781232,0.8488547983133538,-0.5594589710235596,1.6875580549240112,-0.5586384534835815,-0.38081246614456177,-0.7375279664993286,0.5577044486999512,0.7451618909835815,-0.3297021985054016,0.5220226645469666
0.8376007022959482,-2.5270960886582463,0.8498465814711967,-0.6830053329467773,1.542008638381958,-0.493692010641098,-0.38585272431373596,-0.7430395483970642,0.5468177795410156,0.6987800598144531,-0.3599114418029785,0.4316977262496948
0.8459922710822321,-2.51201877703299,0.8501076968208919,-0.6396032571792603,1.5076324939727783,-0.5156463384628296,-0.3903680145740509,-0.7486293315887451,0.5358794927597046,0.6897608041763306,-0.3820163607597351,0.32232046127319336
0.8537974464196102,-2.4981533593737577,0.8515510139508117,-0.4913550317287445,1.472603678703308,-0.5560636520385742,-0.3942427933216095,-0.753781259059906,0.5257247686386108,0.7215132713317871,-0.39432066679000854,0.24589687585830688
0.8602920256805587,-2.4856543147469194,0.85447245968107,-0.30397313833236694,1.4642277956008911,-0.5246855020523071,-0.39778849482536316,-0.758033037185669,0.5168654322624207,0.7528606653213501,-0.3748708963394165,0.2089645266532898
0.8649805603417406,-2.473912757986671,0.8583935730466294,-0.1262284517288208,1.4661202430725098,-0.4432518780231476,-0.401624858379364,-0.761082649230957,0.5093628764152527,0.8124983310699463,-0.36103343963623047,0.22150254249572754
0.8677366801511405,-2.462376218191705,0.8623353648741091,0.013940629549324512,1.4353995323181152,-0.2887032926082611,-0.40615522861480713,-0.7628675103187561,0.5030619502067566,0.8487058877944946,-0.34008365869522095,0.2607320547103882
0.8682760317617247,-2.450267050437752,0.8654874364034698,0.15966744720935822,1.4645817279815674,-0.0934147909283638,-0.41195428371429443,-0.7632161378860474,0.497789591550827,0.858426570892334,-0.3151376247406006,0.2835061252117157
0.8664451245209128,-2.4372569567831777,0.8677993142406405,0.31331294775009155,1.4744170904159546,0.09706035256385803,-0.419299840927124,-0.7620318531990051,0.4934522807598114,0.8632848262786865,-0.3236311078071594,0.2870347499847412
0.8622744405667713,-2.4240297945091407,0.8698303492800883,0.4910787343978882,1.4667205810546875,0.23636840283870697,-0.4278758466243744,-0.7593245506286621,0.4902530908584595,0.8648114204406738,-0.33766019344329834,0.2809259295463562
0.8560184130196612,-2.411746585657929,0.8726652313389733,0.6846359968185425,1.3973045349121094,0.3042883574962616,-0.43702414631843567,-0.7552388310432434,0.4884914457798004,0.8492099046707153,-0.35064178705215454,0.30208155512809753
0.848100477088957,-2.4014858917716113,0.8767196016796603,0.8384337425231934,1.2521330118179321,0.36729753017425537,-0.4460321366786957,-0.7500253915786743,0.4883820116519928,0.8234430551528931,-0.3516286015510559,0.33232709765434265
0.838604655995672,-2.3930427570172585,0.881220446047196,0.9489637613296509,1.1005128622055054,0.48191037774086,-0.45496639609336853,-0.7437110543251038,0.4897949993610382,0.8259992599487305,-0.36288678646087646,0.33610212802886963
0.8276542143892298,-2.386074029735892,0.8852544215670196,1.0111409425735474,0.8701873421669006,0.61246657371521,-0.46392521262168884,-0.7363462448120117,0.4925116300582886,0.8285340070724487,-0.39581018686294556,0.32958608865737915
0.8154684015343105,-2.381422570933989,0.8886077934630617,1.0670490264892578,0.5310662388801575,0.7288565635681152,-0.4723588526248932,-0.7280467748641968,0.49681439995765686,0.8154833316802979,-0.43346738815307617,0.3312036395072937
0.8019545123608215,-2.3800584899918245,0.891514370489753,1.165212869644165,0.16083279252052307,0.835657000541687,-0.479781836271286,-0.7187164425849915,0.5032452344894409,0.8098142743110657,-0.46806633472442627,0.30453968048095703
0.786858412718538,-2.382560663005949,0.8947751200565783,1.3335217237472534,-0.18852493166923523,0.9050781726837158,-0.4859335124492645,-0.7081385850906372,0.5122581124305725,0.7965567111968994,-0.5114201903343201,0.2454017996788025
0.7700254805433303,-2.3887315662958146,0.8991374027204978,1.5356831550598145,-0.40579232573509216,0.9427812099456787,-0.49084439873695374,-0.6961535215377808,0.5238719582557678,0.8271024227142334,-0.559965193271637,0.22270989418029785
0.7515992633696461,-2.396812489739523,0.9048297607589938,1.7033668756484985,-0.40038955211639404,0.9573434591293335,-0.49520641565322876,-0.6828080415725708,0.5371622443199158,0.9418313503265381,-0.6222913265228271,0.2829211950302124
0.7320863548541786,-2.404299377710737,0.9108681646669283,1.746420979499817,-0.2718141973018646,1.0296117067337036,-0.5000340938568115,-0.6684228777885437,0.5506144762039185,1.1198004484176636,-0.6991001963615417,0.4280535578727722
0.7120660074764341,-2.408600673591353,0.9151028612665383,1.616135597229004,-0.005640045739710331,1.1824465990066528,-0.5065147876739502,-0.6533991694450378,0.5625940561294556,1.3707268238067627,-0.7922032475471497,0.6290104389190674
0.6926767623291256,-2.4071432560937973,0.9154143632737164,1.252132534980774,0.32228991389274597,1.3730885982513428,-0.5157287120819092,-0.6385993361473083,0.5711519122123718,1.7049072980880737,-0.9162406921386719,0.8862912654876709
0.6754271089527392,-2.3996801216647246,0.9094175688909218,0.6421975493431091,0.3654882311820984,1.6359273195266724,-0.5273423194885254,-0.6252307295799255,0.5753226280212402,2.009169340133667,-0.9949932098388672,1.1753942966461182
0.6611956163110277,-2.3884503994160537,0.8948348192232666,-0.12188209593296051,0.022302523255348206,1.9694124460220337,-0.5398010611534119,-0.6140609383583069,0.5757982134819031,2.213797092437744,-0.9864486455917358,1.4341959953308105
0.6501277854184015,-2.3771436729632907,0.8705983731288127,-0.907034695148468,-0.76924729347229,2.3242969512939453,-0.5509472489356995,-0.6052881479263306,0.5745285153388977,2.326887369155884,-0.9478734135627747,1.589137077331543
0.6418199473797417,-2.370573541335533,0.8373942783815367,-1.5530693531036377,-1.9381853342056274,2.6128838062286377,-0.5581950545310974,-0.5986542105674744,0.5744830369949341,2.3235301971435547,-0.8995450735092163,1.5916544198989868
0.635793965195676,-2.3731621521377106,0.7975791132999495,-1.9957600831985474,-3.3265676498413086,2.7808191776275635,-0.559203565120697,-0.5938165187835693,0.5785097479820251,2.1966700553894043,-0.8039801716804504,1.456188678741455
0.6317662602473259,-2.3879811212948123,0.7538067806379485,-2.2589073181152344,-4.807824611663818,2.8497490882873535,-0.5522015690803528,-0.5905710458755493,0.5884719491004944,1.9469921588897705,-0.573476254940033,1.2419722080230713
0.6295213555131091,-2.4169144487014473,0.7081642965950902,-2.3381471633911133,-6.32375955581665,2.884427547454834,-0.53582364320755,-0.5887579321861267,0.6051913499832153,1.5856895446777344,-0.16031116247177124,0.9879175424575806
0.6278653606350988,-2.460734068428132,0.662318766541727,-2.1581790447235107,-7.7660956382751465,2.9693679809570312,-0.5094118714332581,-0.5874185562133789,0.6288396120071411,1.1509675979614258,0.38301169872283936,0.6466731429100037
0.6249941882279962,-2.518845715003107,0.6180684392483636,-1.6933135986328125,-8.929625511169434,3.0359208583831787,-0.4730112552642822,-0.5850925445556641,0.65873122215271,0.665577232837677,0.9039401412010193,0.2647915482521057
0.6199225032919823,-2.5877141654511004,0.5782408927601986,-1.0290943384170532,-9.282825469970703,2.8478782176971436,-0.4281153976917267,-0.5809720754623413,0.692234456539154,0.027495920658111572,1.3689510822296143,-0.058521807193756104
0.6122208122138849,-2.6580522921917895,0.5456940416719743,-0.2550748586654663,-8.305931091308594,2.5150578022003174,-0.3804754614830017,-0.5746863484382629,0.7245507836341858,-0.747988224029541,1.8696081638336182,-0.3434627056121826
0.5999933673512452,-2.7148853892742886,0.5193292567164954,0.5582649111747742,-5.846927165985107,2.502246618270874,-0.34158778190612793,-0.5646370053291321,0.7513340711593628,-1.6006577014923096,2.602158308029175,-0.6200474500656128
0.5796474495788692,-2.7419654627410806,0.4925701428184487,1.3963923454284668,-2.4748353958129883,3.3053221702575684,-0.3255217671394348,-0.5477290153503418,0.7707323431968689,-2.2186217308044434,3.3288722038269043,-0.7836872339248657
0.5476574710744454,-2.7311751941942926,0.45606460112577063,1.9935578107833862,0.6349745392799377,4.929564476013184,-0.34063804149627686,-0.5206887125968933,0.7828463315963745,-2.5817251205444336,3.469694137573242,-0.6183568239212036
0.5050595791455015,-2.689959037777896,0.40471488504745645,1.9567515850067139,2.2172467708587646,6.589904308319092,-0.38194504380226135,-0.4838595688343048,0.7873994708061218,-2.9204230308532715,3.003894329071045,-0.0236513614654541
0.45734999477496224,-2.6377472880430455,0.3439902433580548,1.5283539295196533,2.514510154724121,7.107491970062256,-0.43317756056785583,-0.44157201051712036,0.7857297658920288,-3.656864643096924,2.328489065170288,0.6237549781799316
0.4135781037670533,-2.588890863117975,0.2881864281196117,0.9033516049385071,2.5224881172180176,5.767165184020996,-0.48072609305381775,-0.40188831090927124,0.779350996017456,-4.53587532043457,1.555117130279541,0.9524146318435669
0.38642570130285014,-2.551045687040751,0.2520854272715536,0.0338580384850502,2.1628546714782715,2.517646551132202,-0.5157570242881775,-0.37688007950782776,0.7693868279457092,-5.01605749130249,0.5523408651351929,1.069236159324646
0.3884736923367164,-2.530122332413637,0.24541039161271574,-1.0795083045959473,1.4915249347686768,-1.7704474925994873,-0.5312969088554382,-0.37877628207206726,0.7577943205833435,-4.964247703552246,-0.2621540129184723,1.0416898727416992
0.4236197440107569,-2.526772133426129,0.2681114429264875,-2.229790687561035,1.0381931066513062,-5.481985092163086,-0.5258257389068604,-0.41106292605400085,0.7446706891059875,-4.269935607910156,-0.15253570675849915,0.9531593322753906
0.48267730872467984,-2.5360868662439544,0.31092826240315163,-2.947488307952881,0.8440801501274109,-7.288015365600586,-0.5041522979736328,-0.4641522765159607,0.7282805442810059,-2.8731210231781006,0.7144575119018555,0.6058714389801025
0.5491176272866729,-2.5534433426200702,0.36140245288008427,-2.9835736751556396,0.6749699115753174,-7.19668436050415,-0.47325512766838074,-0.5219348073005676,0.7096570730209351,-1.5496177673339844,1.7225115299224854,0.15295249223709106
0.6087171986945826,-2.5734573454568372,0.409224565674641,-2.565338611602783,0.5577397346496582,-5.871018886566162,-0.4414159059524536,-0.571815550327301,0.691504955291748,-0.7257899641990662,2.3742141723632812,-0.20378834009170532
0.6541355005195689,-2.5901388897689857,0.4473083741579446,-1.8096691370010376,0.6262243986129761,-4.1358418464660645,-0.41577404737472534,-0.6084734201431274,0.6759374737739563,-0.2593814730644226,2.485121488571167,-0.4409676790237427
0.6834153004354563,-2.6008408367386755,0.47608217709588774,-0.8388829827308655,0.799353301525116,-2.827244520187378,-0.3991713523864746,-0.6314449906349182,0.6647847294807434,-0.22399744391441345,2.1347715854644775,-0.6403710246086121
0.6996565427190442,-2.6080921139914377,0.5014033878901851,-0.0006410246714949608,0.9756633639335632,-2.266282796859741,-0.38907334208488464,-0.6439549326896667,0.6587440967559814,-0.4559430778026581,1.7393224239349365,-0.611472487449646
0.7093883980176159,-2.6149480578025686,0.5287611415684813,0.3593032956123352,1.1996266841888428,-2.358325481414795,-0.38137978315353394,-0.6513698101043701,0.6559470295906067,-0.7048017978668213,1.4602992534637451,-0.3517633080482483
0.7193426570257945,-2.6221998528932207,0.5604642982098507,0.26405665278434753,1.512886881828308,-2.7988815307617188,-0.3733760416507721,-0.6588903069496155,0.6530340909957886,-0.8644931316375732,1.2590949535369873,-0.0505562424659729
0.7335838670912502,-2.6293395624294984,0.596764940551857,-0.09032808244228363,1.8453457355499268,-3.288158655166626,-0.36406779289245605,-0.6695359349250793,0.6474382877349854,-0.7804328799247742,1.133174180984497,0.16550415754318237
0.7530633714150922,-2.636390577854076,0.63545211664367,-0.5363077521324158,1.9313085079193115,-3.523885726928711,-0.35311341285705566,-0.6838769912719727,0.6384531855583191,-0.4528709053993225,1.0451138019561768,0.26479047536849976
0.7764034020114798,-2.6434725509268833,0.6733607128559999,-0.8980835676193237,1.8869857788085938,-3.4610347747802734,-0.34086281061172485,-0.7007179856300354,0.6267426609992981,-0.06517347693443298,0.926059901714325,0.2377895712852478
0.8009100008232595,-2.649372155672121,0.7080997335306841,-1.058493733406067,1.8519244194030762,-3.1213061809539795,-0.3289438784122467,-0.7179898023605347,0.6134222745895386,0.2662302255630493,0.8174311518669128,0.10831844806671143
0.8237587625022914,-2.652229899595524,0.7373235693160577,-1.0510283708572388,1.8096296787261963,-2.5367214679718018,-0.3193932771682739,-0.7337049841880798,0.5997208952903748,0.5475884675979614,0.7433636784553528,-0.04027259349822998
0.8427448312894217,-2.650466289962348,0.7595787972612332,-0.8633873462677002,1.8281804323196411,-1.8787981271743774,-0.31382322311401367,-0.7464723587036133,0.5867655277252197,0.752894937992096,0.5746279358863831,-0.19170033931732178
0.8565906432140855,-2.643963403770546,0.7757679337032846,-0.5460945963859558,1.9018362760543823,-1.3350460529327393,-0.3126682937145233,-0.7556137442588806,0.575574517250061,0.8574071526527405,0.28704696893692017,-0.32404881715774536
0.8655030932022479,-2.6343380628980935,0.7889650930204608,-0.19162297248840332,2.024693250656128,-1.0518617630004883,-0.3149098753929138,-0.7614215016365051,0.5666294097900391,0.8626699447631836,-0.0561290979385376,-0.3468877077102661
0.8707977882668198,-2.62294301824606,0.8016373087345141,0.0480431504547596,2.168893575668335,-0.8977856636047363,-0.31934311985969543,-0.7648431062698364,0.5594951510429382,0.8591991662979126,-0.3223608136177063,-0.2163097858428955
0.8744296725762217,-2.6093983060983783,0.8134240832766367,0.050505056977272034,2.341946601867676,-0.7757098078727722,-0.3254801034927368,-0.7671778202056885,0.5527212023735046,0.9076640605926514,-0.4109838008880615,0.011701345443725586
0.8786360462307979,-2.591578028209675,0.8223450158007558,-0.21288050711154938,2.5699167251586914,-0.6277980804443359,-0.33358803391456604,-0.7698690891265869,0.5440780520439148,1.0184940099716187,-0.44384562969207764,0.2652634382247925
0.8849774868358092,-2.567724923866158,0.826083918444863,-0.608806848526001,2.7589919567108154,-0.452914297580719,-0.34381237626075745,-0.7739007472991943,0.5318559408187866,1.1347670555114746,-0.5228065252304077,0.4435926079750061
0.8937067244069505,-2.5375197111930405,0.8240904882978409,-0.9671764969825745,2.9499056339263916,-0.3155497908592224,-0.35586705803871155,-0.7793994545936584,0.5156500935554504,1.2065293788909912,-0.6305736303329468,0.5050560235977173
0.9042232167919789,-2.501590363725705,0.8172352604854113,-1.2164195775985718,3.1312131881713867,-0.22487327456474304,-0.3692447245121002,-0.7859451174736023,0.49593180418014526,1.2707188129425049,-0.6834151744842529,0.51853346824646
0.9155485746172106,-2.4618706544080107,0.8069515491092611,-1.324345588684082,3.136356830596924,-0.16227248311042786,-0.38302695751190186,-0.7928969860076904,0.4739249646663666,1.3613899946212769,-0.7051805257797241,0.5359779000282288
0.9266318502340221,-2.4217330364091,0.7943829019255942,-1.3295711278915405,2.8266611099243164,-0.09942668676376343,-0.395917147397995,-0.7996017932891846,0.45153775811195374,1.485333800315857,-0.7404524683952332,0.5742952823638916
0.9364793502881802,-2.3850384615092963,0.7805204127601101,-1.2174723148345947,2.2429733276367188,-0.002199205569922924,-0.4067911207675934,-0.8054766654968262,0.430961936712265,1.5731120109558105,-0.7424664497375488,0.607917308807373
0.9440547814296811,-2.35492062825464,0.7669113174373137,-0.9621145129203796,1.5672659873962402,0.09362594038248062,-0.4152519106864929,-0.809942901134491,0.41419532895088196,1.5858148336410522,-0.7068415880203247,0.5876203179359436
0.9485084127096585,-2.333608166631711,0.7558540583426515,-0.5630092024803162,0.9002224206924438,0.1802109032869339,-0.4213729202747345,-0.812546968460083,0.4027557373046875,1.5534073114395142,-0.700361967086792,0.5390928983688354
0.948831740429722,-2.3218654353726413,0.7488664637637239,-0.06279350072145462,0.3217567205429077,0.34549078345298767,-0.42588087916374207,-0.812735378742218,0.3976004421710968,1.469826340675354,-0.6689081192016602,0.48255687952041626
0.944078675770572,-2.3184639698210403,0.7457611655250596,0.43835270404815674,-0.1254439502954483,0.6042618751525879,-0.4300590455532074,-0.8099569082260132,0.3987719714641571,1.3705192804336548,-0.6054636836051941,0.4213115870952606
0.9340630556157391,-2.321242778506918,0.7452330321000167,0.8653753399848938,-0.5078995227813721,0.9000827670097351,-0.43486085534095764,-0.8040423393249512,0.4054776132106781,1.2503515481948853,-0.5698896646499634,0.3841951787471771
0.9192710265716799,-2.328844105707549,0.7460656476977956,1.2176851034164429,-0.8696979880332947,1.1737315654754639,-0.4403553307056427,-0.7951597571372986,0.41690313816070557,1.1192646026611328,-0.5775362253189087,0.36333972215652466
0.9005646998166517,-2.3404282396754534,0.7477657115154374,1.5049852132797241,-1.1570695638656616,1.3584935665130615,-0.4461018145084381,-0.7836778163909912,0.43225231766700745,1.0009877681732178,-0.6210157871246338,0.3069443702697754
0.8792496103845415,-2.3550519273595065,0.750694979417682,1.7261765003204346,-1.2809480428695679,1.393195629119873,-0.45145758986473083,-0.7702605724334717,0.4504271149635315,0.900096595287323,-0.7152893543243408,0.23827815055847168
0.8569483262243053,-2.37132226222996,0.7552197027488748,1.8286510705947876,-1.263221025466919,1.303153157234192,-0.45591971278190613,-0.7558479905128479,0.46992677450180054,0.8512749671936035,-0.8403129577636719,0.20519834756851196
0.8353578782603095,-2.3876177020443934,0.7607757174921647,1.7663730382919312,-1.1364212036132812,1.1341679096221924,-0.45926743745803833,-0.7415366768836975,0.48907727003097534,0.8988121747970581,-0.9745124578475952,0.23585247993469238
0.8159753817051415,-2.401768155899528,0.7660308472522235,1.5329563617706299,-0.9126067161560059,0.9773411750793457,-0.4619048535823822,-0.7283942103385925,0.5060486197471619,1.0614075660705566,-1.0726004838943481,0.3027433156967163
0.7994236445229349,-2.412316415611664,0.769088430596633,1.1915243864059448,-0.7640771269798279,0.9410039782524109,-0.4645121693611145,-0.7169544100761414,0.5198124051094055,1.2544291019439697,-1.081721305847168,0.3715144395828247
0.7853457413514613,-2.418790857857626,0.768205722285172,0.8262401819229126,-0.6488415002822876,1.0213690996170044,-0.46776750683784485,-0.7070696949958801,0.530326247215271,1.4342591762542725,-1.0331189632415771,0.43074852228164673
0.7734761994502755,-2.421150043687234,0.762830032216047,0.44455409049987793,-0.5934261679649353,1.1128145456314087,-0.4720187187194824,-0.6986266374588013,0.5376977920532227,1.605578899383545,-0.9771392941474915,0.474386990070343
0.7640720122864648,-2.4205063549793677,0.7527327931531833,0.0024594273418188095,-0.695591926574707,1.212664008140564,-0.4766811728477478,-0.6918672919273376,0.542304515838623,1.7462583780288696,-0.8920407295227051,0.5357286334037781
0.757463005606922,-2.4183314567706247,0.7373296538704485,-0.48538294434547424,-1.026569128036499,1.328575611114502,-0.4808754324913025,-0.6870803236961365,0.5446826219558716,1.8647255897521973,-0.7828750610351562,0.6070048809051514
0.7534354036448778,-2.4174691893458458,0.7163379643246434,-0.9168779850006104,-1.7113194465637207,1.496975302696228,-0.48317432403564453,-0.684148371219635,0.5463363528251648,1.911244511604309,-0.6110786199569702,0.6192977428436279
0.750811592262325,-2.421599534426946,0.6900369039805015,-1.1969730854034424,-2.727710723876953,1.7302719354629517,-0.4820956289768219,-0.6822323799133301,0.5496749877929688,1.865732192993164,-0.3677248954772949,0.5564955472946167
0.7478931932227983,-2.434587774655659,0.6598102947300121,-1.214376449584961,-3.9929003715515137,1.9832780361175537,-0.47620689868927,-0.6800957322120667,0.5574012398719788,1.7082931995391846,-0.0641210675239563,0.40278828144073486
0.7427649295790801,-2.4603274850108687,0.6284088505730163,-0.9027981758117676,-5.379457473754883,2.193056583404541,-0.4638938307762146,-0.6763271689414978,0.5721743702888489,1.411434292793274,0.2680020332336426,0.18392890691757202
0.7339280114363945,-2.5014775085254213,0.5995051441474921,-0.2899610698223114,-6.677382469177246,2.208897113800049,-0.4435155987739563,-0.6697915196418762,0.5955445766448975,0.9595983624458313,0.6008065342903137,-0.032434284687042236
0.7211113950774257,-2.5585152048440793,0.5775345235840315,0.5106224417686462,-7.514976978302002,1.891312837600708,-0.4135372042655945,-0.6602197885513306,0.6269745230674744,0.378670871257782,0.893953800201416,-0.22069388628005981
0.7049126370391767,-2.6264704137134314,0.5651929484232789,1.2462806701660156,-7.531189441680908,1.3674629926681519,-0.3752291798591614,-0.6479672789573669,0.6628284454345703,-0.15260276198387146,1.2361783981323242,-0.325975239276886
0.6860204674950243,-2.6960276899428983,0.5615492433697084,1.827646017074585,-6.6840362548828125,0.9001522660255432,-0.3334711194038391,-0.6334629654884338,0.6982272863388062,-0.7320348024368286,1.7033940553665161,-0.3297887444496155
0.6622183072970151,-2.754220117460628,0.5611935331116076,2.534032106399536,-4.805327892303467,1.2238308191299438,-0.2979104518890381,-0.6148678064346313,0.7301962971687317,-1.4640676975250244,2.352935314178467,-0.3250298500061035
0.6274992819862149,-2.783108925592592,0.5521373280212086,3.392606258392334,-1.9464517831802368,2.750730276107788,-0.2840162515640259,-0.5871222615242004,0.7580382227897644,-2.1456711292266846,3.057596445083618,-0.34156501293182373
0.5801590928747272,-2.7733175584111365,0.5256855090397485,3.8105835914611816,0.8259031772613525,4.63944149017334,-0.30110079050064087,-0.5481569766998291,0.7802962064743042,-2.5483102798461914,3.107025384902954,0.04390716552734375
0.5253931210679538,-2.7347016562317017,0.4828918001005647,3.468973398208618,2.1685030460357666,6.111030578613281,-0.3423791229724884,-0.5015531182289124,0.7944939136505127,-2.9194159507751465,2.3862881660461426,0.7155461311340332
0.4709119070438641,-2.6870614578838237,0.43128959860709815,2.5793933868408203,2.381885528564453,6.432015419006348,-0.39125359058380127,-0.45369911193847656,0.8006730079650879,-3.6576201915740967,1.5457706451416016,1.213273286819458
0.42659665001971314,-2.642087045608985,0.384573643874077,1.3839821815490723,2.534778594970703,4.792811870574951,-0.4360639154911041,-0.41377487778663635,0.799148440361023,-4.47343635559082,0.7765678763389587,1.5242613554000854
0.40669773037131435,-2.6078470922773476,0.3592874655918947,-0.2838810086250305,2.1600253582000732,0.9303086400032043,-0.46726280450820923,-0.3955785930156708,0.7906849980354309,-5.053718090057373,0.013178080320358276,1.6314644813537598
0.42575291950205835,-2.5916352296918364,0.3649563156246522,-2.4513819217681885,1.5897982120513916,-3.71757435798645,-0.47599297761917114,-0.41300660371780396,0.7764384746551514,-4.888173580169678,-0.23886430263519287,1.7230582237243652
0.4830118441036718,-2.5891458506260703,0.39581611931288,-4.250844478607178,1.6807302236557007,-6.653829574584961,-0.46473774313926697,-0.46444857120513916,0.7538608312606812,-3.809462547302246,0.2966323494911194,1.5135645866394043
0.5600283796666081,-2.5911145934698516,0.43676935187855165,-4.987979412078857,1.9632298946380615,-7.162055969238281,-0.4431867003440857,-0.5312102437019348,0.7220809459686279,-2.050755500793457,1.1913511753082275,0.668391227722168
0.6377460991214801,-2.592413857208488,0.47511556536276434,-4.817788600921631,2.078800678253174,-6.178308963775635,-0.4193849563598633,-0.5953860878944397,0.6852965354919434,-0.8352993726730347,1.877933144569397,0.0008299946784973145
0.7036589441463454,-2.5890859032099383,0.5038840998791672,-3.9638025760650635,2.1305055618286133,-4.499758720397949,-0.40016666054725647,-0.6470118761062622,0.6490316390991211,-0.26967886090278625,2.1774377822875977,-0.4075615406036377
0.7521885467014244,-2.580030268483582,0.5227043997970283,-2.7437586784362793,2.181516408920288,-3.059307098388672,-0.3888355791568756,-0.6832384467124939,0.6180546283721924,0.0008199810981750488,2.034541606903076,-0.7401862144470215
0.7842762676842594,-2.567660560518506,0.5374635028370276,-1.5377665758132935,2.3515877723693848,-2.234314441680908,-0.3843458592891693,-0.7063130140304565,0.5944747924804688,-0.0862656831741333,1.6041706800460815,-0.8155441880226135
0.804622558287284,-2.553856869504802,0.553524515541259,-0.6783170104026794,2.6953060626983643,-1.918352484703064,-0.38446566462516785,-0.7205689549446106,0.5770320296287537,-0.21932446956634521,1.2274203300476074,-0.637853741645813
0.8193541629029504,-2.539450233577306,0.5731808866838088,-0.3049359917640686,3.0086307525634766,-1.998542070388794,-0.38668370246887207,-0.7307050824165344,0.5626236796379089,-0.3299757242202759,0.9791487455368042,-0.327714741230011
0.8343193180901589,-2.525203239879825,0.5964135840971814,-0.4040120840072632,3.2147562503814697,-2.296004295349121,-0.3882945477962494,-0.7408394813537598,0.5480730533599854,-0.3456989824771881,0.79397052526474,0.05480152368545532
0.8537632028402314,-2.511210723080352,0.6209132851527868,-0.8891327381134033,3.2062828540802,-2.607739210128784,-0.38735976815223694,-0.7537587285041809,0.5308480858802795,-0.2369992434978485,0.6125234961509705,0.39284247159957886
0.8798015905707736,-2.496443882902828,0.6435664381114492,-1.5532227754592896,3.1725399494171143,-2.825627565383911,-0.38322174549102783,-0.7706124186515808,0.5092121958732605,-0.021151304244995117,0.43581950664520264,0.5798073410987854
0.9123964109330627,-2.479025509565319,0.661916507126148,-2.170585870742798,3.149331569671631,-2.909846544265747,-0.376376211643219,-0.7909722328186035,0.4823934733867645,0.22680965065956116,0.27348577976226807,0.5952430963516235
0.948155953849034,-2.458092523229548,0.6741659562307114,-2.45188307762146,2.9484801292419434,-2.6361615657806396,-0.3682856857776642,-0.8123414516448975,0.45218008756637573,0.5635677576065063,0.17504280805587769,0.4543749690055847
0.9824266847150961,-2.4339744575256734,0.6788264921914824,-2.4247608184814453,2.6141841411590576,-2.1325643062591553,-0.360767662525177,-0.8318466544151306,0.421755313873291,0.8416026830673218,0.11196756362915039,0.27325189113616943
1.0123551903543413,-2.4063917294812094,0.6753772536734123,-2.3089358806610107,2.3200876712799072,-1.5140049457550049,-0.3553995192050934,-0.8480821251869202,0.3929986357688904,1.003882884979248,0.01450967788696289,0.15979677438735962
1.0372282841349416,-2.3724571925133895,0.6621732483535476,-2.253736734390259,2.2227814197540283,-0.8820078372955322,-0.3537445366382599,-0.8609977960586548,0.3654414713382721,1.0573121309280396,-0.10820990800857544,0.13359713554382324
1.0574492871614833,-2.329513336407965,0.6390444873623747,-2.2246081829071045,2.3683276176452637,-0.39104804396629333,-0.3563973009586334,-0.8711056709289551,0.3378690779209137,1.0246102809906006,-0.25268876552581787,0.09299322962760925
1.074368191561532,-2.2775745001642433,0.6083770707793015,-2.2313644886016846,2.6516830921173096,-0.17781962454319,-0.3621967136859894,-0.8792893886566162,0.30929499864578247,0.9170063734054565,-0.41746342182159424,0.06857344508171082
1.0901202618595618,-2.21825742924988,0.5736027184603797,-2.277937412261963,3.0596604347229004,-0.26032957434654236,-0.3688015043735504,-0.8866825103759766,0.27888989448547363,0.7434964179992676,-0.5793972611427307,0.0875040590763092
1.106688379908165,-2.1524463937291713,0.5363696950546154,-2.395308256149292,3.4426932334899902,-0.5008534789085388,-0.37401658296585083,-0.8942212462425232,0.2459268867969513,0.6323479413986206,-0.6782885789871216,0.16953936219215393
1.1250245513800001,-2.079466302307531,0.49537376726143106,-2.5694777965545654,3.747882127761841,-0.7616035342216492,-0.376567006111145,-0.9022781848907471,0.20997898280620575,0.5860702395439148,-0.6766402125358582,0.2828950881958008
1.1448942641690019,-1.9987310633702955,0.4484143420564196,-2.740726947784424,3.8260748386383057,-0.9823497533798218,-0.3758872151374817,-0.9106664061546326,0.17145107686519623,0.584764838218689,-0.6077814102172852,0.3967097997665405
1.1653879109180163,-1.9105516328948535,0.39348755264217433,-2.8796164989471436,3.714956760406494,-1.1447091102600098,-0.3718491196632385,-0.9189413785934448,0.1314343810081482,0.6088639497756958,-0.5333291292190552,0.46587085723876953
1.1853589007918814,-1.8154959582816776,0.3300086770224079,-2.9179298877716064,3.547028064727783,-1.2545437812805176,-0.364764541387558,-0.9266340732574463,0.09108300507068634,0.6193575859069824,-0.45655983686447144,0.4484677314758301
1.2034871504295466,-1.7151817051159206,0.2593921240619005,-2.8434810638427734,3.3570282459259033,-1.275080680847168,-0.35536813735961914,-0.9332970380783081,0.051669515669345856,0.6290498971939087,-0.40022939443588257,0.3818631172180176
1.2182615482760932,-1.612231508122974,0.18442533523622703,-2.6545817852020264,3.173452615737915,-1.1489264965057373,-0.3449810743331909,-0.9385005235671997,0.014302539639174938,0.6725568771362305,-0.35883212089538574,0.3059335947036743
1.228418500665052,-1.5115797993688924,0.10994417881794884,-2.3717894554138184,2.9189281463623047,-0.9064505696296692,-0.33513933420181274,-0.941959023475647,-0.019869016483426094,0.713420033454895,-0.31557875871658325,0.23076069355010986
1.2337502759623558,-1.4196083169513964,0.0419089735911389,-2.005345106124878,2.6351845264434814,-0.630754828453064,-0.3269285559654236,-0.943735659122467,-0.049807753413915634,0.6851744651794434,-0.27661657333374023,0.15800774097442627
1.235785540516121,-1.3400516111647514,-0.014953449732366399,-1.5822317600250244,2.548433542251587,-0.4954479932785034,-0.3200649917125702,-0.9444067478179932,-0.07519256323575974,0.5671201944351196,-0.2744956612586975,0.07661158591508865
1.236984643002877,-1.2728019906450225,-0.0590573062790853,-1.142992377281189,2.551039695739746,-0.5020012259483337,-0.31320592761039734,-0.9448003172874451,-0.09619808197021484,0.3962748944759369,-0.2668846845626831,0.011053994297981262
1.2392262102112757,-1.216325110912684,-0.09193779436238525,-0.7558712959289551,2.5071537494659424,-0.6158918738365173,-0.30528977513313293,-0.9455323815345764,-0.1129889041185379,0.2537151575088501,-0.24050265550613403,-0.0046106502413749695
1.2434565220636866,-1.1669908890920322,-0.11759631550920444,-0.483235239982605,2.500568389892578,-0.7846992611885071,-0.2956654727458954,-0.9469010233879089,-0.12633375823497772,0.17829495668411255,-0.2323439121246338,0.01640939712524414
1.249656552173613,-1.1198887886343454,-0.14064647539388406,-0.35660433769226074,2.5285985469818115,-0.9408105611801147,-0.28409942984580994,-0.9488762617111206,-0.13755381107330322,0.1375388503074646,-0.19507497549057007,0.06324346363544464
1.2566110591796544,-1.0712418112691837,-0.1655882369586067,-0.42107146978378296,2.4242029190063477,-0.9803372025489807,-0.27127525210380554,-0.9510484933853149,-0.14804145693778992,0.1602981686592102,-0.10972714424133301,0.16827453672885895
1.261693129277318,-1.019625339677972,-0.1960437331638108,-0.695468008518219,2.0470402240753174,-0.8035624623298645,-0.25915494561195374,-0.952606737613678,-0.1593070924282074,0.2620389759540558,-0.018462419509887695,0.31258153915405273
1.2626704666865445,-0.9674698860888377,-0.23057311791079102,-0.9344704747200012,1.8390493392944336,-0.4962853789329529,-0.2497309446334839,-0.9529036283493042,-0.17207245528697968,0.31438255310058594,0.05928802490234375,0.2717275619506836
1.2596781011749878,-0.9175297680853833,-0.26447391370437917,-1.0698667764663696,1.6595783233642578,-0.2455073595046997,-0.24309322237968445,-0.951991856098175,-0.18605664372444153,0.2968195080757141,0.08248507976531982,0.19547128677368164
1.2542116799654008,-0.8727528439451695,-0.29493690248650656,-1.0475263595581055,1.503031849861145,-0.08726207166910172,-0.23850449919700623,-0.9503042101860046,-0.20009317994117737,0.2540227770805359,0.09192115068435669,0.06567849218845367
1.2480477010269198,-0.8357161623330606,-0.31855020792311645,-0.8626538515090942,1.4189343452453613,0.040167685598134995,-0.23527273535728455,-0.948367178440094,-0.21271198987960815,0.19407403469085693,0.1146727204322815,-0.07426014542579651
1.2421812381706157,-0.8074374870828447,-0.3335787421809725,-0.6349729895591736,1.3847472667694092,0.156918004155159,-0.23318007588386536,-0.9464902281761169,-0.22312186658382416,0.17959126830101013,0.12657439708709717,-0.1427839696407318
1.2371037061842223,-0.7860424650049802,-0.34146025287897763,-0.4449811279773712,1.3941740989685059,0.19359827041625977,-0.23175053298473358,-0.9448392987251282,-0.2314520925283432,0.14666758477687836,0.1168212890625,-0.1459740847349167
1.2332593550583477,-0.7676899530538892,-0.34621529604192386,-0.33534491062164307,1.3644402027130127,0.11183016002178192,-0.22998493909835815,-0.9435731768608093,-0.23827789723873138,0.05251006782054901,0.09309417009353638,-0.1191592663526535
1.2304104787427868,-0.7487964755760078,-0.35195731393157076,-0.35166817903518677,1.328437089920044,0.0014953655190765858,-0.22727124392986298,-0.9426259398460388,-0.24454835057258606,-0.02283547818660736,0.07760530710220337,-0.06714294850826263
1.2277874418318322,-0.726719537137385,-0.36124740680919804,-0.46094006299972534,1.3335835933685303,-0.10771101713180542,-0.22345972061157227,-0.9417469501495361,-0.25135311484336853,-0.03459683060646057,0.061620116233825684,0.007548093795776367
1.2247925177959382,-0.6999329309331679,-0.37532979588446186,-0.6122514009475708,1.367042064666748,-0.217390775680542,-0.21846340596675873,-0.9407355189323425,-0.2594042122364044,-0.016354084014892578,0.053955674171447754,0.06290146708488464
1.2211616999035817,-0.668385205600457,-0.3940458958306157,-0.7482768893241882,1.4112476110458374,-0.31305286288261414,-0.21228761970996857,-0.9394979476928711,-0.26884469389915466,-0.016334742307662964,0.06628328561782837,0.09071356058120728
1.2169729812976842,-0.6336677200256506,-0.41618858205387016,-0.8279554843902588,1.3449352979660034,-0.38854920864105225,-0.20515629649162292,-0.9380548596382141,-0.27922019362449646,-0.03822129964828491,0.09027659893035889,0.09054529666900635
1.2126288170437771,-0.5989904668472491,-0.43972417817982096,-0.8102782368659973,1.1632912158966064,-0.44252482056617737,-0.19764795899391174,-0.9365407824516296,-0.2895279824733734,-0.028807684779167175,0.11125403642654419,0.06836709380149841
1.208712204932666,-0.5670167018743081,-0.4624801623757451,-0.7127053141593933,0.9658664464950562,-0.4570299983024597,-0.1902601271867752,-0.9351606369018555,-0.29879051446914673,0.005369424819946289,0.1159009337425232,0.041969746351242065
1.205390349460395,-0.5389995817778884,-0.48329723182400935,-0.6367293000221252,0.7346643805503845,-0.4499664902687073,-0.18340864777565002,-0.933978796005249,-0.3066672384738922,0.010084152221679688,0.11265921592712402,0.040538668632507324
1.2021431567983423,-0.5144849318644154,-0.5027846166867097,-0.629148006439209,0.5308297276496887,-0.43200260400772095,-0.17732778191566467,-0.9328135251998901,-0.3137091398239136,-0.021082177758216858,0.10885435342788696,0.059696048498153687
1.1987539503803095,-0.492425990788322,-0.5215573630907816,-0.6132721304893494,0.3836250901222229,-0.43252885341644287,-0.17185886204242706,-0.9315868616104126,-0.32032838463783264,-0.02464376389980316,0.09772467613220215,0.06327882409095764
1.1955445647151808,-0.472286460594636,-0.5397711964347898,-0.560404896736145,0.2541761100292206,-0.44432592391967773,-0.1667325347661972,-0.9304153919219971,-0.3263853192329407,-0.00900287926197052,0.08222514390945435,0.04510483145713806
1.192931077186613,-0.4544870677589822,-0.5568593992525803,-0.46339014172554016,0.12821124494075775,-0.439784437417984,-0.16196393966674805,-0.9294543266296387,-0.33148491382598877,0.027808696031570435,0.08143192529678345,0.03390800952911377
1.1910786421958572,-0.43976850761937497,-0.571955156662086,-0.3516375720500946,0.012558155693113804,-0.4034550189971924,-0.15780024230480194,-0.9287692904472351,-0.33539000153541565,0.057717904448509216,0.08634698390960693,0.03846922516822815
1.189869772479519,-0.4280258110109033,-0.5848531509718577,-0.2744612991809845,-0.04504229128360748,-0.36100128293037415,-0.1543170064687729,-0.928320586681366,-0.3382411003112793,0.04691046476364136,0.08646273612976074,0.0420985221862793
1.1890382897816723,-0.41824278170091933,-0.5958018316270891,-0.20847876369953156,-0.028497755527496338,-0.3141632378101349,-0.15131418406963348,-0.9280111193656921,-0.34043997526168823,0.03408098220825195,0.07820343971252441,0.04292404651641846
1.1886827769938773,-0.4100635156624096,-0.6049130139537878,-0.12759189307689667,-0.031029891222715378,-0.2762078642845154,-0.1486559957265854,-0.9278786182403564,-0.34196847677230835,0.045582935214042664,0.05350440740585327,0.04248419404029846
1.1888812990714537,-0.4039640906627334,-0.6119817295578092,-0.04282985255122185,-0.0616898238658905,-0.2168002873659134,-0.14649510383605957,-0.9279525876045227,-0.34269964694976807,0.08803877234458923,0.03287208080291748,0.043383240699768066
1.1895399973854988,-0.4007955754655193,-0.6162258047663249,0.03880935162305832,-0.09024130553007126,-0.12391137331724167,-0.14516997337341309,-0.9281979203224182,-0.34259912371635437,0.13100989162921906,0.030874431133270264,0.05803796648979187
1.1904952249182146,-0.4011889793261722,-0.6169929644588714,0.1090833768248558,-0.13424335420131683,-0.004160543438047171,-0.14495839178562164,-0.9285529255867004,-0.3417254686355591,0.16217036545276642,0.04352802038192749,0.0832873284816742
1.1914072572324297,-0.40567555292340274,-0.6140187808344849,0.1356358826160431,-0.2167065292596817,0.1367371827363968,-0.14615599811077118,-0.9288910627365112,-0.3402937650680542,0.15999574959278107,0.054760754108428955,0.10451492667198181
1.1916006063578453,-0.41448023230718495,-0.6074200466676213,0.08766759186983109,-0.30603137612342834,0.2940945029258728,-0.14907415211200714,-0.9289626479148865,-0.33882936835289,0.13502085208892822,0.05146026611328125,0.11525756120681763
1.190595114851561,-0.4267799475798653,-0.5976637112992083,0.023922432214021683,-0.3312067687511444,0.44074252247810364,-0.15361671149730682,-0.9285899996757507,-0.33782002329826355,0.1247624009847641,0.027238190174102783,0.10956379771232605
1.1885334602007225,-0.44133948499751735,-0.5855460761031577,-0.016655419021844864,-0.32932594418525696,0.5376731157302856,-0.1593361496925354,-0.9278228878974915,-0.33727794885635376,0.11055387556552887,0.0009584426879882812,0.08166268467903137
1.1859100564745242,-0.4569146373677049,-0.5722785837697992,-0.019932974129915237,-0.32375702261924744,0.5704180002212524,-0.16564306616783142,-0.926841139793396,-0.33693867921829224,0.07859174907207489,-0.016167163848876953,0.04461076855659485
1.1832607975770553,-0.47222191565080784,-0.5593139183431416,-0.023588037118315697,-0.3367437422275543,0.524415135383606,-0.17189742624759674,-0.9258432388305664,-0.33654943108558655,0.023063302040100098,-0.03596395254135132,0.01677095890045166
1.1805945383750824,-0.4854656001835643,-0.5488069484111053,-0.0884394720196724,-0.3574402332305908,0.41889455914497375,-0.17749057710170746,-0.9248323440551758,-0.3364254832267761,-0.040282800793647766,-0.05862700939178467,0.010955482721328735
1.1777479217967768,-0.49478360537867694,-0.5422637075562599,-0.17494162917137146,-0.28657522797584534,0.2847822606563568,-0.18186701834201813,-0.9237458109855652,-0.3370726406574249,-0.09050232172012329,-0.08287644386291504,-0.006585836410522461
1.1748519493110121,-0.49922026450008555,-0.5399289272894009,-0.24124528467655182,-0.16465944051742554,0.14849872887134552,-0.18464063107967377,-0.9226327538490295,-0.3386096656322479,-0.11804789304733276,-0.08974206447601318,-0.04418760538101196
1.1721115749012214,-0.4991119346935728,-0.5411015553230194,-0.2796860933303833,-0.028785694390535355,0.03606399521231651,-0.18581339716911316,-0.9215723872184753,-0.34084823727607727,-0.11150403320789337,-0.08068579435348511,-0.07353469729423523
1.1695356076278485,-0.4953178098282099,-0.5448769089518618,-0.3154795169830322,0.08475738018751144,-0.04071733355522156,-0.18564660847187042,-0.9205693006515503,-0.3436383306980133,-0.09375698864459991,-0.07553958892822266,-0.0834093987941742
1.1666567754645014,-0.48907371645339,-0.5503149334727532,-0.4028147757053375,0.1649072766304016,-0.05546966567635536,-0.1847415566444397,-0.9194411039352417,-0.3471287786960602,-0.08497269451618195,-0.06284332275390625,-0.07550916075706482
1.1627632489013469,-0.48083763945033847,-0.5568153791019465,-0.5199872255325317,0.2919832170009613,-0.03465892747044563,-0.18353086709976196,-0.9179030656814575,-0.351810097694397,-0.05659663677215576,-0.044178783893585205,-0.0597957968711853
1.157847416612294,-0.47060990319634294,-0.563957253289672,-0.6015732884407043,0.4411986768245697,-0.02619917318224907,-0.1819668710231781,-0.9159413576126099,-0.3576861023902893,-0.03705774247646332,-0.045224905014038086,-0.07056710124015808
1.1523955881507115,-0.45881299914146506,-0.5713853481943515,-0.6316928267478943,0.5560283064842224,-0.02055007591843605,-0.17994371056556702,-0.9137398600578308,-0.36427968740463257,-0.01936650276184082,-0.040758371353149414,-0.09339243173599243
1.146832299557784,-0.4463904494286755,-0.5783459726203928,-0.6096028089523315,0.6566015481948853,-0.0037481996696442366,-0.17759646475315094,-0.9114654064178467,-0.3710664212703705,0.011733472347259521,-0.025546252727508545,-0.10168147087097168
1.1414442082191798,-0.43397195482213996,-0.5842927479812183,-0.5699257254600525,0.7333676815032959,0.019107580184936523,-0.17503724992275238,-0.9092356562614441,-0.3776935636997223,0.025257021188735962,-0.012059450149536133,-0.0924450159072876
1.1362444409785035,-0.4217777559060272,-0.5893999836138715,-0.55438631772995,0.7749678492546082,0.020562738180160522,-0.1723519265651703,-0.9070587754249573,-0.3841083347797394,0.009525448083877563,-0.004669070243835449,-0.07034420967102051
1.1310687989998789,-0.4091429236738005,-0.5945319156423786,-0.5668773651123047,0.8208772540092468,-0.002248832955956459,-0.1693505495786667,-0.9048677086830139,-0.39055725932121277,-0.0038824528455734253,-0.01332998275756836,-0.044425129890441895
1.1258121691830887,-0.39568943487808894,-0.6001007450101824,-0.5849303603172302,0.851365327835083,-0.0225217342376709,-0.16591212153434753,-0.9026175141334534,-0.39718374609947205,0.0012393146753311157,-0.017289161682128906,-0.018069028854370117
1.1204779043136799,-0.3820053359764369,-0.6057876002838669,-0.5843346118927002,0.8486083745956421,-0.02601233869791031,-0.16225413978099823,-0.9003085494041443,-0.40387865900993347,0.016029253602027893,-0.007360398769378662,-0.0022645294666290283
1.1151700243919842,-0.3691097389316253,-0.6108563910790358,-0.5591670274734497,0.8117303252220154,0.006031626835465431,-0.15875448286533356,-0.8979856371879578,-0.41038867831230164,0.04287928342819214,0.003057718276977539,0.011310279369354248
1.110004803234168,-0.35804712724616583,-0.6144208186137805,-0.5091062784194946,0.7514174580574036,0.0678771510720253,-0.1558283120393753,-0.8957008123397827,-0.41645845770835876,0.06938733160495758,0.011759161949157715,0.0267641544342041
1.1051045829831587,-0.3497139770860697,-0.6158227698966329,-0.45506545901298523,0.6573741436004639,0.1531609296798706,-0.15385453402996063,-0.893511176109314,-0.421860933303833,0.07739278674125671,0.019731879234313965,0.04069638252258301
1.1002871831177232,-0.3444428124385888,-0.614933355928853,-0.4238968789577484,0.5506939888000488,0.2472221851348877,-0.15308041870594025,-0.8913375735282898,-0.42671269178390503,0.06480836868286133,0.02917027473449707,0.05351322889328003
1.0953830795336328,-0.34169610920701005,-0.6122815972375343,-0.42007818818092346,0.47815316915512085,0.3015572130680084,-0.1533707231283188,-0.8891036510467529,-0.43124499917030334,0.034138575196266174,0.026325881481170654,0.06411844491958618
1.0902600186016107,-0.3397142445935437,-0.6091547345284679,-0.4496099650859833,0.4751099944114685,0.30444222688674927,-0.1540314257144928,-0.8867471218109131,-0.4358367919921875,-0.004247933626174927,0.010236620903015137,0.06634521484375
1.0847956924094793,-0.33706440714122327,-0.6065883672500675,-0.5003741979598999,0.502619743347168,0.27429428696632385,-0.15447625517845154,-0.8842080235481262,-0.44080987572669983,-0.047763675451278687,-0.0012137293815612793,0.06696951389312744
1.0789622473832903,-0.3330705921113379,-0.6053295521348692,-0.5618492960929871,0.5120680928230286,0.21629221737384796,-0.15439826250076294,-0.8814682364463806,-0.44629019498825073,-0.08008350431919098,-0.00802755355834961,0.056168705224990845
1.072788796426115,-0.32748681913170824,-0.6058444044778227,-0.6112852692604065,0.514378547668457,0.1354585886001587,-0.15365134179592133,-0.8785360455513,-0.4522891938686371,-0.1011245995759964,-0.0242653489112854,0.022098153829574585
1.066670635074232,-0.3202325871812506,-0.6081502769482572,-0.6079206466674805,0.5303980112075806,0.03932088240981102,-0.1520555466413498,-0.8755971193313599,-0.45848536491394043,-0.10896125435829163,-0.04009801149368286,-0.03365635871887207
1.0611058094114045,-0.3113048100458713,-0.6119596195213667,-0.5552131533622742,0.5922002792358398,-0.04832911863923073,-0.14944645762443542,-0.8728955388069153,-0.464455783367157,-0.124021515250206,-0.03756594657897949,-0.08627974987030029
1.0563972596179048,-0.3007267237444401,-0.6168251702938219,-0.483908087015152,0.6681139469146729,-0.12070052325725555,-0.14574092626571655,-0.8705885410308838,-0.46993085741996765,-0.11812923848628998,-0.02360689640045166,-0.10241100192070007
1.0524576061470414,-0.2887710888423074,-0.6224981941336551,-0.43390753865242004,0.7342672348022461,-0.18223780393600464,-0.14108794927597046,-0.8686434626579285,-0.4749237596988678,-0.08513878285884857,-0.023766696453094482,-0.0889953076839447
1.0489033147491842,-0.27571784946061184,-0.6287670911267395,-0.42375448346138,0.7779377102851868,-0.21326576173305511,-0.1357164978981018,-0.866877019405365,-0.47969281673431396,-0.05462157726287842,-0.037114620208740234,-0.06368792057037354
1.0452223659593507,-0.2620487696663692,-0.6354108722929988,-0.4660593569278717,0.7990651726722717,-0.2332332283258438,-0.12997280061244965,-0.865036129951477,-0.48458170890808105,-0.040879786014556885,-0.047241032123565674,-0.029029130935668945
1.0408247642115778,-0.24779622128564074,-0.6426369058453333,-0.5707988142967224,0.7967498302459717,-0.2471674233675003,-0.1239851862192154,-0.8628214597702026,-0.4900681972503662,-0.041999876499176025,-0.05166828632354736,0.010286092758178711
1.035239779938755,-0.23326016124127552,-0.6503331934148254,-0.700378954410553,0.7756646275520325,-0.24507145583629608,-0.11796072870492935,-0.8599847555160522,-0.49649927020072937,-0.03816714882850647,-0.03909355401992798,0.04541891813278198
1.0283264504694447,-0.21888343434911564,-0.6581885042476635,-0.8141965866088867,0.7420126795768738,-0.22880646586418152,-0.1120990663766861,-0.8564361929893494,-0.5039353370666504,-0.015937387943267822,-0.02864980697631836,0.05372476577758789
1.0205481008288892,-0.2053490929728887,-0.6656624804853103,-0.854849636554718,0.6792453527450562,-0.199197918176651,-0.10662373155355453,-0.8523947596549988,-0.5119125843048096,-0.0015915334224700928,-0.023642778396606445,0.01902318000793457
1.0127234291704974,-0.1935138372700025,-0.6720943054653113,-0.8016644716262817,0.5862003564834595,-0.15565523505210876,-0.10183731466531754,-0.84827721118927,-0.5196679830551147,0.006454691290855408,-0.01709437370300293,-0.034302353858947754
1.0055619674157479,-0.1837154312523297,-0.677357599467281,-0.7007485628128052,0.4813609719276428,-0.12798777222633362,-0.09784790873527527,-0.8444631099700928,-0.5266002416610718,0.005181312561035156,-0.012867152690887451,-0.07493174076080322
0.9995081431074491,-0.1754392232555697,-0.6817905931840164,-0.5714923143386841,0.4316192865371704,-0.1267768293619156,-0.09437695145606995,-0.8412051200866699,-0.5324162244796753,-0.010328814387321472,-0.013805925846099854,-0.09908407926559448
0.9946847170783746,-0.16769240339756528,-0.6859248728083237,-0.45578524470329285,0.4246721565723419,-0.15010565519332886,-0.09092578291893005,-0.83858722448349,-0.5371255874633789,-0.02627691626548767,-0.014012813568115234,-0.1019277572631836
0.9909004614521236,-0.15983157708836015,-0.6900915904460272,-0.36432379484176636,0.4482499361038208,-0.17245063185691833,-0.0872052013874054,-0.836519718170166,-0.5409528613090515,-0.02772393822669983,-0.013501584529876709,-0.08731251955032349
0.9879051536865479,-0.15178910300102763,-0.6941450108994736,-0.2980208098888397,0.4784029424190521,-0.1696154773235321,-0.08323033899068832,-0.8348747491836548,-0.5441111922264099,-0.011480934917926788,-0.01206439733505249,-0.06677454710006714
0.985347884293984,-0.1439968292451165,-0.6976329775885827,-0.26743146777153015,0.4913032650947571,-0.12889789044857025,-0.0792941004037857,-0.8334643840789795,-0.5468543171882629,0.007898271083831787,-0.005738496780395508,-0.048619985580444336
0.9829533864105803,-0.13699355463652357,-0.7000482241670929,-0.24577708542346954,0.5036985278129578,-0.0679551437497139,-0.07573474198579788,-0.8321388363838196,-0.5493716597557068,0.02457207441329956,0.0074166059494018555,-0.03278172016143799
0.9806584885298606,-0.1309425898575691,-0.7011786717024054,-0.22477033734321594,0.5149000287055969,0.0015834555961191654,-0.07265829294919968,-0.8308640122413635,-0.5517116785049438,0.03586938977241516,0.017387449741363525,-0.017990529537200928
0.9785099851504602,-0.12580424616862218,-0.7011659043375842,-0.20257361233234406,0.5070316195487976,0.05200202018022537,-0.07004629820585251,-0.8296664953231812,-0.5538475513458252,0.03431025147438049,0.021561026573181152,-0.009186506271362305
0.9763934232449675,-0.1217536418448309,-0.7001866502779666,-0.20372995734214783,0.45748138427734375,0.10577443987131119,-0.06801541149616241,-0.8284830451011658,-0.5558683276176453,0.021094687283039093,0.027839243412017822,-0.0005738735198974609
0.9742605761134371,-0.118954824041582,-0.698401042443429,-0.19201770424842834,0.3977124094963074,0.14163286983966827,-0.06666892766952515,-0.8272867202758789,-0.5578098297119141,0.01646757870912552,0.02885538339614868,0.002786695957183838
0.9723473298048574,-0.11714829840469367,-0.6961213629226246,-0.1496145874261856,0.33934709429740906,0.1536112278699875,-0.06584599614143372,-0.8262103796005249,-0.5595002770423889,0.015598870813846588,0.022194385528564453,-0.005410552024841309
0.9710381354624381,-0.11602473087078938,-0.6936954342164906,-0.07562169432640076,0.2832998037338257,0.1450788378715515,-0.0653425008058548,-0.8254721164703369,-0.5606479644775391,0.01717054843902588,0.01893836259841919,-0.014806747436523438
0.9705441391411831,-0.11540471074692804,-0.6914302570913113,0.004141306970268488,0.21163681149482727,0.11503757536411285,-0.06504182517528534,-0.8251931667327881,-0.5610933899879456,0.002816528081893921,0.017316699028015137,-0.01571941375732422
0.9707628390091212,-0.11503512269017066,-0.6898441996365963,0.05845842882990837,0.12158750742673874,0.05786975845694542,-0.06481371074914932,-0.8253167271614075,-0.5609378814697266,-0.0316828116774559,0.013106763362884521,-0.001958787441253662
0.9715133396533845,-0.11469193327263118,-0.6892877257711338,0.09491363912820816,0.04149400815367699,-0.011738348752260208,-0.06455031037330627,-0.8257402777671814,-0.5603447556495667,-0.03710367530584335,0.006389141082763672,0.01301199197769165
0.9726552236046337,-0.11420020693839045,-0.6897301094944311,0.12487207353115082,-0.01665598712861538,-0.05701727047562599,-0.06416726112365723,-0.8263838291168213,-0.5594391822814941,-0.014140807092189789,-0.0009475946426391602,0.019949495792388916
0.974166790580299,-0.11379509984525753,-0.6905814633114805,0.1622130572795868,-0.03704408183693886,-0.06834422796964645,-0.06379871815443039,-0.8272340297698975,-0.5582234859466553,0.011079639196395874,-0.004675090312957764,0.017970800399780273
0.975981743469769,-0.1135080981453944,-0.6913696790483425,0.1827733963727951,-0.03562892600893974,-0.05449377000331879,-0.06346835941076279,-0.8282524347305298,-0.5567492842674255,0.012519299983978271,0.0012871623039245605,0.01655757427215576
0.9777523413590472,-0.11352515704914748,-0.6918381708983189,0.16181378066539764,-0.03899382799863815,-0.036005035042762756,-0.0633116289973259,-0.8292433023452759,-0.5552902221679688,0.013186544179916382,0.013706803321838379,0.02059173583984375
0.979313259871395,-0.11356766814075425,-0.6920125362184633,0.14922603964805603,0.013628427870571613,-0.01827085018157959,-0.06318845599889755,-0.8301146626472473,-0.5540006756782532,0.024187058210372925,0.01082456111907959,0.013320744037628174
0.9808478694079182,-0.11288507274869844,-0.6920038829277815,0.1605290323495865,0.13225653767585754,-0.020479409024119377,-0.06266672909259796,-0.8309693336486816,-0.5527773499488831,0.012678980827331543,-0.003594815731048584,-0.010210931301116943
0.9825866823333417,-0.1107404105976558,-0.6923556288366313,0.17882487177848816,0.2282356321811676,-0.06468252092599869,-0.06132127344608307,-0.8319354057312012,-0.5514734983444214,-0.01704782247543335,-0.012974143028259277,-0.01803034543991089
0.9844873887835792,-0.10720445442618723,-0.6937072859598548,0.17599767446517944,0.24819281697273254,-0.12559939920902252,-0.059201616793870926,-0.8329885601997375,-0.5501137375831604,-0.03900390863418579,-0.012882351875305176,-0.0009421706199645996
0.9862736234802861,-0.10291149675519383,-0.696225144068448,0.14248564839363098,0.18388955295085907,-0.18557678163051605,-0.05668652430176735,-0.8339755535125732,-0.5488819479942322,-0.039596375077962875,-0.014641940593719482,0.029396533966064453
0.9872641010612883,-0.098257593062988,-0.6998687914129786,-0.004187685437500477,0.11850123107433319,-0.2283218502998352,-0.054050419479608536,-0.8345217108726501,-0.548317551612854,-0.009960182011127472,-0.02370893955230713,0.12305504083633423
0.9863603291306932,-0.09475938490419218,-0.7040306716225697,-0.21138742566108704,-0.11435724794864655,-0.19676558673381805,-0.05220329388976097,-0.8340234160423279,-0.5492537617683411,0.030276477336883545,-0.023062705993652344,0.16480857133865356
0.9839308601348357,-0.09368243064690195,-0.7073607184472842,-0.29014644026756287,-0.21127288043498993,-0.12433106452226639,-0.051801130175590515,-0.8326805233955383,-0.5513253808021545,0.013638947159051895,-0.01842409372329712,0.07430511713027954
0.9811637213756421,-0.09396846829782617,-0.7098213409972493,-0.2721416652202606,-0.24333786964416504,-0.09835654497146606,-0.05217484012246132,-0.8311450481414795,-0.5536025166511536,-0.012613922357559204,-0.017808198928833008,-0.006562948226928711
0.9790657528163204,-0.09428476881428571,-0.7120546970596595,-0.15740840137004852,-0.1808936595916748,-0.11247929185628891,-0.05251399427652359,-0.8299766182899475,-0.5553207993507385,-0.04213625192642212,-0.006861090660095215,-0.08989715576171875
0.9784191238883134,-0.09358464097190947,-0.714352269199514,0.008304808288812637,-0.05302795395255089,-0.13732528686523438,-0.05217532441020012,-0.8296157717704773,-0.5558916330337524,-0.0655767023563385,-0.003681957721710205,-0.14738595485687256
0.979408291322436,-0.0912642866269755,-0.7169152771734687,0.1507524996995926,0.09234016388654709,-0.17059482634067535,-0.05081050470471382,-0.8301676511764526,-0.5551937222480774,-0.0713970959186554,-0.004106640815734863,-0.15336346626281738
0.9814322457298973,-0.087555103337263,-0.7197729809540081,0.20693916082382202,0.16022002696990967,-0.17821797728538513,-0.048603806644678116,-0.8312942981719971,-0.553703248500824,-0.06064906343817711,0.002253890037536621,-0.09841156005859375
0.9836752993641822,-0.08395771045236601,-0.7222108191764902,0.19762583076953888,0.1558188796043396,-0.12889596819877625,-0.046455126255750656,-0.8325389623641968,-0.5520150661468506,-0.032493799924850464,0.010059833526611328,-0.051531076431274414
0.9855441301822805,-0.08133071466407953,-0.7236511058614759,0.15897156298160553,0.1264968365430832,-0.061840903013944626,-0.04487834870815277,-0.8335728049278259,-0.55058354139328,-0.0049110352993011475,0.007050037384033203,-0.01516658067703247
0.9868516121810731,-0.0800128157593493,-0.7240509082133175,0.09798837453126907,0.06328192353248596,-0.001136010978370905,-0.04406554624438286,-0.8342943787574768,-0.5495553612709045,0.02532777190208435,-0.004893243312835693,0.008814334869384766
0.9876163346686475,-0.080182624817262,-0.72355804378652,0.0626705065369606,-0.01408545020967722,0.03907492384314537,-0.04410775005817413,-0.834715723991394,-0.5489116907119751,0.027872446924448013,-0.01986795663833618,0.001960456371307373
0.9881253218806043,-0.0814982064184574,-0.7225208821723557,0.05830425024032593,-0.06739794462919235,0.05586322396993637,-0.04479525238275528,-0.8349958658218384,-0.5484296083450317,0.0060074664652347565,-0.025584399700164795,-0.017991840839385986
0.9886445591472144,-0.08317285684233189,-0.7214550467320846,0.06813675910234451,-0.08199308067560196,0.044310614466667175,-0.045677606016397476,-0.835281491279602,-0.547921895980835,-0.015922069549560547,-0.019256412982940674,-0.028433144092559814
0.9892961035214043,-0.08442576072074175,-0.7207982394439421,0.0793856829404831,-0.049408502876758575,0.0073350174352526665,-0.04631814360618591,-0.8356395363807678,-0.547321617603302,-0.03791030868887901,-0.01738762855529785,-0.03194773197174072
0.9900989746888801,-0.08470776982714742,-0.7207988154863122,0.09067494422197342,-0.002153528854250908,-0.025759238749742508,-0.046415723860263824,-0.8360802531242371,-0.5466399788856506,-0.0396590530872345,-0.019006967544555664,-0.034643590450286865
0.9910990201616683,-0.08412946661922623,-0.7211864542185151,0.11047288775444031,0.055451713502407074,-0.034225959330797195,-0.046029314398765564,-0.8366284966468811,-0.5458333492279053,-0.023764312267303467,-0.01777207851409912,-0.03239846229553223
0.9923075126724554,-0.08299049852995392,-0.7215509583576968,0.13120654225349426,0.10828883945941925,-0.02535407990217209,-0.045323751866817474,-0.8372898697853088,-0.5448774695396423,-0.0030465461313724518,-0.013341903686523438,-0.01812613010406494
0.9937217321639967,-0.08166843475251846,-0.7216550709386256,0.143534854054451,0.13012224435806274,-0.00254730018787086,-0.04450669884681702,-0.8380622863769531,-0.5437560081481934,0.01063225045800209,-0.0070456862449646,0.0012908577919006348
0.9950586233187243,-0.08063667209466008,-0.7213504845369465,0.12288504838943481,0.11956809461116791,0.017003484070301056,-0.04385536164045334,-0.8387908935546875,-0.5426844358444214,0.012864802032709122,-0.0013732314109802246,0.017690598964691162
0.9961133616136015,-0.07974840151290351,-0.7209082697342726,0.09286030381917953,0.1337054818868637,0.01290514599531889,-0.04330279678106308,-0.8393646478652954,-0.5418410897254944,0.0007918477058410645,-0.0045989155769348145,0.026170313358306885
0.9968965148513059,-0.07845781801699864,-0.720669307941675,0.0732518881559372,0.1612147092819214,-0.006231931038200855,-0.04255193471908569,-0.8397901058197021,-0.5412409901618958,-0.00781729444861412,-0.006843745708465576,0.03348958492279053
0.9975250735223794,-0.07698156275352369,-0.7206814910945144,0.0661175474524498,0.14029265940189362,-0.02294885739684105,-0.04171228036284447,-0.8401312232017517,-0.5407769083976746,-0.001012265682220459,-0.000292360782623291,0.036351799964904785
0.9980870600924318,-0.0758940668411025,-0.7207147284293003,0.06811092048883438,0.08557282388210297,-0.017322272062301636,-0.04108835384249687,-0.8404358625411987,-0.5403509736061096,0.013714134693145752,0.005230844020843506,0.03577333688735962
0.9986398109485681,-0.07554522462943174,-0.7206351815947484,0.06312920898199081,0.009780855849385262,-0.006641929969191551,-0.040864795446395874,-0.8407353162765503,-0.5399020910263062,0.01986876130104065,0.005362391471862793,0.03620946407318115
0.9991570710150751,-0.07567673165476053,-0.7207195334355068,0.05419129878282547,-0.039819154888391495,-0.017826661467552185,-0.04090290889143944,-0.8410152196884155,-0.5394629836082458,0.011178821325302124,0.0007748007774353027,0.028614044189453125
0.999712813875634,-0.07575653282505593,-0.7211453656270885,0.054453350603580475,-0.04778200387954712,-0.029430586844682693,-0.040910568088293076,-0.8413158059120178,-0.5389934182167053,0.0018175877630710602,0.0026470422744750977,0.021293282508850098
1.0003919460252537,-0.07566306035767027,-0.7217807500992665,0.06793297827243805,-0.04470895975828171,-0.03945586830377579,-0.04081698879599571,-0.8416826725006104,-0.538427472114563,0.004546884447336197,0.012077689170837402,0.02271091938018799
1.0012293762169242,-0.07554462853805036,-0.7224319138383388,0.0739583820104599,-0.04141516238451004,-0.04231717064976692,-0.04070001840591431,-0.8421345949172974,-0.5377293825149536,0.011510014533996582,0.015306651592254639,0.027231335639953613
1.0020398450968,-0.07536789844942578,-0.723060271508664,0.05104329064488411,-0.019427873194217682,-0.046502336859703064,-0.04055356979370117,-0.8425713777542114,-0.5370556116104126,0.005198989063501358,0.0055201053619384766,0.03169983625411987
1.002535819818979,-0.07464788076086422,-0.7239562881183975,0.008126980625092983,0.015916533768177032,-0.05969324707984924,-0.040135711431503296,-0.8428384065628052,-0.536668062210083,-0.006617192178964615,-0.0015830397605895996,0.03732413053512573
1.0026186232293868,-0.07313415945721775,-0.7252949200332955,-0.03881068900227547,0.0509861558675766,-0.06605950742959976,-0.03931819275021553,-0.8428829312324524,-0.536658525466919,-0.004230320453643799,-0.00014984607696533203,0.044532060623168945
1.002243688333269,-0.07133668072952258,-0.7266859281128103,-0.0748312696814537,0.06115996837615967,-0.054717108607292175,-0.03837602585554123,-0.8426811099052429,-0.537043571472168,0.011062830686569214,0.0014336109161376953,0.04426097869873047
1.0014931139192789,-0.06991404398238307,-0.7276325017557744,-0.10451402515172958,0.05540747940540314,-0.03169321268796921,-0.037656135857105255,-0.8422767519950867,-0.5377283096313477,0.021756503731012344,5.27501106262207e-05,0.04390817880630493
1.0003904911026038,-0.06891591534588634,-0.7282975192045623,-0.1368921995162964,0.030598271638154984,-0.02996455505490303,-0.03718332573771477,-0.8416818976402283,-0.5386918783187866,0.0052467286586761475,-0.006248950958251953,0.03934800624847412
0.9990128999336627,-0.06787061576260299,-0.7293123032812263,-0.15441469848155975,0.011512747965753078,-0.06168394908308983,-0.03669881820678711,-0.8409372568130493,-0.5398867726325989,-0.015776097774505615,-0.013524413108825684,0.022690117359161377
0.9976272409191074,-0.06636371137451422,-0.7309463367926411,-0.14980049431324005,0.011137242428958416,-0.09003916382789612,-0.035962458699941635,-0.840186595916748,-0.541103720664978,-0.02177673578262329,-0.016182363033294678,0.0026515722274780273
0.9964830299707621,-0.06461380424485628,-0.7328978311868487,-0.1294390708208084,0.010413157753646374,-0.10100463032722473,-0.03507757931947708,-0.8395655751228333,-0.54212486743927,-0.01256030797958374,-0.013431251049041748,-0.01152503490447998
0.9956759838184406,-0.06321891275020142,-0.7346060180063647,-0.10085429251194,-0.00721110962331295,-0.08965689688920975,-0.03436411917209625,-0.8391268253326416,-0.542849063873291,-0.002409517765045166,-0.007278084754943848,-0.020871639251708984
0.9951301815730216,-0.06216509872088497,-0.7360691955815205,-0.07110032439231873,-0.0163667444139719,-0.07260750234127045,-0.0338204950094223,-0.8388298153877258,-0.543342113494873,0.0013803541660308838,-0.0051642656326293945,-0.03447771072387695
0.9948732681887105,-0.061262170304069254,-0.7373672149662268,-0.025835905224084854,-0.020529797300696373,-0.06166962906718254,-0.03334306553006172,-0.8386899828910828,-0.5435873866081238,0.002169400453567505,-0.005120992660522461,-0.04494410753250122
0.9949713625967398,-0.060493527534733645,-0.7384922737462088,0.00931050255894661,-0.019255250692367554,-0.052664611488580704,-0.03292026370763779,-0.8387433886528015,-0.5435308218002319,0.0011667907238006592,-0.006944477558135986,-0.049883484840393066
0.9953419658104536,-0.059860027649915035,-0.7393816918442827,0.037360779941082,-0.0023308610543608665,-0.05011063814163208,-0.03255733475089073,-0.8389450907707214,-0.5432413220405579,-0.007939457893371582,-0.008314371109008789,-0.055742502212524414
0.995954213577976,-0.059101308190499593,-0.7402165889084642,0.06640924513339996,0.02119925618171692,-0.053292397409677505,-0.03211481124162674,-0.8392781615257263,-0.5427529811859131,-0.012242436408996582,-0.008255958557128906,-0.059358835220336914
0.9968395995687033,-0.05810899156424772,-0.7410658965999324,0.09568990021944046,0.035804830491542816,-0.055216796696186066,-0.031533047556877136,-0.8397592306137085,-0.54204261302948,-0.0031043589115142822,-0.006813645362854004,-0.05747520923614502
0.9978977308809887,-0.05706712402139543,-0.7419017389461346,0.109676294028759,0.03407564014196396,-0.05300823971629143,-0.030917594209313393,-0.8403332829475403,-0.5411876440048218,-0.003048418089747429,-0.007689118385314941,-0.05259281396865845
0.999023191968523,-0.055872469210077436,-0.742830230859525,0.11579383909702301,0.04968016594648361,-0.06275700032711029,-0.03021819517016411,-0.8409428000450134,-0.5402793884277344,-0.013971207663416862,-0.010558545589447021,-0.05206674337387085
1.0002507335196433,-0.05431741358153491,-0.7440264171011284,0.13679127395153046,0.058118581771850586,-0.07928682863712311,-0.029321936890482903,-0.8416064381599426,-0.5392947196960449,-0.01459282636642456,-0.010200202465057373,-0.05561494827270508
1.0017251643350698,-0.05263896256151569,-0.7453524934288426,0.17321479320526123,0.04976876825094223,-0.07735071331262589,-0.02835139073431492,-0.8424018621444702,-0.5381032824516296,0.0007177889347076416,-0.005528807640075684,-0.05293077230453491
1.0035154540435307,-0.05133128625027205,-0.7464229883631366,0.20155209302902222,0.030017785727977753,-0.05989605933427811,-0.02757028304040432,-0.8433651924133301,-0.5366330146789551,0.01164013147354126,-0.0039400458335876465,-0.03747892379760742
1.0054631934060325,-0.05025834736617472,-0.7473959071152355,0.20158511400222778,0.023234713822603226,-0.06974096596240997,-0.026911918073892593,-0.8444101810455322,-0.535020649433136,-0.00041654519736766815,-0.011180579662322998,-0.01841557025909424
1.0073261740168447,-0.048860778102716745,-0.7487120546941036,0.18644769489765167,0.03989548236131668,-0.09581135213375092,-0.026087289676070213,-0.845406711101532,-0.5334857106208801,-0.01665252447128296,-0.011435270309448242,-0.0026013851165771484
