attitudeX,attitudeY,attitudeZ,gyroX,gyroY,gyroZ,gravityX,gravityY,gravityZ,accX,accY,accZ
1.1725546728686014,-0.05611454471431005,-0.8657103207283614,0.22795872390270233,-0.27783769369125366,-0.14384162425994873,-0.021749695762991905,-0.9217442870140076,-0.3871877193450928,-0.06458449363708496,-0.04102414846420288,-0.071644127368927
1.174869901234441,-0.05701233255430734,-0.867986819234257,0.2194051742553711,-0.32385098934173584,-0.05079396441578865,-0.02197563834488392,-0.9226396679878235,-0.3850363790988922,-0.03907474875450134,-0.02152836322784424,-0.050876736640930176
1.1770101385052727,-0.061296733466996725,-0.8672371471275173,0.20965903997421265,-0.39921092987060547,0.084352508187294,-0.023504065349698067,-0.923462986946106,-0.38296693563461304,-0.011453777551651001,-0.010435879230499268,-0.03387272357940674
1.1790651452896466,-0.06986630478903838,-0.8629359053166766,0.2239232063293457,-0.520748496055603,0.21576538681983948,-0.026652498170733452,-0.9242494702339172,-0.3808576464653015,-0.004063401371240616,-0.007955729961395264,-0.04428279399871826
1.1813833489937642,-0.08269934772483353,-0.8554932251949107,0.2886630594730377,-0.6661545634269714,0.30562591552734375,-0.031360648572444916,-0.9251320958137512,-0.37834790349006653,-0.0107535719871521,-0.014229416847229004,-0.06891775131225586
1.1845708825383718,-0.09856158583888039,-0.8461978328688032,0.41354429721832275,-0.7722216248512268,0.3263205587863922,-0.03706751763820648,-0.926337480545044,-0.37486621737480164,-0.032985538244247437,-0.022774338722229004,-0.10017043352127075
1.1892025194692457,-0.11533576075940492,-0.8365655525947571,0.5855964422225952,-0.7828053832054138,0.2814127802848816,-0.04285585880279541,-0.9280722737312317,-0.36992570757865906,-0.060674991458654404,-0.021619319915771484,-0.13027265667915344
1.1956603459450876,-0.130871934409865,-0.8279856196802134,0.7673768401145935,-0.7222464084625244,0.17990322411060333,-0.047814566642045975,-0.9304578304290771,-0.36326560378074646,-0.08095431327819824,-0.01651787757873535,-0.14471471309661865
1.2038402990995334,-0.14363448576768081,-0.8216841945593878,0.9028670787811279,-0.6516819596290588,0.04774624854326248,-0.05135556310415268,-0.9334237575531006,-0.3550812005996704,-0.09335872530937195,-0.014467418193817139,-0.12221372127532959
1.213190394534392,-0.1530634778324918,-0.8182221185933916,0.971082329750061,-0.5856563448905945,-0.0775299072265625,-0.05336826294660568,-0.9367375373840332,-0.34594035148620605,-0.08826377987861633,-0.017516613006591797,-0.08254176378250122
1.2230894439128297,-0.15955057534431255,-0.8173323843258887,0.9761004447937012,-0.5474454164505005,-0.16221751272678375,-0.054135311394929886,-0.9401565194129944,-0.33641475439071655,-0.07254311442375183,-0.012769997119903564,-0.04951059818267822
1.2329246168521328,-0.16426041209121353,-0.8180505598744879,0.9482960104942322,-0.5275114178657532,-0.1948297768831253,-0.05420446768403053,-0.9434623122215271,-0.32701781392097473,-0.04752582311630249,-0.000125885009765625,-0.016991615295410156
1.2424909204050787,-0.1684698323142089,-0.8192368977263715,0.9185382127761841,-0.5411962270736694,-0.19274450838565826,-0.054064664989709854,-0.9465901255607605,-0.31787416338920593,-0.01694967970252037,0.013698399066925049,0.00018611550331115723
1.2517372276695256,-0.17327193892773995,-0.8200472721558771,0.8923108577728271,-0.5725544095039368,-0.1669166386127472,-0.05407913774251938,-0.9495309591293335,-0.30897584557533264,0.0011922456324100494,0.022819101810455322,0.008362442255020142
1.2607296659188598,-0.17977836203994188,-0.8193709652993579,0.8826649188995361,-0.5943717360496521,-0.10400402545928955,-0.054559312760829926,-0.952313244342804,-0.30020439624786377,0.01984560489654541,0.03403937816619873,0.002612173557281494
1.2696542218589293,-0.1888903390450784,-0.8160681567483258,0.9077407121658325,-0.5888131856918335,-0.02481972426176071,-0.05569439008831978,-0.9549983739852905,-0.2913353145122528,0.04031357169151306,0.0398373007774353,-0.017044901847839355
1.2787974213266848,-0.20101223005956784,-0.8093319262127783,0.9590811133384705,-0.5402246713638306,0.05635359138250351,-0.05747590586543083,-0.9576703906059265,-0.2820708453655243,0.05469885468482971,0.03414750099182129,-0.039050400257110596
1.2883383873236247,-0.21591303852029475,-0.7991014694852047,1.0218119621276855,-0.47634339332580566,0.11025544255971909,-0.05971210077404976,-0.9603732824325562,-0.27224528789520264,0.07671043276786804,0.03346294164657593,-0.049593061208724976
1.2982950157175521,-0.2327973220601564,-0.7861604736986813,1.0731308460235596,-0.40574246644973755,0.131997749209404,-0.06209085136651993,-0.9631007313728333,-0.26188066601753235,0.1011839210987091,0.0339626669883728,-0.05068036913871765
1.3087075312233654,-0.2507719819280434,-0.7714361189245781,1.127263069152832,-0.35644522309303284,0.11996426433324814,-0.06429573148488998,-0.9658508896827698,-0.2509940266609192,0.11715221405029297,0.03007519245147705,-0.027204275131225586
1.3195579785668514,-0.2698648739540103,-0.7554896010781064,1.170749306678772,-0.38366562128067017,0.10573217272758484,-0.06627793610095978,-0.9686052799224854,-0.23960557579994202,0.14032891392707825,0.012565970420837402,0.022701874375343323
1.3307499610522746,-0.29146221078342044,-0.7377636427028426,1.2137385606765747,-0.5032439231872559,0.10515692830085754,-0.0683174878358841,-0.9713269472122192,-0.2277204692363739,0.18869411945343018,-0.012483358383178711,0.06620615720748901
1.3423609442497049,-0.3177628896336783,-0.716715837571835,1.2970044612884521,-0.661556601524353,0.1301553100347519,-0.07075358927249908,-0.9740219116210938,-0.21511635184288025,0.24246078729629517,-0.0462721586227417,0.09557898342609406
1.3549230068167402,-0.3513816541572074,-0.6899115589669412,1.4706108570098877,-0.8283442854881287,0.1590370237827301,-0.07372680306434631,-0.9767897129058838,-0.20111238956451416,0.2885553538799286,-0.09236305952072144,0.10888826847076416
1.3692324124126438,-0.3961920383117598,-0.6533784721894467,1.7487118244171143,-0.9784764051437378,0.2062157392501831,-0.07725950330495834,-0.9797546863555908,-0.1846936047077179,0.3517499268054962,-0.1417204737663269,0.11277890205383301
1.3859703480554977,-0.458789002225764,-0.600140282457536,2.149336338043213,-1.074766993522644,0.26478931307792664,-0.08138732612133026,-0.982968270778656,-0.1647712141275406,0.46998295187950134,-0.20628654956817627,0.1094733327627182
1.405848263522977,-0.5494695889509468,-0.5191935458663713,2.68904972076416,-1.1080069541931152,0.2695065140724182,-0.08575142174959183,-0.9864268898963928,-0.14003074169158936,0.620266854763031,-0.2906574010848999,0.11102378368377686
1.4289711701620595,-0.6864919352003064,-0.39216947161144416,3.3069097995758057,-1.188368797302246,0.21227703988552094,-0.0895918756723404,-0.9899596571922302,-0.10933099687099457,0.7691420912742615,-0.36772167682647705,0.1262681931257248
1.4533174708181797,-0.9078022049677988,-0.18146514717674922,3.9449679851531982,-1.2624740600585938,0.11298481374979019,-0.09237755089998245,-0.9931073188781738,-0.07213889062404633,0.9496316313743591,-0.4194291830062866,0.18015581369400024
1.4731421515357543,-1.2735838846160372,0.173412934350704,4.542067050933838,-1.323649525642395,-0.08685906231403351,-0.09322391450405121,-0.9952356219291687,-0.02855304814875126,1.1767810583114624,-0.467242956161499,0.3381538391113281
1.4770635694222758,-1.7904733405904825,0.677829114858015,4.952198505401611,-1.6510701179504395,-0.2892097234725952,-0.09134408831596375,-0.9956102967262268,0.02039533667266369,1.3937275409698486,-0.4656168818473816,0.6459559202194214
1.457225487642907,-2.2633942911510987,1.1332989883737317,5.071824550628662,-2.332444429397583,-0.31989359855651855,-0.08721435070037842,-0.9935577511787415,0.07236289232969284,1.697352409362793,-0.3660306930541992,1.041971206665039
1.4207591131813844,-2.559591306117095,1.4035575942880796,4.9870805740356445,-3.3341212272644043,-0.096161849796772,-0.08216611295938492,-0.9887655377388,0.12486632168292999,2.0935492515563965,-0.19211220741271973,1.3817559480667114
1.376822465606278,-2.729166943100481,1.5348487516920442,4.835587501525879,-4.700501918792725,0.3684747815132141,-0.07726386189460754,-0.9812459945678711,0.1765957623720169,2.41127872467041,0.013808488845825195,1.5728700160980225
1.329193502653678,-2.832014456122657,1.5847060201630934,4.841701030731201,-6.068775177001953,0.9934393167495728,-0.07289188355207443,-0.9709557294845581,0.22788506746292114,2.58259654045105,0.2457054853439331,1.5421648025512695
1.2774087406889651,-2.9016144342546473,1.5878269828065652,5.192493438720703,-7.150630474090576,1.6555815935134888,-0.06873656064271927,-0.9572696685791016,0.2809087038040161,2.6010851860046387,0.5327245593070984,1.2680261135101318
1.218714672813644,-2.953971834230802,1.5628835444455644,5.977877140045166,-8.048917770385742,2.381211757659912,-0.0643225684762001,-0.9386568665504456,0.3388005495071411,2.495368242263794,0.8190890550613403,0.8859765529632568
1.149087323626373,-2.9995890129551435,1.521196401443534,7.169626712799072,-8.516912460327148,2.9840359687805176,-0.05792977660894394,-0.9123907685279846,0.40519994497299194,2.3446576595306396,1.0578529834747314,0.4745607078075409
1.0689654387493517,-3.0339912124903656,1.4665415186087487,8.049121856689453,-8.043633460998535,3.8723304271698,-0.05165979266166687,-0.8767033219337463,0.47824886441230774,2.0184109210968018,1.4906713962554932,0.15422764420509338
0.9810267742579756,-3.0506068860971975,1.3951701345233705,8.619790077209473,-7.40359354019165,5.254571437835693,-0.050533682107925415,-0.8310688734054565,0.5538685917854309,1.5952420234680176,1.9595022201538086,0.1283363699913025
0.888822175111965,-3.0519664903512265,1.3080718933695512,8.695436477661133,-6.80776834487915,6.6636199951171875,-0.05641815811395645,-0.7763298749923706,0.6277967095375061,0.9713504314422607,2.129754066467285,0.26133275032043457
0.7973134889263923,-3.046399082369675,1.2136596802575264,8.239790916442871,-6.098837375640869,7.374425888061523,-0.066404789686203,-0.7154818177223206,0.6954680681228638,-0.22831866145133972,2.03637433052063,0.5534483790397644
0.7131057804757158,-3.041814531323244,1.1240412926046608,7.093672275543213,-5.193799018859863,7.073337078094482,-0.07534042000770569,-0.654185950756073,0.7525720596313477,-1.6574170589447021,1.8071551322937012,0.9128026366233826
0.644826697232704,-3.0415867839160167,1.048826250370973,5.22076416015625,-4.169804096221924,5.811047554016113,-0.07979194074869156,-0.6010599136352539,0.7952108979225159,-2.949810028076172,1.4764719009399414,1.293961524963379
0.5962297682683787,-3.044595304040832,0.9913099995362635,3.6527585983276367,-3.058342933654785,4.51387882232666,-0.08013547211885452,-0.5615267753601074,0.8235688805580139,-3.7745702266693115,1.3406405448913574,1.2980282306671143
0.5564333704734965,-3.043839460482767,0.944599643950459,3.7070300579071045,-1.892892837524414,4.134802341461182,-0.08287441730499268,-0.5281609892845154,0.8450902700424194,-4.202068328857422,1.3922356367111206,0.6176323890686035
0.5086873384296157,-3.036304117397567,0.9016589481228907,5.122308254241943,-0.9864212870597839,4.13059139251709,-0.09178755432367325,-0.4870312213897705,0.868547797203064,-4.325601100921631,1.014237642288208,-0.09108221530914307
0.4449575381158186,-3.0267174880465393,0.8654980008935145,6.758347988128662,-0.4946180582046509,3.5173075199127197,-0.10346174985170364,-0.43041956424713135,0.8966798186302185,-4.5569539070129395,0.3475642502307892,-0.16224384307861328
0.36898985155952024,-3.0232780560832433,0.8441316287268434,7.698754787445068,-0.5944535136222839,2.026236057281494,-0.11009380966424942,-0.3606734573841095,0.926171600818634,-4.774229049682617,-0.2498459815979004,0.37567758560180664
0.29180565226143457,-3.0322601642783513,0.8429913291273522,7.366863250732422,-1.390905499458313,-0.10610740631818771,-0.10450207442045212,-0.28768202662467957,0.952007532119751,-4.630773067474365,-0.6489940881729126,1.0127445459365845
0.22879118428070613,-3.057668257993016,0.8626508930375123,5.261050224304199,-2.6990742683410645,-2.4293806552886963,-0.08164148777723312,-0.2268003672361374,0.970513105392456,-4.1070942878723145,-0.6431184411048889,1.5371007919311523
0.19495111893521902,-3.095600171738144,0.8998999461239401,1.8822557926177979,-3.1097161769866943,-4.224146366119385,-0.04510534182190895,-0.1937185823917389,0.9800195693969727,-3.2813258171081543,-0.2258371114730835,1.9622868299484253
0.1926959592234887,-3.13122238602232,0.9460049695763477,-1.0593348741531372,-2.13124418258667,-4.578886985778809,-0.010178145952522755,-0.19150565564632416,0.9814386367797852,-2.584960460662842,0.4852373003959656,1.7614506483078003
0.21288642258159143,3.1288811562048875,0.9891799690723873,-2.826394557952881,-0.7259924411773682,-3.7426440715789795,0.012424204498529434,-0.21128204464912415,0.9773463010787964,-1.931705117225647,0.9556209444999695,0.9437048435211182
0.24455771885568556,3.12129914421192,1.0226128331338726,-3.47452449798584,0.6829589009284973,-2.6630823612213135,0.019688311964273453,-0.2421272248029709,0.9700446128845215,-1.3596693277359009,1.0500495433807373,0.13806378841400146
0.2786822993440318,3.1268734600552945,1.047081056665711,-3.3397181034088135,1.6170828342437744,-1.9953973293304443,0.014150800183415413,-0.2750890254974365,0.9613147377967834,-1.1769925355911255,1.0242040157318115,-0.34917783737182617
0.3094304798739107,3.1396895577205908,1.067378477887528,-2.788012742996216,2.0447659492492676,-1.8892090320587158,0.0018127108924090862,-0.3045162260532379,0.9525051712989807,-1.1260344982147217,1.0371211767196655,-0.4934600591659546
0.3339576592197706,-3.130047610727876,1.0883600905131408,-2.0682950019836426,1.8789865970611572,-2.1230177879333496,-0.010906960815191269,-0.32778459787368774,0.944689154624939,-0.9900543093681335,0.9944411516189575,-0.4800441265106201
0.351346874816481,-3.1222925545246984,1.112116883420551,-1.3302841186523438,1.219763994216919,-2.3760666847229004,-0.018119925633072853,-0.3441627025604248,0.9387348890304565,-0.7504957318305969,0.8791053295135498,-0.38304054737091064
0.3621490337714251,-3.122992957911719,1.1378087392271943,-0.7592259645462036,0.43559515476226807,-2.427086591720581,-0.017392273992300034,-0.35428470373153687,0.9349759221076965,-0.4107540547847748,0.7583221197128296,-0.30336880683898926
0.36840781404289424,-3.13054104808279,1.1628172045349188,-0.44411614537239075,-0.12061909586191177,-2.2201032638549805,-0.010309850797057152,-0.36013054847717285,0.9328446388244629,-0.04836013913154602,0.6367571353912354,-0.24748116731643677
0.37231145324841064,-3.140948101909334,1.184866914074244,-0.3222823739051819,-0.31756091117858887,-1.8745633363723755,-0.0006003925809636712,-0.3637695014476776,0.9314885139465332,0.2122093290090561,0.503173828125,-0.2647712826728821
0.37532162920068046,3.132646636429548,1.203461465523617,-0.28680989146232605,-0.2093101143836975,-1.5851672887802124,0.008323168382048607,-0.3665717840194702,0.9303521513938904,0.3462453782558441,0.3666480779647827,-0.3304532766342163
0.3778922902059887,3.12620207169515,1.2196455347425195,-0.27820974588394165,0.13744331896305084,-1.416321873664856,0.01430412195622921,-0.36896228790283203,0.9293340444564819,0.40207773447036743,0.2607317268848419,-0.38558733463287354
0.38025336841590507,3.1243311734870547,1.2346945695240443,-0.21416756510734558,0.5904255509376526,-1.379406213760376,0.016027705743908882,-0.3711557388305664,0.9284322261810303,0.48005083203315735,0.1508188247680664,-0.3880423307418823
0.3814749819232926,3.1263893644551035,1.2500471083899927,-0.07722090184688568,0.9405488967895508,-1.4733513593673706,0.014109880663454533,-0.37228983640670776,0.9280093312263489,0.5354354381561279,0.0424557626247406,-0.3705751895904541
0.38191583366255416,3.130890846137765,1.2672452620833257,-0.09103835374116898,1.230366826057434,-1.7038636207580566,0.009930574335157871,-0.37269896268844604,0.9278989434242249,0.612917959690094,-0.031246930360794067,-0.22631531953811646
0.38351228351971883,3.1372550782930433,1.2863398951251541,-0.25145813822746277,1.4220560789108276,-1.8128029108047485,0.004022464156150818,-0.3741798996925354,0.9273473024368286,0.8405820727348328,-0.08240881562232971,0.002950429916381836
0.38659141625657534,-3.1391972318380974,1.3061788846713291,-0.3605806827545166,1.3835504055023193,-1.826147437095642,-0.002218636218458414,-0.3770335912704468,0.926196813583374,1.0871796607971191,-0.08767282962799072,0.12072384357452393
0.3909598526562359,-3.132632328352496,1.3248094994761332,-0.4991590976715088,1.3189873695373535,-1.596131443977356,-0.008284097537398338,-0.38107600808143616,0.9245061874389648,1.3087449073791504,-0.05016779899597168,0.19101768732070923
0.3970697035785511,-3.1259444288701363,1.3408734639842623,-0.6768568754196167,1.2441704273223877,-1.3965644836425781,-0.014430168084800243,-0.38671770691871643,0.9220848083496094,1.440821886062622,-0.058228522539138794,0.2656436562538147
0.40486844420631357,-3.119190723736563,1.3555273875970164,-0.81894451379776,1.250273585319519,-1.3423670530319214,-0.02058909833431244,-0.3938978314399719,0.9189231991767883,1.4509785175323486,-0.04706582427024841,0.304800808429718
0.41393662603567083,-3.1119826806906925,1.3701358813713438,-0.9120126962661743,1.3489245176315308,-1.3830162286758423,-0.02710527554154396,-0.4022165834903717,0.915142834186554,1.444753646850586,0.012400388717651367,0.3052242398262024
0.4238586812533763,-3.1035216964777876,1.3853042903110184,-0.9636505842208862,1.5932223796844482,-1.4433752298355103,-0.03469361737370491,-0.41128072142601013,0.9108480215072632,1.451807975769043,0.0756484866142273,0.2871650457382202
0.4342011030245012,-3.092115685829681,1.401312918190581,-0.9606072306632996,2.021364688873291,-1.558677077293396,-0.04486749693751335,-0.4206857681274414,0.9060959219932556,1.4367437362670898,0.14141947031021118,0.250931978225708
0.4443117717905744,-3.0769681782790714,1.4191706032468594,-0.8520570397377014,2.507035255432129,-1.784029245376587,-0.058309249579906464,-0.42983657121658325,0.9010217189788818,1.3888452053070068,0.1942715048789978,0.20757484436035156
0.45300311500842433,-3.0587939467832257,1.4398002306047386,-0.5812046527862549,2.8797378540039062,-2.0269834995269775,-0.07436231523752213,-0.43766772747039795,0.8960563540458679,1.3622347116470337,0.21508777141571045,0.17726194858551025
0.4589786249249035,-3.038970225888301,1.4619118790468972,-0.24872305989265442,2.9565534591674805,-1.9677447080612183,-0.09184016287326813,-0.4430326819419861,0.8917888402938843,1.479703426361084,0.21776717901229858,0.22368955612182617
0.46243798607517345,-3.0196637752960824,1.481202067883021,-0.0736452043056488,2.5433764457702637,-1.4890120029449463,-0.10885218530893326,-0.4461313486099243,0.8883230090141296,1.7091635465621948,0.2189432978630066,0.3985268473625183
0.4643670366530812,-3.0036170096585764,1.4937042682516393,-0.030011970549821854,1.7243692874908447,-0.7504358887672424,-0.12297367304563522,-0.44785696268081665,0.885607898235321,1.8641998767852783,0.18770989775657654,0.5762449502944946
0.4651605909193292,-2.9930161098167245,1.497566960304761,-0.019605716690421104,0.7367191314697266,0.03934525325894356,-0.1323021799325943,-0.44856634736061096,0.8839027881622314,1.8638238906860352,0.14059823751449585,0.656014084815979
0.4644614541672555,-2.987974224478463,1.4935199764530915,0.05968351662158966,-0.05814792588353157,0.6647984385490417,-0.1368049830198288,-0.4479413628578186,0.88353431224823,1.7069649696350098,0.08826115727424622,0.5929518938064575
0.4617770265115774,-2.98746574123834,1.4842850476748033,0.22660358250141144,-0.6271771788597107,1.0133378505706787,-0.13743829727172852,-0.4455397129058838,0.884649395942688,1.463152527809143,0.03158411383628845,0.46218258142471313
0.45678063167627475,-2.989774519425454,1.472796668094389,0.4463364779949188,-0.8058174848556519,1.1458338499069214,-0.13573044538497925,-0.4410610795021057,0.8871538043022156,1.233417272567749,0.012228190898895264,0.3255534768104553
0.4495331073127624,-2.9925012602833863,1.4608321128353112,0.6599677801132202,-0.7576403021812439,1.1855218410491943,-0.1337822824716568,-0.4345450699329376,0.8906588554382324,1.1182488203048706,0.027104824781417847,0.19909346103668213
0.44030965218296275,-2.9939168143064174,1.4487911584303501,0.8286132216453552,-0.5381247401237488,1.231877088546753,-0.13310544192790985,-0.4262196123600006,0.8947736024856567,1.1123230457305908,0.023753762245178223,0.14279353618621826
0.4298368801007835,-2.9923498620210416,1.436329967856305,0.888655424118042,-0.1838689148426056,1.3117305040359497,-0.13516360521316528,-0.41672253608703613,0.8989284634590149,1.2226117849349976,0.006779998540878296,0.15142512321472168
0.41933536654078035,-2.986457440933539,1.4226223141697925,0.7819393873214722,0.2397654503583908,1.483331561088562,-0.14112654328346252,-0.40715348720550537,0.9023905992507935,1.4130229949951172,0.017215222120285034,0.23896652460098267
0.41029170260875586,-2.9753708202973086,1.4060798490737108,0.4895941913127899,0.624265730381012,1.8088040351867676,-0.15172520279884338,-0.3988768458366394,0.9043651819229126,1.6966471672058105,0.04887077212333679,0.3573686480522156
0.40399171290813785,-2.959546039803575,1.3843978153743768,0.041578590869903564,0.7871513366699219,2.342790126800537,-0.16646863520145416,-0.3930918276309967,0.9043045043945312,2.0501508712768555,0.11254379153251648,0.4829023480415344
0.40115719677240985,-2.9410176005680295,1.3551141868481638,-0.5183548927307129,0.5641706585884094,3.053121328353882,-0.18341565132141113,-0.39048391580581665,0.9021531343460083,2.4055533409118652,0.2092248797416687,0.6079020500183105
0.4018947559335979,-2.923430074570643,1.3165780064847319,-1.0893131494522095,-0.12214727699756622,3.8350863456726074,-0.19919084012508392,-0.39116284251213074,0.8985069990158081,2.6067683696746826,0.3508490324020386,0.687506914138794
0.40535229807142015,-2.9114301214354334,1.2683843827299381,-1.5231797695159912,-1.3068913221359253,4.62882137298584,-0.20964846014976501,-0.3943425416946411,0.8947298526763916,2.589439868927002,0.5387974381446838,0.6797025203704834
0.4095503828465054,-2.9094056294380803,1.2108731405249455,-1.6662949323654175,-2.8771612644195557,5.414678573608398,-0.21107660233974457,-0.3981969356536865,0.8926846385002136,2.3294239044189453,0.782947301864624,0.5458376407623291
0.4118969189258307,-2.9211714040781223,1.1459327852008374,-1.40132474899292,-4.6358962059021,5.998825550079346,-0.20035429298877716,-0.4003483057022095,0.8941921591758728,1.7517459392547607,1.0390658378601074,0.311710000038147
0.4097212000506354,-2.9485997681021763,1.078530794161124,-0.6583483219146729,-6.140865325927734,6.063716888427734,-0.17592234909534454,-0.39835360646247864,0.9002028703689575,0.8550910949707031,1.2392197847366333,0.014454424381256104
0.4008501311096124,-2.989660972084453,1.0152672862529393,0.4345761835575104,-6.895107269287109,5.604495525360107,-0.13935041427612305,-0.390201210975647,0.9101231098175049,-0.20620004832744598,1.412265419960022,-0.3380865454673767
0.3836760872245235,-3.0370215497056603,0.9603054777279032,1.6654393672943115,-6.580217361450195,4.8494157791137695,-0.09679160267114639,-0.3743318021297455,0.9222293496131897,-1.4605814218521118,1.6916840076446533,-0.601260781288147
0.35754990309707246,-3.0795063092651453,0.9143995291549638,2.8007311820983887,-5.021545886993408,4.113986492156982,-0.05812244862318039,-0.3499801456928253,0.9349519610404968,-2.7010176181793213,2.012272596359253,-0.6833806037902832
0.32319727839652024,-3.104448524968101,0.8744670935067732,3.634281873703003,-2.5694925785064697,3.7735159397125244,-0.035212885588407516,-0.31759992241859436,0.94757080078125,-3.368809223175049,2.09755277633667,-0.6008453369140625
0.2824871641351114,-3.1073422792425798,0.8353796285392634,4.202260971069336,-0.41299527883529663,3.9994568824768066,-0.032886430621147156,-0.2787450850009918,0.9598017930984497,-3.584911346435547,1.851575255393982,-0.35933804512023926
0.23641302231081454,-3.0940503189038897,0.7935093805023915,4.621984481811523,0.7682521939277649,4.411635875701904,-0.046202514320611954,-0.23421694338321686,0.9710860252380371,-3.736405611038208,1.5499058961868286,0.09098684787750244
0.18675452103083096,-3.0767041302139604,0.7511818881455138,4.752989768981934,0.8135340809822083,4.2684006690979,-0.06371549516916275,-0.18567083775997162,0.9805439114570618,-4.074758052825928,1.0598621368408203,0.7272958755493164
0.13783089185723374,-3.065214581472595,0.716735052640186,4.422729015350342,0.3112559914588928,3.02946400642395,-0.0755801796913147,-0.13739490509033203,0.9876284003257751,-4.305325031280518,0.34314441680908203,1.3011744022369385
0.09672731206554927,-3.0643406717095156,0.7001893448887225,3.391230821609497,-0.5627447962760925,0.7840313911437988,-0.07681439816951752,-0.09657654911279678,0.9923568367958069,-4.261747360229492,-0.3198053240776062,1.6322615146636963
0.07188108287211345,-3.0751911537549077,0.7064887173834238,1.5342414379119873,-1.4613137245178223,-1.6304752826690674,-0.06618136912584305,-0.07181920111179352,0.9952195882797241,-3.8216359615325928,-0.5792123675346375,1.7446027994155884
0.06945516960953403,-3.0928887038457575,0.7319483231284594,-0.7688937187194824,-1.5897363424301147,-3.2543115615844727,-0.04856731370091438,-0.06939934194087982,0.9964059591293335,-3.073960781097412,-0.30727916955947876,1.602867603302002
0.08892201730060587,-3.1082194533520324,0.7671358241787188,-2.7392542362213135,-0.8448673486709595,-3.756308078765869,-0.03323516249656677,-0.08880487829446793,0.9954940676689148,-2.173322916030884,0.25761285424232483,1.1286053657531738
0.12356943464235756,-3.1156073450853747,0.8027350201432537,-3.8318796157836914,0.11101199686527252,-3.4208555221557617,-0.025784270837903023,-0.12325520068407059,0.9920400977134705,-1.4203369617462158,0.7877753973007202,0.4352213144302368
0.16397568064488682,-3.1148877221341205,0.8330158936195409,-3.9505598545074463,0.8434425592422485,-2.7460784912109375,-0.02634357661008835,-0.16324183344841003,0.9862340688705444,-0.9469534754753113,1.097339153289795,-0.16070330142974854
0.2014476221083014,-3.109042798317926,0.8565219090969919,-3.3067808151245117,1.1171107292175293,-2.094165802001953,-0.03188600391149521,-0.20008789002895355,0.9792591333389282,-0.6835375428199768,1.1526787281036377,-0.5923113822937012
0.23016874035278223,-3.101977140532337,0.8746154948984463,-2.2627971172332764,1.0201010704040527,-1.670286774635315,-0.0385606624186039,-0.22814181447029114,0.9728635549545288,-0.6104108691215515,1.0505295991897583,-0.7849520444869995
0.24815974178325492,-3.096770915157073,0.890358775157699,-1.2135958671569824,0.7541242837905884,-1.5679125785827637,-0.043434105813503265,-0.2456204891204834,0.968392014503479,-0.6341934204101562,0.8929136395454407,-0.734627902507782
0.2571952818969868,-3.0951656345441947,0.9070540472278057,-0.4939815402030945,0.3888848125934601,-1.7671360969543457,-0.04488377273082733,-0.2543690800666809,0.9660650491714478,-0.670799195766449,0.7310536503791809,-0.5384986400604248
0.26131398713718323,-3.098083645472266,0.9269253444554755,-0.201832115650177,0.0681300237774849,-2.093696117401123,-0.04201868548989296,-0.2583501636981964,0.9651373028755188,-0.6972696185112,0.575534462928772,-0.2762943506240845
0.2642772133154928,-3.1038819325552813,0.9498756238177748,-0.24085675179958344,-0.008429469540715218,-2.3180477619171143,-0.036392826586961746,-0.261211633682251,0.9645950794219971,-0.59559565782547,0.4921839237213135,-0.11159849166870117
0.26850984012888734,-3.1096385163775317,0.9740414396975735,-0.45051631331443787,0.15133045613765717,-2.3283438682556152,-0.03080388344824314,-0.26529496908187866,0.9636748433113098,-0.3919103145599365,0.45311543345451355,-0.06587845087051392
0.27487344826841054,-3.1128895516626636,0.9973317126242283,-0.6779755353927612,0.4498002529144287,-2.1635491847991943,-0.027621781453490257,-0.27142512798309326,0.9620630741119385,-0.1914791315793991,0.3960588872432709,-0.10232198238372803
0.28319243243556275,-3.112589830279702,1.0184569868466533,-0.853714644908905,0.7625600695610046,-1.9353699684143066,-0.02784368023276329,-0.2794223427772522,0.959764301776886,-0.011035673320293427,0.3082156479358673,-0.1338672637939453
0.29271452197908643,-3.109117793989496,1.0374211291989195,-0.9165381193161011,0.9804290533065796,-1.7559549808502197,-0.03108804300427437,-0.28855234384536743,0.9569591283798218,0.12163374572992325,0.20311841368675232,-0.1557202935218811
0.30226398007631466,-3.103793973485049,1.0549232688621695,-0.8502580523490906,1.0878498554229736,-1.6611769199371338,-0.03607647866010666,-0.2976823151111603,0.953982949256897,0.17323777079582214,0.12351849675178528,-0.17670035362243652
0.3105813719074023,-3.0978677390243,1.0720977276133694,-0.6639201045036316,1.1127644777297974,-1.6830034255981445,-0.041619665920734406,-0.3056122362613678,0.9512457251548767,0.16675704717636108,0.07535713911056519,-0.16525053977966309
0.31684219305849026,-3.092205271155649,1.0900563481825714,-0.42013272643089294,1.1145267486572266,-1.7875092029571533,-0.046909984201192856,-0.311567485332489,0.949065089225769,0.14597010612487793,0.03109574317932129,-0.10616987943649292
0.32077182240911384,-3.08733750662324,1.1093530936283906,-0.17921437323093414,1.0353368520736694,-1.9022302627563477,-0.05146244540810585,-0.3152990937232971,0.9475956559181213,0.19860300421714783,-0.019143015146255493,-0.018579840660095215
0.3227092739199905,-3.083998478978033,1.129618953859364,-0.0014331415295600891,0.9019268155097961,-1.9375088214874268,-0.05459095537662506,-0.3171371519565582,0.9468072056770325,0.33629876375198364,-0.04768529534339905,0.051956772804260254
0.3233814881457756,-3.0815927226359183,1.1497799373751494,0.08158531039953232,0.8618720769882202,-1.8628495931625366,-0.05685575306415558,-0.31777459383010864,0.9464595913887024,0.47895970940589905,-0.060032933950424194,0.0919920802116394
0.3234836307322308,-3.078690826957313,1.1686559247712316,0.10936809331178665,0.9034152626991272,-1.6916897296905518,-0.05960001051425934,-0.31787142157554626,0.9462584257125854,0.5884544253349304,-0.06741294264793396,0.12030011415481567
0.32346180171457184,-3.07465763634522,1.18547404380126,0.09574761986732483,0.9683923721313477,-1.4769095182418823,-0.06341641396284103,-0.3178507387638092,0.9460172653198242,0.6544961929321289,-0.07053118944168091,0.1347929835319519
0.32370869599402474,-3.0689875652292944,1.2000940837514913,0.04468081519007683,1.0873210430145264,-1.2914838790893555,-0.06877366453409195,-0.31808480620384216,0.9455642700195312,0.6815667152404785,-0.07951343059539795,0.14321112632751465
0.32455181856532167,-3.061821408797695,1.2134584370628019,-0.018946098163723946,1.173425555229187,-1.2673064470291138,-0.07552651315927505,-0.3188840448856354,0.9447795152664185,0.6631120443344116,-0.11350426077842712,0.14367550611495972
0.3262120992134971,-3.0542954699991625,1.227553898438549,-0.08807128667831421,1.2229650020599365,-1.430394172668457,-0.08258836716413498,-0.32045719027519226,0.9436554312705994,0.6564257144927979,-0.17182177305221558,0.1802607774734497
0.3288740647895184,-3.046643748752832,1.2435624557947373,-0.16546060144901276,1.3452951908111572,-1.624114990234375,-0.08972528576850891,-0.32297763228416443,0.9421434998512268,0.6871832609176636,-0.17552697658538818,0.2132059931755066
0.3325551413158696,-3.0377250267625073,1.2612352911118647,-0.231460303068161,1.581031322479248,-1.7585477828979492,-0.0980004146695137,-0.32645922899246216,0.9401171207427979,0.7727288603782654,-0.14999648928642273,0.2273479700088501
0.337102462715474,-3.026650278949995,1.2797918834863553,-0.28526920080184937,1.8417856693267822,-1.801885962486267,-0.10823436826467514,-0.33075404167175293,0.9374896883964539,0.8958473205566406,-0.13709571957588196,0.24740087985992432
0.34220697107627807,-3.0131777092247543,1.2981769809251253,-0.30338403582572937,2.03590989112854,-1.7357596158981323,-0.12063677608966827,-0.335566908121109,0.9342598915100098,1.0511482954025269,-0.08539256453514099,0.29030370712280273
0.3473258091463507,-2.998513261161013,1.315161714731127,-0.2679373621940613,2.0075769424438477,-1.5408388376235962,-0.1340770423412323,-0.34038451313972473,0.930678129196167,1.2178325653076172,-0.02068421244621277,0.329972505569458
0.3515108542775799,-2.9841442140221885,1.3294946870923916,-0.14212438464164734,1.8104021549224854,-1.2280616760253906,-0.1472109854221344,-0.34431666135787964,0.9272401928901672,1.374368667602539,0.030016183853149414,0.3284968137741089
0.3535237818086468,-2.971319329859479,1.3404947834186636,0.0968538373708725,1.497687578201294,-0.8640033006668091,-0.15897253155708313,-0.34620583057403564,0.924591064453125,1.4708927869796753,0.03874132037162781,0.30714380741119385
0.35208751772679847,-2.960545048337511,1.348164642624498,0.44657671451568604,1.1746504306793213,-0.49998003244400024,-0.1690143495798111,-0.3448580205440521,0.9233131408691406,1.5132068395614624,0.023340046405792236,0.2792167663574219
0.3464361451995125,-2.9520742730705773,1.353027102422191,0.8233999013900757,0.833389401435852,-0.19906572997570038,-0.17719371616840363,-0.3395478427410126,0.923747718334198,1.5221186876296997,0.00415956974029541,0.2928661108016968
0.33701440030276497,-2.94685903158707,1.3559824112157324,1.1085150241851807,0.39419734477996826,0.003660201095044613,-0.18261973559856415,-0.33067092299461365,0.9259083867073059,1.5279567241668701,-0.04025492072105408,0.37441486120224
0.32536563108868993,-2.9456282126550075,1.3576751009978545,1.2058013677597046,-0.0280111376196146,0.13358038663864136,-0.18449677526950836,-0.31965526938438416,0.9293983578681946,1.5976438522338867,-0.10601916909217834,0.5122214555740356
0.31355467841494383,-2.947252290363461,1.357809456371238,1.0824486017227173,-0.25653374195098877,0.3114601969718933,-0.1837034821510315,-0.3084419369697571,0.9333363175392151,1.7558928728103638,-0.1500389575958252,0.6122264862060547
0.3034300192086472,-2.9490605355042105,1.3550771563784423,0.7839320302009583,-0.24443820118904114,0.6015178561210632,-0.1826036274433136,-0.29879528284072876,0.9366839528083801,1.9834002256393433,-0.17820969223976135,0.6494058966636658
0.2962562563129212,-2.9487104178357972,1.3482018059038585,0.3608260750770569,-0.08725612610578537,0.962944746017456,-0.1833377480506897,-0.2919416129589081,0.9386996030807495,2.234668493270874,-0.20769214630126953,0.6531733274459839
0.2927821413571434,-2.945589711470807,1.3365920731732917,-0.10621461272239685,0.029015354812145233,1.340875506401062,-0.18646271526813507,-0.2886170744895935,0.9391123652458191,2.478546380996704,-0.20576775074005127,0.6487630605697632
0.2929850643712026,-2.9408652086144276,1.3200762783611424,-0.5451056361198425,-0.08435609936714172,1.7547129392623901,-0.1908857822418213,-0.2888113558292389,0.9381635785102844,2.702833414077759,-0.1776803731918335,0.6500017642974854
0.2961029996107613,-2.937835901633601,1.2976623728239245,-0.9127408862113953,-0.6618481874465942,2.334653377532959,-0.1935437023639679,-0.291795015335083,0.9366944432258606,2.8757641315460205,-0.11674383282661438,0.6510740518569946
0.30089707165953683,-2.9399208010730438,1.2675456923883592,-1.154923439025879,-1.5366684198379517,3.118670701980591,-0.19130797684192657,-0.2963770925998688,0.9357147216796875,2.935723304748535,-0.000650554895401001,0.5562591552734375
0.3055140193733095,-2.948249810746891,1.2284155663428873,-1.1785515546798706,-2.451864719390869,3.999119520187378,-0.18324297666549683,-0.3007834255695343,0.9359227418899536,2.802459955215454,0.18681550025939941,0.3388575315475464
0.3079144344473573,-2.963060053616683,1.1805873991205431,-0.941965639591217,-3.374182939529419,4.828435897827148,-0.16923347115516663,-0.3030718266963959,0.9378208518028259,2.4694807529449463,0.3782670795917511,0.0704801082611084
0.30612616904601236,-2.9842769331227954,1.1255340432619478,-0.4181993901729584,-4.1496968269348145,5.515235900878906,-0.1493838131427765,-0.3013671636581421,0.9417332410812378,2.009705066680908,0.5875000953674316,-0.23816615343093872
0.29817342982878603,-3.011327309292886,1.0656178870335273,0.3867029845714569,-4.771561622619629,5.961950302124023,-0.12416549026966095,-0.29377472400665283,0.9477760195732117,1.397007942199707,0.8171206712722778,-0.5149757862091064
0.28229542937596114,-3.043121948109,1.0038971314040488,1.441219687461853,-5.033929347991943,6.044226169586182,-0.09442029148340225,-0.27856096625328064,0.9557656049728394,0.6516560912132263,1.0528987646102905,-0.7605908513069153
0.2573697355786562,-3.0774304194709337,0.9453559380344834,2.59263014793396,-4.851917266845703,5.470409393310547,-0.06200633943080902,-0.25453779101371765,0.965072751045227,-0.2467246949672699,1.19338059425354,-0.9258120656013489
0.22421998644278224,-3.1115209147131506,0.8962987958387654,3.513432502746582,-4.222805023193359,4.287489891052246,-0.0293145552277565,-0.22234594821929932,0.9745268821716309,-1.184522032737732,1.2557321786880493,-0.928292989730835
0.18539912339337936,-3.140939519858628,0.8583282086412201,4.071582317352295,-3.082890510559082,3.3140907287597656,-0.0006419407436624169,-0.18433883786201477,0.9828624725341797,-2.080641508102417,1.6359226703643799,-0.8562756776809692
0.14321526922402367,3.1254431851651017,0.8262217368600479,4.370870113372803,-1.2623088359832764,3.002108335494995,0.01598343811929226,-0.14272619783878326,0.9896330237388611,-2.7894208431243896,2.171717882156372,-0.6921173334121704
0.09879661438442112,3.12709044064995,0.7941670581391689,4.583979606628418,0.8358309268951416,3.2523889541625977,0.014430984854698181,-0.0986359715461731,0.995018720626831,-3.4303245544433594,2.450274705886841,-0.46596622467041016
0.05216487249782921,-3.135904907227792,0.7587704826613926,4.730283737182617,2.5415005683898926,3.7144734859466553,-0.005679978523403406,-0.0521412156522274,0.9986235499382019,-3.8854637145996094,2.412385940551758,-0.12830805778503418
0.0038620063761141076,-3.106104680448609,0.7224467051942821,4.729369640350342,3.0495123863220215,3.6025781631469727,-0.03548026457428932,-0.0038619968108832836,0.9993630647659302,-4.165584564208984,1.8749098777770996,0.3801078796386719
-0.044200389611740665,-3.0780744770964454,0.6936855712338235,4.523322105407715,2.5335278511047363,2.469226360321045,-0.06341345608234406,0.044185999780893326,0.9970083236694336,-4.381425857543945,1.194629192352295,0.8937078714370728
-0.08816178827717273,-3.059034260334018,0.6817815229808925,4.0029096603393555,1.3555341958999634,0.4578251838684082,-0.0821443498134613,0.08804762363433838,0.992723286151886,-4.376321315765381,0.5824235081672668,1.3662853240966797
-0.12303796851332786,-3.0515977526782745,0.6918524482542999,3.022223949432373,-0.12040581554174423,-1.8313342332839966,-0.08919405192136765,0.12272777408361435,0.9884241223335266,-3.9476559162139893,0.14526228606700897,1.6189213991165161
-0.14304288545038468,-3.0554169815678467,0.7218850203501336,1.4077404737472534,-1.3766345977783203,-3.6184465885162354,-0.08518997579813004,0.1425555795431137,0.9861134886741638,-3.100372076034546,0.13437609374523163,1.4860235452651978
-0.1443955545870907,-3.0650902913671114,0.7636072068772641,-0.455936461687088,-1.5820484161376953,-4.421607971191406,-0.07563237100839615,0.14389429986476898,0.9866984486579895,-2.111867666244507,0.49416714906692505,1.0865283012390137
-0.12903077087307008,-3.071102547468206,0.8067119546159438,-1.891376256942749,-0.7123063802719116,-4.168254852294922,-0.0698462575674057,0.1286730319261551,0.9892244338989258,-1.376717448234558,0.9353833794593811,0.5520964860916138
-0.10367445158587944,-3.068239031058501,0.8427843791974625,-2.5336053371429443,0.4202689230442047,-3.274073362350464,-0.07289432734251022,0.10348883271217346,0.9919556379318237,-0.9281585216522217,1.2561912536621094,0.03341948986053467
-0.07638056893793074,-3.0578493702596363,0.86902139822271,-2.4007909297943115,1.0904992818832397,-2.376588821411133,-0.08340156823396683,0.07630632072687149,0.9935902953147888,-0.690859854221344,1.2592649459838867,-0.43810927867889404
-0.05360509222659593,-3.044970699425631,0.888443049668801,-1.732398509979248,1.1716638803482056,-1.9641175270080566,-0.0963331013917923,0.0535794235765934,0.9939059019088745,-0.7584489583969116,1.030328631401062,-0.6957340240478516
-0.038360298951491956,-3.0335017393642363,0.9074941960081998,-0.899263322353363,0.9079771637916565,-2.1831815242767334,-0.107801154255867,0.03835089132189751,0.9934321045875549,-0.9165518283843994,0.7886143922805786,-0.7282041907310486
-0.030289313653727615,-3.0259430591392174,0.9311130723060309,-0.20180539786815643,0.41906505823135376,-2.6843910217285156,-0.1153390035033226,0.030284682288765907,0.9928640723228455,-0.9484274387359619,0.644321620464325,-0.6152551770210266
-0.027118353566908452,-3.023348866792784,0.9601213099995131,0.211556538939476,-0.046821363270282745,-3.1030776500701904,-0.11792505532503128,0.027115030214190483,0.992652177810669,-0.815439760684967,0.5308836102485657,-0.424552321434021
-0.026067158710246764,-3.0244638017076384,0.9922847862446246,0.3017306327819824,-0.3288551867008209,-3.2502362728118896,-0.1168215423822403,0.026064205914735794,0.9928110837936401,-0.5475003719329834,0.4461494982242584,-0.28352129459381104
-0.02484640733362751,-3.0275094432080087,1.024527005670683,0.1798139214515686,-0.41269493103027344,-3.134744882583618,-0.1138007640838623,0.0248438511043787,0.9931929111480713,-0.3117210566997528,0.37228137254714966,-0.1979811191558838
-0.02218170300414936,-3.030291934276323,1.0546897939427118,-0.03786487132310867,-0.25928565859794617,-2.891849994659424,-0.11104372143745422,0.02217988483607769,0.9935678243637085,-0.165414959192276,0.2954927980899811,-0.14124256372451782
-0.017564963261744188,-3.031050558158019,1.0823490156800302,-0.26374316215515137,-0.0014706011861562729,-2.701422929763794,-0.11030007898807526,0.017564060166478157,0.9937430620193481,-0.060216836631298065,0.2047564685344696,-0.1126549243927002
-0.011122078052350071,-3.029356623663838,1.1084404980264697,-0.423133909702301,0.26447319984436035,-2.6197280883789062,-0.11199358105659485,0.011121848598122597,0.9936463832855225,0.006296016275882721,0.11526666581630707,-0.11615949869155884
-0.003468650755645612,-3.0250148324631017,1.1338408039098358,-0.5046395659446716,0.5590518712997437,-2.5884933471679688,-0.11631327122449875,0.0034686438739299774,0.9932067394256592,0.07345134019851685,0.07709773629903793,-0.12423372268676758
0.004777593846759047,-3.018195218199974,1.1589202889147987,-0.5258814692497253,0.7956569790840149,-2.5715081691741943,-0.12308312207460403,-0.004777575843036175,0.9923849701881409,0.16428187489509583,0.06982576102018356,-0.0943593978881836
0.013283086004048705,-3.0091438679605513,1.1838831329161108,-0.5155040621757507,1.0510157346725464,-2.5807957649230957,-0.13205021619796753,-0.013282695785164833,0.9911540150642395,0.2535102367401123,0.044013865292072296,-0.03329885005950928
0.02187294873763366,-2.997895804426288,1.2088457384040647,-0.49307337403297424,1.2579830884933472,-2.575239419937134,-0.14316853880882263,-0.021871205419301987,0.9894564151763916,0.3612166941165924,0.019902799278497696,0.0609126091003418
0.030528807467852786,-2.985588054674394,1.2333368025232587,-0.4882778227329254,1.2984204292297363,-2.506706476211548,-0.15530014038085938,-0.03052406571805477,0.9873953461647034,0.5051384568214417,0.022604741156101227,0.17170774936676025
0.03952009057518984,-2.9735548524367874,1.2570556384845888,-0.521056056022644,1.2687476873397827,-2.4504215717315674,-0.16711750626564026,-0.03950980305671692,0.9851449131965637,0.5985293388366699,0.0006151311099529266,0.29901933670043945
0.04929293481257421,-2.961607773459612,1.280325094005407,-0.6039050817489624,1.3281079530715942,-2.455099582672119,-0.17879728972911835,-0.04927297681570053,0.9826515316963196,0.6283516883850098,-0.007108289748430252,0.41216981410980225
0.06057782074600443,-2.948529492629909,1.3033355064355978,-0.7652431130409241,1.5433043241500854,-2.4612271785736084,-0.19151410460472107,-0.06054077669978142,0.9796209335327148,0.6888896226882935,0.07532653212547302,0.48516178131103516
0.07410942476407041,-2.933364326928345,1.3260190812142123,-0.9851765632629395,1.7695162296295166,-2.502868175506592,-0.2061593234539032,-0.07404160499572754,0.9757128357887268,0.7430704832077026,0.15442490577697754,0.5744882225990295
0.09039720452433345,-2.916649569248514,1.348314909506015,-1.2349534034729004,1.9114910364151,-2.513434886932373,-0.22214007377624512,-0.0902741402387619,0.970826268196106,0.8575619459152222,0.1633332371711731,0.6413865089416504
0.10938010414667529,-2.8994185873574687,1.3694864466534702,-1.4629297256469727,1.9310773611068726,-2.438997745513916,-0.23838065564632416,-0.10916212946176529,0.9650171399116516,1.0535051822662354,0.1477973610162735,0.6494542360305786
0.13015400557686826,-2.8823980622266947,1.388960775940954,-1.5747894048690796,1.9231469631195068,-2.316240072250366,-0.25413426756858826,-0.12978684902191162,0.958420991897583,1.2007133960723877,0.14008654654026031,0.6274400353431702
0.15131151885804142,-2.865859428388446,1.4067505931071393,-1.5449270009994507,1.8660914897918701,-2.1916017532348633,-0.2691417932510376,-0.1507347971200943,0.9512314796447754,1.3035809993743896,0.160485178232193,0.5921033024787903
0.17162409698524703,-2.8504341456078697,1.4236386314030973,-1.4005059003829956,1.738251805305481,-2.142467737197876,-0.28284481167793274,-0.17078280448913574,0.9438388347625732,1.3547595739364624,0.16544224321842194,0.5826502442359924
0.19034962634216857,-2.837144086134281,1.4405226813704952,-1.1958398818969727,1.504601001739502,-2.111208438873291,-0.29435279965400696,-0.189202219247818,0.9367811679840088,1.393855333328247,0.1781090497970581,0.6125199794769287
0.20713937313564593,-2.826694190003518,1.4570862671890272,-1.0085169076919556,1.2349382638931274,-1.9726791381835938,-0.30309903621673584,-0.20566126704216003,0.9305019378662109,1.4451279640197754,0.23918485641479492,0.6393372416496277
0.22168380092575624,-2.818360803931277,1.4719673226519918,-0.8395842909812927,1.077279806137085,-1.6641300916671753,-0.30985963344573975,-0.21987253427505493,0.9250092506408691,1.4988703727722168,0.3024226427078247,0.6050806045532227
0.23350356291277793,-2.8103233395050236,1.4833345310185073,-0.6813693642616272,1.0447895526885986,-1.164650797843933,-0.3164169490337372,-0.2313874214887619,0.9199672341346741,1.5295060873031616,0.3388245701789856,0.5254670977592468
0.24197970308392694,-2.8013527267152676,1.4897705766104707,-0.4983157217502594,1.0490559339523315,-0.5619652271270752,-0.3239906132221222,-0.23962512612342834,0.9152100086212158,1.5048226118087769,0.33776968717575073,0.4120450019836426
0.24642643396184788,-2.7911790998937813,1.4910615838972006,-0.24070283770561218,1.038588285446167,0.014555639587342739,-0.3329155743122101,-0.24393992125988007,0.9108566641807556,1.4316554069519043,0.29168474674224854,0.263413667678833
0.24628166374735155,-2.7806269832872657,1.4885615744174598,0.10657235980033875,0.9249628782272339,0.42275986075401306,-0.3425208032131195,-0.24379952251911163,0.9073261022567749,1.341254472732544,0.1883186250925064,0.16217738389968872
0.2415046921647618,-2.771909773690048,1.4844312632089718,0.49478214979171753,0.5838303565979004,0.645083487033844,-0.350833922624588,-0.23916392028331757,0.9053816199302673,1.2556039094924927,0.04662853479385376,0.15862882137298584
0.23268389208647422,-2.7677391584823483,1.4803566799584424,0.8510735630989075,0.0316716767847538,0.7071157693862915,-0.35536348819732666,-0.23058991134166718,0.9058392643928528,1.1799485683441162,-0.09735196828842163,0.1648392677307129
0.22085737389526505,-2.76997392549077,1.4777002908235386,1.144219160079956,-0.5864216089248657,0.6180612444877625,-0.35430383682250977,-0.21906624734401703,0.9091087579727173,1.0800423622131348,-0.24309197068214417,0.19327771663665771
0.2073557280428487,-2.777984555995309,1.4769893805636158,1.2957299947738647,-1.012201189994812,0.4786146879196167,-0.3480302691459656,-0.20587299764156342,0.9145988821983337,1.0223619937896729,-0.33157211542129517,0.22675848007202148
0.19382569851296555,-2.7893937787534027,1.4774159429399145,1.2318909168243408,-1.2090181112289429,0.4059402048587799,-0.3385029137134552,-0.1926143616437912,0.9210402965545654,0.9971638917922974,-0.3182498812675476,0.27198326587677
0.1818362352569899,-2.800956085138445,1.4770909938763492,0.9731606245040894,-1.057918667793274,0.48033130168914795,-0.3285790681838989,-0.18083584308624268,0.9270025491714478,0.9977686405181885,-0.2527731657028198,0.33477699756622314
0.1725317125575718,-2.808493809452929,1.4743388068398908,0.5960005521774292,-0.49175170063972473,0.6520370244979858,-0.3221186399459839,-0.17167702317237854,0.9310030341148376,1.0286463499069214,-0.16896022856235504,0.33610212802886963
0.16638497178703196,-2.8084812877004612,1.4684166580833502,0.1813279092311859,0.3078203797340393,0.8488857746124268,-0.32246917486190796,-0.16561833024024963,0.9319784045219421,1.1383414268493652,-0.09428459405899048,0.31501537561416626
0.16368658598193805,-2.7998491673775114,1.4594473838126294,-0.26207059621810913,1.1137778759002686,0.9823554158210754,-0.33065059781074524,-0.1629566103219986,0.9295778274536133,1.3431628942489624,-0.056617364287376404,0.3706233501434326
0.1650097982807574,-2.7839268108785724,1.4478443670088814,-0.7776780128479004,1.6239229440689087,1.0702171325683594,-0.3453333377838135,-0.16426199674606323,0.9239926934242249,1.628506064414978,-0.0029132962226867676,0.5254852771759033
0.1708579955695934,-2.764903426283072,1.4330606134452966,-1.3538591861724854,1.6047918796539307,1.2367733716964722,-0.36248770356178284,-0.17002791166305542,0.9163475632667542,1.92724609375,0.09602278470993042,0.7604711055755615
0.18074082180661272,-2.7486081104223072,1.4135304205173762,-1.906437635421753,0.8551174998283386,1.6082162857055664,-0.37670910358428955,-0.17975836992263794,0.9087224006652832,2.220459222793579,0.23435436189174652,0.9697409868240356
0.19321227008649697,-2.7431132441071897,1.3871885077600397,-2.3620433807373047,-0.8635500073432922,2.21342396736145,-0.38079729676246643,-0.19201238453388214,0.9045024514198303,2.408003807067871,0.41904783248901367,1.135765552520752
0.20664493506976786,-2.7578235154608457,1.3531976056737156,-2.624256134033203,-3.503019094467163,2.8873562812805176,-0.36645227670669556,-0.20517738163471222,0.9075323939323425,2.3328065872192383,0.5489578247070312,1.2798455953598022
0.22030025182605967,-2.7992981300994026,1.3131774331025545,-2.669492483139038,-6.4199347496032715,3.4055421352386475,-0.32753729820251465,-0.21852262318134308,0.9192207455635071,1.8473433256149292,0.6766067147254944,1.249831199645996
0.23375287468101089,-2.86528002796444,1.2697197033082903,-2.411900043487549,-8.523755073547363,3.80070161819458,-0.26539063453674316,-0.23162995278835297,0.9359033703804016,1.0650885105133057,1.0131088495254517,0.8934116363525391
0.24442281789287781,-2.9450320032101254,1.2248784057031545,-1.6006280183792114,-9.307059288024902,4.118441581726074,-0.18949253857135773,-0.24199633300304413,0.9515933990478516,0.2397550642490387,1.516608715057373,0.25183653831481934
0.2468115438874932,-3.0257992651152885,1.1805028201525414,-0.1361672580242157,-8.802471160888672,4.245362758636475,-0.11203364282846451,-0.24431337416172028,0.9632024765014648,-0.5547906160354614,1.906636357307434,-0.43247151374816895
0.23560371131379992,-3.095743597864839,1.1372299825568426,1.7192847728729248,-7.080024719238281,4.26752233505249,-0.04456677660346031,-0.23343005776405334,0.9713514447212219,-1.3349802494049072,2.0220043659210205,-0.8089219331741333
0.2084938036647348,3.137094718806702,1.0934554930579032,3.467653274536133,-4.871479034423828,4.352465629577637,0.004400511272251606,-0.20698656141757965,0.9783337712287903,-2.1627867221832275,1.935731053352356,-0.8251661658287048
0.16888962485436612,3.1077058342767594,1.046573730028043,4.514497756958008,-2.73197603225708,4.722458362579346,0.033398281782865524,-0.16808786988258362,0.9852060079574585,-2.8148770332336426,1.7608307600021362,-0.43138837814331055
0.12418949145192686,3.095969866270233,0.9936278137730213,4.712622165679932,-1.2517768144607544,5.339389324188232,0.045255716890096664,-0.12387050688266754,0.9912659525871277,-3.1250133514404297,1.4657741785049438,0.1876128911972046
0.08147418533593519,3.0931370206530477,0.93636892465247,4.270351886749268,-0.5551167726516724,5.504482746124268,0.048275988548994064,-0.08138407766819,0.9955127835273743,-3.689358711242676,0.9450315237045288,0.8749704360961914
0.04510559755232329,3.0929250791605485,0.8822462949245585,3.4545438289642334,-0.17185907065868378,4.772644519805908,0.04859887436032295,-0.04509030282497406,0.9977998733520508,-4.353621959686279,0.23510797321796417,1.3866298198699951
0.018242758405077122,3.093493189829587,0.8411184696328352,2.2133514881134033,-0.027471810579299927,3.030351400375366,0.04807291552424431,-0.018241746351122856,0.998677134513855,-4.685234069824219,-0.5100480914115906,1.5705060958862305
0.006080102238504081,3.0923591283366623,0.8224779187766924,0.31550562381744385,-0.24604207277297974,0.49843087792396545,0.04921272024512291,-0.006080064922571182,0.9987696409225464,-4.643481254577637,-0.9194570779800415,1.603372573852539
0.012967880319269891,3.0901524144144874,0.8310814028705853,-1.7479912042617798,-0.095946304500103,-2.083282470703125,0.05141322314739227,-0.012967516668140888,0.9985930919647217,-4.310202121734619,-0.7257410287857056,1.5384244918823242
0.037419522225057,3.0912381280683543,0.8625328459486088,-3.3594353199005127,0.498455673456192,-3.7736306190490723,0.05029800534248352,-0.03741079196333885,0.9980331659317017,-3.644047975540161,-0.10892103612422943,1.1868269443511963
0.07437892795348021,3.0968364511333313,0.9053892393905748,-4.325601100921631,1.053554892539978,-4.253310680389404,0.04461754858493805,-0.07431036978960037,0.9962363243103027,-2.5224769115448,0.5157471299171448,0.6026709079742432
0.11788429403809247,3.104664974199716,0.9481943431397014,-4.589964866638184,1.2841930389404297,-3.7908971309661865,0.03666304424405098,-0.11761145293712616,0.9923823475837708,-1.4853477478027344,0.9736295342445374,0.0863526463508606
0.16067136263791632,3.112551942242845,0.9837033138121702,-4.075113296508789,1.2425010204315186,-2.9193944931030273,0.028662629425525665,-0.15998095273971558,0.9867035150527954,-1.0367802381515503,1.2012407779693604,-0.35784339904785156
0.19581302342287943,3.1192392497554056,1.0105645451613794,-3.0224688053131104,1.0169960260391235,-2.220968008041382,0.021924398839473724,-0.194564089179039,0.980644702911377,-0.9437078237533569,1.1820213794708252,-0.671333909034729
0.2197381112331481,3.122959801097968,1.0325175325103966,-1.845768690109253,0.6143156290054321,-2.0344629287719727,0.018183762207627296,-0.21797403693199158,0.9757850170135498,-1.001917839050293,0.9992240071296692,-0.7964029312133789
0.23278457118274562,3.1220846257808543,1.054868310274712,-0.8737374544143677,0.2321094572544098,-2.299201250076294,0.01898064836859703,-0.23068788647651672,0.9728425741195679,-1.12600576877594,0.7946832180023193,-0.7379794120788574
0.23791119450239567,3.117605612092543,1.0809666922522332,-0.3169650435447693,0.12465464323759079,-2.7360424995422363,0.023309137672185898,-0.23567317426204681,0.9715523719787598,-1.1496824026107788,0.689408540725708,-0.5628766417503357
0.23970640150947198,3.112205407981095,1.1109083508601947,-0.2530834674835205,0.2223454713821411,-3.01530122756958,0.02854287624359131,-0.23741742968559265,0.9709879159927368,-0.9608548879623413,0.6756957173347473,-0.35903459787368774
0.24256832057287192,3.108102187770053,1.142139554916053,-0.5430170297622681,0.46239322423934937,-2.97029447555542,0.03250392526388168,-0.24019654095172882,0.9701797366142273,-0.6904018521308899,0.6706317663192749,-0.1686815619468689
0.24920814023414578,3.1073047555668287,1.1717459056978399,-0.975119411945343,0.8119422793388367,-2.687340497970581,0.03322216495871544,-0.24663664400577545,0.9685383439064026,-0.41058722138404846,0.6127407550811768,-0.05868732929229736
0.2605595927033662,3.1105828463623566,1.198609332536861,-1.4453867673873901,1.1857441663742065,-2.430837869644165,0.029958290979266167,-0.25762128829956055,0.9657811522483826,-0.19368505477905273,0.521186351776123,-0.040290117263793945
0.2770152821207937,3.1178722561146768,1.2236596735128655,-1.9704676866531372,1.5924029350280762,-2.3235867023468018,0.022813938558101654,-0.27348592877388,0.9616053104400635,-0.10714922100305557,0.4162623882293701,-0.011852622032165527
0.29804139677678404,3.1290724003794277,1.2482347798694138,-2.274956226348877,1.9766017198562622,-2.303569793701172,0.01196796540170908,-0.29364851117134094,0.9558385014533997,-0.0017292778939008713,0.28987956047058105,0.008806824684143066
0.3214978026053674,-3.1410055595801207,1.2724021715845448,-2.4028048515319824,2.0550103187561035,-2.251572847366333,-0.0005570129724219441,-0.3159879744052887,0.9487626552581787,0.1832810491323471,0.19678637385368347,-0.02533167600631714
0.34576578377401845,-3.128273027013069,1.295654676255025,-2.392642021179199,1.9718654155731201,-2.1755335330963135,-0.012530950829386711,-0.33891722559928894,0.9407328367233276,0.33703964948654175,0.14305540919303894,-0.0032480955123901367
0.3700437339774407,-3.116985225741737,1.3181729392463832,-2.3651914596557617,1.8148438930511475,-2.1320347785949707,-0.022939477115869522,-0.36165621876716614,0.9320293664932251,0.4267175793647766,0.09601587057113647,0.07807207107543945
0.3946177765949814,-3.107935313722472,1.340042729035846,-2.4201197624206543,1.5892951488494873,-2.0480268001556396,-0.03106469102203846,-0.3844553828239441,0.9226207733154297,0.5893990993499756,0.052485108375549316,0.1799488067626953
0.420157119190938,-3.1009504182898895,1.3603124429952131,-2.5282363891601562,1.3999813795089722,-1.8385555744171143,-0.03709713742136955,-0.40790390968322754,0.9122704863548279,0.7513153553009033,0.03549802303314209,0.2717348337173462
0.44694797868444763,-3.0947097824138026,1.377901100039152,-2.669349431991577,1.3284587860107422,-1.579471468925476,-0.042262088507413864,-0.4322153329849243,0.9007793068885803,0.8231459259986877,0.031336456537246704,0.3514024615287781
0.4752176114364124,-3.0874211960692093,1.3928047565641153,-2.82468843460083,1.463281273841858,-1.3769370317459106,-0.04814532771706581,-0.45753195881843567,0.8878886699676514,0.8412820100784302,0.007458746433258057,0.4114428758621216
0.5052003885404377,-3.07754452820928,1.4058696770899215,-3.0101571083068848,1.731879472732544,-1.2892615795135498,-0.056008774787187576,-0.48398280143737793,0.8732834458351135,0.8640837669372559,-0.005992263555526733,0.4670791029930115
0.5373256220662371,-3.0650505261500913,1.4182277393722307,-3.2334001064300537,1.968126654624939,-1.299877405166626,-0.06569167226552963,-0.5118403434753418,0.8565653562545776,0.8957087993621826,0.0022119879722595215,0.5434590578079224
0.5721194316957295,-3.0508598504953643,1.4305622633293962,-3.5090503692626953,2.1474721431732178,-1.3734736442565918,-0.07617943733930588,-0.5414152145385742,0.837296724319458,0.9489059448242188,-0.005093514919281006,0.6312546133995056
0.6101932926492485,-3.0361206705799475,1.4435099054790508,-3.8441972732543945,2.2084896564483643,-1.5066230297088623,-0.08627801388502121,-0.5730258822441101,0.8149827122688293,1.016621708869934,-0.025515258312225342,0.7149699926376343
0.6522530901240409,-3.022249345874296,1.457319168862053,-4.241158485412598,2.1696267127990723,-1.6408425569534302,-0.09461928904056549,-0.6069785356521606,0.7890651822090149,1.1099544763565063,0.00593489408493042,0.794857919216156
0.6985359633318251,-3.0099839540019815,1.4716159653355019,-4.626579284667969,2.0393779277801514,-1.7120022773742676,-0.10049322992563248,-0.6430972218513489,0.759162187576294,1.2061299085617065,0.07966643571853638,0.846520185470581
0.7484608313440221,-2.999617739210198,1.4853983393766843,-4.945308685302734,1.831072211265564,-1.6745704412460327,-0.10368114709854126,-0.6805117726325989,0.725364625453949,1.2740455865859985,0.18440282344818115,0.8371810913085938
0.8010618845269446,-2.9911214533551447,1.4977706132713122,-5.148533344268799,1.5938054323196411,-1.5997852087020874,-0.10432489961385727,-0.7180954813957214,0.6880807876586914,1.2783056497573853,0.28733986616134644,0.7711322903633118
0.854817602181148,-2.984284906189211,1.50891534262616,-5.1903181076049805,1.4096627235412598,-1.5338761806488037,-0.10282454639673233,-0.7544512152671814,0.6482515335083008,1.2252305746078491,0.3725086450576782,0.6556728482246399
0.9081598798402941,-2.978832493939384,1.519441107613186,-5.073117733001709,1.3152121305465698,-1.4810508489608765,-0.0996880903840065,-0.7883730530738831,0.6070665717124939,1.1584497690200806,0.4315769672393799,0.520512044429779
0.9595898115343554,-2.9740217955040817,1.529898092510163,-4.823891639709473,1.324918508529663,-1.4249486923217773,-0.0957120805978775,-0.8189562559127808,0.5658175349235535,1.0709166526794434,0.4701251983642578,0.3837672472000122
1.0081536116421022,-2.969288754213075,1.540420548275579,-4.514932155609131,1.3628348112106323,-1.3546452522277832,-0.09145674109458923,-0.8458483815193176,0.5255241990089417,1.0049089193344116,0.48239946365356445,0.28255051374435425
1.0534456402719357,-2.9644584977290895,1.5509043469101915,-4.1891608238220215,1.3910549879074097,-1.2665470838546753,-0.0871494859457016,-0.8691325187683105,0.48684054613113403,0.9427555799484253,0.46176856756210327,0.2124239206314087
1.0954685623208849,-2.9593105071499615,1.560863721524178,-3.889387607574463,1.3686957359313965,-1.160173773765564,-0.08295655250549316,-0.8891427516937256,0.45004802942276,0.8764289021492004,0.40566807985305786,0.14512085914611816
1.1347033370966826,-2.95434184090431,1.569842882677293,-3.6634879112243652,1.2129524946212769,-1.0502067804336548,-0.07863354682922363,-0.9064089059829712,0.41501742601394653,0.7843678593635559,0.3439851999282837,0.10764175653457642
1.1719791393066128,-2.9497270662640247,1.5768790614175114,-3.5410726070404053,0.9884404540061951,-0.9056724309921265,-0.07405053079128265,-0.9215209484100342,0.38120245933532715,0.6945492029190063,0.28896796703338623,0.1090928316116333
1.208307995579223,-2.9441945764644464,1.5804935079188085,-3.5229268074035645,0.7927242517471313,-0.7580291628837585,-0.06954402476549149,-0.9350173473358154,0.3477155864238739,0.6186621189117432,0.24669337272644043,0.1020067036151886
1.244581179655431,-2.9357583786023,1.5793143916219052,-3.580954074859619,0.676478922367096,-0.6117151379585266,-0.0654967650771141,-0.9472620487213135,0.31369489431381226,0.5177826285362244,0.2395595908164978,0.0766553282737732
1.281266566556344,-2.92145921143973,1.571195345538207,-3.6748600006103516,0.6449590921401978,-0.453321248292923,-0.06234188377857208,-0.958378255367279,0.27861106395721436,0.41945865750312805,0.25973957777023315,0.03289693593978882
1.318462986048472,-2.8964814454621757,1.552499786654084,-3.7666571140289307,0.7590941190719604,-0.27746841311454773,-0.060584500432014465,-0.9683325290679932,0.2422015517950058,0.33853867650032043,0.28205323219299316,-0.028853178024291992
1.3556525285740162,-2.8519682884896285,1.5157708649384751,-3.8201537132263184,0.9953617453575134,-0.03395533561706543,-0.06097046658396721,-0.976945698261261,0.20459631085395813,0.271160364151001,0.32930171489715576,-0.09769332408905029
1.3915448593899018,-2.773361021302765,1.4469625883731794,-3.810762405395508,1.2134077548980713,0.27470511198043823,-0.06417939811944962,-0.9839774370193481,0.16634106636047363,0.2433939278125763,0.3532554507255554,-0.17146813869476318
1.4242437223787683,-2.6388096820037497,1.323992422459876,-3.7637109756469727,1.4143809080123901,0.5852816700935364,-0.07036633789539337,-0.9892804026603699,0.1279570460319519,0.21637776494026184,0.3110882043838501,-0.22636102139949799
1.4510045309847808,-2.419337149473734,1.118130229456639,-3.70902419090271,1.664523959159851,0.8083295822143555,-0.07900187373161316,-0.9928335547447205,0.08966619521379471,0.14122730493545532,0.25833660364151,-0.2449549436569214
1.4681505895081075,-2.0955780697614985,0.810586910374504,-3.6833157539367676,1.9342238903045654,0.8624005317687988,-0.08867669105529785,-0.9947365522384644,0.05133747309446335,0.01847105473279953,0.21647727489471436,-0.2258065938949585
1.4721105030779784,-1.6984376117231255,0.4319984914810737,-3.715714454650879,2.1210131645202637,0.8166431784629822,-0.09772270917892456,-0.9951345324516296,0.012541636824607849,-0.09136413782835007,0.1748679280281067,-0.1736135482788086
1.4617967691400011,-1.3204826120247224,0.073097044333329,-3.7675774097442627,1.9785168170928955,0.7504215240478516,-0.10539420694112778,-0.9940654039382935,-0.02694678120315075,-0.11114321649074554,0.15101724863052368,-0.09400975704193115
1.4404579531065005,-1.0374653013980455,-0.19349494166223083,-3.657470464706421,1.7077347040176392,0.742116391658783,-0.11191913485527039,-0.991517961025238,-0.0660770982503891,-0.12709447741508484,0.1355304718017578,-0.15464138984680176
1.413579291329011,-0.8516812141159342,-0.36452826521574194,-3.4140419960021973,1.5683255195617676,0.7225993871688843,-0.11780102550983429,-0.9876668453216553,-0.10313521325588226,-0.16059550642967224,0.12250888347625732,-0.22485250234603882
1.385823442794128,-0.7325086592189094,-0.47066922160714214,-3.003365993499756,1.322487473487854,0.6790072321891785,-0.12299379706382751,-0.982941210269928,-0.13674402236938477,-0.19937855005264282,0.14450138807296753,-0.2949729561805725
1.3606134957365705,-0.6582538006956874,-0.5344260346090245,-2.4419138431549072,1.0130071640014648,0.6274476051330566,-0.12763169407844543,-0.9779927730560303,-0.1650458127260208,-0.2439045011997223,0.15043246746063232,-0.38948917388916016
1.3396253522318577,-0.6141962367404754,-0.570466339893252,-1.8626056909561157,0.7699102163314819,0.596011221408844,-0.13204079866409302,-0.973398745059967,-0.1872432380914688,-0.2705470025539398,0.13157141208648682,-0.43664294481277466
1.3228356809933446,-0.5892135277784504,-0.5890763156091182,-1.413141131401062,0.6131203174591064,0.5732726454734802,-0.13638576865196228,-0.9694149494171143,-0.20404286682605743,-0.28767117857933044,0.10004550218582153,-0.42684710025787354
1.3091418410449802,-0.5749319166436446,-0.5980291916178359,-1.1345967054367065,0.5136202573776245,0.5495480298995972,-0.14066386222839355,-0.9659633040428162,-0.21709100902080536,-0.31816786527633667,0.07843589782714844,-0.3801685571670532
1.2972774128828857,-0.5656908115683214,-0.602511330133395,-0.9999778866767883,0.4712730944156647,0.5302309989929199,-0.1447845995426178,-0.9628263115882874,-0.22804111242294312,-0.3166106343269348,0.054867446422576904,-0.31749117374420166
1.2861549382588788,-0.5584233594050045,-0.6052506361172718,-0.9671359658241272,0.446320503950119,0.5267487168312073,-0.1487886756658554,-0.9597623944282532,-0.23815511167049408,-0.2877041697502136,0.0258636474609375,-0.252796471118927
1.2750195613768533,-0.5518263006392635,-0.6076259098677229,-0.9950152039527893,0.42239147424697876,0.5268595218658447,-0.15280789136886597,-0.9565759897232056,-0.24821755290031433,-0.28302884101867676,-0.006619691848754883,-0.22359955310821533
1.26362924332587,-0.5446165801174141,-0.610423208605249,-1.0297785997390747,0.49403050541877747,0.5142807960510254,-0.15664947032928467,-0.9531939625740051,-0.2586159110069275,-0.27555567026138306,-0.0405803918838501,-0.20427477359771729
1.2520030220136478,-0.5358300848855805,-0.6138626849133305,-1.06981360912323,0.6061949133872986,0.4933544397354126,-0.16001848876476288,-0.9496142864227295,-0.2694932520389557,-0.24009738862514496,-0.06144821643829346,-0.1661604344844818
1.2400186039166812,-0.5246343468847603,-0.6186697572969344,-1.1507771015167236,0.720932126045227,0.4515499174594879,-0.16268029808998108,-0.9457900524139404,-0.2810978591442108,-0.20630763471126556,-0.08292686939239502,-0.12249711155891418
1.2273217546057131,-0.5104655323228601,-0.6252600967466789,-1.2639273405075073,0.864906370639801,0.42465704679489136,-0.16453567147254944,-0.9415902495384216,-0.29382941126823425,-0.1566770374774933,-0.1050710678100586,-0.07479250431060791
1.2137710101152541,-0.49366148478989297,-0.6331431448985014,-1.353708267211914,1.0048108100891113,0.40108999609947205,-0.1656063050031662,-0.936940610408783,-0.30776089429855347,-0.09005463123321533,-0.11219263076782227,-0.04636514186859131
1.199781766744586,-0.475253507789775,-0.6414595224495268,-1.3762327432632446,1.1077669858932495,0.3797815144062042,-0.16589483618736267,-0.9319599866867065,-0.32238084077835083,-0.044935792684555054,-0.10322672128677368,-0.045035600662231445
1.1859131350023837,-0.4573124835759894,-0.6485508584586046,-1.3114179372787476,1.1466114521026611,0.40348875522613525,-0.16577591001987457,-0.9268422722816467,-0.33687031269073486,-0.006526261568069458,-0.0893319845199585,-0.04508769512176514
1.1728333254035908,-0.44197239639842273,-0.6527336569373666,-1.165831446647644,1.1336866617202759,0.4442870318889618,-0.16576042771339417,-0.9218523502349854,-0.35030242800712585,0.01556822657585144,-0.09581726789474487,-0.05368930101394653
1.161065216753291,-0.42987831820541633,-0.6537663567437514,-0.9890285134315491,1.080467939376831,0.47409147024154663,-0.1660216599702835,-0.9172279834747314,-0.362118124961853,0.010977193713188171,-0.11011570692062378,-0.07017859816551208
1.1509134902605638,-0.4208597784434782,-0.6520315976124302,-0.7973431944847107,1.0366677045822144,0.48840516805648804,-0.16654488444328308,-0.9131367206573486,-0.3720807135105133,0.009715095162391663,-0.10856121778488159,-0.0726214349269867
1.1424692410737518,-0.4140002036936262,-0.6481594418101478,-0.6111761331558228,1.0330959558486938,0.48395591974258423,-0.16708460450172424,-0.9096618890762329,-0.38026025891304016,0.015641197562217712,-0.09232163429260254,-0.06016942858695984
1.135767010339969,-0.40881856641478725,-0.6426219297458711,-0.4308178424835205,0.9954259991645813,0.47433337569236755,-0.16753189265727997,-0.9068576693534851,-0.3867066502571106,0.02542687952518463,-0.06881964206695557,-0.036205947399139404
1.1306781151398517,-0.40560278150493884,-0.6356195130083132,-0.266628235578537,0.9018383026123047,0.46927887201309204,-0.1681062877178192,-0.904701292514801,-0.3914790153503418,0.03695705533027649,-0.0527113676071167,-0.009491503238677979
1.1270576184469252,-0.40463264703426205,-0.6275710488084986,-0.13216762244701385,0.7295549511909485,0.4453248083591461,-0.1690148115158081,-0.9031528830528259,-0.39465034008026123,0.02340024709701538,-0.0521235466003418,0.0051697492599487305
1.1246270092046273,-0.40584220323765396,-0.6192151026621541,-0.03745086491107941,0.5354759693145752,0.4046803414821625,-0.17035812139511108,-0.9021067023277283,-0.39646115899086,0.00817251205444336,-0.05025529861450195,0.008262276649475098
1.1230489200426492,-0.4086108763350168,-0.6112108430494739,0.01532846037298441,0.34367504715919495,0.35105493664741516,-0.1720205694437027,-0.9014246463775635,-0.39729389548301697,0.014153197407722473,-0.04239243268966675,0.013184398412704468
1.1220349794124926,-0.4120720143398073,-0.604651183281179,0.018661268055438995,0.15416963398456573,0.24359895288944244,-0.17376065254211426,-0.9009851813316345,-0.3975335359573364,0.007195770740509033,-0.0418248176574707,0.032878994941711426
1.1213333990455663,-0.41432829124888654,-0.6009785533922969,-0.024463564157485962,0.07228941470384598,0.1009209007024765,-0.1749115139245987,-0.9006806015968323,-0.3977188169956207,-0.02687065303325653,-0.054839909076690674,0.024916112422943115
1.120603493583351,-0.4133673431347097,-0.601029902514016,-0.11648623645305634,0.12175624817609787,-0.0431562215089798,-0.17479337751865387,-0.9003632068634033,-0.3984889090061188,-0.053310200572013855,-0.05572199821472168,0.012853443622589111
1.1193909997012363,-0.40807026145044295,-0.6048396946006215,-0.23986037075519562,0.25497475266456604,-0.15890972316265106,-0.1731131672859192,-0.899834930896759,-0.40041086077690125,-0.049070000648498535,-0.03157675266265869,0.016835391521453857
1.1173423327326832,-0.3985235979540511,-0.6117853909502933,-0.36888429522514343,0.39924949407577515,-0.22905220091342926,-0.1699976921081543,-0.8989393711090088,-0.4037432372570038,-0.023208990693092346,0.00237882137298584,0.019893139600753784
1.1142668766526096,-0.38593980762203084,-0.6207498285995038,-0.496126651763916,0.49950021505355835,-0.25244513154029846,-0.1659436821937561,-0.8975878357887268,-0.40840983390808105,0.008640900254249573,0.022816836833953857,0.029732435941696167
1.1100123034047764,-0.37168441450512774,-0.6305846522074724,-0.6105968356132507,0.5775479674339294,-0.23506681621074677,-0.1614905446767807,-0.8957041501998901,-0.41428840160369873,0.027350574731826782,0.030912339687347412,0.03582465648651123
1.104522910888703,-0.3570772966876168,-0.640278188231425,-0.7176646590232849,0.5973688364028931,-0.17360186576843262,-0.1571381390094757,-0.8932498097419739,-0.4212031662464142,0.031237944960594177,0.0376286506652832,0.03243976831436157
1.0977658177271048,-0.34339877861127965,-0.6488758480351652,-0.809167206287384,0.6008714437484741,-0.08884362876415253,-0.15339094400405884,-0.8901917338371277,-0.42898687720298767,0.03711901605129242,0.043817341327667236,0.03166326880455017
1.0899651152236332,-0.331071103286841,-0.6559268260670613,-0.8654406070709229,0.6077101826667786,-0.008240127936005592,-0.15034374594688416,-0.8866108059883118,-0.4373991787433624,0.04553118348121643,0.05064284801483154,0.02629685401916504
1.081536380309224,-0.320218465432059,-0.661341978444223,-0.8800910115242004,0.5974501371383667,0.07015445828437805,-0.1479351669549942,-0.8826808929443359,-0.4460824429988861,0.05052311718463898,0.06021696329116821,0.01990446448326111
1.0727523758414566,-0.310933054182187,-0.6650383048136562,-0.8919468522071838,0.6101552248001099,0.14498183131217957,-0.14615337550640106,-0.8785186409950256,-0.4548012316226959,0.054692238569259644,0.06847536563873291,0.021466851234436035
1.0635569314199398,-0.30293342965181197,-0.6671370270070194,-0.9144629240036011,0.6138099431991577,0.21496137976646423,-0.14491435885429382,-0.8740888237953186,-0.46364685893058777,0.04979114234447479,0.06619709730148315,0.03771302103996277
1.0539615617348066,-0.29612655619702544,-0.6679801558863929,-0.937407374382019,0.5947552919387817,0.26962995529174805,-0.1441960483789444,-0.8693875670433044,-0.4726232886314392,0.04180961847305298,0.05859661102294922,0.059262633323669434
1.0439651188916943,-0.29033873629503826,-0.6678865353465776,-0.9668934941291809,0.5739898085594177,0.317028284072876,-0.14393898844718933,-0.8644046783447266,-0.48175299167633057,0.0389433354139328,0.05190479755401611,0.07548776268959045
1.0335340441932388,-0.2855163106477336,-0.667009792725803,-1.0012162923812866,0.5351502895355225,0.3609352707862854,-0.14414595067501068,-0.8591130375862122,-0.4910668432712555,0.04659657180309296,0.049222350120544434,0.0817650854587555
1.0227003986304257,-0.2816852387931781,-0.6654839683155808,-1.0297954082489014,0.4916861653327942,0.3956291675567627,-0.14484241604804993,-0.8535181879997253,-0.500527024269104,0.0491546094417572,0.04536700248718262,0.0861746072769165
1.0115123788859013,-0.2785595565882589,-0.6634920776520165,-1.055094838142395,0.47373032569885254,0.42369168996810913,-0.14589396119117737,-0.8476352691650391,-0.5101268887519836,0.050404518842697144,0.04227638244628906,0.08611565828323364
1.0000357082045972,-0.2757014422531086,-0.6611728712306573,-1.075474739074707,0.4884619116783142,0.4429948329925537,-0.14707398414611816,-0.8414902687072754,-0.5198686122894287,0.05271369218826294,0.041792452335357666,0.09161543846130371
0.9882950156130014,-0.27290483863925113,-0.6586649702466673,-1.1000927686691284,0.47715654969215393,0.4526146948337555,-0.1482722908258438,-0.8350892663002014,-0.5297558307647705,0.03662380576133728,0.02992880344390869,0.08802908658981323
0.9764026090910735,-0.27052340609548836,-0.6560523243858635,-1.102655291557312,0.43095043301582336,0.46389609575271606,-0.149653822183609,-0.8284881711006165,-0.5396397709846497,-0.005070239305496216,0.0037049055099487305,0.06484729051589966
0.9645084101320681,-0.26859365684392655,-0.6533143857936682,-1.099282145500183,0.39991047978401184,0.4641821086406708,-0.15121667087078094,-0.8217688798904419,-0.5493900179862976,-0.027250081300735474,-0.02031785249710083,0.03996014595031738
0.9526878752665673,-0.26670881961718196,-0.6509431759440943,-1.1057292222976685,0.3614807724952698,0.4171358644962311,-0.15273046493530273,-0.8149760365486145,-0.5590056777000427,-0.05735251307487488,-0.04719126224517822,0.031997621059417725
0.9408328595224627,-0.2642607178731246,-0.6498017753742946,-1.144014596939087,0.30569392442703247,0.3277263641357422,-0.15387436747550964,-0.8080490231513977,-0.56866455078125,-0.10041329264640808,-0.07786095142364502,0.0223541259765625
0.9287506519247213,-0.2607951750864651,-0.6506817323035424,-1.2092474699020386,0.25261881947517395,0.19462797045707703,-0.15440893173217773,-0.8008723855018616,-0.5785854458808899,-0.1244148463010788,-0.10296660661697388,-0.009473025798797607
0.9164654730401744,-0.25549521464450126,-0.6539162732363448,-1.2550405263900757,0.3037634789943695,0.057758547365665436,-0.15381532907485962,-0.7934553623199463,-0.5888711810112,-0.1335381120443344,-0.11151278018951416,-0.03738003969192505
0.9041326767928455,-0.247758659506183,-0.6590454376434669,-1.278664231300354,0.4367995262145996,-0.044610973447561264,-0.1516432762145996,-0.7858891487121582,-0.5994852185249329,-0.12960666418075562,-0.0976405143737793,-0.04118555784225464
0.8917953958772816,-0.23796362246244954,-0.665132546286425,-1.2905632257461548,0.558172881603241,-0.09087860584259033,-0.14803847670555115,-0.7782005667686462,-0.6103183031082153,-0.11009439826011658,-0.07635265588760376,-0.04429900646209717
0.8794116644982453,-0.2271406259361593,-0.671458273804782,-1.30886709690094,0.6143101453781128,-0.10344066470861435,-0.143583744764328,-0.7703638672828674,-0.6212270855903625,-0.09132526814937592,-0.07256203889846802,-0.05582064390182495
0.8668372945767708,-0.2164703351587252,-0.6772332290804866,-1.2816847562789917,0.628122091293335,-0.06908668577671051,-0.13901673257350922,-0.7622857093811035,-0.6321351528167725,-0.06293326616287231,-0.09451049566268921,-0.07398056983947754
0.8548747067709657,-0.20632655186585022,-0.682257948458689,-1.179875135421753,0.6316810846328735,-0.07334330677986145,-0.134456068277359,-0.7544887065887451,-0.6423926949501038,-0.06453372538089752,-0.09077191352844238,-0.12466663122177124
0.8438741921959939,-0.19641733717174292,-0.6870533505798063,-1.100888967514038,0.6255813837051392,-0.1096818745136261,-0.12969593703746796,-0.7472233772277832,-0.6517946124076843,-0.07747258245944977,-0.07910102605819702,-0.12586963176727295
0.8334488393825453,-0.18639873820220304,-0.6920841167774848,-1.0693230628967285,0.6270369291305542,-0.15508908033370972,-0.12459640204906464,-0.7402545213699341,-0.6606806516647339,-0.07355418801307678,-0.06824761629104614,-0.10614979267120361
0.8234616504855305,-0.17627863607724412,-0.6974127147108198,-1.0181938409805298,0.6067564487457275,-0.19140714406967163,-0.11919457465410233,-0.7335030436515808,-0.6691530346870422,-0.058936476707458496,-0.06488251686096191,-0.11437052488327026
0.8141590089849794,-0.16635772328529358,-0.7027623202781418,-0.9260638356208801,0.5930293202400208,-0.20996730029582977,-0.11367523670196533,-0.7271485328674316,-0.6770028471946716,-0.04584008455276489,-0.06267684698104858,-0.13548189401626587
0.8059657417485062,-0.15679837780942715,-0.7078457068653022,-0.7954924702644348,0.5751650929450989,-0.21334178745746613,-0.10812518000602722,-0.7214996814727783,-0.6839203834533691,-0.0361160933971405,-0.04618525505065918,-0.14356374740600586
0.7990935291433652,-0.14802972360446198,-0.7123715335187589,-0.6540042161941528,0.5235822796821594,-0.19769172370433807,-0.10285292565822601,-0.7167242765426636,-0.6897301077842712,-0.028586238622665405,-0.019344449043273926,-0.14373540878295898
0.7935027991034789,-0.14026936998890108,-0.7162423393942667,-0.5249727368354797,0.47314733266830444,-0.1793590635061264,-0.09805602580308914,-0.7128143310546875,-0.694464385509491,-0.01243281364440918,-0.0025481581687927246,-0.1365903615951538
0.7891729257594108,-0.13333437698841158,-0.7195429892566448,-0.3944889008998871,0.444026917219162,-0.16043634712696075,-0.09364701807498932,-0.709770917892456,-0.698180079460144,0.00029378384351730347,0.00505906343460083,-0.12454324960708618
0.7860662939429527,-0.12698521808108418,-0.7223148287258788,-0.27002981305122375,0.4281552731990814,-0.14469866454601288,-0.08949113637208939,-0.7075790762901306,-0.7009445428848267,0.00871114432811737,0.01739358901977539,-0.10577237606048584
0.7841135254738025,-0.12121981620748884,-0.7246244144301637,-0.15876175463199615,0.39486584067344666,-0.13268378376960754,-0.0856153666973114,-0.7061977982521057,-0.7028191089630127,0.009672433137893677,0.02562534809112549,-0.0852515697479248
0.7831274250985081,-0.11614261705186504,-0.7265992183431154,-0.07184655964374542,0.34042948484420776,-0.12092353403568268,-0.08212658017873764,-0.7054992914199829,-0.7039360404014587,0.006931319832801819,0.02904665470123291,-0.06739568710327148
0.7829052132668021,-0.11188898150573755,-0.7282526976869539,0.004307790193706751,0.2775474190711975,-0.10617105662822723,-0.07914905995130539,-0.7053418159484863,-0.7044347524642944,0.019777148962020874,0.03502321243286133,-0.057695984840393066
0.7834078626871273,-0.10839566969123408,-0.7295614257416627,0.07495693117380142,0.2352982461452484,-0.08986585587263107,-0.07664940506219864,-0.7056980133056641,-0.7043544054031372,0.028996244072914124,0.04268842935562134,-0.04904830455780029
0.7846498166413717,-0.1054903504245027,-0.7305690469182047,0.15261851251125336,0.20485147833824158,-0.08224137127399445,-0.0745103657245636,-0.7065774202346802,-0.7037020325660706,0.027437061071395874,0.048725247383117676,-0.03413671255111694
0.7865371112425696,-0.10290962151334665,-0.7315083318342687,0.20504364371299744,0.17872214317321777,-0.0898207277059555,-0.07255693525075912,-0.7079116702079773,-0.7025641798973083,0.016725078225135803,0.04697728157043457,-0.014751434326171875
0.7888349943952954,-0.10048102576056865,-0.7325928096738332,0.23356893658638,0.15230262279510498,-0.10740092396736145,-0.07068711519241333,-0.7095327973365784,-0.701117992401123,0.010994777083396912,0.036696553230285645,0.0010905265808105469
0.7912787698071199,-0.09818368795580741,-0.7338604266764952,0.23326346278190613,0.12524384260177612,-0.11489558964967728,-0.06890604645013809,-0.711252748966217,-0.6995508670806885,0.01618698239326477,0.028788208961486816,0.016491174697875977
0.7937091191116411,-0.09608544112749003,-0.735152966263271,0.23133093118667603,0.10802589356899261,-0.10850713402032852,-0.06727202981710434,-0.7129590511322021,-0.6979712843894958,0.028423219919204712,0.02463507652282715,0.02756112813949585
0.7960979767632467,-0.09419981153715185,-0.7362689528700409,0.23115196824073792,0.10814014077186584,-0.08698426932096481,-0.0657954066991806,-0.7146320939064026,-0.6963992714881897,0.041137248277664185,0.026872694492340088,0.0318790078163147
0.7985498984817118,-0.09253519520753063,-0.7370500104300818,0.24818186461925507,0.11208581179380417,-0.06843235343694687,-0.06447397917509079,-0.7163450121879578,-0.6947610378265381,0.03427688777446747,0.02939438819885254,0.027051687240600586
0.8011677689124731,-0.09110563947397667,-0.7376148899052176,0.26422154903411865,0.09065509587526321,-0.05874057859182358,-0.06330988556146622,-0.7181692123413086,-0.6929826140403748,0.008515611290931702,0.020796775817871094,0.011753976345062256
0.8039378353104861,-0.08996401220209284,-0.7380682405408417,0.2807474136352539,0.07243236899375916,-0.05693994462490082,-0.06233973428606987,-0.7200940251350403,-0.6910703182220459,0.0023880042135715485,0.005036771297454834,-0.004028499126434326
0.8068401660902326,-0.0888821751812528,-0.7384827674780315,0.29078513383865356,0.08652954548597336,-0.05484696477651596,-0.06140630692243576,-0.7221048474311829,-0.6890528798103333,-4.0784478187561035e-05,-0.008073925971984863,-0.009708166122436523
0.8097897340004996,-0.08756762383697037,-0.7388921242048027,0.2869175672531128,0.11457482725381851,-0.04998738318681717,-0.06031392514705658,-0.7241421937942505,-0.687008261680603,-0.001911357045173645,-0.008020281791687012,-0.005008339881896973
0.8126180978171791,-0.08608442236589905,-0.7391807636303488,0.2651960253715515,0.13789960741996765,-0.03947588801383972,-0.05911855027079582,-0.7260898351669312,-0.6850536465644836,0.0009520947933197021,-0.0035853981971740723,0.004313290119171143
0.8151085993008889,-0.08441054927457442,-0.7394043633986244,0.2256772369146347,0.1580597162246704,-0.03474434092640877,-0.05781913548707962,-0.7278000712394714,-0.6833475828170776,-0.0034906528890132904,-0.008970499038696289,0.007535874843597412
0.8171337931370036,-0.0825544302826581,-0.7396681961743092,0.1749488115310669,0.1746504008769989,-0.03489747270941734,-0.056429002434015274,-0.7291874289512634,-0.6819834113121033,-0.008191913366317749,-0.013000011444091797,0.0040811896324157715
0.8187045248966205,-0.08028197539347412,-0.7400924904620675,0.1363455206155777,0.22245678305625916,-0.04663891717791557,-0.05478715896606445,-0.7302614450454712,-0.6809673309326172,-0.009482797235250473,-0.013070404529571533,0.0015850663185119629
0.8199719295901519,-0.0772520417598787,-0.7407470924943911,0.1089775487780571,0.2901918888092041,-0.061862874776124954,-0.052652157843112946,-0.7311266660690308,-0.6802069544792175,-0.012716442346572876,-0.010114789009094238,0.0010687708854675293
0.8210197871457652,-0.07350353031672006,-0.7416246096345472,0.09162383526563644,0.3208020329475403,-0.06962935626506805,-0.050045743584632874,-0.7318411469459534,-0.6796351075172424,-0.014529407024383545,-0.007904887199401855,0.002389073371887207
0.8219365106783368,-0.0696754422817707,-0.7425445510514211,0.08175895363092422,0.30246537923812866,-0.06559120118618011,-0.0473969504237175,-0.7324655652046204,-0.6791521906852722,-0.009747177362442017,-0.009065747261047363,0.0013415217399597168
0.8228304056955212,-0.06623222240333149,-0.7433153837771804,0.09010335057973862,0.27147871255874634,-0.052075114101171494,-0.04501485079526901,-0.733073890209198,-0.6786577701568604,-0.0021652579307556152,-0.008533775806427002,-0.0052411556243896484
0.8238517465268843,-0.06322158530493048,-0.7438475152368992,0.11138014495372772,0.24958939850330353,-0.03509186953306198,-0.04292413592338562,-0.7337681651115417,-0.6780426502227783,0.0007946491241455078,-0.004070580005645752,-0.00730586051940918
0.8251035115873105,-0.0605256549839964,-0.7442698402677516,0.13288699090480804,0.22496294975280762,-0.04145396500825882,-0.041040435433387756,-0.7346180081367493,-0.6772385835647583,-0.013143479824066162,-0.001908421516418457,-0.004554629325866699
0.8265585275843561,-0.057918795968028194,-0.7449953702060906,0.1474587321281433,0.18449515104293823,-0.07532351464033127,-0.039212916046381,-0.735604465007782,-0.6762754321098328,-0.033739328384399414,-0.010611355304718018,-0.0006349086761474609
0.8280274318121758,-0.05540496213471897,-0.7462631926502405,0.13381421566009521,0.12901447713375092,-0.10826427489519119,-0.03745286911725998,-0.7365986704826355,-0.6752921938896179,-0.026496674865484238,-0.01974886655807495,0.00514143705368042
0.8293439860310835,-0.053083034653069794,-0.7479533119129063,0.11567969620227814,0.08660469949245453,-0.1309264451265335,-0.03583330288529396,-0.7374885082244873,-0.6744083166122437,-0.013559337705373764,-0.02159041166305542,0.006241261959075928
0.8305177829322585,-0.05083406140401433,-0.7499105867914888,0.1068042665719986,0.07745276391506195,-0.1472470909357071,-0.034272484481334686,-0.738280713558197,-0.6736223101615906,-0.013914734125137329,-0.01689201593399048,-0.002937138080596924
0.8316957106225862,-0.04824853184338203,-0.7522402930483248,0.11582253128290176,0.09584588557481766,-0.17941595613956451,-0.032488733530044556,-0.73907470703125,-0.6728395223617554,-0.03478723764419556,-0.015121400356292725,-0.01804792881011963
0.8330119313242731,-0.045060569171587794,-0.7550170264062909,0.1311134546995163,0.12949612736701965,-0.2016114890575409,-0.030299736186861992,-0.7399607300758362,-0.6719672679901123,-0.04117238521575928,-0.012419641017913818,-0.035506486892700195
0.834589696749247,-0.04141278660375508,-0.7579241910969172,0.16773857176303864,0.1699008047580719,-0.19438420236110687,-0.027799982577562332,-0.7410210371017456,-0.6709060072898865,-0.023896723985671997,-0.007025718688964844,-0.044319212436676025
0.8365485731944342,-0.037599942368232296,-0.7605459050538093,0.2070072591304779,0.2003728151321411,-0.1689847856760025,-0.025187114253640175,-0.7423349618911743,-0.6695553660392761,-0.005681365728378296,-0.002538025379180908,-0.0437166690826416
0.8388471676503584,-0.03396328163585653,-0.7626724045250391,0.24110904335975647,0.20750023424625397,-0.13291679322719574,-0.022694004699587822,-0.7438731789588928,-0.6679354310035706,0.003391653299331665,0.0029063820838928223,-0.03154277801513672
0.8413881523773723,-0.03054794101171421,-0.7644288837788608,0.25311505794525146,0.20810632407665253,-0.1163523942232132,-0.020354852080345154,-0.7455689311027527,-0.6661175489425659,0.0030972063541412354,0.001580953598022461,-0.017949223518371582
0.8439376786060584,-0.027386045819162895,-0.7659969040095834,0.248475581407547,0.18853448331356049,-0.10637299716472626,-0.018196452409029007,-0.7472655773162842,-0.6642763614654541,0.00170174241065979,0.001278698444366455,-0.0045468807220458984
0.8464045193188944,-0.024589174552219772,-0.7674342079594915,0.23755411803722382,0.15451839566230774,-0.09685461968183517,-0.016293112188577652,-0.7489026188850403,-0.6624796986579895,0.005123736336827278,0.0032514333724975586,0.005070030689239502
0.8487764768813365,-0.022009989264379824,-0.7689193153877734,0.22669081389904022,0.13852877914905548,-0.11143622547388077,-0.014545267447829247,-0.750472366809845,-0.6607417464256287,-0.002468227408826351,-0.005585312843322754,0.009923934936523438
0.8509480728637747,-0.019256435154153984,-0.7707791396790379,0.19816787540912628,0.13254356384277344,-0.14233547449111938,-0.012694417499005795,-0.7519057989120483,-0.6591483950614929,-0.019257456064224243,-0.02046358585357666,0.01092451810836792
0.8527248714869416,-0.016073741352186987,-0.7732663201675662,0.14854945242404938,0.12937119603157043,-0.18922069668769836,-0.010574998334050179,-0.7530759572982788,-0.657848596572876,-0.024459153413772583,-0.026251375675201416,0.020565271377563477
0.8540074063132527,-0.012359153344343095,-0.7763950341623675,0.10041533410549164,0.14400643110275269,-0.21924832463264465,-0.008119352161884308,-0.7539191842079163,-0.6569170355796814,-0.016615092754364014,-0.023622989654541016,0.027202069759368896
0.8548836948203458,-0.008287386057875188,-0.7797674920122736,0.07278396934270859,0.15941308438777924,-0.21959400177001953,-0.005439001135528088,-0.7544946074485779,-0.6562837362289429,-0.006539106369018555,-0.01145082712173462,0.01933610439300537
0.8555889656638674,-0.004311085106979537,-0.7829062755526658,0.06991538405418396,0.16334016621112823,-0.18998126685619354,-0.002827088814228773,-0.7549572587013245,-0.6557679176330566,0.00601622462272644,0.0005475282669067383,0.006521701812744141
0.8563684760117855,-0.0006521649478242318,-0.785537908624186,0.08380457013845444,0.17331157624721527,-0.15425468981266022,-0.00042728884727694094,-0.7554682493209839,-0.6551851034164429,0.014679044485092163,-0.0018559694290161133,0.0006898641586303711
0.8573069059713387,0.0027475283434624104,-0.7876735793975339,0.10170625150203705,0.18257883191108704,-0.1263389140367508,0.0017981891287490726,-0.7560827136039734,-0.6544735431671143,0.006212711334228516,-0.006704092025756836,0.006676912307739258
0.858315861954263,0.005941752306456481,-0.7895979851070383,0.10112621635198593,0.16350659728050232,-0.12432369589805603,0.0038841762579977512,-0.7567427158355713,-0.6537011861801147,-0.0010002257768064737,-0.0065934062004089355,0.01762336492538452
0.8592801158831523,0.008921485250034928,-0.7916219722090139,0.09284509718418121,0.12016201764345169,-0.13885125517845154,0.005825499538332224,-0.7573726773262024,-0.6529568433761597,-0.0032009482383728027,-0.010022282600402832,0.03290069103240967
0.8601177957439419,0.011591100442172042,-0.7940305433967344,0.07547756284475327,0.0445367693901062,-0.17298126220703125,0.007561264093965292,-0.757919430732727,-0.6523043513298035,-0.005592823028564453,-0.01757800579071045,0.04660677909851074
0.8607739009984143,0.014025313944792304,-0.7969511911566215,0.06285066157579422,0.003672681748867035,-0.20408734679222107,0.00914211105555296,-0.7583472728729248,-0.6517865657806396,-0.004457623697817326,-0.02316206693649292,0.046134769916534424
0.8613740289201486,0.016558930485512734,-0.8002900650557141,0.06870614737272263,-0.0026805559173226357,-0.22726483643054962,0.010785920545458794,-0.7587383389472961,-0.6513062715530396,-0.003934681415557861,-0.020802617073059082,0.03698742389678955
0.8621830410554366,0.019268471250910864,-0.8038915641148114,0.10552693903446198,0.004738118499517441,-0.24003668129444122,0.012538788840174675,-0.7592650651931763,-0.6506606936454773,-0.008693516254425049,-0.009960949420928955,0.024516284465789795
0.8634626877730882,0.02201853883389971,-0.8074779772016631,0.16795435547828674,-0.0030319206416606903,-0.21214112639427185,0.014306696131825447,-0.7600972056388855,-0.649651825428009,0.0002960255369544029,0.009441137313842773,0.011666655540466309
0.8652897261856911,0.023934684594480796,-0.8101395692026176,0.19630654156208038,-0.035671643912792206,-0.1273878961801529,0.01551823504269123,-0.7612831592559814,-0.6482337713241577,0.0410003662109375,0.022879958152770996,0.04590839147567749
0.8672751693618967,0.023485738607740638,-0.8112748345293785,0.197363018989563,-0.21781852841377258,-0.015627805143594742,0.01519168820232153,-0.7625690698623657,-0.6467284560203552,0.06065979599952698,0.03388559818267822,0.04406726360321045
0.8695058015752265,0.020378831111890348,-0.8107896417702142,0.22805927693843842,-0.3050575852394104,0.07431957125663757,0.013147596269845963,-0.7640101909637451,-0.6450701951980591,0.039861470460891724,0.03311419486999512,0.006413578987121582
0.8722013987638972,0.016311954309690135,-0.809373983460988,0.2729678750038147,-0.2696266174316406,0.10527855157852173,0.01049044355750084,-0.7657465934753418,-0.6430567502975464,-0.0017623603343963623,0.023696482181549072,-0.03310596942901611
0.8752400904504747,0.01299897678927496,-0.8079597890127383,0.3301490247249603,-0.17341870069503784,0.07898885011672974,0.008329671807587147,-0.7676973938941956,-0.6407583355903625,-0.04218888282775879,0.018582522869110107,-0.07985323667526245
0.8787450182306064,0.011218828861902615,-0.8071897645150393,0.3608166575431824,-0.06023728847503662,0.026046274229884148,0.007158785127103329,-0.7699386477470398,-0.6380777359008789,-0.06376883387565613,-0.0010879039764404297,-0.0923452377319336
0.8821836085947686,0.0110862241239936,-0.8072456396918376,0.3165198862552643,0.013029517605900764,-0.02551729790866375,0.007044780999422073,-0.7721283435821533,-0.6354275941848755,-0.05683416128158569,-0.02158808708190918,-0.05426967144012451
0.8848517075087953,0.011600910711512551,-0.8078984236831992,0.20973405241966248,-0.02166374772787094,-0.04587636888027191,0.007347900420427322,-0.7738210558891296,-0.6333615183830261,-0.03757551312446594,-0.024106740951538086,-0.010879755020141602
0.8864209178259832,0.011458791959474628,-0.8083999494078925,0.10556840151548386,-0.0845138356089592,-0.005749725736677647,0.00724396575242281,-0.7748140692710876,-0.6321476697921753,-0.011516362428665161,-0.021130084991455078,0.010062098503112793
0.8870023054897272,0.00989555176093707,-0.8078400307947857,0.010212319903075695,-0.1416570097208023,0.07746554166078568,0.006251298822462559,-0.7751814723014832,-0.6317075490951538,0.017552465200424194,-0.02212071418762207,0.02185952663421631
0.8867393165462205,0.006697149748529537,-0.8059586799922723,-0.06243468448519707,-0.2095841020345688,0.16018643975257874,0.0042321812361478806,-0.7750152945518494,-0.6319282650947571,0.028116494417190552,-0.02417898178100586,0.013321638107299805
0.8858517879119289,0.0019536121854745463,-0.8028378383811042,-0.11365685611963272,-0.24592825770378113,0.231577530503273,0.0012359129032120109,-0.7744541168212891,-0.6326287984848022,0.022049039602279663,-0.018560349941253662,-0.005325913429260254
0.884565710648224,-0.0035841153071895305,-0.7987258880413909,-0.1362001597881317,-0.21211887896060944,0.2827834486961365,-0.0022709821350872517,-0.7736398577690125,-0.6336215138435364,0.009427398443222046,-0.016200780868530273,-0.0184171199798584
0.8831376186063432,-0.008798470434521297,-0.7941567876801792,-0.1420639157295227,-0.12222149223089218,0.28937530517578125,-0.00558457849547267,-0.7727342247962952,-0.634705126285553,-0.018905729055404663,-0.02414071559906006,-0.03248542547225952
0.8816734218220064,-0.012883300741909824,-0.7898247356196029,-0.13917827606201172,-0.02394949644804001,0.2595479190349579,-0.008191755041480064,-0.7718040347099304,-0.6358076930046082,-0.045854806900024414,-0.028656721115112305,-0.043620407581329346
0.8803142544024238,-0.015311182750650461,-0.7862173889624657,-0.12031324952840805,0.09858787059783936,0.19851306080818176,-0.009751446545124054,-0.77093905210495,-0.6368342041969299,-0.06024056673049927,-0.032634437084198,-0.05249685049057007
0.8792720504904832,-0.015586426778871473,-0.7837378998332627,-0.08008211851119995,0.21996939182281494,0.11615612357854843,-0.009939250536262989,-0.7702748775482178,-0.6376346349716187,-0.0766390860080719,-0.03490090370178223,-0.05079615116119385
0.8786359585190544,-0.013904453331499157,-0.7826916532858625,-0.044903628528118134,0.2658756375312805,0.022085554897785187,-0.008873561397194862,-0.7698690891265869,-0.6381401419639587,-0.0738595724105835,-0.03292626142501831,-0.04101330041885376
0.8784036668216374,-0.011195419006684,-0.7828584879080219,0.00033560488373041153,0.24627475440502167,-0.03840824216604233,-0.007146789226680994,-0.7697207927703857,-0.6383405923843384,-0.05434608459472656,-0.030923068523406982,-0.04569566249847412
0.8787333957474562,-0.008295532851252431,-0.7836377669616326,0.06647893786430359,0.21043339371681213,-0.05805091932415962,-0.005293541122227907,-0.7699312567710876,-0.6381048560142517,-0.032532960176467896,-0.025448322296142578,-0.051271915435791016
0.8798127465066802,-0.005675734727752772,-0.7846001903674197,0.1503458023071289,0.15789704024791718,-0.06903988867998123,-0.0036171001847833395,-0.7706195712089539,-0.6372851133346558,-0.020171314477920532,-0.015894711017608643,-0.04487431049346924
0.881767424531341,-0.003516918854318287,-0.7858739578514394,0.2378881722688675,0.07689087837934494,-0.09842254221439362,-0.002236010041087866,-0.7718638181686401,-0.6357840299606323,-0.02481779456138611,-0.010957837104797363,-0.044849514961242676
0.8846561247444077,-0.0016061210310874343,-0.7878039904798569,0.3390856087207794,0.01107168011367321,-0.1452498733997345,-0.0010175665374845266,-0.7736971974372864,-0.6335547566413879,-0.033131569623947144,-0.013915657997131348,-0.04869621992111206
0.8885681209903968,0.00030270388482896615,-0.7904717807174948,0.4423832297325134,-0.040591515600681305,-0.1868647038936615,0.00019086204702034593,-0.7761697173118591,-0.6305239200592041,-0.030677884817123413,-0.011397361755371094,-0.0470578670501709
0.8934501827805125,0.0020884438834892867,-0.793642351664829,0.5274365544319153,-0.09926073998212814,-0.20843693614006042,0.001308883773162961,-0.7792387008666992,-0.6267259120941162,-0.019710928201675415,-0.005658149719238281,-0.03487992286682129
0.898948250499381,0.0034350335562013433,-0.7971587977102683,0.5639833807945251,-0.18055957555770874,-0.22672192752361298,0.002138075651600957,-0.7826727032661438,-0.6224297881126404,-0.01597774028778076,-0.006389737129211426,-0.02161318063735962
0.9046525658934588,0.0043353671676779285,-0.8010594408310375,0.5749541521072388,-0.239204540848732,-0.25045159459114075,0.002679069759324193,-0.7862104773521423,-0.6179529428482056,-0.021905124187469482,-0.00982522964477539,-0.023068785667419434
0.9104608478692733,0.0053672561107860435,-0.8053466371517954,0.5870222449302673,-0.2258935272693634,-0.2688087522983551,0.003292161738499999,-0.7897865176200867,-0.6133730411529541,-0.02114492654800415,-0.00701218843460083,-0.0277402400970459
0.9164168032854849,0.006911694901223693,-0.809950589490813,0.6065775752067566,-0.19572444260120392,-0.2844974398612976,0.004206887912005186,-0.7934257388114929,-0.6086525917053223,-0.016322314739227295,0.0034019947052001953,-0.023290157318115234
0.9225133257376473,0.008824215593959663,-0.8147268310411393,0.6132064461708069,-0.17374376952648163,-0.2822217643260956,0.005328156054019928,-0.7971217036247253,-0.603795051574707,-0.011141687631607056,0.007113277912139893,-0.023524224758148193
0.9285564020801929,0.011100442473708203,-0.8194414539663449,0.5982344150543213,-0.11734311282634735,-0.2698717415332794,0.0066489228047430515,-0.8007560968399048,-0.5989536046981812,-0.010646700859069824,0.0043999552726745605,-0.03503382205963135
0.9344566443160369,0.013882492028578221,-0.8239569768620676,0.5841407179832458,-0.04916485771536827,-0.2505265176296234,0.008249480277299881,-0.8042762875556946,-0.5941981077194214,-0.013162762857973576,0.006302773952484131,-0.04023176431655884
0.940259924582643,0.017099657936393915,-0.8281814071687827,0.5813177227973938,0.008301987312734127,-0.2303851842880249,0.010081090964376926,-0.8077113628387451,-0.5894918441772461,-0.004420042969286442,0.016817927360534668,-0.039963722229003906
0.9460567981565159,0.020524414394695295,-0.8321397038053816,0.580618679523468,0.02990581840276718,-0.2161782830953598,0.012003601528704166,-0.8111155033111572,-0.5847628712654114,-0.00017801020294427872,0.017536282539367676,-0.030776500701904297
0.9517648265619932,0.024107051444221112,-0.836213182641986,0.5643200278282166,0.02122063934803009,-0.23589715361595154,0.0139866778627038,-0.8144407868385315,-0.5800778865814209,-0.016290724277496338,-0.001858532428741455,-0.021682918071746826
0.9573241711103793,0.028105657654571695,-0.840994694469615,0.5566146969795227,-0.007067459169775248,-0.2884248197078705,0.01617857813835144,-0.817654013633728,-0.5754826068878174,-0.034183889627456665,-0.011355936527252197,-0.020067930221557617
0.9628613054259466,0.03258066378035389,-0.846825219569864,0.5718273520469666,-0.05228407308459282,-0.3420066833496094,0.018605925142765045,-0.8208292126655579,-0.5708705186843872,-0.02892082929611206,-0.0016041994094848633,-0.019522547721862793
0.9686382171238589,0.037257556689156965,-0.8535163451813004,0.6048817038536072,-0.11769770830869675,-0.37294650077819824,0.021098630502820015,-0.8241151571273804,-0.5660292506217957,-0.010539503768086433,0.0030092597007751465,-0.024226486682891846
0.9747741952606866,0.0415950901737196,-0.8605981302692675,0.6489431262016296,-0.17821085453033447,-0.37003016471862793,0.023342877626419067,-0.827575147151947,-0.5608693957328796,0.0035583972930908203,9.107589721679688e-05,-0.03468114137649536
0.9813370035707595,0.04544533014237954,-0.8676280154928788,0.6903067827224731,-0.21273499727249146,-0.35418701171875,0.02525489591062069,-0.8312413692474365,-0.5553377270698547,0.01191556453704834,-0.0006372928619384766,-0.042089641094207764
0.9882743883355186,0.048852289551838936,-0.8744424808657747,0.7278077006340027,-0.23741573095321655,-0.3323836624622345,0.02686449885368347,-0.8350778818130493,-0.5494752526283264,0.009253112599253654,0.006800413131713867,-0.04064309597015381
0.9955474096862809,0.05186957136295102,-0.881097558576284,0.7546060085296631,-0.26822370290756226,-0.3224431574344635,0.028206652030348778,-0.8390569090843201,-0.5433118343353271,0.0035621821880340576,0.008627891540527344,-0.04462456703186035
1.0030375541411625,0.05499005129184218,-0.8878103137435389,0.7698349952697754,-0.22599579393863678,-0.31830379366874695,0.029555654153227806,-0.8431082963943481,-0.5369308590888977,-0.009093554690480232,0.0034019947052001953,-0.04178917407989502
1.0105358988458573,0.05888462333649559,-0.8945141151352514,0.7640972137451172,-0.12882210314273834,-0.31151217222213745,0.03127360716462135,-0.8471167683601379,-0.5304857492446899,-0.014260023832321167,0.005304694175720215,-0.02780282497406006
1.0178828602642769,0.06363462029088551,-0.9011814600021592,0.7394229769706726,-0.05746596306562424,-0.29916951060295105,0.03339635953307152,-0.8509981036186218,-0.5241057276725769,-0.011499974876642227,0.007278740406036377,-0.014422714710235596
1.0249769387814023,0.06876864835321286,-0.9077385667001587,0.7139663696289062,-0.03930426388978958,-0.2872321605682373,0.03567094728350639,-0.8547022342681885,-0.517891526222229,0.0032390058040618896,0.003551781177520752,-0.0007547140121459961
1.0317481625125655,0.07363923201157611,-0.9139928786874971,0.6758157014846802,-0.06210935860872269,-0.2557149827480316,0.03776628151535988,-0.8581976890563965,-0.5119280815124512,0.017455335706472397,0.00019603967666625977,0.015758097171783447
1.0380954114121101,0.0777299879528492,-0.9196184779694832,0.6303536891937256,-0.08390626311302185,-0.21652495861053467,0.03943634405732155,-0.861438512802124,-0.5063282251358032,0.02756502851843834,0.0003088712692260742,0.0340535044670105
1.0440493660973875,0.08110628938272767,-0.9245032550814762,0.5916752219200134,-0.0829341784119606,-0.18227367103099823,0.04072936996817589,-0.8644469976425171,-0.5010711550712585,0.02795049175620079,0.005514621734619141,0.04703068733215332
1.049630699637388,0.08396679827754247,-0.9289260545445314,0.5521438121795654,-0.11499384045600891,-0.16697940230369568,0.041757214814424515,-0.8672394156455994,-0.49613699316978455,0.010153200477361679,0.004782319068908691,0.051984190940856934
1.0548229104020124,0.08629134928908279,-0.9331170591922543,0.5177377462387085,-0.14600297808647156,-0.1589111089706421,0.042521752417087555,-0.8698128461837769,-0.4915458858013153,0.006382700055837631,-0.0016775131225585938,0.04453966021537781
