attitudeX,attitudeY,attitudeZ,gyroX,gyroY,gyroZ,gravityX,gravityY,gravityZ,accX,accY,accZ
1.0779022284033157,-0.16998102308945293,-0.7431151355235411,0.07408762723207474,-0.06964289397001266,-0.09707360714673996,-0.08004443347454071,-0.8809671401977539,-0.4663580656051636,-0.03752449154853821,-0.014784812927246094,0.020862460136413574
1.0786161435978912,-0.16915297383913097,-0.7449266823477616,0.018129287287592888,-0.09173940122127533,-0.06804514676332474,-0.0795523077249527,-0.8813047409057617,-0.46580395102500916,-0.02011805772781372,-0.014492928981781006,0.027251064777374268
1.0786122136503529,-0.16903334587364105,-0.7461504320408455,-0.042790595442056656,-0.11077048629522324,-0.028181204572319984,-0.07949715852737427,-0.8813028335571289,-0.46581679582595825,-0.01809798926115036,-0.007719814777374268,0.025661766529083252
1.077990571443821,-0.16972406323557768,-0.7466644400447721,-0.0844927653670311,-0.11808592826128006,0.002182559110224247,-0.07991142570972443,-0.8810089230537415,-0.4663017988204956,-0.016234159469604492,-0.0048247575759887695,0.012566447257995605
1.0769605438674,-0.17082346021492784,-0.7466090824528707,-0.10492469370365143,-0.08405020833015442,0.02148718759417534,-0.08057822287082672,-0.8805211782455444,-0.46710750460624695,-0.0199771448969841,-0.016649723052978516,-0.011560678482055664
1.0758609905734722,-0.17179342740297557,-0.7463518528798403,-0.09481506794691086,-0.054542914032936096,0.01615074649453163,-0.08119676262140274,-0.8799993991851807,-0.4679830074310303,-0.03402230888605118,-0.023305654525756836,-0.0333293080329895
1.0749862101985914,-0.17234339160638004,-0.746272722331591,-0.06254343688488007,-0.03202618658542633,-0.005981105379760265,-0.0815860852599144,-0.8795835971832275,-0.46869635581970215,-0.04297133535146713,-0.02027285099029541,-0.043754786252975464
1.0746069631789288,-0.17243363161188474,-0.7465106730110138,-0.0142587348818779,-0.017548708245158195,-0.025646420195698738,-0.08168564736843109,-0.8794031143188477,-0.46901780366897583,-0.03972849249839783,-0.017966270446777344,-0.04840773344039917
1.0748629125843336,-0.17239420285152543,-0.7468680493277132,0.04129631817340851,-0.026106465607881546,-0.029623307287693024,-0.08162853121757507,-0.8795249462127686,-0.4687992036342621,-0.02538129687309265,-0.015433549880981445,-0.0519527792930603
1.0757601593720727,-0.172531898667405,-0.747114034642645,0.1096508800983429,-0.040183402597904205,-0.030393492430448532,-0.08155755698680878,-0.879951536655426,-0.468010276556015,-0.013779312372207642,-0.0144881010055542,-0.05040711164474487
1.0773023435961864,-0.17315526872337267,-0.7471530609874756,0.1769513487815857,-0.087541863322258,-0.03572940453886986,-0.0816154032945633,-0.8806831240653992,-0.46662211418151855,-0.010837554931640625,-0.020134687423706055,-0.038748979568481445
1.0794339531237056,-0.17432733397580333,-0.7472543925866642,0.2320912927389145,-0.16086053848266602,-0.05133446305990219,-0.08183644711971283,-0.8816908597946167,-0.464676171541214,-0.007503718137741089,-0.019752562046051025,-0.0281522274017334
1.0820686823909784,-0.17602535358205443,-0.7475775236387406,0.28040969371795654,-0.23149588704109192,-0.07561202347278595,-0.08221827447414398,-0.8829309344291687,-0.4622478485107422,-0.0048483312129974365,-0.018329381942749023,-0.019517898559570312
1.085119890116477,-0.1780976324958116,-0.7482036490555448,0.3161378800868988,-0.2829609513282776,-0.10098396241664886,-0.08269833028316498,-0.8843593597412109,-0.4594227969646454,-0.0074658021330833435,-0.01986110210418701,-0.014210015535354614
1.0884836494984749,-0.1801833757937759,-0.7492587430065836,0.34717538952827454,-0.31122422218322754,-0.13414998352527618,-0.08312281221151352,-0.8859245777130127,-0.4563201367855072,-0.009574294090270996,-0.016403794288635254,-0.017450034618377686
1.0921374416160816,-0.18190437143118168,-0.750850743146007,0.3681584298610687,-0.3049045205116272,-0.1591338962316513,-0.08332190662622452,-0.8876134157180786,-0.45298996567726135,-0.009253114461898804,-0.009939014911651611,-0.020078301429748535
1.095973628204873,-0.18311180235160412,-0.7528774356886989,0.37815529108047485,-0.29287153482437134,-0.16944795846939087,-0.08324815332889557,-0.889373779296875,-0.4495375454425812,0.001247495412826538,-0.0028991103172302246,-0.011033773422241211
1.0998367033279077,-0.18423266989612155,-0.7549053268501905,0.37817633152008057,-0.28627434372901917,-0.1538708657026291,-0.08312193304300308,-0.8911332488059998,-0.44606295228004456,0.01317569613456726,0.006688117980957031,-0.003415226936340332
1.1037084860831647,-0.18552996637770183,-0.7565713967177581,0.3807300627231598,-0.2743074893951416,-0.13712313771247864,-0.08306344598531723,-0.8928833603858948,-0.4425603151321411,0.025003790855407715,0.009887874126434326,-0.0004938840866088867
1.107685610622635,-0.1872267290430359,-0.7578635898988907,0.37585726380348206,-0.3005228340625763,-0.12327629327774048,-0.08315258473157883,-0.8946671485900879,-0.438926100730896,0.027458079159259796,0.007094025611877441,0.008292585611343384
1.1115595412343717,-0.18954692543386026,-0.7588980801365047,0.36323222517967224,-0.34362345933914185,-0.10990927368402481,-0.08351709693670273,-0.8963910937309265,-0.43532487750053406,0.02773100882768631,0.007963478565216064,0.021933794021606445
1.115251428878125,-0.19257454614309324,-0.7594190974296386,0.35019391775131226,-0.35640397667884827,-0.07279519736766815,-0.08420077711343765,-0.8980214595794678,-0.4318189024925232,0.02936074137687683,0.013805210590362549,0.027781426906585693
1.118714070580828,-0.19693652354269153,-0.7589126686326897,0.3371039032936096,-0.4326217472553253,-0.016700224950909615,-0.0854746401309967,-0.8995394706726074,-0.42839568853378296,0.03626510500907898,0.021152079105377197,0.026677489280700684
1.1219567703144584,-0.20366752903949056,-0.756941993126226,0.33462584018707275,-0.5567615032196045,0.05468367412686348,-0.08776577562093735,-0.9009512662887573,-0.42495182156562805,0.05138888955116272,0.0235251784324646,0.014887094497680664
1.125136378606176,-0.2131646555153266,-0.753167227925292,0.35421907901763916,-0.6542671322822571,0.13203872740268707,-0.09119102358818054,-0.9023264050483704,-0.4212968945503235,0.06453398615121841,0.021146714687347412,-0.004179149866104126
1.1284331247706725,-0.22551555742852217,-0.7473887553827748,0.3951055407524109,-0.7703202366828918,0.2036181092262268,-0.09572163224220276,-0.9037425518035889,-0.4172368049621582,0.05768150836229324,0.020686030387878418,-0.015639811754226685
1.1319419765630991,-0.24069192514315332,-0.7399505002912011,0.4288002550601959,-0.9158980846405029,0.24524936079978943,-0.10128597170114517,-0.9052390456199646,-0.4126538932323456,0.03974733501672745,0.02688223123550415,-0.01651480793952942
1.1356421436667399,-0.25835555737929794,-0.7315550664342227,0.45752963423728943,-1.0935478210449219,0.2543123662471771,-0.10770224034786224,-0.9068050384521484,-0.407559335231781,0.03468900918960571,0.03142368793487549,-0.023547232151031494
1.1395399737154281,-0.2780625953132443,-0.7229302856526406,0.48470088839530945,-1.2738054990768433,0.2321753352880478,-0.1147415041923523,-0.9084413051605225,-0.4019559621810913,0.04705358296632767,0.011697649955749512,-0.035376161336898804
1.1438152325933144,-0.29970126394858343,-0.7145406771090694,0.5363669991493225,-1.5477612018585205,0.19229024648666382,-0.12226402014493942,-0.9102200865745544,-0.3956649899482727,0.039790309965610504,-0.027966439723968506,-0.07093355059623718
1.1489567850940268,-0.3254436728398596,-0.7061924060154947,0.6607663631439209,-2.1051316261291504,0.1411403864622116,-0.130909726023674,-0.9123373031616211,-0.3879474699497223,0.030049175024032593,-0.04173368215560913,-0.1458202600479126
1.1555605292817952,-0.36056419865752093,-0.6962658606530634,0.8493897914886475,-3.167872190475464,0.19862951338291168,-0.1423223614692688,-0.9150212407112122,-0.37746572494506836,0.040134310722351074,-0.005602478981018066,-0.22362375259399414
1.1636371538680046,-0.4104797585506352,-0.6823018079367946,1.0630249977111816,-4.182823657989502,0.20833277702331543,-0.1580243855714798,-0.9182494878768921,-0.3631060719490051,0.03732742369174957,0.03511667251586914,-0.24433109164237976
1.1736633410790547,-0.4712677566858877,-0.6655814694731835,1.3026082515716553,-4.842510223388672,0.10872070491313934,-0.17560255527496338,-0.9221736788749695,-0.34461483359336853,-0.043116867542266846,-0.019919157028198242,-0.33221936225891113
1.1864264430235933,-0.5382533116550242,-0.6462295217976172,1.690765380859375,-4.737889766693115,-0.07636001706123352,-0.19222606718540192,-0.9270349144935608,-0.32195553183555603,-0.18788555264472961,-0.017835021018981934,-0.43413275480270386
1.2043567497388146,-0.6043779245831907,-0.6195489076276494,2.3702280521392822,-3.47857666015625,-0.19963879883289337,-0.20360054075717926,-0.9336089491844177,-0.2948240637779236,-0.27189376950263977,-0.0987091064453125,-0.8087831735610962
1.2277680610296677,-0.6734960988296755,-0.5776956624224988,3.1078948974609375,-2.5267415046691895,-0.27520251274108887,-0.20978309214115143,-0.9417404532432556,-0.26289910078048706,-0.2477516233921051,-0.08719015121459961,-0.7890723943710327
1.2563253663236507,-0.7543186277601787,-0.5154680234571155,3.8039681911468506,-1.8913756608963013,-0.43407392501831055,-0.21181528270244598,-0.9509601593017578,-0.2254083752632141,-0.23715923726558685,-0.05434983968734741,-0.8275549411773682
1.2886191700998277,-0.8575585261854038,-0.4264294873301049,4.398923397064209,-1.7811236381530762,-0.5934523940086365,-0.21057507395744324,-0.9604514837265015,-0.1821841299533844,-0.09789654612541199,-0.07204973697662354,-0.811956524848938
1.3216327160442083,-1.0001630126559893,-0.2980233602734929,4.912999629974365,-1.9687081575393677,-0.6155806183815002,-0.20752301812171936,-0.9691190123558044,-0.1332012265920639,0.16798752546310425,-0.11921405792236328,-0.6851582527160645
1.3496433535758152,-1.2053776065834485,-0.10879832150757644,5.433491230010986,-2.2916135787963867,-0.34662169218063354,-0.20487192273139954,-0.9756451845169067,-0.0783844068646431,0.5028303265571594,-0.19639766216278076,-0.5694733262062073
1.3638128669373595,-1.4878962285777557,0.15207594799055624,5.925005912780762,-3.2926762104034424,0.07036623358726501,-0.20480233430862427,-0.9786552786827087,-0.01701713353395462,0.837065577507019,-0.2969793677330017,-0.38724929094314575
1.3563573103894253,-1.816361889718909,0.44745722129644455,6.446775913238525,-4.536008834838867,0.37727129459381104,-0.2064153403043747,-0.977095901966095,0.05173257365822792,0.9406073093414307,-0.33717411756515503,-0.17751073837280273
1.3258255973703574,-2.1269456375814584,0.7167293721585444,7.135768413543701,-5.008588790893555,0.37248507142066956,-0.2059767097234726,-0.9701444506645203,0.12803474068641663,1.1343063116073608,-0.3461242914199829,-0.08502031862735748
1.2767196136853443,-2.3834029943336446,0.9285833219644084,7.681613445281982,-5.379807472229004,0.06078065186738968,-0.19930700957775116,-0.9570701718330383,0.2104588896036148,1.4248930215835571,-0.37551021575927734,0.028630942106246948
1.2143263825382542,-2.582865907849761,1.0801955259837737,8.041193008422852,-5.7904815673828125,-0.08428306132555008,-0.18499037623405457,-0.9371345639228821,0.29590070247650146,1.758995532989502,-0.33779823780059814,0.358945369720459
1.1435627901748597,-2.735945641827375,1.1819153737042047,7.919724464416504,-6.0036444664001465,-0.17908933758735657,-0.16350962221622467,-0.9101155400276184,0.3807280361652374,2.3914148807525635,-0.27038049697875977,0.6484008431434631
1.0712173021716758,-2.847835896983818,1.2370190399371468,7.278091907501221,-6.4005866050720215,0.6302056312561035,-0.1387106478214264,-0.8777843117713928,0.4585343897342682,2.8996970653533936,-0.0034869909286499023,0.9797437191009521
1.001721239301804,-2.9211163245241454,1.246837897417727,6.3568525314331055,-6.512915134429932,1.9530607461929321,-0.11784426867961884,-0.8423997163772583,0.525809645652771,3.3885200023651123,0.057075440883636475,0.9965597987174988
0.9391530960085815,-2.9664590910485824,1.222062368510566,5.337353706359863,-6.540379524230957,3.2105045318603516,-0.10288356989622116,-0.8070583343505859,0.5814393162727356,3.4948818683624268,-0.023935317993164062,0.8718838691711426
0.885273397913594,-2.993277865351998,1.1749376003813676,4.354443073272705,-6.173072814941406,4.16743803024292,-0.0935509130358696,-0.7740880846977234,0.6261273622512817,3.2549889087677,0.03748542070388794,0.7017533183097839
0.8401048022962069,-3.0052304726948655,1.1141108832811444,3.468879222869873,-5.372695446014404,4.893918037414551,-0.09072420001029968,-0.7447130680084229,0.6611890196800232,2.976649522781372,0.10883373022079468,0.40559834241867065
0.8014473939163126,-3.0047574153058516,1.0449571841988305,2.9719910621643066,-4.65238618850708,5.450578212738037,-0.09489502012729645,-0.7183637619018555,0.6891646981239319,2.733505964279175,0.24741655588150024,0.012220561504364014
0.7629603338737548,-2.997558033602241,0.971870025852933,3.2932028770446777,-4.227619647979736,5.821784973144531,-0.1037476658821106,-0.691064178943634,0.7153087258338928,2.397753953933716,0.4463285207748413,-0.5030437707901001
0.7167144601512501,-2.991347535598904,0.8997843211732902,4.324798107147217,-4.279646873474121,6.0195136070251465,-0.11285428702831268,-0.6569110155105591,0.7454739809036255,2.078125238418579,0.6946613788604736,-0.9732573628425598
0.658290033980802,-2.9914289833689316,0.8303009997514528,5.589208126068115,-4.538798809051514,6.330609321594238,-0.1183394193649292,-0.6117650866508484,0.7821372151374817,1.8137435913085938,1.1358587741851807,-1.0832544565200806
0.5874214779019256,-2.9979802472663537,0.7610464037328559,6.698139190673828,-4.846773624420166,6.848410129547119,-0.11912854760885239,-0.5542165637016296,0.823803722858429,1.5244935750961304,1.7253589630126953,-0.9145477414131165
0.5073157678703689,-3.0108911087829635,0.6893872749137574,7.389996528625488,-5.130422115325928,7.400660991668701,-0.11391489952802658,-0.4858328402042389,0.8665964603424072,1.1111226081848145,2.333061933517456,-0.49086427688598633
0.42314712276982375,-3.030043360432253,0.6158274606616001,7.608923435211182,-5.253493785858154,7.559109210968018,-0.10149998217821121,-0.41063204407691956,0.9061342477798462,0.386259526014328,2.861666440963745,0.04464089870452881
0.3411221616546159,-3.0554863087488155,0.544579162101725,7.296216011047363,-5.034448623657227,7.121389389038086,-0.08104465901851654,-0.3345448076725006,0.9388886094093323,-0.7206673622131348,3.2421069145202637,0.6700592041015625
0.2662178834226157,-3.082173183420245,0.4784699364337355,6.6679277420043945,-4.125663757324219,6.5017218589782715,-0.05729256570339203,-0.26308444142341614,0.9630702137947083,-1.9540752172470093,3.7297744750976562,1.253345251083374
0.19967372409084921,-3.1024676245107026,0.41769380988359894,6.00962495803833,-2.6860146522521973,5.9533891677856445,-0.038337890058755875,-0.19834955036640167,0.9793813824653625,-2.9296185970306396,4.301605701446533,1.6851694583892822
0.14105787893370855,-3.112822852726068,0.3600967775631212,5.268482208251953,-1.3639377355575562,5.793455123901367,-0.02848012000322342,-0.14059056341648102,0.9896579384803772,-3.4945149421691895,4.552547454833984,1.9586145877838135
0.09124881781785527,-3.114113631713683,0.30340575647316487,4.301600933074951,-0.20118960738182068,5.630468368530273,-0.027361249551177025,-0.09112223982810974,0.9954634308815002,-3.8609139919281006,3.9343533515930176,2.045475482940674
0.053717126739487815,-3.107889612105418,0.25338550553078404,2.7908763885498047,0.6437385678291321,4.33772611618042,-0.0336480587720871,-0.05369129776954651,0.9979905486106873,-4.276853084564209,2.5198471546173096,1.985392689704895
0.034758505706252135,-3.098564191063486,0.22374120508119658,0.706221342086792,0.8987096548080444,1.5277708768844604,-0.04298919811844826,-0.03475150838494301,0.9984707832336426,-4.733911991119385,1.111732006072998,1.9311096668243408
0.040085834334216315,-3.0890979240491503,0.22685430785641247,-1.7731282711029053,1.0625348091125488,-2.251382827758789,-0.0524284727871418,-0.04007510095834732,0.997820258140564,-4.771409034729004,0.29181456565856934,1.850202202796936
0.07277466804681323,-3.0769908535717603,0.26483213409812867,-4.245367527008057,1.8421751260757446,-5.499913215637207,-0.06438601016998291,-0.07271044701337814,0.9952728152275085,-3.971640110015869,0.25447309017181396,1.6211061477661133
0.12824932038447964,-3.058548262487221,0.3245010305587736,-5.760815620422363,2.9866271018981934,-6.8790202140808105,-0.08226773887872696,-0.12789803743362427,0.9883694052696228,-2.4599380493164062,1.046461820602417,1.02089262008667
0.19568545775517351,-3.0358779464877723,0.3888900934770532,-6.307607650756836,3.4508092403411865,-6.873811721801758,-0.10350403934717178,-0.19443894922733307,0.9754383563995361,-1.160640835762024,1.9637260437011719,0.42295312881469727
0.26433787410534604,-3.016990691631484,0.44756838237520885,-5.835608959197998,2.8937666416168213,-5.919363498687744,-0.11996300518512726,-0.2612701952457428,0.9577820301055908,-0.40103304386138916,2.760324001312256,0.018734455108642578
0.32252481655461085,-3.0061022344978205,0.4953293552386186,-4.368014812469482,2.019484758377075,-4.633433818817139,-0.12811143696308136,-0.31696221232414246,0.9397456645965576,0.13658010959625244,2.995551109313965,-0.6590757966041565
0.3615292603308516,-3.002617942458785,0.5336329575426945,-2.3187155723571777,1.2737430334091187,-3.6041817665100098,-0.12957289814949036,-0.3537050485610962,0.9263385534286499,0.31972798705101013,2.4349582195281982,-1.2432334423065186
0.37938816916083623,-3.0038524837081844,0.566679136569063,-0.4223421812057495,0.9468538165092468,-3.0248966217041016,-0.1275414675474167,-0.37035220861434937,0.9200936555862427,0.21122069656848907,1.822302222251892,-1.4204598665237427
0.3811122336419701,-3.005214526234003,0.5980787375783665,0.7701596021652222,1.1551463603973389,-2.8117103576660156,-0.12620115280151367,-0.3719531297683716,0.9196326732635498,-0.014820560812950134,1.4677324295043945,-1.1641395092010498
0.37469513745636834,-3.0032258238192986,0.6292217028521184,1.211388111114502,1.538812279701233,-2.727402687072754,-0.12835635244846344,-0.3659888207912445,0.9217249155044556,-0.017181962728500366,1.1282720565795898,-0.7220789194107056
0.36632257713617705,-2.9970809124298174,0.659618598931489,1.189584493637085,1.8562439680099487,-2.6356773376464844,-0.13445435464382172,-0.35818442702293396,0.923918604850769,0.0827881395816803,0.7559200525283813,-0.33068764209747314
0.3598281780560119,-2.9881588083580533,0.6891537061089723,0.8832229375839233,1.9774771928787231,-2.629831075668335,-0.14304471015930176,-0.35211342573165894,0.9249616265296936,0.16648225486278534,0.43580785393714905,-0.04857325553894043
0.35733892257885363,-2.9790609847318343,0.7185519185914444,0.46181559562683105,1.8760786056518555,-2.721092462539673,-0.15159514546394348,-0.3497824966907501,0.9244839549064636,0.22250281274318695,0.13591530919075012,0.132598876953125
0.35984496467633287,-2.9708511897093453,0.748136532038516,-0.04823433980345726,1.8533128499984741,-2.791980266571045,-0.15903034806251526,-0.35212913155555725,0.9223416447639465,0.3071932792663574,-0.08770546317100525,0.23445749282836914
0.3676053341270089,-2.9620675747519623,0.7764762844029661,-0.545061469078064,1.9063583612442017,-2.6500513553619385,-0.16663265228271484,-0.3593817949295044,0.9181928634643555,0.4914923310279846,-0.1843346357345581,0.2541855573654175
0.37931190780035023,-2.9515053375337716,0.801558759885514,-0.8686858415603638,2.0214295387268066,-2.3504490852355957,-0.17551440000534058,-0.3702813684940338,0.9121877551078796,0.6822587847709656,-0.22513192892074585,0.15865886211395264
0.3929803018117458,-2.938758915336586,0.8229855790521581,-1.011018991470337,2.1258797645568848,-2.0752525329589844,-0.1860899180173874,-0.3829432427883148,0.9048340916633606,0.7899718284606934,-0.2811192572116852,0.049908220767974854
0.4069357907011288,-2.924439746415765,0.8418291934219249,-0.9652171730995178,2.182307481765747,-1.9043017625808716,-0.1978561133146286,-0.3957972228527069,0.8967704176902771,0.8122513294219971,-0.330963671207428,-0.004573941230773926
0.4197393687601553,-2.909807162327561,0.8596102280378752,-0.7910784482955933,2.139951467514038,-1.8327875137329102,-0.20977523922920227,-0.4075224697589874,0.8887744545936584,0.8136571049690247,-0.3580720126628876,-0.03301560878753662
0.43067090360952826,-2.8958210324543794,0.8768860450842125,-0.5846775770187378,2.079385757446289,-1.7180242538452148,-0.22108758985996246,-0.4174805283546448,0.8813794255256653,0.8775513172149658,-0.40502917766571045,-0.0010544061660766602
0.4395736026664573,-2.8817532929124674,0.8929591557413041,-0.41417303681373596,2.091204881668091,-1.538185477256775,-0.23250016570091248,-0.42555364966392517,0.8745554685592651,0.9668599963188171,-0.42057666182518005,0.08183461427688599
0.4469030859911887,-2.86621911269985,0.9074735140742505,-0.3120786249637604,2.2616302967071533,-1.3725863695144653,-0.24520236253738403,-0.43217483162879944,0.8678134083747864,1.0163205862045288,-0.4389951229095459,0.19651734828948975
0.45320865920225883,-2.848032838747914,0.9203350489094254,-0.252013623714447,2.4698405265808105,-1.1893861293792725,-0.26014962792396545,-0.43785253167152405,0.8605855703353882,1.114153504371643,-0.496885746717453,0.3090617060661316
0.45860514246470124,-2.82750766143138,0.9308434201506204,-0.21632058918476105,2.513474225997925,-0.9226722121238708,-0.27702316641807556,-0.44269782304763794,0.8528051972389221,1.2700194120407104,-0.5420739650726318,0.4585198163986206
0.463016449844631,-2.806363586090669,0.9384492179202097,-0.1809682995080948,2.358708620071411,-0.6459718942642212,-0.29434633255004883,-0.4466489851474762,0.8449051380157471,1.4034466743469238,-0.5557924509048462,0.5801740884780884
0.4661539147476974,-2.786232658992825,0.9434211630993214,-0.0997442826628685,2.0790224075317383,-0.4065968692302704,-0.3108051121234894,-0.4494538903236389,0.8374907970428467,1.5176076889038086,-0.6024564504623413,0.6448850035667419
0.46749360030778614,-2.7688509787181537,0.9465212736953585,0.0550248883664608,1.6439626216888428,-0.21077968180179596,-0.3250948488712311,-0.45065024495124817,0.8314006924629211,1.6101443767547607,-0.6950863599777222,0.6788071393966675
0.4665946738768331,-2.7560788500126363,0.9485854188502743,0.2487136721611023,1.0659235715866089,-0.06498146802186966,-0.33583900332450867,-0.44984757900238037,0.8275558948516846,1.655678629875183,-0.7891050577163696,0.7079357504844666
0.46336039490060854,-2.749694774573612,0.9500074421096716,0.4383279085159302,0.3054415285587311,0.08508200943470001,-0.3416692912578583,-0.44695669412612915,0.8267354965209961,1.7037756443023682,-0.8432654738426208,0.6992195844650269
0.4576510466039285,-2.7510855905264298,0.9499854733410736,0.616829514503479,-0.5889288783073425,0.37906089425086975,-0.34148502349853516,-0.44184210896492004,0.8295563459396362,1.7746515274047852,-0.8274756669998169,0.681353747844696
0.4486079926768433,-2.7600448192430376,0.9467516930136182,0.8422747254371643,-1.4693540334701538,0.8491449356079102,-0.335513174533844,-0.4337116777896881,0.836256206035614,1.7973206043243408,-0.7618296146392822,0.6114059090614319
0.43551480947718507,-2.7754676769649844,0.9395418767567131,1.1153682470321655,-2.1934189796447754,1.2954601049423218,-0.3245815932750702,-0.4218772053718567,0.8465611934661865,1.7098356485366821,-0.745832085609436,0.4736899733543396
0.41868696622719037,-2.7958611122813037,0.9294247480812856,1.3850445747375488,-2.6713366508483887,1.5715283155441284,-0.30961325764656067,-0.4065611958503723,0.8595622181892395,1.5576449632644653,-0.8018890619277954,0.3420824408531189
0.39906421782806356,-2.8193276691460256,0.9175507040679838,1.5824265480041504,-2.929659366607666,1.7614766359329224,-0.29182979464530945,-0.38855627179145813,0.8739904165267944,1.4184472560882568,-0.8481838703155518,0.2618584632873535
0.3778169010412355,-2.843937270644962,0.9038165868879287,1.659781575202942,-2.981189727783203,1.939239740371704,-0.272595077753067,-0.36889222264289856,0.8886001110076904,1.3769805431365967,-0.8765606880187988,0.23758983612060547
0.35646044688869427,-2.8672093941116965,0.8880270470159662,1.5811301469802856,-2.7539474964141846,2.083348274230957,-0.25392061471939087,-0.34895938634872437,0.9020819067955017,1.4610586166381836,-0.9313904047012329,0.24701178073883057
0.3361788373141673,-2.8869341575824032,0.8697694551404611,1.4216803312301636,-2.4157626628875732,2.284924268722534,-0.23781320452690125,-0.3298822343349457,0.913576602935791,1.5805408954620361,-0.9729894399642944,0.22050219774246216
0.3174704521509611,-2.9028521874371465,0.8487825371101937,1.2177493572235107,-2.1070969104766846,2.453714609146118,-0.2246616929769516,-0.31216442584991455,0.9230820536613464,1.6681431531906128,-1.0537108182907104,0.1870863437652588
0.3013942155322823,-2.9157512079750654,0.8254914916515202,0.8646858334541321,-1.8942127227783203,2.604506731033325,-0.21383272111415863,-0.29685187339782715,0.9306743144989014,1.8353232145309448,-1.1619800329208374,0.18874096870422363
0.2889840343556375,-2.9267222257087493,0.7984533739519531,0.42060747742652893,-1.8891582489013672,3.0051963329315186,-0.20437940955162048,-0.2849785387516022,0.9364914894104004,2.0534088611602783,-1.1423439979553223,0.1899428367614746
0.27991219668067435,-2.937460950314192,0.7654399204918999,0.048122506588697433,-2.119374990463257,3.5529379844665527,-0.1948271244764328,-0.276271253824234,0.9411249756813049,2.1435728073120117,-0.9512373208999634,0.10105013847351074
0.27305537937274027,-2.950237835092936,0.726412942604381,-0.15029551088809967,-2.5787241458892822,4.043131351470947,-0.18314288556575775,-0.2696748673915863,0.9453749656677246,2.0486061573028564,-0.6467221975326538,-0.07031410932540894
0.26671325382003486,-2.9671836137428107,0.6825452818667533,-0.11750579625368118,-3.1283416748046875,4.4689412117004395,-0.16739068925380707,-0.26356232166290283,0.950007975101471,1.8025988340377808,-0.25929534435272217,-0.2645527124404907
0.25924663084092886,-2.988526091213898,0.6345041527865327,0.10524499416351318,-3.604750394821167,4.9043169021606445,-0.14737454056739807,-0.25635242462158203,0.9552822709083557,1.5489400625228882,0.21373456716537476,-0.460180401802063
0.24871230066530925,-3.0138387635979744,0.582135675776451,0.6021987795829773,-4.068565368652344,5.391112804412842,-0.12348639219999313,-0.24615608155727386,0.9613316059112549,1.2291687726974487,0.8394482731819153,-0.6399815082550049
0.23240858245002913,-3.043065107405523,0.5257774573384003,1.4278013706207275,-4.399835109710693,5.783855438232422,-0.09572353214025497,-0.23032201826572418,0.9683949947357178,0.7909902930259705,1.502187728881836,-0.7702291011810303
0.2086246539722839,-3.0748208649469215,0.46767337888465765,2.363246202468872,-4.422123432159424,5.806473255157471,-0.0652754157781601,-0.207114577293396,0.9761364459991455,0.11950518190860748,2.1335060596466064,-0.7548384070396423
0.17764917685267662,-3.1055484583049084,0.41133286196080415,3.212617874145508,-3.745311737060547,5.495456695556641,-0.03546924516558647,-0.17671623826026917,0.9836226105690002,-0.9021528363227844,2.8636972904205322,-0.49201488494873047
0.14107920788236986,-3.1281558142599217,0.35796948308647963,3.7859225273132324,-2.4284629821777344,5.197585105895996,-0.013302939012646675,-0.1406116783618927,0.9899752736091614,-1.7747677564620972,3.696107864379883,-0.1311955451965332
0.10087127170868113,-3.139792937701258,0.30606906600913764,4.14747428894043,-1.1625233888626099,5.170105457305908,-0.0017905664863064885,-0.10070029646158218,0.9949150681495667,-2.2999825477600098,4.169380187988281,0.2657201290130615
0.05765832333788145,-3.141165615108339,0.2531075135538896,4.436359405517578,0.08883000910282135,5.352036952972412,-0.00042632874101400375,-0.057626381516456604,0.998337984085083,-2.8451852798461914,4.176461696624756,0.5952745079994202
0.01334332699426369,-3.13144682600554,0.20036022320967803,4.273777008056641,1.4351838827133179,5.10595703125,-0.010144748724997044,-0.013342930935323238,0.9998593926429749,-3.3937249183654785,3.619452476501465,0.8685486316680908
-0.02698470393204746,-3.1131297662367428,0.1547124273938657,3.5208027362823486,2.1819424629211426,4.016274452209473,-0.028448672965168953,0.026981428265571594,0.999230682849884,-3.767068386077881,2.4815480709075928,1.20412278175354
-0.05723479771138455,-3.0923121880164737,0.12579013297784283,2.225585699081421,2.104631185531616,1.8335031270980835,-0.04917984828352928,0.05720355361700058,0.9971503019332886,-3.9840385913848877,1.2843033075332642,1.5120810270309448
-0.07120493675403998,-3.0745145384159036,0.12287833534859845,0.4660419225692749,1.4383734464645386,-1.1483784914016724,-0.06685797870159149,0.07114478200674057,0.995222806930542,-3.93849778175354,0.520819902420044,1.7451794147491455
-0.06359927718634947,-3.061348357110846,0.1477811241729709,-1.6147058010101318,0.8820476531982422,-3.771726369857788,-0.07999613136053085,0.06355641037225723,0.9947667121887207,-3.230794906616211,0.2745935618877411,1.8298790454864502
-0.033675893317952926,-3.052454726631484,0.19081188660651374,-3.5610926151275635,0.4862080216407776,-5.1146697998046875,-0.08896943181753159,0.03366952762007713,0.9954648613929749,-1.985295057296753,0.5381993055343628,1.6096526384353638
0.014321854385464126,-3.0474378472001895,0.23986990516927603,-4.980167388916016,0.45579394698143005,-5.3803935050964355,-0.09400611370801926,-0.014321364462375641,0.9954686164855957,-1.07863187789917,1.2465906143188477,1.1932673454284668
0.07237663052397736,-3.0444748780020707,0.2861634753643222,-5.531189918518066,0.5099843144416809,-4.821962833404541,-0.09671130776405334,-0.07231345772743225,0.9926819205284119,-0.42130929231643677,2.030641555786133,0.6026090383529663
0.12959147946566882,-3.043367377281085,0.3246645065352808,-4.913337707519531,0.4782671332359314,-3.882824659347534,-0.09724506735801697,-0.12922905385494232,0.9868347644805908,0.030945666134357452,2.4557061195373535,-0.16096830368041992
0.1741779295923208,-3.0436755372380526,0.3553266430735586,-3.24747633934021,0.3733506202697754,-3.022052049636841,-0.0962815210223198,-0.17329856753349304,0.9801515936851501,0.2526535987854004,2.2543532848358154,-0.9612613916397095
0.19926692839565197,-3.0455023034295725,0.38038472333375756,-1.2749990224838257,0.19535185396671295,-2.3793437480926514,-0.09404400736093521,-0.1979508250951767,0.9756898283958435,0.2827189564704895,1.754896640777588,-1.3737461566925049
0.20641756772423073,-3.048045079909158,0.40222044036288457,0.15946945548057556,0.2070842683315277,-2.03560209274292,-0.09142817556858063,-0.2049548327922821,0.974491536617279,0.1804022192955017,1.335066556930542,-1.236851453781128
0.2031664075084597,-3.0490811264565933,0.4228570146259336,0.7645780444145203,0.4467722177505493,-1.9362350702285767,-0.09047958254814148,-0.20177161693572998,0.9752440452575684,0.07317615300416946,1.02910315990448,-0.771234393119812
0.19695817920068195,-3.0469692518108893,0.44356627200572973,0.7888623476028442,0.7928977012634277,-1.9937756061553955,-0.09265556931495667,-0.19568723440170288,0.9762793183326721,-0.019389688968658447,0.7247704267501831,-0.35211867094039917
0.19236578336632398,-3.0419218161605115,0.46519566535606216,0.5092069506645203,1.0169464349746704,-2.133932113647461,-0.09767044335603714,-0.19118157029151917,0.9766829013824463,-0.04734904319047928,0.42874568700790405,-0.05276358127593994
0.19126118911257076,-3.035921526360973,0.48806234700976564,0.17057640850543976,1.0238347053527832,-2.3039000034332275,-0.1035512387752533,-0.19009724259376526,0.9762886762619019,0.0021413713693618774,0.19790974259376526,0.10607796907424927
0.19371666343897648,-3.030881729024516,0.5122349955457549,-0.1412603110074997,0.8799833059310913,-2.4367053508758545,-0.10841831564903259,-0.19250735640525818,0.9752876162528992,0.06230629235506058,0.035296037793159485,0.18203026056289673
0.19915603149282182,-3.0279775305020715,0.5367358336575841,-0.3857755959033966,0.6494935750961304,-2.4232046604156494,-0.11112990975379944,-0.19784212112426758,0.9739137291908264,0.1876833140850067,-0.024539470672607422,0.18520456552505493
0.20629567875627972,-3.0273352210108513,0.5602305515742148,-0.4833008348941803,0.41926491260528564,-2.2847065925598145,-0.11159156262874603,-0.20483553409576416,0.9724140763282776,0.3411295711994171,-0.08401334285736084,0.10452044010162354
0.2133675073225141,-3.0289268915199528,0.5821125892241857,-0.4190502464771271,0.17326310276985168,-2.1179921627044678,-0.10987807810306549,-0.21175223588943481,0.9711270928382874,0.4145808517932892,-0.13201308250427246,-0.003063797950744629
0.21911088790602584,-3.032448063495023,0.6027039448246766,-0.2707310616970062,0.029603401198983192,-1.9981409311294556,-0.10632365942001343,-0.21736185252666473,0.9702829122543335,0.4135441482067108,-0.15415920317173004,-0.07852888107299805
0.223093341640312,-3.0363349934796307,0.622448753626953,-0.11229202151298523,0.07590547204017639,-1.9099355936050415,-0.10245966166257858,-0.2212473601102829,0.9698200821876526,0.39768677949905396,-0.1599934697151184,-0.12027209997177124
0.22564621182132416,-3.0392705532771678,0.6417630717601911,-0.015315670520067215,0.20561473071575165,-1.8833287954330444,-0.09955424815416336,-0.2237362414598465,0.969551682472229,0.41686078906059265,-0.1846652626991272,-0.10077756643295288
0.22758867951291561,-3.0403845887905256,0.6612019660953503,0.0029656379483640194,0.4600774943828583,-1.9221991300582886,-0.09842997789382935,-0.2256290465593338,0.9692277908325195,0.42116865515708923,-0.2363460659980774,-0.03633624315261841
0.22986437519041775,-3.0384643725549783,0.6811973071311809,-0.07464820146560669,0.8350710868835449,-1.980427622795105,-0.10023783147335052,-0.2278454750776291,0.9685240387916565,0.4346036911010742,-0.2601001560688019,0.03820502758026123
0.23337135595539135,-3.032802460672891,0.7012631769704918,-0.2066027969121933,1.199767827987671,-1.9475499391555786,-0.1056324765086174,-0.2312587946653366,0.9671406745910645,0.5264852046966553,-0.2563053369522095,0.0949472188949585
0.23792122212724912,-3.023872896857864,0.7204196276297018,-0.26189935207366943,1.4512245655059814,-1.8381571769714355,-0.11413951218128204,-0.2356829196214676,0.9651037454605103,0.6208381652832031,-0.29297304153442383,0.08772188425064087
0.2427149885854089,-3.0131667668520006,0.7382756602515581,-0.2584669888019562,1.4993642568588257,-1.716759443283081,-0.12431919574737549,-0.24033892154693604,0.9626950621604919,0.710882306098938,-0.39482349157333374,0.06661701202392578
0.24736814198519294,-3.0026447736707746,0.7552254857398675,-0.2205619513988495,1.4089430570602417,-1.6626954078674316,-0.13428525626659393,-0.24485306441783905,0.9602158069610596,0.7672503590583801,-0.49184131622314453,0.08498060703277588
0.25167470579284495,-2.9933745915841574,0.7718592915621975,-0.17260737717151642,1.249395728111267,-1.6366950273513794,-0.14302365481853485,-0.24902625381946564,0.9578776955604553,0.8518249988555908,-0.5927706360816956,0.10718554258346558
0.25576220942952643,-2.985826911824659,0.7881781468547857,-0.16255687177181244,1.0785317420959473,-1.592706561088562,-0.15009011328220367,-0.25298288464546204,0.9557574391365051,0.9772538542747498,-0.6824877262115479,0.12374067306518555
0.25993969600584554,-2.979451129606719,0.8036679959388834,-0.19108548760414124,0.9918954372406006,-1.4762523174285889,-0.1560087651014328,-0.25702226161956787,0.9537298679351807,1.1053191423416138,-0.7391477823257446,0.13271105289459229
0.2644594248260255,-2.9731851680925954,0.81743310363535,-0.264546662569046,0.9735568761825562,-1.2765092849731445,-0.1617853343486786,-0.26138752698898315,0.951578676700592,1.235759973526001,-0.7625993490219116,0.14000451564788818
0.2695840876815315,-2.9666978951589327,0.8284866539857425,-0.3896738290786743,0.8724624514579773,-0.9761821031570435,-0.16771970689296722,-0.2663305699825287,0.9491772651672363,1.375391960144043,-0.7682152986526489,0.15508568286895752
0.2754085093100368,-2.960840534179425,0.8354250353253821,-0.5011617541313171,0.668652355670929,-0.5225544571876526,-0.1729947179555893,-0.27194008231163025,0.9466368556022644,1.520147442817688,-0.7607595324516296,0.17283940315246582
0.2805149025807029,-2.9557239792413115,0.8371993416537613,-0.4147544801235199,0.4347623586654663,0.0018041296862065792,-0.17757703363895416,-0.27685046195983887,0.9443624019622803,1.585261344909668,-0.7656453251838684,0.10197854042053223
0.2829045384239075,-2.952317501433805,0.8342050799622165,-0.1411130726337433,0.05090605095028877,0.4629501700401306,-0.1806679517030716,-0.27914589643478394,0.9430994987487793,1.5384713411331177,-0.7844680547714233,-0.013167858123779297
0.28114232161395825,-2.9525052907945435,0.8276335880891554,0.25838708877563477,-0.4564647674560547,0.8227842450141907,-0.18058300018310547,-0.27745330333709717,0.9436149597167969,1.4257001876831055,-0.7866793870925903,-0.08671200275421143
0.2747174147044772,-2.957035163042525,0.8189085667291677,0.6859173774719238,-0.9151535630226135,1.0431309938430786,-0.17663021385669708,-0.27127495408058167,0.9461562037467957,1.2799170017242432,-0.8125721216201782,-0.10486292839050293
0.2643199933216747,-2.965399562026849,0.8092865047154123,1.0010336637496948,-1.2369861602783203,1.1385552883148193,-0.16919532418251038,-0.2612529397010803,0.9503259062767029,1.15657639503479,-0.8806843161582947,-0.08660244941711426
0.2515945901373705,-2.975963234663896,0.7991392912565399,1.1424204111099243,-1.3602654933929443,1.223606824874878,-0.15968245267868042,-0.24894866347312927,0.9552625417709351,1.1178122758865356,-0.9573044776916504,-0.03744626045227051
0.23830464130243806,-2.986525226335427,0.7878369220432397,1.1041934490203857,-1.2626444101333618,1.35938560962677,-0.15008196234703064,-0.23605552315711975,0.9600796103477478,1.1526912450790405,-1.0469492673873901,0.012118697166442871
0.22601921008679907,-2.99485229578207,0.774726692024902,0.9173951148986816,-0.975180983543396,1.5229254961013794,-0.1424955576658249,-0.2240997701883316,0.9640926718711853,1.2208341360092163,-1.1427826881408691,0.04907584190368652
0.21609395063363107,-2.999383455010799,0.7596117439689333,0.6036424040794373,-0.5803371071815491,1.6667572259902954,-0.1384340226650238,-0.21441607177257538,0.9668822884559631,1.3150240182876587,-1.2118535041809082,0.07787150144577026
0.20964930523655412,-2.9996738073911136,0.742686494973325,0.19596543908119202,-0.20065446197986603,1.7826857566833496,-0.1383458822965622,-0.20811690390110016,0.968270480632782,1.4215338230133057,-1.278196096420288,0.09561800956726074
0.20707529744716605,-2.996452672781214,0.7235890465888609,-0.2131018191576004,0.02506883069872856,1.9955503940582275,-0.14154107868671417,-0.20559856295585632,0.9683465361595154,1.5467535257339478,-1.3078596591949463,0.06871688365936279
0.20774267300499827,-2.991261515154184,0.7011295918117263,-0.5471594333648682,0.07485263049602509,2.3326406478881836,-0.14654541015625,-0.20625163614749908,0.9674628376960754,1.6864776611328125,-1.2749037742614746,-0.020929813385009766
0.21042152287254506,-2.985695093318068,0.6741844509497087,-0.7672194242477417,-0.1276055872440338,2.793191432952881,-0.15184205770492554,-0.20887213945388794,0.9660826325416565,1.7917804718017578,-1.1537681818008423,-0.14442777633666992
0.21359176909746586,-2.9827762407334117,0.6418267925546197,-0.8246467709541321,-0.6969569325447083,3.3375444412231445,-0.1545557677745819,-0.21197140216827393,0.9649767875671387,1.7934260368347168,-0.9340094327926636,-0.2642934322357178
0.21573632092938594,-2.9863142971380845,0.6039996409895595,-0.7416915893554688,-1.65971839427948,3.859642505645752,-0.1510699987411499,-0.214066743850708,0.9650660753250122,1.6485676765441895,-0.649946928024292,-0.37084347009658813
0.21624560345321764,-2.9996237434994293,0.5619020912593324,-0.565866231918335,-2.7686736583709717,4.197058200836182,-0.13819707930088043,-0.21456418931484222,0.9668833017349243,1.3290083408355713,-0.3086291551589966,-0.4220227003097534
0.2150087467499593,-3.021949102944041,0.5180783936435535,-0.299577921628952,-3.4898202419281006,4.265890121459961,-0.11661004275083542,-0.21335597336292267,0.9699904918670654,0.856295108795166,0.0891493558883667,-0.4976240396499634
0.2121376951906323,-3.04933428121328,0.4748491162518886,-0.025873154401779175,-3.7508604526519775,4.1475138664245605,-0.09006233513355255,-0.21055015921592712,0.9734256267547607,0.41251105070114136,0.5894410610198975,-0.6228854656219482
0.20818725855942172,-3.0784379511865776,0.43399751100520084,0.1851557195186615,-3.699751138687134,3.8181121349334717,-0.061749957501888275,-0.20668664574623108,0.9764568209648132,0.025784995406866074,1.1126465797424316,-0.6898660659790039
0.2037001601294073,-3.1060514220219146,0.3979003537618507,0.3633768558502197,-3.2047154903411865,3.2458713054656982,-0.03479908034205437,-0.20229436457157135,0.9787063002586365,-0.5139985084533691,1.6916437149047852,-0.5937118530273438
0.1978867672547559,-3.127007663147753,0.36735078825038014,0.6907530426979065,-2.1284148693084717,2.7853317260742188,-0.014299840666353703,-0.19659778475761414,0.980379581451416,-1.172147274017334,2.5276830196380615,-0.39206212759017944
0.1868507001678528,-3.136691662144965,0.3397643097827585,1.5350805521011353,-0.883863091468811,2.6833460330963135,-0.004815665073692799,-0.185765340924263,0.9825820922851562,-1.757543921470642,3.4139604568481445,-0.21808648109436035
0.16537743749125985,-3.1362111793540284,0.3113351335040632,2.7257378101348877,-0.0825967863202095,2.954476833343506,-0.00530802458524704,-0.1646246314048767,0.9863418340682983,-2.1312427520751953,3.872251033782959,0.02838265895843506
0.13230656477288655,-3.130005293621767,0.27946420521559456,3.776581287384033,0.349766343832016,3.3632009029388428,-0.011485829949378967,-0.13192090392112732,0.9911935329437256,-2.3297312259674072,3.673821449279785,0.3842334747314453
0.09092331713125486,-3.120689105449436,0.24628738284664933,4.267006874084473,0.7803171277046204,3.245774984359741,-0.02081567980349064,-0.09079808741807938,0.9956514239311218,-2.62176251411438,2.9533469676971436,0.824920117855072
0.04903295470821007,-3.109306461547258,0.21851967464539837,3.8042635917663574,1.0500048398971558,2.407266855239868,-0.03224177658557892,-0.04901330918073654,0.9982773661613464,-2.9068145751953125,2.0822927951812744,1.3599834442138672
0.016639470379185804,-3.09888474690166,0.20309653156240942,2.428133964538574,0.8698168992996216,0.8080639839172363,-0.042689014226198196,-0.016638701781630516,0.9989498257637024,-3.0216877460479736,1.2294834852218628,1.8092776536941528
0.0028096384504333735,-3.092421932134622,0.2063511213842478,0.2692547142505646,0.41053563356399536,-1.3757132291793823,-0.04915069416165352,-0.0028096346650272608,0.9987869262695312,-2.9533212184906006,0.6350575089454651,2.128455638885498
0.01400173681691936,-3.090018035471055,0.23019574241354146,-2.2367029190063477,0.14453695714473724,-3.3949005603790283,-0.051546696573495865,-0.014001279138028622,0.9985722899436951,-2.489102602005005,0.4523251950740814,2.1819849014282227
0.048611748580261974,-3.0896974792781107,0.26852555176014886,-4.150395393371582,0.19645607471466064,-4.455084800720215,-0.0518106073141098,-0.04859260469675064,0.9974740743637085,-1.6693960428237915,0.7088708877563477,1.680611252784729
0.09816541586352294,-3.089521314543741,0.3123473783584291,-5.144318103790283,0.4690280258655548,-4.680973052978516,-0.05179723724722862,-0.09800782799720764,0.9938368201255798,-0.9341799020767212,1.2510687112808228,0.9514604806900024
0.15285492367348352,-3.089337070394499,0.3556992427302695,-5.171634674072266,0.6354655027389526,-4.396488666534424,-0.05162280052900314,-0.15226039290428162,0.9869912266731262,-0.43392711877822876,1.813621997833252,0.24730730056762695
0.20278042992807618,-3.089675447710121,0.39517899468813816,-4.257999897003174,0.6721079349517822,-3.841097831726074,-0.05083060264587402,-0.20139355957508087,0.9781906604766846,-0.14234565198421478,2.127647876739502,-0.38563084602355957
0.23971783789890294,-3.0911952513872127,0.42970393176821337,-2.6951398849487305,0.520237147808075,-3.2456953525543213,-0.048935554921627045,-0.23742854595184326,0.970171332359314,0.023483924567699432,2.0415515899658203,-0.8845088481903076
0.2597033028329176,-3.0943992996554286,0.4595981709769659,-1.03049898147583,0.33329781889915466,-2.734867811203003,-0.045593854039907455,-0.2567938268184662,0.965390145778656,0.09172119200229645,1.7009313106536865,-1.0945100784301758
0.26482607255554685,-3.0980477811930243,0.4861058624795019,0.15301217138767242,0.32772088050842285,-2.440664052963257,-0.04201352223753929,-0.26174139976501465,0.9642229676246643,0.05965271219611168,1.3443830013275146,-0.9474537372589111
0.2613884014589567,-3.100627375208662,0.5109981722664112,0.6532321572303772,0.4774204194545746,-2.330505847930908,-0.03956269472837448,-0.25842204689979553,0.9652213454246521,-0.03004787489771843,1.0944815874099731,-0.5701258182525635
0.2555258817287019,-3.1004647057889527,0.5353050230764664,0.6570397019386292,0.7980293035507202,-2.3126792907714844,-0.039781324565410614,-0.25275424122810364,0.9667122960090637,-0.0619184784591198,0.8982467651367188,-0.242270827293396
0.251217938504714,-3.097035850955674,0.5596610524324436,0.378909170627594,1.0988456010818481,-2.3514373302459717,-0.043143901973962784,-0.2485838532447815,0.9676490426063538,-0.03630858659744263,0.6640501022338867,-0.024152398109436035
0.2501784765698834,-3.0907763507552044,0.5842346442782946,0.060098692774772644,1.3424582481384277,-2.3738648891448975,-0.04921310395002365,-0.24757687747478485,0.9676173329353333,0.05540820583701134,0.41717833280563354,0.06814903020858765
0.2520166006143232,-3.082732462035786,0.6085926549682733,-0.15661396086215973,1.4550416469573975,-2.337289333343506,-0.05696798115968704,-0.24935735762119293,0.9667344689369202,0.15494468808174133,0.24049195647239685,0.06793344020843506
0.25549130815873927,-3.073750810789175,0.6322346074809513,-0.22794993221759796,1.507983922958374,-2.256364583969116,-0.0655893087387085,-0.25272080302238464,0.9653135538101196,0.254783034324646,0.15242469310760498,0.01587235927581787
0.2589464313404805,-3.064664050246471,0.6549455875465181,-0.1221974715590477,1.4266400337219238,-2.158932685852051,-0.07429050654172897,-0.25606223940849304,0.9638014435768127,0.34171605110168457,0.08745253086090088,-0.06371593475341797
0.26095559297596016,-3.057091335188237,0.6767882855229724,0.06472128629684448,1.1870986223220825,-2.064445734024048,-0.08154328167438507,-0.25800392031669617,0.9626963138580322,0.41676366329193115,-0.013282060623168945,-0.1004071831703186
0.2610897909407302,-3.051815513741783,0.6975981837613058,0.2533128261566162,0.9602130055427551,-1.9231904745101929,-0.08661802113056183,-0.25813356041908264,0.9622180461883545,0.4963318109512329,-0.09762507677078247,-0.10487288236618042
0.25937871835061815,-3.0475415956851437,0.7168338774841356,0.4203484058380127,0.8899514079093933,-1.7305643558502197,-0.09077101200819016,-0.2564800977706909,0.9622774124145508,0.5589412450790405,-0.1398364007472992,-0.11112731695175171
0.2560809340702566,-3.0429181677448556,0.734162557686137,0.5463188290596008,0.92539381980896,-1.535605788230896,-0.09530185908079147,-0.2532912492752075,0.9626840353012085,0.6020310521125793,-0.20497596263885498,-0.10518616437911987
0.2516406593052965,-3.036975492510158,0.7497545707065741,0.6300200819969177,1.052322506904602,-1.3768490552902222,-0.10113752633333206,-0.24899327754974365,0.963209867477417,0.6087974905967712,-0.28309595584869385,-0.0736532211303711
0.24670856648716458,-3.0287629290212403,0.7640694274446749,0.6368497014045715,1.3084965944290161,-1.2738876342773438,-0.10918138921260834,-0.2442135214805603,0.9635553359985352,0.572545051574707,-0.2798038125038147,0.011603176593780518
0.2421877404726477,-3.0171199307591667,0.7776261159862535,0.5547119379043579,1.6585938930511475,-1.2299431562423706,-0.1205282136797905,-0.23982709646224976,0.9633042812347412,0.5892477631568909,-0.27859026193618774,0.11372166872024536
0.23889809716695534,-3.0021569820020733,0.79068843656279,0.42468196153640747,1.9337453842163086,-1.1870486736297607,-0.13503703474998474,-0.23663216829299927,0.9621695280075073,0.6530424356460571,-0.3442089855670929,0.19885647296905518
0.2370137861612812,-2.9844856705807836,0.8029417649256713,0.2991274893283844,2.1588597297668457,-1.1005058288574219,-0.15208737552165985,-0.23480094969272614,0.9600719809532166,0.727526843547821,-0.39677566289901733,0.24946177005767822
0.2361589899900883,-2.9647785112380762,0.8140127344539836,0.23498216271400452,2.265343189239502,-0.9877505898475647,-0.17101211845874786,-0.23396995663642883,0.9570855498313904,0.799567461013794,-0.43991923332214355,0.26210689544677734
0.2355906602365659,-2.9446383605519135,0.8238504023814642,0.23370863497257233,2.1784846782684326,-0.8620669841766357,-0.19027796387672424,-0.23341737687587738,0.9535776972770691,0.8837441802024841,-0.5099297761917114,0.2605029344558716
0.23477740115967768,-2.926121186788145,0.8324600619153659,0.2726981043815613,1.902435302734375,-0.7401875853538513,-0.2079424113035202,-0.23262649774551392,0.9500761032104492,0.9571031928062439,-0.5986266136169434,0.25404059886932373
0.23325939655706496,-2.9104524909884826,0.8401179579930241,0.3533836305141449,1.5640596151351929,-0.6408764719963074,-0.22288332879543304,-0.23114986717700958,0.9470438957214355,1.0077803134918213,-0.6924188137054443,0.24002856016159058
0.23083528686147967,-2.898162145263887,0.8469394406983485,0.4260578453540802,1.2054157257080078,-0.5273239016532898,-0.23464013636112213,-0.22879073023796082,0.9447744488716125,1.0619258880615234,-0.7540889382362366,0.23016750812530518
0.22754885005752543,-2.888787519209071,0.8526906330543162,0.4781125485897064,0.9385016560554504,-0.3919229507446289,-0.24367332458496094,-0.22559024393558502,0.9432560801506042,1.101980209350586,-0.7796130180358887,0.23618710041046143
0.22369353209928147,-2.8814601356441605,0.8570184565456702,0.4678635597229004,0.7154803276062012,-0.2196793407201767,-0.2508001923561096,-0.22183263301849365,0.9422788619995117,1.1473761796951294,-0.8134304881095886,0.24731147289276123
0.21962086796653807,-2.8758952605214128,0.8591989567676493,0.428741455078125,0.49391552805900574,0.03170256316661835,-0.2562750577926636,-0.21785961091518402,0.9417325258255005,1.1862677335739136,-0.7954308390617371,0.25086379051208496
0.21500257406163178,-2.871860959464113,0.8585889642985257,0.43709421157836914,0.2781115770339966,0.3265374004840851,-0.2603375017642975,-0.21334993839263916,0.9416506886482239,1.1732556819915771,-0.7418655753135681,0.20733606815338135
0.2092042409607649,-2.86998465252128,0.855146637406559,0.5005221962928772,-0.07198812812566757,0.6351463794708252,-0.2624312937259674,-0.2076815515756607,0.9423363208770752,1.135493516921997,-0.711553692817688,0.1573643684387207
0.20176658124809235,-2.871724608595035,0.8489161848734478,0.611976146697998,-0.5310282707214355,0.9251301884651184,-0.2611958384513855,-0.20040038228034973,0.9442539811134338,1.0650289058685303,-0.6958398222923279,0.13634252548217773
0.19217359921125232,-2.8775666746658652,0.8406967244317212,0.8153702616691589,-0.9389151334762573,1.1107975244522095,-0.2561649680137634,-0.19099293649196625,0.9475761651992798,0.9164281487464905,-0.7021955251693726,0.09351545572280884
0.18035939999854106,-2.8867584628834906,0.831979234688404,1.014843225479126,-1.1872478723526,1.123324990272522,-0.24799597263336182,-0.17938315868377686,0.9520083069801331,0.7559305429458618,-0.7402641177177429,0.06645488739013672
0.16729590476051642,-2.8974324016169035,0.8241743489129106,1.114823341369629,-1.1734668016433716,0.9944947361946106,-0.23836654424667358,-0.16651661694049835,0.9567934274673462,0.6255277991294861,-0.8058955669403076,0.10546243190765381
0.1543169416149967,-2.9070035398587883,0.817665760934995,1.0738896131515503,-0.9170325994491577,0.870868444442749,-0.22968114912509918,-0.1537051945924759,0.9610520005226135,0.5985471606254578,-0.8617061972618103,0.17298102378845215
0.14288119388683027,-2.9132797023777752,0.8116256995704959,0.8484622240066528,-0.49452874064445496,0.8262165188789368,-0.2240280956029892,-0.14239554107189178,0.9641234874725342,0.7072893381118774,-0.9069361090660095,0.2606227993965149
0.13457710376422638,-2.914734959996516,0.8046860975199345,0.4387667179107666,0.012156235054135323,0.9015312790870667,-0.22288312017917633,-0.1341712474822998,0.9655675292015076,0.8994426727294922,-0.9629051685333252,0.35393595695495605
0.13032956083641248,-2.91136872681688,0.7951659711627985,-0.03816574811935425,0.3890467882156372,1.1398966312408447,-0.2262602150440216,-0.12996090948581696,0.9653580188751221,1.1378203630447388,-0.9967023134231567,0.41345643997192383
0.12973391596311803,-2.904661303424073,0.7818143115735806,-0.44177183508872986,0.5811521410942078,1.459639310836792,-0.23274832963943481,-0.1293703019618988,0.9638940095901489,1.3483489751815796,-1.0387053489685059,0.4105566740036011
0.13171954196225302,-2.8966046760455564,0.7643422600117166,-0.755392849445343,0.5261826515197754,1.8006302118301392,-0.24044358730316162,-0.13133898377418518,0.961736261844635,1.5239061117172241,-1.0992060899734497,0.37722229957580566
0.1354113188068398,-2.8900635626157736,0.7428090379636147,-0.9893435835838318,0.17965932190418243,2.1399590969085693,-0.24660684168338776,-0.1349978744983673,0.9596667289733887,1.6188451051712036,-1.117321491241455,0.3531840443611145
0.14001117981448696,-2.8873887443890367,0.7176182061217461,-1.1421774625778198,-0.35050278902053833,2.4401752948760986,-0.24901415407657623,-0.1395541876554489,0.9583927392959595,1.585134744644165,-1.0780209302902222,0.3064388036727905
0.14536010079594144,-2.889530005446501,0.6892047514753767,-1.2963511943817139,-0.870771050453186,2.719371795654297,-0.2467716634273529,-0.1448487490415573,0.95818692445755,1.4970310926437378,-0.9693175554275513,0.22958749532699585
0.1517182497802062,-2.8957821495993525,0.6576785315342479,-1.465436339378357,-1.2921017408370972,2.994314193725586,-0.24054716527462006,-0.1511368602514267,0.9587982892990112,1.3660355806350708,-0.7545638084411621,0.11558800935745239
0.15941501436901173,-2.905374905126923,0.6229118050903598,-1.657260775566101,-1.6979705095291138,3.2929863929748535,-0.2310597151517868,-0.15874066948890686,0.9599025845527649,1.2012592554092407,-0.4923977255821228,0.002103090286254883
0.1685437571456054,-2.918185184312823,0.5849784187873666,-1.8016690015792847,-2.0771238803863525,3.532273054122925,-0.218414306640625,-0.1677469164133072,0.9613304734230042,0.9766387939453125,-0.20314854383468628,-0.09887313842773438
0.17889786338064828,-2.933969750228015,0.5458677168538918,-1.8508148193359375,-2.4208014011383057,3.482090711593628,-0.2028445452451706,-0.17794513702392578,0.962906539440155,0.6108493804931641,0.09585286676883698,-0.1957406997680664
0.1908316288905029,-2.953708495551192,0.509031462853521,-1.911820650100708,-2.8771347999572754,3.089071273803711,-0.18338997662067413,-0.1896754950284958,0.9645675420761108,0.1870521754026413,0.4140865206718445,-0.23391610383987427
0.20542015684933615,-2.9786048514048304,0.47738662431933077,-2.036525249481201,-3.283968448638916,2.482360601425171,-0.15885551273822784,-0.2039784938097,0.9660007953643799,-0.2613714933395386,0.7940816283226013,-0.20377862453460693
0.22289528006889975,-3.006251190094109,0.451993573964886,-2.141662359237671,-3.247054100036621,1.896371841430664,-0.13159072399139404,-0.22105419635772705,0.9663429856300354,-0.7662211656570435,1.3661651611328125,-0.12210476398468018
0.24228243060689247,-3.0334420640021444,0.43257687739925677,-2.104576349258423,-3.056424856185913,1.4119364023208618,-0.10478726774454117,-0.2399190217256546,0.9651209712028503,-1.2240396738052368,2.0107319355010986,0.002133607864379883
0.2584905460426958,-3.058107082763726,0.41605619586419845,-1.284132719039917,-2.625225067138672,1.5406310558319092,-0.08061816543340683,-0.2556215524673462,0.9634093642234802,-1.723413109779358,2.7910068035125732,0.017944037914276123
0.26227276378181924,-3.075461785329678,0.39738733321996594,0.3161739706993103,-1.7393418550491333,1.9654734134674072,-0.06382285058498383,-0.25927627086639404,0.9636920094490051,-2.333439826965332,3.4376819133758545,-0.1266406774520874
0.25010528292877765,-3.081435794850557,0.37682777603222584,1.7847483158111572,-0.46369898319244385,2.103226900100708,-0.05825001001358032,-0.24750596284866333,0.9671337008476257,-2.724480152130127,3.176476240158081,-0.09060800075531006
0.2268834816767121,-3.0748430283349504,0.3571655481248701,2.4870548248291016,0.8287791609764099,1.9427900314331055,-0.06499068439006805,-0.22494196891784668,0.9722022414207458,-2.815380334854126,2.3497893810272217,0.24380111694335938
0.2015764321345534,-3.0577650550435336,0.34217492860777954,2.1947970390319824,1.9036424160003662,1.260860800743103,-0.08203411102294922,-0.20021408796310425,0.9763117432594299,-2.947079658508301,1.638644814491272,0.7904576063156128
0.1849880491508152,-3.0343380393520363,0.3374559264671214,0.9013723731040955,2.5052578449249268,-0.11823829263448715,-0.1052226573228836,-0.1839347928762436,0.9772900342941284,-2.964693069458008,1.0472311973571777,1.319050669670105
0.18695221654595706,-3.010483406769475,0.34771550321613975,-1.100035548210144,2.5788049697875977,-1.947945237159729,-0.12845592200756073,-0.18586508929729462,0.9741421341896057,-2.7288591861724854,0.6255165338516235,1.6988770961761475
0.21198396737918546,-2.9900778746538585,0.37250486848154385,-3.092686176300049,2.4606215953826904,-3.4797661304473877,-0.1475571244955063,-0.21039986610412598,0.9664155840873718,-2.1406052112579346,0.5406915545463562,1.680068850517273
0.25574482514437014,-2.9734024748549084,0.40638118765008513,-4.363042831420898,2.437037706375122,-4.315390110015869,-0.16195373237133026,-0.2529660761356354,0.953823447227478,-1.4229309558868408,0.790136456489563,1.1722599267959595
0.30946442278684394,-2.9594688672651515,0.44384569848102057,-4.828678607940674,2.4118235111236572,-4.546530723571777,-0.172514870762825,-0.3045485317707062,0.9367433786392212,-0.8242959380149841,1.2498915195465088,0.5710077285766602
0.36439396792405215,-2.9478337110762616,0.48112363350984383,-4.532549858093262,2.3624653816223145,-4.355849266052246,-0.17990612983703613,-0.3563831150531769,0.9168562293052673,-0.41016650199890137,1.6685320138931274,0.06481814384460449
0.4133073144667296,-2.9381679962113285,0.5166474791412848,-3.6818645000457764,2.2381722927093506,-3.969273567199707,-0.1850135177373886,-0.4016403555870056,0.8969138860702515,-0.1261589080095291,1.803114414215088,-0.31691235303878784
0.451751912461473,-2.9302506037002978,0.5498168131997908,-2.5647430419921875,2.1291146278381348,-3.4740302562713623,-0.18872861564159393,-0.4365423619747162,0.8796655535697937,0.0885547399520874,1.6500738859176636,-0.5487791299819946
0.4784783408654014,-2.922587455363633,0.5804801205851575,-1.5040099620819092,2.166097402572632,-3.0119264125823975,-0.19285978376865387,-0.460428923368454,0.8664930462837219,0.16168609261512756,1.3482156991958618,-0.6080855131149292
0.4959923314298914,-2.9132042613172935,0.6091458353199515,-0.8504663109779358,2.4122281074523926,-2.7086105346679688,-0.19912512600421906,-0.475904643535614,0.8566583395004272,0.12325851619243622,1.0673658847808838,-0.44807398319244385
0.5095958480546036,-2.899924410746511,0.6366092815282337,-0.7250051498413086,2.9046859741210938,-2.607736825942993,-0.20891474187374115,-0.4878244996070862,0.8475739359855652,0.024085119366645813,0.8632365465164185,-0.146509051322937
0.5244460863081045,-2.8809696897556725,0.6639716838757768,-1.0099806785583496,3.60095477104187,-2.752647638320923,-0.2230502963066101,-0.5007336139678955,0.8363694548606873,-0.13832354545593262,0.6990979313850403,0.11834216117858887
0.5447327820525393,-2.854490310928625,0.6922905684293579,-1.6196571588516235,4.581117630004883,-3.0408594608306885,-0.2421892285346985,-0.518189549446106,0.8202580213546753,-0.22863586246967316,0.5375072956085205,0.32027506828308105
0.5730559346970467,-2.81771324595842,0.7212174091104576,-2.2900469303131104,5.817744255065918,-3.2956814765930176,-0.2674059569835663,-0.5422022938728333,0.7965613007545471,-0.22168391942977905,0.4011044502258301,0.44043785333633423
0.6094290543004245,-2.7684831441223214,0.7480721879816264,-3.028266668319702,6.940860748291016,-3.338137626647949,-0.2988913357257843,-0.572399377822876,0.7635593414306641,-0.04440087080001831,0.3546411991119385,0.5446071624755859
0.6538407130973657,-2.706509745821338,0.7691065167250225,-3.7671632766723633,7.85996675491333,-3.2301089763641357,-0.3345557153224945,-0.608239471912384,0.7198036909103394,0.20027843117713928,0.33507657051086426,0.6825705170631409
0.704066832869024,-2.631403239016601,0.7806021061810144,-4.317690849304199,8.4913330078125,-2.8977344036102295,-0.37222230434417725,-0.6473228335380554,0.6651489734649658,0.4480738341808319,0.31706172227859497,0.6979336142539978
0.7564742655959221,-2.5438651236939682,0.7795476241604196,-4.626360893249512,8.767424583435059,-2.4647130966186523,-0.4092771112918854,-0.6863616108894348,0.6011655926704407,0.6213590502738953,0.23424363136291504,0.6393433213233948
0.8074312386313073,-2.4458797241246093,0.7653739504459073,-4.660802841186523,8.733490943908691,-2.075547218322754,-0.4431130588054657,-0.7225136160850525,0.5306831002235413,0.6576517820358276,0.08828216791152954,0.5333121418952942
0.8545704519384394,-2.3413427449825064,0.740639320012017,-4.465632438659668,8.423698425292969,-1.918091893196106,-0.47108903527259827,-0.7542889714241028,0.4572998285293579,0.5233809947967529,-0.06381094455718994,0.43233323097229004
0.8979219927637595,-2.2354766777601256,0.7100705901219867,-4.1479291915893555,7.991276741027832,-2.058509349822998,-0.49055778980255127,-0.7820335030555725,0.38441669940948486,0.3114350140094757,-0.19104987382888794,0.3906380832195282
0.938806692425504,-2.131407149228699,0.6772473733833634,-3.7830286026000977,7.556914806365967,-2.3237926959991455,-0.5003252029418945,-0.806853711605072,0.31410452723503113,0.1814928650856018,-0.24197447299957275,0.3674444258213043
0.977771085942989,-2.029526362603657,0.6430708450372294,-3.4300808906555176,7.1797709465026855,-2.5274040699005127,-0.5010932683944702,-0.8292537331581116,0.24747395515441895,0.16646820306777954,-0.2501070499420166,0.3685995042324066
1.0144449732601688,-1.9284834841247258,0.6060874501293451,-3.1625025272369385,6.761361598968506,-2.5705928802490234,-0.4946674108505249,-0.8491875529289246,0.18488918244838715,0.27912193536758423,-0.25785261392593384,0.41473525762557983
1.0480260544500053,-1.8268662319099376,0.5640326953383972,-2.9708828926086426,6.300073623657227,-2.5028557777404785,-0.483001708984375,-0.8664393424987793,0.12645839154720306,0.3786470293998718,-0.2446749210357666,0.4697176218032837
1.0778901709601532,-1.723849881025642,0.5160468124125374,-2.7943880558013916,5.879305839538574,-2.376847982406616,-0.4676567018032074,-0.8809614181518555,0.07214070856571198,0.4230705499649048,-0.2053270936012268,0.5010555982589722
1.1036631019018235,-1.6198134464127891,0.46265880231426254,-2.618269920349121,5.408599853515625,-2.243434429168701,-0.44978731870651245,-0.8928629755973816,0.022064954042434692,0.4391215443611145,-0.16042065620422363,0.5126944780349731
1.125553874345854,-1.5162607433259019,0.40483062813412524,-2.4459259510040283,4.88054084777832,-2.142063617706299,-0.4300363063812256,-0.9025062918663025,-0.023475559428334236,0.44772133231163025,-0.15451574325561523,0.5044173002243042
1.1442861648201785,-1.4148370346517327,0.3440994731401914,-2.2356464862823486,4.365931034088135,-2.112908124923706,-0.40867501497268677,-0.91041499376297,-0.06425850093364716,0.45014846324920654,-0.19717466831207275,0.4638251066207886
1.1605597144479267,-1.3173014497127693,0.2825686154028276,-1.9784879684448242,3.8719489574432373,-2.0679612159729004,-0.38608044385910034,-0.9170264601707458,-0.10002108663320541,0.4605586528778076,-0.19883346557617188,0.41630518436431885
1.1743607514507994,-1.2253236824859906,0.22229019505927572,-1.715663194656372,3.4002599716186523,-1.9409253597259521,-0.36331838369369507,-0.9224432110786438,-0.1307605803012848,0.5112371444702148,-0.18384957313537598,0.3885577917098999
1.185382554076319,-1.1412457447593034,0.16544046416516106,-1.4498817920684814,2.876187324523926,-1.718287706375122,-0.3417894244194031,-0.9266429543495178,-0.15656593441963196,0.5795366764068604,-0.24068498611450195,0.38048863410949707
1.1937460857997089,-1.0678664995472875,0.11450315995154794,-1.1714779138565063,2.3220109939575195,-1.4743123054504395,-0.3225891590118408,-0.9297547340393066,-0.1774604320526123,0.6184419393539429,-0.3047727346420288,0.34370487928390503
1.2005330998409245,-1.0067354557621635,0.07082392363485475,-0.8848861455917358,1.7809399366378784,-1.3178601264953613,-0.3058052659034729,-0.932232141494751,-0.19345885515213013,0.5811501741409302,-0.32449692487716675,0.31845879554748535
1.20692004838695,-0.9551023979291683,0.03257187448824209,-0.6790525913238525,1.398977279663086,-1.2797846794128418,-0.2905465066432953,-0.9345242977142334,-0.20554077625274658,0.48770537972450256,-0.3108980059623718,0.3114215135574341
1.214051300843217,-0.9093675270024201,-0.0029784176094959968,-0.48780298233032227,1.1028708219528198,-1.356958270072937,-0.2755794823169708,-0.9370384812355042,-0.2145102173089981,0.459234356880188,-0.2728613018989563,0.2966787815093994
1.222324204379253,-0.8665040962031015,-0.03796055660825322,-0.34168845415115356,0.9053437113761902,-1.4361300468444824,-0.2602178156375885,-0.939895510673523,-0.22109468281269073,0.46102356910705566,-0.23995965719223022,0.27793362736701965
1.2315189019303676,-0.825375106319577,-0.07269651270275865,-0.1902959942817688,0.7925335168838501,-1.4853355884552002,-0.24454638361930847,-0.9429953694343567,-0.22573591768741608,0.46727901697158813,-0.20428240299224854,0.23121380805969238
1.2416468656607391,-0.7850932118943199,-0.10710420360852696,-0.03749770671129227,0.7631882429122925,-1.5253108739852905,-0.22849419713020325,-0.9463176131248474,-0.2286335974931717,0.462716668844223,-0.1696491241455078,0.1764790415763855
1.252426535161338,-0.7451671357467027,-0.14127808293968927,0.07837723195552826,0.7351946830749512,-1.5207570791244507,-0.2122563272714615,-0.9497469663619995,-0.23006080090999603,0.44161126017570496,-0.11499607563018799,0.16000765562057495
1.2630455660783537,-0.7054160698709805,-0.1761204910810123,0.06329264491796494,0.5292473435401917,-1.4802913665771484,-0.19639559090137482,-0.9530172944068909,-0.23062239587306976,0.4749906361103058,-0.07675254344940186,0.22888284921646118
1.2722719694614997,-0.6662155285311095,-0.21278901129880748,-0.018475718796253204,0.3624999523162842,-1.3556724786758423,-0.1817646026611328,-0.9557715058326721,-0.23121951520442963,0.4923573136329651,-0.033730387687683105,0.21593022346496582
1.2792780159185335,-0.6278893905823778,-0.2490529720056424,-0.14411279559135437,0.34386321902275085,-1.1664915084838867,-0.16883352398872375,-0.9578086137771606,-0.2325892299413681,0.4747112989425659,0.008406877517700195,0.23098702728748322
1.2836161545433906,-0.5894706214744003,-0.2861351898983553,-0.36176684498786926,0.23704597353935242,-1.0623866319656372,-0.15746377408504486,-0.9590464234352112,-0.2354460507631302,0.41469651460647583,0.03294485807418823,0.2420988827943802
1.2854804124908183,-0.5499023939752298,-0.32517903226592,-0.48896750807762146,0.19384589791297913,-0.9965439438819885,-0.1470923125743866,-0.9595727920532227,-0.23996621370315552,0.3566718101501465,0.023827672004699707,0.19257237017154694
1.286242147778555,-0.5106991242379496,-0.3642620009876609,-0.46763238310813904,0.14094087481498718,-0.9721235632896423,-0.13721702992916107,-0.9597868919372559,-0.24490928649902344,0.29699188470840454,0.04950869083404541,0.05901145935058594
1.287259474320934,-0.4735690102723557,-0.40171732375103375,-0.32478123903274536,0.10303696990013123,-0.9719999432563782,-0.12758579850196838,-0.9600719809532166,-0.24896539747714996,0.23047585785388947,0.08546864986419678,-0.05590525269508362
1.2898221454187744,-0.4387299802188697,-0.43672992899426144,-0.0670602023601532,0.14448854327201843,-0.9992896318435669,-0.1177908182144165,-0.9607857465744019,-0.2510300576686859,0.18364781141281128,0.11457914113998413,-0.15612024068832397
1.2944255790099137,-0.4055372007761964,-0.4694583243329651,0.1581602692604065,0.1990380734205246,-1.0057616233825684,-0.10764902085065842,-0.962052047252655,-0.25073397159576416,0.1450788527727127,0.14833134412765503,-0.17602387070655823
1.3002011883980997,-0.37392484752984784,-0.500165209770243,0.26036199927330017,0.19417940080165863,-0.955224335193634,-0.09763889014720917,-0.9636119604110718,-0.24883417785167694,0.12405189871788025,0.16418886184692383,-0.11904001235961914
1.3058724663597818,-0.3443800906512117,-0.5291339125856976,0.24760019779205322,0.127781480550766,-0.8671854734420776,-0.08839914947748184,-0.9651124477386475,-0.2464618682861328,0.10779312252998352,0.14835530519485474,-0.05120658874511719
1.3103631445226427,-0.31748754113757705,-0.5560544888383951,0.13483449816703796,0.04405754804611206,-0.737144410610199,-0.08038613945245743,-0.9662785530090332,-0.24462971091270447,0.1095304861664772,0.13809263706207275,0.018433406949043274
1.3127371506245566,-0.2940099988002035,-0.5805845337676712,-0.06527107208967209,-0.09351447224617004,-0.6084529757499695,-0.07395632565021515,-0.9668871164321899,-0.2442534863948822,0.10970774292945862,0.12496823072433472,0.08901053667068481
1.3125896401161925,-0.27305286662815237,-0.6038888664057144,-0.29510319232940674,-0.2184865027666092,-0.5272508263587952,-0.0688600093126297,-0.9668494462966919,-0.24588677287101746,0.07107258588075638,0.09030842781066895,0.10803885757923126
1.3099517052230565,-0.25333303612829206,-0.6269338747102611,-0.5166962146759033,-0.27838000655174255,-0.4776315689086914,-0.06463705003261566,-0.9661725163459778,-0.24966482818126678,0.04344264417886734,0.07582229375839233,0.1045079380273819
1.3051924256237846,-0.23402592549660184,-0.6498002086505617,-0.6822401881217957,-0.26612815260887146,-0.44600892066955566,-0.06087063252925873,-0.9649341702461243,-0.2553362250328064,0.019580397754907608,0.08064168691635132,0.08088245987892151
1.298786053138549,-0.21528532924326307,-0.6718177044219651,-0.8184307217597961,-0.22489169239997864,-0.4021624028682709,-0.05739450082182884,-0.9632327556610107,-0.26246583461761475,-0.023156609386205673,0.09171187877655029,0.048919111490249634
1.2909504292002008,-0.1979206277184025,-0.691657273567657,-0.9272615909576416,-0.10476288944482803,-0.32973533868789673,-0.05431084334850311,-0.9610980153083801,-0.2708147168159485,-0.05027284473180771,0.09035539627075195,0.022188037633895874
1.281952931637085,-0.18256346111803665,-0.7077337556507174,-1.0011520385742188,0.09733100980520248,-0.2114057093858719,-0.051713649183511734,-0.9585739970207214,-0.2801099419593811,-0.04516434669494629,0.08058333396911621,-0.0016589164733886719
1.2720414242245281,-0.1696321355423779,-0.7190452670746211,-1.052190899848938,0.31850841641426086,-0.08560331910848618,-0.04968872666358948,-0.9557036757469177,-0.2901054620742798,-0.03951411694288254,0.07008373737335205,-0.024683326482772827
1.261702222353682,-0.1589614439210879,-0.7258358967056195,-1.0405409336090088,0.5118195414543152,0.02099592797458172,-0.048151977360248566,-0.9526095390319824,-0.3003603219985962,-0.043126046657562256,0.04849588871002197,-0.04627358913421631
1.25159283488977,-0.15032721566416657,-0.7287421302270122,-0.9782317876815796,0.643487274646759,0.10779580473899841,-0.04699671268463135,-0.9494856595993042,-0.31027090549468994,-0.03212004527449608,0.02632904052734375,-0.05728277564048767
1.242016576698236,-0.14388359591088073,-0.7286945780629593,-0.9069954752922058,0.625932514667511,0.17829443514347076,-0.04629823938012123,-0.9464370608329773,-0.31955206394195557,-0.029965166002511978,0.0050917863845825195,-0.05471554398536682
1.2331208891096503,-0.1408873142723235,-0.7257585646240925,-0.8185550570487976,0.5223978757858276,0.2650271952152252,-0.046520933508872986,-0.943527340888977,-0.32801195979118347,-0.011126723140478134,-0.0269925594329834,-0.05391553044319153
1.2249854106750582,-0.1416673463673788,-0.7197627140071317,-0.7297821044921875,0.45842382311820984,0.3587689995765686,-0.047859061509370804,-0.9408009052276611,-0.335563987493515,0.014442354440689087,-0.05051684379577637,-0.03751343488693237
1.2175647355410188,-0.14541054159363156,-0.7111319433608139,-0.6499173641204834,0.4102541506290436,0.4349021315574646,-0.05012504383921623,-0.9382597208023071,-0.34228095412254333,0.023132294416427612,-0.051272690296173096,-0.008854329586029053
1.2107803648313824,-0.15132192220437338,-0.7007183058776257,-0.5810889601707458,0.34816956520080566,0.4746781587600708,-0.05310586467385292,-0.9358912110328674,-0.3482634723186493,0.0143638476729393,-0.055914878845214844,0.008358687162399292
1.204453334554051,-0.1584627310358806,-0.6899952200388056,-0.5515002012252808,0.21823817491531372,0.463344007730484,-0.056524671614170074,-0.9336435198783875,-0.353715717792511,-0.022027522325515747,-0.08230185508728027,0.005006551742553711
1.1983922907873992,-0.16589455448738602,-0.680379264076852,-0.5281954407691956,0.08956073969602585,0.41425246000289917,-0.060085173696279526,-0.9314553141593933,-0.35886022448539734,-0.05673608183860779,-0.11454987525939941,-0.010570287704467773
1.1927013299866311,-0.17278614210953017,-0.6724852057786708,-0.4909348785877228,0.003760615363717079,0.3445279896259308,-0.06346718221902847,-0.9293695688247681,-0.36365368962287903,-0.06743790954351425,-0.12878161668777466,-0.03455492854118347
1.1876317736124893,-0.17858561951531526,-0.6664698684508809,-0.4258969724178314,-0.04215993732213974,0.2721686363220215,-0.06641126424074173,-0.9274861812591553,-0.3679117262363434,-0.06922406703233719,-0.11047768592834473,-0.05478730797767639
1.1834053318303728,-0.18324408103226755,-0.6618400121114987,-0.3403562307357788,-0.02422567829489708,0.22578731179237366,-0.06883803755044937,-0.9258978366851807,-0.37144893407821655,-0.05340006202459335,-0.07355272769927979,-0.06765326857566833
1.180051275014144,-0.1870493886144416,-0.6576425842614084,-0.25873255729675293,0.040006622672080994,0.21040663123130798,-0.07082811743021011,-0.9246255159378052,-0.37423351407051086,-0.03164985030889511,-0.033153235912323,-0.061343878507614136
1.177461574358748,-0.19010514792944055,-0.6535862749254364,-0.1954185664653778,0.09502646327018738,0.18626587092876434,-0.07242364436388016,-0.9236360788345337,-0.3763657808303833,-0.033304452896118164,-0.012261688709259033,-0.0563582181930542
1.1754026163740205,-0.19197460472662,-0.6502912101435182,-0.16106630861759186,0.13883648812770844,0.13649094104766846,-0.07348980754613876,-0.9228450059890747,-0.37809571623802185,-0.047619134187698364,-0.010535061359405518,-0.06204408407211304
1.1737710347179309,-0.19229849441456398,-0.6481519694683144,-0.12671418488025665,0.19341237843036652,0.08984620124101639,-0.07389993220567703,-0.9222153425216675,-0.3795493543148041,-0.041853196918964386,-0.005763232707977295,-0.06414580345153809
1.1725859002800512,-0.19137947905545574,-0.6467323231650222,-0.08144110441207886,0.24908596277236938,0.06546956300735474,-0.07375893741846085,-0.921756386756897,-0.3806898593902588,-0.013765424489974976,0.011478126049041748,-0.06311202049255371
1.1719435134735456,-0.18994693085991085,-0.645350165870257,-0.023075271397829056,0.2910477817058563,0.06879105418920517,-0.07332523167133331,-0.9215071201324463,-0.3813762664794922,0.015616543591022491,0.03791654109954834,-0.055620163679122925
1.171868166214845,-0.18893570077997004,-0.6431666076328004,0.03745187819004059,0.30559486150741577,0.10842087119817734,-0.07295260578393936,-0.9214778542518616,-0.38151857256889343,0.04800453782081604,0.06570398807525635,-0.040783703327178955
1.1721397510254654,-0.18972695754720548,-0.6391630040562095,0.07019570469856262,0.264487624168396,0.1913439780473709,-0.07320721447467804,-0.9215832948684692,-0.3812146782875061,0.07433641701936722,0.08389121294021606,-0.01970994472503662
1.1723688593115142,-0.19312508801389902,-0.6328952600148795,0.0659181997179985,0.21317172050476074,0.2729822099208832,-0.07446175813674927,-0.9216722249984741,-0.3807568848133087,0.07978713512420654,0.07999742031097412,-0.005717754364013672
1.1723605146655953,-0.19839084072562232,-0.6250022628452601,0.05301305279135704,0.18647779524326324,0.31911852955818176,-0.07646716386079788,-0.9216690063476562,-0.38036686182022095,0.06178826838731766,0.053367674350738525,-0.005527883768081665
1.1721813312465297,-0.20436134991420637,-0.6166004354701017,0.04161528870463371,0.16871266067028046,0.32375234365463257,-0.07877033948898315,-0.9215994477272034,-0.3800655007362366,0.03459619730710983,0.038878440856933594,-0.005463123321533203
1.171824189524313,-0.21027264352352398,-0.608462970904014,0.0168023519217968,0.14275003969669342,0.30247581005096436,-0.08108427375555038,-0.921460747718811,-0.3799148499965668,0.00800997018814087,0.03291100263595581,-0.004820287227630615
1.1712416632547777,-0.21558645856496675,-0.6014921889928598,-0.016482874751091003,0.08037132024765015,0.24316340684890747,-0.08321677148342133,-0.9212343096733093,-0.38000309467315674,-0.030033916234970093,0.0051882266998291016,-0.008638262748718262
1.170475507287213,-0.21924375137309504,-0.5968512441193219,-0.051932476460933685,0.051164694130420685,0.13670514523983002,-0.08475945144891739,-0.9209359884262085,-0.3803849220275879,-0.06627199053764343,-0.030495166778564453,-0.025483667850494385
1.1695749931498187,-0.2199282708022817,-0.5953414382485425,-0.09979430586099625,0.10091471672058105,0.018222006037831306,-0.08520066738128662,-0.9205846786499023,-0.38113582134246826,-0.0831494852900505,-0.046059489250183105,-0.03040894865989685
1.1684513799566145,-0.21699349119172406,-0.5967419763796096,-0.1436176896095276,0.23483549058437347,-0.07020293176174164,-0.08430438488721848,-0.9201452732086182,-0.38239407539367676,-0.08493079990148544,-0.044728875160217285,-0.023672789335250854
1.1669759016159715,-0.21104274705157652,-0.5999391487840503,-0.2003038376569748,0.3563198149204254,-0.10338947921991348,-0.08231169730424881,-0.9195665121078491,-0.3842161297798157,-0.07512842863798141,-0.03961610794067383,-0.013336330652236938
1.1649435305461922,-0.20388711755949424,-0.6034648659246087,-0.251225084066391,0.41661643981933594,-0.07822234183549881,-0.07993858307600021,-0.9187660217285156,-0.386624813079834,-0.0438559353351593,-0.0301017165184021,0.00015014410018920898
1.1623704438541762,-0.19725310452337586,-0.6060370820788078,-0.28953826427459717,0.4314403235912323,-0.013406699523329735,-0.07783503830432892,-0.9177471399307251,-0.3894636631011963,0.003890983760356903,-0.029228568077087402,0.013944804668426514
1.1593889175171581,-0.19227961808156863,-0.6068961947199966,-0.30504265427589417,0.397390216588974,0.05711779743432999,-0.07641956955194473,-0.9165589213371277,-0.39252969622612,0.022830761969089508,-0.032232463359832764,0.019498109817504883
1.1562351128663444,-0.18898240039004166,-0.6065678115309021,-0.3074709177017212,0.31293654441833496,0.0782056525349617,-0.07566756755113602,-0.9152931571006775,-0.3956167995929718,-0.004395239055156708,-0.03812164068222046,0.015016824007034302
1.1532214870346844,-0.1865024682946522,-0.6065031099737067,-0.27712368965148926,0.19019198417663574,0.0323910228908062,-0.07519741356372833,-0.9140751361846924,-0.3985122740268707,-0.039792776107788086,-0.05212658643722534,0.00384366512298584
1.1508592987667916,-0.18383422609235944,-0.6080506565105415,-0.2051243633031845,0.06294331699609756,-0.0725952610373497,-0.07452831417322159,-0.913114607334137,-0.4008331596851349,-0.06635603308677673,-0.07492244243621826,-0.0233917236328125
1.1495669556258805,-0.1801375873596241,-0.6118674051640408,-0.1030866876244545,-0.009073085151612759,-0.18712502717971802,-0.07325742393732071,-0.9125869870185852,-0.4022665023803711,-0.08166500926017761,-0.0880233645439148,-0.058014869689941406
1.1494831102194452,-0.17491665230852427,-0.6177735747832556,0.0009374851360917091,-0.01787027344107628,-0.2834196984767914,-0.07116953283548355,-0.9125526547431946,-0.40271878242492676,-0.09213000535964966,-0.08604347705841064,-0.07501864433288574
1.1504855984328097,-0.1680868524126581,-0.6253566697195831,0.08638021349906921,-0.0007749097421765327,-0.35788246989250183,-0.06826431304216385,-0.9129621982574463,-0.40229323506355286,-0.09120523184537888,-0.06837618350982666,-0.06888291239738464
1.1522608962749004,-0.160037576702057,-0.6340102281163551,0.14865314960479736,0.029915593564510345,-0.38840994238853455,-0.06476561725139618,-0.913685142993927,-0.4012291729450226,-0.06090572476387024,-0.04912912845611572,-0.059082746505737305
1.1545457583310184,-0.15165746286929874,-0.6426395497748865,0.19085252285003662,0.06615935266017914,-0.36408329010009766,-0.06108546257019043,-0.9146113991737366,-0.39969295263290405,-0.020823687314987183,-0.03157079219818115,-0.04976993799209595
1.1570773949291835,-0.1439638461773761,-0.6501180017274165,0.21366141736507416,0.10465039312839508,-0.3028709590435028,-0.05767624080181122,-0.9156320691108704,-0.3978584408760071,0.0189037024974823,-0.011232495307922363,-0.03393477201461792
1.1594531778434907,-0.13759085362052242,-0.655802605062028,0.18966206908226013,0.12585501372814178,-0.21457013487815857,-0.05484100803732872,-0.9165846109390259,-0.3960619270801544,0.042405128479003906,0.0010878443717956543,-0.012156486511230469
1.161287887633418,-0.13266608535518176,-0.6596291922929959,0.13379168510437012,0.15583881735801697,-0.1377548724412918,-0.052667293697595596,-0.9173166751861572,-0.3946595788002014,0.05364391580224037,0.005100548267364502,0.006231874227523804
1.162415679460215,-0.1286263305070255,-0.662185435551251,0.06616656482219696,0.18208558857440948,-0.10021362453699112,-0.05093979090452194,-0.9177650809288025,-0.39384275674819946,0.04979545250535011,0.003550112247467041,0.01675233244895935
1.1629628642296026,-0.1242003060211971,-0.6649086410167085,0.021134255453944206,0.19738993048667908,-0.1361292004585266,-0.049133915454149246,-0.917982280254364,-0.39356595277786255,0.014481250196695328,-0.0032059550285339355,0.020274966955184937
1.1632510188388194,-0.11820432814123687,-0.6693458403480397,-0.006097099278122187,0.18010467290878296,-0.22242388129234314,-0.04674204811453819,-0.9180965423583984,-0.39359092712402344,-0.017360057681798935,-0.013040482997894287,0.015813857316970825
1.1634100912883034,-0.11036085483940392,-0.6761957170450296,-0.020888717845082283,0.12946859002113342,-0.3196789026260376,-0.04363743215799332,-0.918159544467926,-0.39380019903182983,-0.023531701415777206,-0.018699467182159424,0.010987728834152222
1.163624758345371,-0.1007655234473937,-0.6853739351521608,-0.010906923562288284,0.10734516382217407,-0.4046531915664673,-0.03983702510595322,-0.9182446002960205,-0.39400482177734375,-0.0214269757270813,-0.018950164318084717,0.00247955322265625
1.1641177087824304,-0.08965144222956245,-0.6963951312748837,0.02672821842133999,0.09083784371614456,-0.46723178029060364,-0.03541512042284012,-0.9184396862983704,-0.39397233724594116,-0.011673450469970703,-0.005388379096984863,-0.003488600254058838
1.1650395688761248,-0.07776763644319602,-0.708369678812949,0.0755213275551796,0.0844406709074974,-0.4831244647502899,-0.03066503442823887,-0.9188039302825928,-0.39352089166641235,0.010615022853016853,0.0155600905418396,-0.008563488721847534
1.166374904943419,-0.06631190520158499,-0.7199842012390375,0.12184697389602661,0.06718602031469345,-0.4384908676147461,-0.026073742657899857,-0.9193302392959595,-0.3926220238208771,0.03289446234703064,0.03583109378814697,-0.010026931762695312
1.1679604383713749,-0.05663610891741655,-0.7298234688701521,0.14711931347846985,0.0585150346159935,-0.3469069004058838,-0.022191109135746956,-0.919952929019928,-0.3914000689983368,0.06123840808868408,0.04635685682296753,-0.002185136079788208
1.1696888252157855,-0.049196930951248004,-0.737165469295996,0.16495665907859802,0.08231546729803085,-0.24375341832637787,-0.019200606271624565,-0.9206291437149048,-0.38996565341949463,0.0762837827205658,0.04492729902267456,0.008373856544494629
1.1714636746663003,-0.043926390327137625,-0.7419850616577087,0.16916126012802124,0.07585463672876358,-0.14449633657932281,-0.0170732494443655,-0.9213206768035889,-0.38842859864234924,0.07563650608062744,0.05246990919113159,0.02485734224319458
1.1730378733434867,-0.0411206432195489,-0.744480291897816,0.12619714438915253,0.035824257880449295,-0.06423485279083252,-0.015923691913485527,-0.9219315648078918,-0.38702499866485596,0.06762051582336426,0.055781781673431396,0.048142582178115845
1.1737132396282979,-0.04054161943102843,-0.7451380285990883,0.002311954740434885,-0.07596112787723541,0.005209737922996283,-0.015674356371164322,-0.9221929907798767,-0.38641199469566345,0.0789983868598938,0.036283016204833984,0.11686551570892334
1.1731683402147486,-0.0431842083403786,-0.7443829984688665,-0.09637841582298279,-0.29292556643486023,0.05304780229926109,-0.016717126592993736,-0.9219821095466614,-0.386871337890625,0.05846521258354187,0.028503775596618652,0.087982177734375
1.1720565995258014,-0.04757336503893293,-0.7432274244919166,-0.11262502521276474,-0.3661539554595947,0.036453645676374435,-0.018463745713233948,-0.9215510487556458,-0.3878181278705597,0.01174992136657238,0.0071222782135009766,0.047943830490112305
1.1709936385474857,-0.051572519359375,-0.7432779394490086,-0.08596639335155487,-0.4354149103164673,-0.03318088501691818,-0.020065011456608772,-0.921137809753418,-0.38871902227401733,-0.0302431583404541,-0.0015611052513122559,0.011460721492767334
1.1706303795122401,-0.05427517349286233,-0.7452009805793314,0.015300574712455273,-0.4453471601009369,-0.10930760949850082,-0.021133653819561005,-0.920996367931366,-0.38899731636047363,-0.05422946810722351,-0.0034267306327819824,-0.05749005079269409
1.171446619066947,-0.05552436725748084,-0.7483389884077033,0.12979388236999512,-0.3716842532157898,-0.1369209736585617,-0.02157784439623356,-0.9213140606880188,-0.3882198929786682,-0.0455913245677948,-0.010585904121398926,-0.0889071524143219
1.1731746515967174,-0.05569974724062316,-0.7516301301455091,0.19138401746749878,-0.27277472615242004,-0.13208040595054626,-0.021557273343205452,-0.9219845533370972,-0.38662609457969666,-0.030078411102294922,-0.0038729310035705566,-0.07829403877258301
1.1751450530704173,-0.05567870684764951,-0.7541716238995584,0.18799060583114624,-0.1936652660369873,-0.08090297877788544,-0.02144799754023552,-0.9227457642555237,-0.3848119080066681,-0.01679050922393799,0.011262059211730957,-0.0572047233581543
1.176896598608511,-0.056796550956718206,-0.7547291184733833,0.158828467130661,-0.13259205222129822,0.023098785430192947,-0.02178635261952877,-0.9234194159507751,-0.38317328691482544,0.0068632978945970535,0.018542826175689697,-0.04392021894454956
1.1782161241286855,-0.06021399485674646,-0.7522833054552387,0.11265427619218826,-0.10923402011394501,0.14415764808654785,-0.023022359237074852,-0.9239250421524048,-0.38188013434410095,0.03684687614440918,0.01222771406173706,-0.023545920848846436
1.1789675307736158,-0.06646919912962623,-0.7469667109618047,0.061350345611572266,-0.16684885323047638,0.2396996170282364,-0.025364521890878677,-0.9242122173309326,-0.3810359537601471,0.040333449840545654,-0.009350895881652832,-0.009848475456237793
1.1792013518731042,-0.07497113160288547,-0.7401120967865763,0.02606549859046936,-0.2660313844680786,0.27238404750823975,-0.028586912900209427,-0.9243015050888062,-0.38059094548225403,0.01786002516746521,-0.031035959720611572,-0.007455348968505859
1.1791363712326008,-0.08461429197610307,-0.7329766817428963,0.007196471560746431,-0.33979085087776184,0.2666875422000885,-0.032260712236166,-0.9242767095565796,-0.380357563495636,-0.0014458894729614258,-0.04187929630279541,-0.010832011699676514
1.178975517606793,-0.09418672515753337,-0.726522636872492,0.005420401692390442,-0.3710135221481323,0.22426258027553558,-0.0359141007065773,-0.9242152571678162,-0.3801792562007904,-0.01729324460029602,-0.04781532287597656,-0.014229953289031982
1.1788835922011596,-0.1026160797764083,-0.7213207188395796,0.01581445336341858,-0.34713640809059143,0.1670062094926834,-0.039126135408878326,-0.9241801500320435,-0.37994733452796936,-0.0338565967977047,-0.04733157157897949,-0.02120622992515564
1.1789923128325777,-0.10923322072123176,-0.7177120384435085,0.035753071308135986,-0.3064086437225342,0.10556719452142715,-0.04162849858403206,-0.9242216944694519,-0.3795804977416992,-0.04449206963181496,-0.04254472255706787,-0.03393274545669556
1.1793990451694323,-0.11411640157224241,-0.7154883170104495,0.06508033722639084,-0.2543952465057373,0.053526896983385086,-0.043438732624053955,-0.924376904964447,-0.3789990544319153,-0.04732048138976097,-0.03405803442001343,-0.04579034447669983
1.1801586120286625,-0.1171827822616274,-0.7144086586733897,0.0949949249625206,-0.15000402927398682,0.012726491317152977,-0.044518571346998215,-0.9246664047241211,-0.3781665563583374,-0.04755290970206261,-0.026047587394714355,-0.04734000563621521
1.181250671340359,-0.11834906865672236,-0.7140982118811926,0.1235613226890564,-0.025902852416038513,-0.013224948197603226,-0.04484032467007637,-0.925081729888916,-0.3771113455295563,-0.04642244800925255,-0.011136412620544434,-0.04172712564468384
1.1825402641150482,-0.11796623043207978,-0.7142459068064164,0.12836746871471405,0.06798317283391953,-0.02610514685511589,-0.04455553740262985,-0.9255706667900085,-0.37594375014305115,-0.03977975249290466,0.0007812976837158203,-0.030214667320251465
1.1838297816280259,-0.11688313401116338,-0.7143195380151575,0.12367071956396103,0.12943002581596375,-0.007623076438903809,-0.04400911182165146,-0.9260581135749817,-0.37480613589286804,-0.026364389806985855,0.013872385025024414,-0.014872878789901733
1.184985548022236,-0.1161222470516734,-0.7135726137863707,0.10874295234680176,0.15589216351509094,0.03736044839024544,-0.04359986633062363,-0.9264936447143555,-0.37377607822418213,0.002446979284286499,0.023722708225250244,-0.002658247947692871
1.1859609351823581,-0.11644445352327468,-0.7116918848894885,0.0992855355143547,0.11842603236436844,0.08024932444095612,-0.04361528903245926,-0.9268602132797241,-0.372864305973053,0.03331565856933594,0.013545513153076172,0.0063024163246154785
1.186837833352357,-0.11840582173965866,-0.708798459222898,0.09988774359226227,0.020394865423440933,0.10953834652900696,-0.044250503182411194,-0.92718905210495,-0.37197086215019226,0.041244566440582275,-0.0028035640716552734,0.005973517894744873
1.1876353414886047,-0.12203936218267664,-0.7052336986945154,0.11446775496006012,-0.07053877413272858,0.10258855670690536,-0.04551173746585846,-0.9274875521659851,-0.371073454618454,0.01972442865371704,-0.011217892169952393,0.004694700241088867
1.188564516636994,-0.12588629572334084,-0.7022770782475783,0.13134458661079407,-0.1365492343902588,0.05616423860192299,-0.04683065414428711,-0.9278345108032227,-0.3700403571128845,-0.0025009773671627045,-0.011496424674987793,0.003692120313644409
1.1896633335667217,-0.12896726232876227,-0.700779615676659,0.14016923308372498,-0.19048835337162018,-0.01371284481137991,-0.04783935472369194,-0.9282438158988953,-0.3688829839229584,-0.01922297105193138,-0.016244590282440186,0.002321094274520874
1.1909370030588402,-0.13064866531230526,-0.7013256510136832,0.14162558317184448,-0.2305338978767395,-0.08987865597009659,-0.048305511474609375,-0.928716778755188,-0.36762988567352295,-0.03151315450668335,-0.027948200702667236,0.004836857318878174
1.192321392151073,-0.1305883230024146,-0.7039462132646194,0.13674667477607727,-0.23214830458164215,-0.16098478436470032,-0.048115819692611694,-0.9292292594909668,-0.36635738611221313,-0.028925742954015732,-0.029251515865325928,0.008355706930160522
1.1937552919263519,-0.12852961028505225,-0.7085309600705036,0.13036151230335236,-0.2081555277109146,-0.20283615589141846,-0.04719068482518196,-0.9297581315040588,-0.36513403058052063,-0.020192086696624756,-0.016790270805358887,0.010168790817260742
1.1952827469715752,-0.1249371329187744,-0.7144183811240699,0.12726959586143494,-0.18017634749412537,-0.21575196087360382,-0.045701589435338974,-0.9303193688392639,-0.3638914227485657,-0.005079593509435654,-0.006386995315551758,0.011672765016555786
1.1967926686729826,-0.12110303357316608,-0.7202094467779314,0.12388723343610764,-0.15065063536167145,-0.1877528876066208,-0.044136352837085724,-0.9308720827102661,-0.3626694679260254,0.013725608587265015,0.00010126829147338867,0.00955057144165039
1.1982696598876064,-0.11819907062710266,-0.7246771521082809,0.13020265102386475,-0.10672924667596817,-0.148545041680336,-0.042920805513858795,-0.9314106702804565,-0.36143040657043457,0.028135091066360474,0.006087243556976318,0.007014453411102295
1.1997349670862625,-0.11611341327215445,-0.727811764255619,0.13553327322006226,-0.061622798442840576,-0.12058833986520767,-0.04200875014066696,-0.9319429993629456,-0.36016327142715454,0.029557641595602036,0.006787359714508057,0.005014866590499878
1.2011239703548222,-0.11446189036986117,-0.7303049921119432,0.12142543494701385,-0.06213013082742691,-0.1273956447839737,-0.04126596450805664,-0.932445764541626,-0.3589456081390381,0.009481966495513916,0.003155052661895752,0.013166189193725586
1.2024051486549587,-0.1126710794007073,-0.7330069288279892,0.10593080520629883,-0.0600435696542263,-0.1547127664089203,-0.04048873484134674,-0.9329079389572144,-0.3578314781188965,-0.005089219659566879,-0.002898275852203369,0.013883143663406372
1.2037048623449274,-0.11000720051666883,-0.7366240698900218,0.11138975620269775,-0.060539182275533676,-0.19208970665931702,-0.03940220922231674,-0.9333751797676086,-0.35673245787620544,-0.005962099879980087,-0.005406439304351807,0.0030032098293304443
1.2051205187436096,-0.10640282997048955,-0.74144563336289,0.12200522422790527,-0.10757754743099213,-0.2281564474105835,-0.03797579184174538,-0.9338822960853577,-0.355557918548584,-0.0010103844106197357,-0.003251314163208008,-0.0027642548084259033
1.2066005797264239,-0.10225586223374539,-0.7474769916875145,0.11623389273881912,-0.17456617951393127,-0.2523552477359772,-0.03635984659194946,-0.9344105124473572,-0.3543369472026825,-0.0024584494531154633,-0.005591750144958496,0.005994051694869995
1.2079187254614292,-0.09754928402690928,-0.7545328716732513,0.09628482162952423,-0.20094138383865356,-0.2561758756637573,-0.034571755677461624,-0.9348792433738708,-0.35327810049057007,0.007731590420007706,-0.0073203444480896,0.01157274842262268
1.2089925948281022,-0.0925169933182202,-0.761948071325065,0.07645412534475327,-0.18538345396518707,-0.2494567185640335,-0.0327007882297039,-0.9352598786354065,-0.35244807600975037,0.015229523181915283,-0.0069092512130737305,0.009705126285552979
1.209884412964823,-0.08784451557907688,-0.7686191358603484,0.055487990379333496,-0.12256235629320145,-0.23301857709884644,-0.030980434268712997,-0.9355751872062683,-0.351765900850296,0.011907011270523071,0.002240896224975586,-0.0008189678192138672
1.210464968569653,-0.083052895035661,-0.7746420214912736,0.025340737774968147,-0.04501643031835556,-0.20022228360176086,-0.029249468818306923,-0.9357800483703613,-0.3513686954975128,0.013410897925496101,0.014378249645233154,-0.005229204893112183
1.2107741687639217,-0.07836394907236117,-0.7796900767445902,0.007143572438508272,0.03791528195142746,-0.1545289009809494,-0.02757897414267063,-0.9358890056610107,-0.3512137830257416,0.023108184337615967,0.013022243976593018,-0.00988548994064331
1.2109337966071745,-0.07440342964108532,-0.7831247108447673,0.011753770522773266,0.12056142836809158,-0.12130410224199295,-0.026176657527685165,-0.9359452128410339,-0.3511711359024048,0.030418636277318,0.010957539081573486,-0.019144445657730103
1.2111400261986323,-0.07043053638201105,-0.7858778588368898,0.030568737536668777,0.1601112335920334,-0.10123665630817413,-0.024767721071839333,-0.9360178709030151,-0.3510800004005432,0.022707819938659668,0.015516161918640137,-0.021234452724456787
1.2116320241124212,-0.06693466843424938,-0.7880791702617704,0.04098809137940407,0.13031765818595886,-0.08948705345392227,-0.023509439080953598,-0.9361909031867981,-0.35070493817329407,0.017634868621826172,0.02200639247894287,-0.01178288459777832
1.212198431496301,-0.06392919471039064,-0.7901877390876071,0.038205474615097046,0.08175124228000641,-0.0702497810125351,-0.022421397268772125,-0.9363898038864136,-0.3502444326877594,0.026754947379231453,0.0153389573097229,-0.0014248788356781006
1.21274262615565,-0.0616716641740824,-0.7919477138871768,0.04414672031998634,0.03581969812512398,-0.052495554089546204,-0.021599261090159416,-0.9365806579589844,-0.34978577494621277,0.028374195098876953,0.0033989548683166504,-0.0067664384841918945
1.2132384350670888,-0.060132998110707846,-0.7935232406289803,0.05745559558272362,-0.028170540928840637,-0.06503160297870636,-0.02103312872350216,-0.9367543458938599,-0.3493551015853882,0.013357996940612793,-0.0030497312545776367,-0.019144654273986816
1.2138084651657035,-0.058554642919240826,-0.7957617125269918,0.0769539326429367,-0.07354708015918732,-0.08835209906101227,-0.020450424402952194,-0.9369536638259888,-0.3488544225692749,-0.0062219202518463135,-0.00550532341003418,-0.030280709266662598
