attitudeX,attitudeY,attitudeZ,gyroX,gyroY,gyroZ,gravityX,gravityY,gravityZ,accX,accY,accZ
0.9061667967527213,-0.1203156612337607,-0.486230856973248,-0.14436493813991547,-0.18612687289714813,-0.187760591506958,-0.0740278884768486,-0.7871453166007996,-0.6123088002204895,-0.018211454153060913,-0.13900208473205566,-0.06124460697174072
0.904687303625707,-0.12094615447072833,-0.48886670759175654,-0.18282392621040344,-0.3694295883178711,-0.09302981197834015,-0.07455434650182724,-0.7862319946289062,-0.6134173274040222,0.04809563606977463,-0.16959375143051147,-0.03550839424133301
0.9030490852560956,-0.12520341881191166,-0.48983701110306915,-0.146714985370636,-0.6373792290687561,0.019844304770231247,-0.07732590287923813,-0.7852185964584351,-0.614371657371521,0.08713735640048981,-0.19430404901504517,-0.033669114112854004
0.9019614291053799,-0.13389943731817178,-0.4887621073468403,-0.04691915586590767,-0.9285021424293518,0.14210763573646545,-0.08277945965528488,-0.7845446467399597,-0.6145219802856445,0.10025082528591156,-0.2232677936553955,-0.07250499725341797
0.9018469421675619,-0.14710625506962563,-0.4855712467854931,0.08778015524148941,-1.1983048915863037,0.2483096867799759,-0.09090103954076767,-0.7844736576080322,-0.6134639382362366,0.10525959730148315,-0.2542836666107178,-0.10212743282318115
0.9030750419820128,-0.164052268179553,-0.4805127409181397,0.25764453411102295,-1.368942379951477,0.3249408006668091,-0.10112583637237549,-0.7852346897125244,-0.6108845472335815,0.11449257284402847,-0.2956673502922058,-0.11853128671646118
0.9058476413804544,-0.1826250339127869,-0.47413492201701074,0.42058247327804565,-1.3096966743469238,0.3422267735004425,-0.11205772310495377,-0.7869484424591064,-0.6067578196525574,0.12423429638147354,-0.3462454080581665,-0.14681273698806763
0.9101087777308301,-0.20063987402839237,-0.46720669414452815,0.5765107870101929,-1.2074685096740723,0.3283402621746063,-0.12230020016431808,-0.7895705103874207,-0.6013493537902832,0.11692915856838226,-0.39254307746887207,-0.1750636100769043
0.9159226784516551,-0.21833873122013406,-0.45996109975270905,0.7372163534164429,-1.1787075996398926,0.2918292284011841,-0.13192708790302277,-0.7931249141693115,-0.5945990681648254,0.06887784600257874,-0.4234887957572937,-0.17841118574142456
0.9232471111645923,-0.23546225827813913,-0.4528065469350323,0.8783351182937622,-1.0814546346664429,0.21357010304927826,-0.1407298594713211,-0.7975645661354065,-0.5865882039070129,0.003980651497840881,-0.43848884105682373,-0.14948052167892456
0.9321094786177415,-0.25019562068741985,-0.4464298490202365,1.0235341787338257,-0.8169039487838745,0.0963408425450325,-0.14760078489780426,-0.802879273891449,-0.5775801539421082,-0.03529098629951477,-0.45578765869140625,-0.09153300523757935
0.9428106554324092,-0.2607030004097751,-0.44118347349277515,1.1957581043243408,-0.4305085837841034,-0.03604649007320404,-0.15143804252147675,-0.8092126250267029,-0.5676632523536682,-0.04189075529575348,-0.4676581025123596,-0.03530311584472656
0.9554729281472,-0.26681801166357316,-0.43704988939227807,1.3636634349822998,-0.14192333817481995,-0.15826034545898438,-0.15219247341156006,-0.8165867924690247,-0.556797444820404,-0.032332032918930054,-0.47493231296539307,0.024586141109466553
0.969878340611505,-0.27019411997424236,-0.4340793708761177,1.4914778470993042,-0.0774196982383728,-0.28033462166786194,-0.15091568231582642,-0.8248169422149658,-0.544886589050293,0.0005708932876586914,-0.4806181788444519,0.13662248849868774
0.9856577459783846,-0.27293976962525796,-0.4326980020819658,1.5744881629943848,-0.26359179615974426,-0.4162846505641937,-0.14888392388820648,-0.8336355686187744,-0.5318694710731506,0.07501615583896637,-0.4876686930656433,0.2896972894668579
1.0024812814560795,-0.27624348847711494,-0.4332595152304694,1.641359806060791,-0.4732579290866852,-0.5487622618675232,-0.14679399132728577,-0.8428090214729309,-0.5178072452545166,0.17429037392139435,-0.4963785409927368,0.4540102481842041
1.0204557093069215,-0.27973560077129234,-0.4356482364532061,1.7400689125061035,-0.6324794888496399,-0.674038290977478,-0.1443949192762375,-0.8523464202880859,-0.502648651599884,0.29527390003204346,-0.5171602964401245,0.616479218006134
1.0397923543201655,-0.2841806045200292,-0.4394401637119914,1.8549840450286865,-0.9251670241355896,-0.7686130404472351,-0.14197969436645508,-0.8622990846633911,-0.48608851432800293,0.43668800592422485,-0.5560969114303589,0.7673079967498779
1.0601276820707182,-0.29170848350166567,-0.4439297200661987,1.8901221752166748,-1.3640965223312378,-0.8030895590782166,-0.14056214690208435,-0.8724178671836853,-0.46811240911483765,0.5572491884231567,-0.5551790595054626,0.9280427694320679
1.0800835551414427,-0.30386733696418017,-0.4487654453270096,1.748803734779358,-1.9167556762695312,-0.8096433281898499,-0.14100533723831177,-0.8819971680641174,-0.4496648609638214,0.6764363050460815,-0.5189732313156128,1.1408116817474365
1.0978406940168088,-0.32021801000747124,-0.4552964326276463,1.4147429466247559,-2.481081008911133,-0.8385998010635376,-0.14338546991348267,-0.8902258276939392,-0.43236398696899414,0.7932573556900024,-0.4605889320373535,1.3982758522033691
1.111398717300986,-0.33988279637697905,-0.4638620761243585,0.8696303963661194,-2.9562368392944336,-0.7451878190040588,-0.14782191812992096,-0.8963197469711304,-0.41804251074790955,0.8168283700942993,-0.38901954889297485,1.6236546039581299
1.1185816026311344,-0.3631870789524078,-0.47333213184707684,0.18597188591957092,-3.375469446182251,-0.5051824450492859,-0.15523184835910797,-0.8994815945625305,-0.40845558047294617,0.8905224800109863,-0.2878658175468445,1.749413251876831
1.1183219384238954,-0.3915866327649455,-0.48148530515923504,-0.48468372225761414,-3.744147777557373,-0.1136452928185463,-0.1668567955493927,-0.8993680477142334,-0.40409883856773376,0.9332906007766724,-0.14842242002487183,1.803222894668579
1.1105242001097526,-0.42739958286442054,-0.48566718148535254,-1.0725152492523193,-4.1617751121521,0.40705612301826477,-0.1841200739145279,-0.8959316611289978,-0.4042353928089142,0.9300613403320312,0.024319171905517578,1.7369074821472168
1.0956193872332614,-0.47277222410755204,-0.4844682668925492,-1.5332809686660767,-4.6660990715026855,0.9834854006767273,-0.2083233892917633,-0.8892117738723755,-0.4073125123977661,0.901789665222168,0.19518119096755981,1.5940495729446411
1.0746977254046195,-0.5266749419388349,-0.47862717542623534,-1.8523151874542236,-5.01085901260376,1.4689313173294067,-0.23926590383052826,-0.8794463276863098,-0.4114921987056732,0.7824483513832092,0.37265628576278687,1.4003533124923706
1.0491022945000894,-0.5814997290750529,-0.47290651777635084,-2.220031976699829,-4.823890209197998,1.6373722553253174,-0.27373236417770386,-0.8669762015342712,-0.4164407551288605,0.5130054950714111,0.5462363958358765,1.0996835231781006
1.0192224375372367,-0.621541038491446,-0.47677621946425797,-2.9803638458251953,-3.6930899620056152,1.3691446781158447,-0.30513572692871094,-0.8517008423805237,-0.4260255992412567,-0.020944535732269287,0.7056132555007935,0.6971589922904968
0.9831860079312635,-0.631338236513854,-0.49915796522697237,-4.318125247955322,-2.014932155609131,0.9104775190353394,-0.3272054195404053,-0.8322678208351135,-0.44751158356666565,-0.7741280794143677,0.8877947330474854,0.29934877157211304
0.9368620276605942,-0.611154666997192,-0.5406449496648617,-5.941349983215332,-0.8529548645019531,0.649355411529541,-0.3398807644844055,-0.8057034015655518,-0.4851011633872986,-1.4391719102859497,1.1818783283233643,0.004815459251403809
0.8792968781696905,-0.5784607951905298,-0.5919335833228851,-6.945124626159668,-0.8452442288398743,0.5932300686836243,-0.3486495614051819,-0.7702906727790833,-0.5339435935020447,-1.8698257207870483,1.577663779258728,-0.19942432641983032
0.8181496384274862,-0.5566644989042606,-0.639095865494065,-6.432156085968018,-1.9780701398849487,0.7322481274604797,-0.3611706793308258,-0.7298822402954102,-0.5803685188293457,-2.069951057434082,1.8691186904907227,-0.6783595085144043
0.7683595383089894,-0.5605792636603945,-0.669280653615266,-4.0060200691223145,-2.911545991897583,0.9039240479469299,-0.3823031783103943,-0.6949566006660461,-0.6089988350868225,-2.1597957611083984,1.981211543083191,-1.7573494911193848
0.7450605112652714,-0.5804817545535049,-0.6769301445669313,-0.4423227608203888,-1.8565833568572998,0.5771969556808472,-0.40311944484710693,-0.6780163049697876,-0.6146451234817505,-2.3594536781311035,2.026374340057373,-3.2928714752197266
0.7547703538689967,-0.5966383498379746,-0.6650707051138848,2.9019863605499268,0.25116023421287537,-0.24388490617275238,-0.4092785716056824,-0.6851214170455933,-0.6025775671005249,-2.618217706680298,1.9831713438034058,-4.3472514152526855
0.7918508051776058,-0.6033718321060514,-0.640656862672287,4.97838020324707,1.6535143852233887,-1.032999873161316,-0.3986307382583618,-0.7116547226905823,-0.5784817337989807,-2.7033283710479736,1.786789059638977,-4.348154067993164
0.843684184918476,-0.6062253672228043,-0.6114628752236241,5.622808456420898,1.8899344205856323,-1.5232751369476318,-0.3787342309951782,-0.7470971345901489,-0.5462656617164612,-2.3823893070220947,1.5695154666900635,-3.337172508239746
0.8982692160479733,-0.6113684185554109,-0.5830747645406767,5.264073371887207,1.3613849878311157,-1.6532527208328247,-0.35757461190223694,-0.7822498679161072,-0.5101229548454285,-1.832610845565796,1.480522632598877,-1.8622219562530518
0.9460647449654177,-0.620092584479024,-0.5583176906221443,4.199870586395264,0.8886565566062927,-1.3725227117538452,-0.3398796617984772,-0.8111201524734497,-0.4759894013404846,-1.3549597263336182,1.4543697834014893,-0.6371850967407227
0.9826721502476119,-0.6293747703377904,-0.5370448057930876,3.165733814239502,0.7741921544075012,-0.9373043179512024,-0.3265779912471771,-0.8319828510284424,-0.44849905371665955,-0.8951016068458557,1.3092777729034424,0.11924487352371216
1.0098657642710591,-0.6373493699554091,-0.5178584310624607,2.485978126525879,0.8876106142997742,-0.6205471754074097,-0.31656041741371155,-0.8467604517936707,-0.4275347888469696,-0.5739119052886963,1.072453260421753,0.3267505168914795
1.0316419228276101,-0.6413907462211905,-0.5002868680114809,2.111525058746338,1.3248648643493652,-0.5336241126060486,-0.3071788251399994,-0.858143150806427,-0.41137757897377014,-0.5122333765029907,0.8617748022079468,0.13816893100738525
1.0511773208986388,-0.6378382601228316,-0.48592956220018824,1.8929212093353271,1.844246506690979,-0.6511704921722412,-0.2956753075122833,-0.8680084347724915,-0.3989202082157135,-0.5707491040229797,0.7327088117599487,-0.0410822331905365
1.070458494008184,-0.6263837774673963,-0.47567672844517617,1.8130525350570679,2.1909046173095703,-0.8111578822135925,-0.2812219560146332,-0.8774205446243286,-0.3886478543281555,-0.6262486577033997,0.6864569187164307,-0.06314966082572937
1.0900993036203461,-0.6102916183293761,-0.46849708297438863,1.769702434539795,2.2438292503356934,-0.9000294208526611,-0.2650028169155121,-0.886672854423523,-0.3789256811141968,-0.5954402089118958,0.6491546034812927,0.012653738260269165
1.1097373411622184,-0.5931729983023779,-0.463357836176934,1.7217601537704468,2.0566580295562744,-0.9216527938842773,-0.24869497120380402,-0.895581841468811,-0.368895560503006,-0.4873431622982025,0.5844246745109558,0.1451711654663086
1.128939819230149,-0.5781182948828023,-0.4589622271327247,1.681668996810913,1.720747709274292,-0.8632427453994751,-0.23367168009281158,-0.903959333896637,-0.3581272065639496,-0.34092849493026733,0.4955120086669922,0.3021426498889923
1.1472913091844124,-0.5681651662028879,-0.4533070541946696,1.6457778215408325,1.2738374471664429,-0.7167339324951172,-0.22113093733787537,-0.9116541147232056,-0.34639230370521545,-0.16468746960163116,0.4149501323699951,0.41145578026771545
1.164356940352684,-0.5658091838656647,-0.4445126310730888,1.6005789041519165,0.809522807598114,-0.5104979276657104,-0.2119419425725937,-0.9185342788696289,-0.3337291181087494,0.009671524167060852,0.34723013639450073,0.4689219892024994
1.179732867001878,-0.5717343461986734,-0.43122170567527446,1.5329153537750244,0.4625937342643738,-0.2711520791053772,-0.20624874532222748,-0.9245042204856873,-0.32055163383483887,0.15648990869522095,0.26448535919189453,0.5252482295036316
1.1930333997073996,-0.5849502979164407,-0.4133059017805991,1.4135040044784546,0.22894902527332306,-0.0649038553237915,-0.2036590874195099,-0.9294921159744263,-0.30751821398735046,0.28387463092803955,0.16511833667755127,0.5647966265678406
1.2039838593738321,-0.6024971223607338,-0.39273616597140165,1.223945140838623,0.11389640718698502,0.06919080764055252,-0.2032427191734314,-0.9334752559661865,-0.2954929769039154,0.37456846237182617,0.053974032402038574,0.5917271375656128
1.212311029423278,-0.620475117007228,-0.37220512893732727,0.9593604207038879,0.1470346599817276,0.16715358197689056,-0.20399527251720428,-0.9364293217658997,-0.28545719385147095,0.45005857944488525,-0.07919555902481079,0.6217913627624512
1.2176198577714015,-0.6353806983079435,-0.35395804791248764,0.6294263005256653,0.29781755805015564,0.23260274529457092,-0.20527419447898865,-0.9382787942886353,-0.27838000655174255,0.512311577796936,-0.23112428188323975,0.6600022912025452
1.2195068240780098,-0.6440809153611294,-0.34038780043893097,0.2236073911190033,0.5108115673065186,0.2926969528198242,-0.20662494003772736,-0.9389297366142273,-0.27516740560531616,0.5865383744239807,-0.38792872428894043,0.7248438596725464
1.2176864139370822,-0.6450415305152793,-0.33268182229674004,-0.19592276215553284,0.7227144241333008,0.3399234712123871,-0.2079164683818817,-0.9383018016815186,-0.27633410692214966,0.6334993839263916,-0.5039132237434387,0.7978336811065674
1.2124243865533233,-0.6383616408572457,-0.331614613303416,-0.5956376791000366,0.7904537916183472,0.3424966335296631,-0.2090051770210266,-0.9364690780639648,-0.2816780209541321,0.7111262083053589,-0.6143273711204529,0.8807685375213623
1.2040790973665212,-0.6255290901512215,-0.33698879239424623,-0.9741780161857605,0.7657264471054077,0.338558554649353,-0.2099420428276062,-0.9335094094276428,-0.2906619906425476,0.7689478397369385,-0.7213062047958374,0.9577609896659851
1.192742627237541,-0.608628284351834,-0.3471244941749213,-1.2646503448486328,0.7163290977478027,0.3691186010837555,-0.211037278175354,-0.9293848276138306,-0.3028320074081421,0.8087852001190186,-0.8018926382064819,1.021841287612915
1.1798660140628638,-0.5916393337334273,-0.358375240862282,-1.2984299659729004,0.5747448205947876,0.38797733187675476,-0.21251939237117767,-0.9245549440383911,-0.3162808418273926,0.8763835430145264,-0.8552301526069641,1.054028034210205
1.1671768692647497,-0.5791292278998541,-0.3669677539562766,-1.1566206216812134,0.32850703597068787,0.4636140465736389,-0.21495003998279572,-0.9196454882621765,-0.3287076950073242,0.9089961051940918,-0.8729723691940308,0.9839963912963867
1.1557922355905181,-0.5744819925131994,-0.37000091237252325,-0.8591647148132324,0.03988547623157501,0.5696279406547546,-0.21909545361995697,-0.9151146411895752,-0.33847057819366455,0.9370062351226807,-0.8924720287322998,0.882370114326477
1.1469969734684033,-0.5791841735104992,-0.36612136580117033,-0.423667311668396,-0.2739390432834625,0.6429213285446167,-0.22508136928081512,-0.9115331172943115,-0.3441595137119293,0.9637594223022461,-0.9159968495368958,0.7888311147689819
1.1420333363977289,-0.5929496399654435,-0.3553814138437924,0.0961509421467781,-0.5061442255973816,0.6265075206756592,-0.23232288658618927,-0.9094807505607605,-0.34477654099464417,0.9590532779693604,-0.9380991458892822,0.6964763402938843
1.1417700606238914,-0.6137432454557379,-0.3386920311082894,0.6387452483177185,-0.601754903793335,0.5335051417350769,-0.23957911133766174,-0.9093712568283081,-0.34006717801094055,0.9215097427368164,-0.9696722626686096,0.6314184665679932
1.1458622972347832,-0.6396492189617603,-0.3173935986715813,1.019026756286621,-0.7136721611022949,0.41279885172843933,-0.24608397483825684,-0.911065936088562,-0.33075860142707825,0.8835963010787964,-0.9786586165428162,0.6367125511169434
1.1520961627170958,-0.6687522722940643,-0.2944529315587513,1.062606930732727,-0.9136622548103333,0.3185802102088928,-0.25207844376564026,-0.9136182069778442,-0.3189956545829773,0.8868136405944824,-0.951371967792511,0.751750111579895
1.1575841602408592,-0.6974549176036706,-0.27432684112374334,0.7712585926055908,-1.1511787176132202,0.2472153753042221,-0.2579052448272705,-0.9158356785774231,-0.30778229236602783,0.9440930485725403,-0.9355589151382446,0.9751712083816528
1.1601618971338452,-0.7222856398648425,-0.2620304187967417,0.2383667230606079,-1.572293996810913,0.15864822268486023,-0.263905793428421,-0.916867733001709,-0.29951176047325134,1.0646259784698486,-0.9443688988685608,1.2392548322677612
1.1592187379986263,-0.741015768048484,-0.26171759582270676,-0.3575655519962311,-2.1124773025512695,-0.031445689499378204,-0.27005264163017273,-0.9164908528327942,-0.2951543629169464,1.1621272563934326,-0.9499183893203735,1.474963903427124
1.1559828399243013,-0.7526127982051048,-0.27558107100459694,-0.8537540435791016,-2.7457706928253174,-0.3569369614124298,-0.27548301219940186,-0.9151915311813354,-0.29416584968566895,1.179764747619629,-0.9429322481155396,1.6345436573028564
1.152154637958857,-0.7586623228832367,-0.30290279471753684,-1.1909515857696533,-3.4436190128326416,-0.7198548316955566,-0.2796657383441925,-0.9136419892311096,-0.2950344979763031,1.1240109205245972,-0.8774346113204956,1.6928157806396484
1.148842329428889,-0.763544072747902,-0.3396419576006322,-1.3216818571090698,-4.228887557983398,-0.962958037853241,-0.28319379687309265,-0.9122904539108276,-0.2958502769470215,1.05971360206604,-0.7315541505813599,1.6487860679626465
1.1461597503625467,-0.7743922134143886,-0.3787578954145648,-1.2706750631332397,-5.035045623779297,-0.9244105219841003,-0.2880968153476715,-0.911188542842865,-0.2945092022418976,1.0297045707702637,-0.5199027061462402,1.5048363208770752
1.1432793978493414,-0.7986881219917209,-0.4119698701721082,-1.0463039875030518,-5.831758499145508,-0.5660718083381653,-0.2970457077026367,-0.9099980592727661,-0.2892533540725708,1.0049161911010742,-0.24988359212875366,1.3018113374710083
1.1394518732391343,-0.8435888979304788,-0.43124000176522526,-0.611437976360321,-6.619392395019531,0.06014512479305267,-0.3123289942741394,-0.9084044694900513,-0.27794188261032104,0.9994781613349915,0.05461430549621582,1.0778990983963013
1.1339515898070982,-0.9156035379482975,-0.4298298480034896,0.025494590401649475,-7.4791951179504395,0.8700475692749023,-0.33547496795654297,-0.9060910940170288,-0.25778928399086,0.9303694367408752,0.36478567123413086,0.8293529152870178
1.125337960659823,-1.0160180485101467,-0.4056172852925102,0.6857292056083679,-8.117803573608398,1.7002390623092651,-0.36624810099601746,-0.9024132490158081,-0.2269635796546936,0.8025427460670471,0.6484155654907227,0.5939831733703613
1.1112063374254129,-1.1342265884607357,-0.36584477456403747,0.9460780024528503,-8.227033615112305,2.403813362121582,-0.4019760489463806,-0.8962344527244568,-0.18756070733070374,0.5085434913635254,0.8893680572509766,0.4531245827674866
1.0886433253204333,-1.2459864686299937,-0.32973665464807567,0.2885548770427704,-7.526562213897705,2.991518020629883,-0.4394419491291046,-0.8859986662864685,-0.14797593653202057,-0.09925422072410583,1.1031770706176758,0.4529532790184021
1.0559200374143494,-1.3249799598104768,-0.31879758703498556,-1.1632391214370728,-6.266326427459717,3.5770809650421143,-0.47762423753738403,-0.870353639125824,-0.11983126401901245,-0.9313722848892212,1.2964096069335938,0.5675698518753052
1.0141954269768314,-1.3653782918152504,-0.33779025823106845,-2.498278856277466,-5.048364162445068,4.0853271484375,-0.5171958208084106,-0.8490557670593262,-0.10776134580373764,-1.6149451732635498,1.5251880884170532,0.7369879484176636
0.967538385448968,-1.380067863895409,-0.37347093797276937,-3.038149356842041,-3.8115406036376953,4.20277214050293,-0.5570405721664429,-0.8234916925430298,-0.10755080729722977,-2.381908893585205,1.6990867853164673,0.5931159257888794
0.9229900414180079,-1.3808720641149925,-0.41114611179889965,-2.8820159435272217,-2.4031882286071777,3.57210636138916,-0.5925877094268799,-0.7974094748497009,-0.11391983181238174,-3.3354976177215576,1.6637425422668457,-0.06878900527954102
0.8899695300891617,-1.3717427187080269,-0.4428631347234188,-2.146266460418701,-0.7008974552154541,2.037790060043335,-0.6170068979263306,-0.7770525813102722,-0.12446568161249161,-4.196911811828613,1.455977201461792,-0.9468692541122437
0.876104056544212,-1.3511461118318624,-0.4644007584708786,-1.0734750032424927,1.5480962991714478,0.0963878184556961,-0.6247686147689819,-0.7682507038116455,-0.13948094844818115,-4.774813175201416,1.141801118850708,-1.7941739559173584
0.8825129318084911,-1.316558681753043,-0.47575553572177,-0.044429365545511246,3.4676339626312256,-1.6063731908798218,-0.6147936582565308,-0.7723375558853149,-0.1597607433795929,-4.701200485229492,0.8258043527603149,-2.2536303997039795
0.9044724066496237,-1.2753886437000295,-0.47893862466663834,0.8396127820014954,4.085954666137695,-2.6089131832122803,-0.5913264751434326,-0.7860991358757019,-0.17994749546051025,-3.919705390930176,0.7792937755584717,-2.0473475456237793
0.934377474961147,-1.2398056377258544,-0.4738312871472784,1.557875633239746,3.720594644546509,-2.773693799972534,-0.5620598793029785,-0.8042292594909668,-0.1931418478488922,-2.837857484817505,1.0370326042175293,-1.4467812776565552
0.9645325265033868,-1.2184263457889102,-0.4598530094390664,1.932193636894226,2.7672624588012695,-2.277783155441284,-0.5347907543182373,-0.821782648563385,-0.196651428937912,-1.7406607866287231,1.3133904933929443,-0.7367898225784302
0.9886520166731639,-1.212226868903174,-0.43910284234735997,1.873250961303711,1.9731460809707642,-1.4143030643463135,-0.5148478150367737,-0.8352856040000916,-0.19294977188110352,-0.963621973991394,1.4654889106750488,-0.20882952213287354
1.0045966363849788,-1.2133636995009613,-0.41514973397015476,1.6615415811538696,1.9017348289489746,-0.6888542175292969,-0.5025254487991333,-0.8439456820487976,-0.1876804679632187,-0.5281904935836792,1.4611026048660278,0.050625890493392944
1.0140249386359652,-1.212586825722229,-0.39104076788990016,1.3787565231323242,2.3671650886535645,-0.1984352171421051,-0.4949052333831787,-0.8489657044410706,-0.18527275323867798,-0.3246747553348541,1.2877322435379028,0.0922856330871582
1.0188122880491124,-1.2033575502908302,-0.3700458199809025,1.0101948976516724,3.042698621749878,0.05562164634466171,-0.48937544226646423,-0.8514857888221741,-0.18837016820907593,-0.3317456543445587,1.073974370956421,0.01983681321144104
1.0212520442999447,-1.182547777847459,-0.35467700574107885,0.6686996817588806,3.697582721710205,0.05258511006832123,-0.4834258556365967,-0.8527626395225525,-0.19772551953792572,-0.43170469999313354,0.8959602117538452,0.011507183313369751
1.0235730356171806,-1.1515872239667995,-0.3451896490461308,0.43916764855384827,4.030900478363037,-0.09922805428504944,-0.47526419162750244,-0.8539725542068481,-0.21178925037384033,-0.5237439274787903,0.7502739429473877,0.08215051889419556
1.026920124021778,-1.116131976481808,-0.3398756012230179,0.36671316623687744,3.8941917419433594,-0.26379144191741943,-0.46488749980926514,-0.8557093739509583,-0.2272467017173767,-0.5300006866455078,0.6238520741462708,0.17628228664398193
1.0315721841471246,-1.082598657576858,-0.3356727626792546,0.4601985514163971,3.4818575382232666,-0.3559459447860718,-0.45348668098449707,-0.858107328414917,-0.2408355474472046,-0.46703025698661804,0.5360704660415649,0.23886707425117493
1.0374613929942278,-1.055669153076323,-0.3297155590678265,0.6395195722579956,2.894740581512451,-0.36680951714515686,-0.4424319267272949,-0.861116349697113,-0.25046491622924805,-0.3243679702281952,0.44233882427215576,0.2507394850254059
1.0439496330926339,-1.037391388368778,-0.3205107181161517,0.8057632446289062,2.357853651046753,-0.27951571345329285,-0.4329601526260376,-0.864396870136261,-0.2556629776954651,-0.14682802557945251,0.3360002040863037,0.23867985606193542
1.050277120141751,-1.026569551598516,-0.3077423061714803,0.9247354865074158,2.0214622020721436,-0.14958806335926056,-0.4254802465438843,-0.8675611019134521,-0.25749629735946655,0.00870177149772644,0.23627448081970215,0.22217214107513428
1.0559400781440245,-1.0211341331853916,-0.29197209921108774,0.9909034967422485,1.8156276941299438,-0.001480993814766407,-0.4198783040046692,-0.8703635334968567,-0.25723445415496826,0.13623276352882385,0.14551007747650146,0.1971147656440735
1.0605708062323547,-1.0197131593355495,-0.2730668595426415,1.067396640777588,1.7581114768981934,0.18350563943386078,-0.4160742163658142,-0.8726344108581543,-0.25571778416633606,0.21526861190795898,0.051162123680114746,0.16988703608512878
1.063918539956622,-1.0219600186376547,-0.2507633784109673,1.1178306341171265,1.6720550060272217,0.3773002624511719,-0.41415297985076904,-0.8742644190788269,-0.2532567083835602,0.2993611991405487,-0.04761052131652832,0.1283634901046753
1.0655449683574572,-1.026857210032872,-0.22640767145376725,1.0397869348526,1.603608250617981,0.56093829870224,-0.4141708016395569,-0.875052809715271,-0.25048917531967163,0.36955419182777405,-0.16683238744735718,0.14813318848609924
1.0648458037189517,-1.0310125100891963,-0.20320820413128493,0.7861548066139221,1.6316156387329102,0.706372082233429,-0.41573283076286316,-0.874714195728302,-0.24908041954040527,0.4199901521205902,-0.27863651514053345,0.23591209948062897
1.0615705866918625,-1.0301745463732084,-0.18469146292827568,0.4113340973854065,1.7681196928024292,0.7542072534561157,-0.4179779887199402,-0.8731222152709961,-0.2509017884731293,0.4336031377315521,-0.36731040477752686,0.3423019349575043
1.056353738659711,-1.0219826329612498,-0.1731719432995948,0.011437224224209785,1.8491871356964111,0.7131267189979553,-0.41978907585144043,-0.8705671429634094,-0.2566901743412018,0.4426467716693878,-0.5013352632522583,0.4433203935623169
1.0494561926235995,-1.007317714715156,-0.16869692216703205,-0.3463587164878845,1.848555088043213,0.6880661249160767,-0.4210461676120758,-0.8671525120735168,-0.2660195231437683,0.43020156025886536,-0.6476789116859436,0.5061317682266235
1.0411542879810547,-0.9885576458336759,-0.16920046969435432,-0.5765045285224915,1.7952982187271118,0.6797912120819092,-0.42198044061660767,-0.8629879951477051,-0.2778204381465912,0.43510308861732483,-0.7334627509117126,0.5234715938568115
1.032104113789594,-0.9690052865002917,-0.17162463992687788,-0.5990545749664307,1.6831389665603638,0.674429714679718,-0.42288896441459656,-0.8583803176879883,-0.29042717814445496,0.4631112217903137,-0.7830685377120972,0.48631951212882996
1.0237222180029704,-0.9525485715480951,-0.17196161369482774,-0.3585319519042969,1.5321871042251587,0.6846411228179932,-0.4239007532596588,-0.8540502190589905,-0.3015066087245941,0.478710412979126,-0.8251489400863647,0.40271812677383423
1.0169674645122806,-0.9430190765713654,-0.1663735409565283,0.059855978935956955,1.3049057722091675,0.7531855702400208,-0.4256676733493805,-0.8505169749259949,-0.3089137673377991,0.5303583145141602,-0.8906785845756531,0.2843928635120392
1.012361728441745,-0.9426526583142734,-0.15282739877446563,0.5560562014579773,1.0631709098815918,0.8229334950447083,-0.4287194609642029,-0.8480855822563171,-0.3113683760166168,0.6126794815063477,-0.9972512125968933,0.20356503129005432
1.0102757179134834,-0.9511122318108566,-0.13144920736557347,1.0285398960113525,0.8775160908699036,0.8225769400596619,-0.43277737498283386,-0.846978485584259,-0.30875733494758606,0.6254502534866333,-1.0682893991470337,0.19907715916633606
1.0110715897381373,-0.9660386181704564,-0.10388355991528377,1.440599799156189,0.8079504370689392,0.7106885313987732,-0.43678298592567444,-0.8474013209342957,-0.30188000202178955,0.5377962589263916,-1.0590012073516846,0.25692760944366455
1.0150766077898745,-0.9849754924411894,-0.0722993152845211,1.7462420463562012,0.7494514584541321,0.482450008392334,-0.43958941102027893,-0.8495209813117981,-0.29167628288269043,0.4412679970264435,-1.0586668252944946,0.3433273136615753
1.0222973355288418,-1.0060762046435614,-0.03931756078498359,1.9163576364517212,0.6284881830215454,0.18059706687927246,-0.44045236706733704,-0.8533081412315369,-0.2790462076663971,0.3848799467086792,-1.0966582298278809,0.4661036729812622
1.0327255762330503,-1.0289833577160525,-0.006605320914776919,2.0440807342529297,0.3580273985862732,-0.189591646194458,-0.43908029794692993,-0.8586989641189575,-0.2642809748649597,0.3606501817703247,-1.1097304821014404,0.6199022531509399
1.0466661394361914,-1.0547307492558882,0.024875288831762248,2.0889127254486084,-0.08791589736938477,-0.5997567772865295,-0.43528372049331665,-0.865759551525116,-0.2469579130411148,0.3775445520877838,-1.0837643146514893,0.7560979127883911
1.0635037576660493,-1.0831474179170362,0.053873619616851026,2.0084521770477295,-0.5496118664741516,-0.9653387665748596,-0.4291846454143524,-0.8740630149841309,-0.22762750089168549,0.4092262387275696,-1.0191712379455566,0.8543364405632019
1.0822547874432464,-1.1129317932597087,0.07880337929045624,1.7882919311523438,-1.0280543565750122,-1.274466872215271,-0.42099589109420776,-0.8830183148384094,-0.2074633687734604,0.4981596767902374,-0.9405747652053833,0.9617357850074768
1.1018720736183936,-1.1423340033251799,0.09774196907357209,1.4516476392745972,-1.4665188789367676,-1.4934593439102173,-0.4110752046108246,-0.8920549750328064,-0.18776321411132812,0.6242405772209167,-0.8559765815734863,1.0638465881347656
1.1212123529567117,-1.169961742809641,0.11039571379601588,1.1326483488082886,-1.7649810314178467,-1.571685791015625,-0.4001430571079254,-0.9006279706954956,-0.16957154870033264,0.7654233574867249,-0.7747105956077576,1.1335912942886353
1.1395538247600019,-1.1960768748478785,0.11835179144917894,0.8845194578170776,-1.998592495918274,-1.5486748218536377,-0.38899484276771545,-0.9084470868110657,-0.15299268066883087,0.9230220317840576,-0.7136231660842896,1.140602469444275
1.1565988792358435,-1.2211544194252544,0.1231953778716003,0.7017158269882202,-2.096022844314575,-1.4850904941558838,-0.37810513377189636,-0.9154396057128906,-0.13786572217941284,1.0787887573242188,-0.6853141784667969,1.0987573862075806
1.1723270103685621,-1.2444115133971607,0.1258912172320134,0.533987283706665,-2.030975103378296,-1.3990709781646729,-0.36752399802207947,-0.9216560125350952,-0.12440337985754013,1.2216501235961914,-0.6643882393836975,1.0691360235214233
1.1863264806412062,-1.2635062023565689,0.1252384241140508,0.2713277041912079,-1.8955802917480469,-1.255478858947754,-0.357498437166214,-0.9269974231719971,-0.113449327647686,1.3511050939559937,-0.6083725690841675,1.0809937715530396
1.1974549870103335,-1.275262904433988,0.11782764406334251,-0.1566808670759201,-1.8390449285507202,-1.007996916770935,-0.348916620016098,-0.9311138391494751,-0.1062273159623146,1.473443627357483,-0.5142139792442322,1.1536058187484741
1.2040725416255416,-1.2773278915352613,0.09957536093968729,-0.7340057492256165,-2.008809804916382,-0.6126706600189209,-0.34322935342788696,-0.9335070848464966,-0.10372185707092285,1.5855847597122192,-0.3825330138206482,1.2756882905960083
1.2042455972961148,-1.2710514651436258,0.06835082581779396,-1.3948835134506226,-2.610255002975464,-0.04916203394532204,-0.3424173891544342,-0.9335691332817078,-0.10582639276981354,1.6398112773895264,-0.1911105513572693,1.4144353866577148
1.1960737307056397,-1.2617056857680435,0.025222647091907854,-2.051776647567749,-3.5792136192321777,0.6899223327636719,-0.3486693501472473,-0.9306091666221619,-0.11133888363838196,1.6369231939315796,0.06392514705657959,1.534816026687622
1.178592086378996,-1.2567265197612232,-0.025173354408317312,-2.564967632293701,-4.7616071701049805,1.459873914718628,-0.36352914571762085,-0.924068808555603,-0.11808182299137115,1.5403327941894531,0.366421103477478,1.5644166469573975
1.1536250888323283,-1.2620139168242996,-0.07723782973093327,-2.812514066696167,-5.789936065673828,1.9809647798538208,-0.3860126733779907,-0.9142387509346008,-0.12313245236873627,1.2957112789154053,0.6538475751876831,1.4476869106292725
1.1251002329266466,-1.2777298547319886,-0.1273319361181127,-2.8505797386169434,-6.32942533493042,2.1803770065307617,-0.41270551085472107,-0.9023107886314392,-0.12453611195087433,0.804230809211731,0.854856014251709,1.1896605491638184
1.0953738898679453,-1.2963419241718923,-0.17623640553082315,-3.005770206451416,-5.987053394317627,2.304204225540161,-0.44058334827423096,-0.8890994191169739,-0.12405050545930862,0.17309686541557312,1.0117343664169312,0.8466456532478333
1.063367596484708,-1.3041795841706203,-0.22905927329611334,-3.5263030529022217,-4.775045871734619,2.5354955196380615,-0.46876242756843567,-0.8739968538284302,-0.1280279904603958,-0.5225247144699097,1.2427256107330322,0.49257564544677734
1.0272003721374576,-1.2925286548457737,-0.2891736632156387,-4.183248996734619,-3.2906148433685303,2.798588752746582,-0.4973208010196686,-0.855854332447052,-0.14207445085048676,-1.2551662921905518,1.5499615669250488,0.20098860561847687
0.9865244441690957,-1.2664455870356253,-0.35267080576692106,-4.564751148223877,-2.2929530143737793,3.022120714187622,-0.526241660118103,-0.8341139554977417,-0.16529764235019684,-1.9759860038757324,1.8357772827148438,-0.023575693368911743
0.9430243075160315,-1.238758257581964,-0.4110919226915397,-4.354738235473633,-1.794126033782959,3.0965383052825928,-0.5552621483802795,-0.8093380928039551,-0.19145642220973969,-2.6735126972198486,1.9821134805679321,-0.3931993842124939
0.9027283563511538,-1.2180817136585385,-0.4562177656906843,-3.344769239425659,-1.1901458501815796,2.5212619304656982,-0.5813349485397339,-0.7850199937820435,-0.21399398148059845,-3.386240005493164,1.9535226821899414,-1.029322862625122
0.8769427002747192,-1.2017636451868692,-0.48359890334559186,-1.6294358968734741,0.34123286604881287,0.9823485016822815,-0.5964508056640625,-0.7687873244285583,-0.2306777834892273,-4.2249603271484375,1.8139839172363281,-1.8915146589279175
0.8742910940813401,-1.1798287956061249,-0.4940645496611487,0.16699481010437012,2.401571035385132,-0.9794682860374451,-0.5931306481361389,-0.7670888900756836,-0.24448037147521973,-4.800012111663818,1.515456199645996,-2.6762657165527344
0.8942511153884277,-1.1503001110909958,-0.4923937378833153,1.4921082258224487,3.578648090362549,-2.4781155586242676,-0.5715609788894653,-0.7797403931617737,-0.2555837035179138,-4.574572563171387,1.2060556411743164,-2.800187349319458
0.928079537328078,-1.11998021245751,-0.4838237025731601,2.271904468536377,3.6973631381988525,-3.085385799407959,-0.5394902229309082,-0.8004703521728516,-0.2611466944217682,-3.6070094108581543,1.186822772026062,-2.1577224731445312
0.9665342579181383,-1.099299229602454,-0.46813296319512104,2.7289316654205322,2.8485214710235596,-2.8710367679595947,-0.5061631202697754,-0.8229215741157532,-0.25806763768196106,-2.284623622894287,1.317123293876648,-1.1482281684875488
1.0017301944351251,-1.0975564298651488,-0.44383243718216103,2.815373659133911,1.5569617748260498,-2.1135921478271484,-0.4796243906021118,-0.8424045443534851,-0.2455909550189972,-1.1940510272979736,1.4475986957550049,-0.37976008653640747
1.0293342890882278,-1.1134203533944478,-0.41145835113863877,2.675971031188965,0.8810181021690369,-1.3004573583602905,-0.46241459250450134,-0.8569560647010803,-0.22759346663951874,-0.5542173385620117,1.5107953548431396,0.031426385045051575
1.0496019673000465,-1.1363515967250584,-0.37446936430766475,2.426555633544922,0.9811652302742004,-0.778614342212677,-0.45166170597076416,-0.8672251105308533,-0.2095762938261032,-0.2433454990386963,1.394507884979248,0.15092146396636963
1.065026658619908,-1.1557888527440108,-0.33773948912662394,2.11087703704834,1.567254662513733,-0.5743960738182068,-0.44335460662841797,-0.8748018145561218,-0.19534099102020264,-0.2216995656490326,1.1351474523544312,0.09864601492881775
1.077979463301461,-1.1650527662774164,-0.3049175264217839,1.789500117301941,2.328944206237793,-0.5587944984436035,-0.4346969723701477,-0.8810036778450012,-0.18673713505268097,-0.36255937814712524,0.9469828009605408,0.041625991463661194
1.0897000826332583,-1.1627819717011265,-0.27737772093505075,1.4933704137802124,2.9393575191497803,-0.5600683093070984,-0.4247640371322632,-0.886488139629364,-0.18361380696296692,-0.44310998916625977,0.8436721563339233,0.06992055475711823
1.0996823213242486,-1.1516358018962736,-0.2548259033278389,1.1991382837295532,3.235222339630127,-0.42027390003204346,-0.4145873486995697,-0.8910632133483887,-0.1847260445356369,-0.387338250875473,0.739772379398346,0.16600346565246582
1.1069365775650633,-1.1361096022500687,-0.23570205451661663,0.9748725891113281,3.233370065689087,-0.18212157487869263,-0.40579578280448914,-0.8943322896957397,-0.1884133368730545,-0.2674371898174286,0.675643265247345,0.25555190443992615
1.111374895502443,-1.1202777091204008,-0.21798082794235976,0.8349050879478455,3.0748825073242188,0.05327576398849487,-0.399184912443161,-0.8963091969490051,-0.19308368861675262,-0.1348726749420166,0.6323931217193604,0.30763134360313416
1.11330695955882,-1.1061032145132508,-0.20033417514562263,0.729134738445282,2.9136769771575928,0.2916039824485779,-0.3948588967323303,-0.8971642851829529,-0.1979457587003708,-0.023948997259140015,0.5459986329078674,0.3187342882156372
1.1125169169946436,-1.093330061069261,-0.18233022591905487,0.615713357925415,2.866396188735962,0.5710827112197876,-0.3929278254508972,-0.8968150019645691,-0.20329874753952026,0.05573922395706177,0.44294244050979614,0.2996121644973755
1.108986181693643,-1.0814901073810672,-0.16328338752053967,0.5560876727104187,2.8906242847442627,0.8262500762939453,-0.393285870552063,-0.8952473998069763,-0.20942366123199463,0.11969584226608276,0.3478078842163086,0.24914222955703735
1.1034776773768327,-1.0710748281262594,-0.1428476983074031,0.5227984189987183,2.8050761222839355,0.9937373399734497,-0.395405650138855,-0.8927794098854065,-0.21586811542510986,0.19569873809814453,0.22246092557907104,0.20854391157627106
1.0965557734417828,-1.0622449168827792,-0.12224910380683424,0.43242406845092773,2.612607479095459,1.1038233041763306,-0.3988725244998932,-0.8896397948265076,-0.22235485911369324,0.21991753578186035,0.06619930267333984,0.20975100994110107
1.0885683117426093,-1.054018575309398,-0.10292862591995751,0.33178746700286865,2.451730728149414,1.143391728401184,-0.4031950533390045,-0.8859638571739197,-0.22913216054439545,0.19123533368110657,-0.06915992498397827,0.28249210119247437
1.0801272916454785,-1.0457030629267936,-0.08552420064412718,0.23678649961948395,2.265563726425171,1.114867925643921,-0.4077323377132416,-0.8820177912712097,-0.23621754348278046,0.19897696375846863,-0.19755667448043823,0.3731498718261719
1.0715000711894611,-1.0369671978151471,-0.07077489850868067,0.09401416778564453,2.0693182945251465,1.0785781145095825,-0.412188857793808,-0.8779197335243225,-0.24363340437412262,0.23622453212738037,-0.31551599502563477,0.42275628447532654
1.0622824473469743,-1.026743380441857,-0.05911443790715206,-0.08059394359588623,2.0240814685821533,1.075369954109192,-0.41658297181129456,-0.8734690546989441,-0.25201284885406494,0.24536418914794922,-0.39267468452453613,0.45828109979629517
1.0521144605714017,-1.013289114822624,-0.05127774334135736,-0.3429962694644928,2.004305362701416,1.0424141883850098,-0.4206697940826416,-0.8684733510017395,-0.2622801959514618,0.30246007442474365,-0.4775806665420532,0.48882734775543213
1.0407913232304844,-0.995608554316415,-0.04911265708972111,-0.6898022890090942,1.8899956941604614,0.9793384075164795,-0.4241916239261627,-0.8628045320510864,-0.27500858902931213,0.3832676112651825,-0.6093176603317261,0.5337213277816772
1.0280763738450742,-0.9743917591199335,-0.05255091957940009,-0.9887421131134033,1.747847080230713,0.939476490020752,-0.42730414867401123,-0.8563070893287659,-0.2900846004486084,0.36947348713874817,-0.7174842953681946,0.5988461971282959
1.0143945653919022,-0.9516182671405081,-0.0596469984314694,-1.1531885862350464,1.5826469659805298,0.8688400387763977,-0.4300888776779175,-0.8491609692573547,-0.30651095509529114,0.34892746806144714,-0.7850399613380432,0.6240310668945312
1.000827908854797,-0.9291607618583484,-0.06824333240811427,-1.1597143411636353,1.4522240161895752,0.7764859199523926,-0.4322876036167145,-0.8419179916381836,-0.3229573667049408,0.35164496302604675,-0.8637704253196716,0.5981190800666809
0.9880867724564469,-0.9084556068422376,-0.07626306452109,-1.0683541297912598,1.331562876701355,0.7295916676521301,-0.43393251299858093,-0.8349747061729431,-0.33840763568878174,0.3455842137336731,-0.9546065926551819,0.5706464052200317
0.976778547727036,-0.8917167702932873,-0.08144033852377093,-0.7561584711074829,1.1339887380599976,0.6672675609588623,-0.43552735447883606,-0.8286986351013184,-0.35153159499168396,0.3310505151748657,-1.0086121559143066,0.5630031824111938
0.9681889384276339,-0.8812263931306438,-0.08197529090964596,-0.3708246052265167,0.8632204532623291,0.6416966915130615,-0.4372914433479309,-0.8238605856895447,-0.36059635877609253,0.33360809087753296,-1.0350565910339355,0.5294805765151978
0.9628024953681384,-0.8783587486787996,-0.07732910800746647,0.11474262177944183,0.4430474042892456,0.4862311780452728,-0.4396649897098541,-0.8207956552505493,-0.3646767735481262,0.3358290195465088,-1.0587208271026611,0.48921895027160645
0.9621820588159742,-0.8843823602257399,-0.06785116167773063,0.6201552748680115,-0.09271587431430817,0.330838680267334,-0.4422473907470703,-0.8204410672187805,-0.3623443841934204,0.32827961444854736,-1.0799189805984497,0.5057464838027954
0.9648979657376926,-0.8997901861067823,-0.05333504834941256,0.9935070276260376,-0.5991836190223694,0.2704237997531891,-0.44603079557418823,-0.8219907879829407,-0.3541007936000824,0.2807477116584778,-1.0662078857421875,0.5070854425430298
0.9703683333608518,-0.9226329849117465,-0.035533590862769665,1.2477519512176514,-1.0104814767837524,0.09242118895053864,-0.45041096210479736,-0.8250938653945923,-0.34110087156295776,0.3688070774078369,-1.0934088230133057,0.5628262758255005
0.9783104585516892,-0.9496097347671605,-0.01679919725515843,1.362775444984436,-1.2605048418045044,-0.12491671741008759,-0.4541045129299164,-0.829555094242096,-0.3250034749507904,0.35838624835014343,-1.0711100101470947,0.6051243543624878
0.9880690383723566,-0.977948002942294,0.0011545062906257392,1.3614517450332642,-1.4022583961486816,-0.340456485748291,-0.45639535784721375,-0.8349649310112,-0.307468444108963,0.347066193819046,-1.0305745601654053,0.6456947326660156
0.9991427412141277,-1.0057356415184702,0.017072355594143256,1.2918105125427246,-1.468314290046692,-0.5562683939933777,-0.4569244980812073,-0.8410074710845947,-0.28970012068748474,0.37390148639678955,-1.0007587671279907,0.6494413614273071
1.0112265631818596,-1.0319683197145089,0.03096446111502501,1.236492395401001,-1.4094752073287964,-0.7114735841751099,-0.4556097388267517,-0.8474835753440857,-0.27238065004348755,0.401853084564209,-0.9572343826293945,0.6233937740325928
1.0240849442952131,-1.0569797263543326,0.04415001448576756,1.2532788515090942,-1.348398208618164,-0.8047782182693481,-0.4527510702610016,-0.8542388081550598,-0.2555237412452698,0.44332119822502136,-0.8906494379043579,0.5913543701171875
1.0375711491067672,-1.0827301444088577,0.05824984743873989,1.3062398433685303,-1.3847768306732178,-0.8503240346908569,-0.44896334409713745,-0.8611721396446228,-0.23835764825344086,0.5197794437408447,-0.8290896415710449,0.5549469590187073
1.051339060416154,-1.1108063401701767,0.07404037085008346,1.3494422435760498,-1.4973164796829224,-0.8699773550033569,-0.44481080770492554,-0.8680887222290039,-0.2203754186630249,0.6285114288330078,-0.7946767210960388,0.5623705983161926
1.0651772523246812,-1.1416091343945274,0.0910213628654982,1.3205163478851318,-1.7065839767456055,-0.9129026532173157,-0.4404207468032837,-0.8748747706413269,-0.2015531063079834,0.7386538982391357,-0.7767364978790283,0.6306912899017334
1.0787924519722445,-1.1742651023921873,0.10701248297375254,1.1464177370071411,-2.0115420818328857,-0.9594637751579285,-0.43573808670043945,-0.8813880085945129,-0.18244804441928864,0.8360830545425415,-0.7615562081336975,0.7362200021743774
1.0917245386397334,-1.2066695555917675,0.11902363238317554,0.8345940709114075,-2.328613042831421,-1.0237425565719604,-0.4307330548763275,-0.8874231576919556,-0.16416169703006744,0.9072803854942322,-0.7480748295783997,0.867240846157074
1.1039403965149408,-1.2356539651731535,0.123745300948641,0.38533636927604675,-2.606140613555908,-1.1150219440460205,-0.425040066242218,-0.8929877877235413,-0.1480332612991333,0.942282497882843,-0.709993839263916,0.993751585483551
1.1152290572215404,-1.257662300034131,0.11785740771788616,-0.17223724722862244,-2.8267781734466553,-1.1780598163604736,-0.4185772240161896,-0.8980115652084351,-0.13552969694137573,0.9510021209716797,-0.6424852609634399,1.0822001695632935
1.1250719850494457,-1.2703910182723188,0.09935126445696112,-0.76549232006073,-3.0300424098968506,-1.163986325263977,-0.41180482506752014,-0.902298629283905,-0.1275690644979477,0.9296576976776123,-0.5144646167755127,1.1291406154632568
1.1325969402232345,-1.273821269094562,0.06827037653118416,-1.3124773502349854,-3.259763240814209,-1.0310266017913818,-0.40573588013648987,-0.9055171608924866,-0.12416530400514603,0.889103889465332,-0.32016026973724365,1.1306045055389404
1.1367932684891353,-1.270556765294757,0.027274503032745607,-1.7181198596954346,-3.4961211681365967,-0.7690919041633606,-0.4016948938369751,-0.9072896838188171,-0.12436424195766449,0.8562543392181396,-0.08492827415466309,1.0818836688995361
1.136936894237755,-1.264967447140503,-0.018496849471745958,-1.9060598611831665,-3.655755043029785,-0.38875025510787964,-0.4008690416812897,-0.9073501229286194,-0.12656818330287933,0.8124597072601318,0.17393654584884644,0.962795615196228
1.1327700312613176,-1.2618630986021182,-0.06286582802936408,-1.8788132667541504,-3.7363760471343994,0.048743702471256256,-0.40407246351242065,-0.9055905938148499,-0.12896040081977844,0.7280625104904175,0.4322020411491394,0.7766501307487488
1.1248783542986205,-1.264170015863575,-0.10171165338732548,-1.7493177652359009,-3.7068440914154053,0.4357643723487854,-0.41116994619369507,-0.9022151231765747,-0.1301811933517456,0.5929021835327148,0.6705561876296997,0.5679100155830383
1.1138785928059025,-1.2701796611489735,-0.13554525096859288,-1.7438719272613525,-3.5358753204345703,0.7801358699798584,-0.421398788690567,-0.8974165916442871,-0.1306387037038803,0.3513915538787842,0.8569198250770569,0.41230058670043945
1.0987374095875486,-1.2738975318383885,-0.1692328043448624,-2.0592620372772217,-3.2017362117767334,1.2377221584320068,-0.4348260760307312,-0.8906339406967163,-0.13303135335445404,0.039913445711135864,1.0118803977966309,0.3295339345932007
1.0773634260816518,-1.2699471690501345,-0.20814694654608082,-2.6607110500335693,-2.8887391090393066,1.7792648077011108,-0.4523778259754181,-0.8807120323181152,-0.1403578668832779,-0.32453855872154236,1.1972862482070923,0.2968671917915344
1.0487888872875544,-1.256956059840278,-0.25439841059970786,-3.3207530975341797,-2.5757598876953125,2.283907651901245,-0.47426584362983704,-0.8668199777603149,-0.15393106639385223,-0.8689652681350708,1.4002978801727295,0.22164954245090485
1.0141573248643763,-1.238060721638817,-0.30479662606139724,-3.709042549133301,-2.2943148612976074,2.594271421432495,-0.49935755133628845,-0.8490356206893921,-0.1725701242685318,-1.5108962059020996,1.5511994361877441,0.015160441398620605
0.9771109760671227,-1.2201616142770901,-0.3528292211803179,-3.597075939178467,-2.184136390686035,2.5554168224334717,-0.5253815054893494,-0.8288846611976624,-0.19215720891952515,-2.0847411155700684,1.6049772500991821,-0.38618147373199463
0.9440931280590307,-1.2083303946124986,-0.3919819356925507,-2.849470853805542,-1.7488322257995605,1.9729005098342896,-0.5483712553977966,-0.8099654316902161,-0.2079537808895111,-2.7039785385131836,1.5663894414901733,-0.993981122970581
0.9221635444554489,-1.1961312138346185,-0.41974049164293215,-1.7577413320541382,-0.09224622696638107,0.8850218057632446,-0.562191367149353,-0.7969104647636414,-0.22107605636119843,-3.363513469696045,1.459889531135559,-1.7940607070922852
0.9153087082009386,-1.1723545934554,-0.4359433462069225,-0.5827421545982361,2.25923228263855,-0.34883302450180054,-0.5617979764938354,-0.7927507758140564,-0.23649314045906067,-3.69927978515625,1.2068896293640137,-2.3673582077026367
0.9228629900302023,-1.1344844929678468,-0.44309801983306096,0.36183029413223267,4.041601657867432,-1.3134024143218994,-0.5469980239868164,-0.7973328232765198,-0.2550557255744934,-3.456068992614746,0.9961549043655396,-2.466547727584839
0.939934641245845,-1.0880842782437856,-0.44436872473467814,0.9671606421470642,4.893921375274658,-1.7350908517837524,-0.5224452018737793,-0.8075195550918579,-0.27379411458969116,-2.790070056915283,0.9589019417762756,-2.115366220474243
0.9605847293572994,-1.0402353315310218,-0.44182718254661596,1.2485448122024536,4.96925687789917,-1.6637691259384155,-0.4942610263824463,-0.8195267915725708,-0.2899685204029083,-1.9415756464004517,1.0852282047271729,-1.4411563873291016
0.9796891127454942,-0.9969918338390255,-0.43655183544130216,1.2161887884140015,4.46327543258667,-1.2402961254119873,-0.4680277109146118,-0.8303241729736328,-0.3025093674659729,-1.1907856464385986,1.2037372589111328,-0.7087059020996094
0.9939285185812633,-0.9612617543148243,-0.42991924784042396,0.9482882618904114,3.7751057147979736,-0.7080143094062805,-0.4471823573112488,-0.8381750583648682,-0.312234491109848,-0.6934730410575867,1.2553503513336182,-0.15015265345573425
1.0022474135677457,-0.9312821002107754,-0.42335472932599,0.5938178300857544,3.342841148376465,-0.24283413589000702,-0.4320122301578522,-0.8426831364631653,-0.32132595777511597,-0.40352845191955566,1.2254652976989746,0.16107812523841858
1.005356138294198,-0.9030270181980352,-0.41795910510203654,0.2431383728981018,3.2280848026275635,0.07820382714271545,-0.4207030236721039,-0.8443528413772583,-0.3317789137363434,-0.25750431418418884,1.1060258150100708,0.280967116355896
1.0047771252481328,-0.8730938314497049,-0.4146631742874263,-0.020669568330049515,3.3136062622070312,0.20644435286521912,-0.4109594225883484,-0.8440424799919128,-0.3445354104042053,-0.25591060519218445,0.9300562739372253,0.27043867111206055
1.002793244014428,-0.8396616067208206,-0.4133859116467043,-0.11311336606740952,3.589524269104004,0.16949063539505005,-0.4004589915275574,-0.8429768681526184,-0.3591969311237335,-0.32704946398735046,0.7779592275619507,0.18460583686828613
1.0010889214753012,-0.8024961616677365,-0.4128744210546684,-0.06938719004392624,3.891378402709961,0.1203254908323288,-0.38786840438842773,-0.8420588374137878,-0.374826580286026,-0.3505653738975525,0.6475703716278076,0.09099781513214111
0.9999998971854342,-0.7635595473729122,-0.41186565915397344,-0.003394139464944601,4.02031946182251,0.11153120547533035,-0.3736174404621124,-0.8414709568023682,-0.3903030455112457,-0.3289123773574829,0.5322211384773254,0.03738251328468323
0.9993062588012345,-0.724803516376474,-0.4098478493921403,0.044657543301582336,4.026886940002441,0.15056195855140686,-0.35860109329223633,-0.8410959243774414,-0.40492329001426697,-0.2818255126476288,0.4465188980102539,0.05067509412765503
0.9982216940284463,-0.6880408399669418,-0.4065076438896641,0.015365490689873695,3.828418016433716,0.27166756987571716,-0.3440551161766052,-0.8405088186264038,-0.4185342490673065,-0.1799316108226776,0.35198354721069336,0.12497037649154663
0.9958623701970225,-0.6555484637357301,-0.40182740770732794,-0.07270072400569916,3.410846471786499,0.4085809588432312,-0.33148467540740967,-0.8392282128334045,-0.4310612976551056,-0.05624106526374817,0.22587072849273682,0.2437901496887207
0.9921888515394413,-0.6281768322659328,-0.3968973775012102,-0.19799469411373138,2.864623546600342,0.4444997012615204,-0.3213726282119751,-0.8372249603271484,-0.44246330857276917,0.01847052574157715,0.08060276508331299,0.35548821091651917
0.987563307295208,-0.6050659925465122,-0.3934772783989951,-0.33827725052833557,2.3165903091430664,0.3827196955680847,-0.31326156854629517,-0.8346865177154541,-0.4529520869255066,0.04283013939857483,-0.1040647029876709,0.4219003915786743
0.982375158454718,-0.5847231231643236,-0.3928873377516504,-0.47680342197418213,1.8507254123687744,0.23630256950855255,-0.30636921525001526,-0.8318180441856384,-0.4628353714942932,0.050250470638275146,-0.2856287956237793,0.42987632751464844
0.9772316717528559,-0.5654677285659218,-0.3958793577375779,-0.5579736828804016,1.5006861686706543,0.035898905247449875,-0.29968932271003723,-0.8289521932601929,-0.47225457429885864,0.024207234382629395,-0.4076809883117676,0.4003247022628784
0.9726222099410279,-0.5465591915695716,-0.40228145062451215,-0.5961156487464905,1.2320798635482788,-0.1538531631231308,-0.29268962144851685,-0.8263652324676514,-0.48109593987464905,-0.02501356601715088,-0.47108960151672363,0.34398043155670166
0.968565899793088,-0.5276773054497313,-0.41097301832372424,-0.5936170816421509,1.1181367635726929,-0.26159295439720154,-0.28523948788642883,-0.8240741491317749,-0.48942849040031433,-0.04154267907142639,-0.5061259865760803,0.27687352895736694
0.9649811149325128,-0.509074236182016,-0.42010301752155577,-0.5311214923858643,1.1003258228302002,-0.27284952998161316,-0.2775236666202545,-0.8220381736755371,-0.49722597002983093,0.008282452821731567,-0.5385420322418213,0.2147703766822815
0.9618774147942085,-0.49130752984391657,-0.4281594706311032,-0.45170581340789795,1.1206347942352295,-0.23624037206172943,-0.26984864473342896,-0.820266842842102,-0.5043250918388367,0.10033884644508362,-0.5549314022064209,0.15831685066223145
0.9592035427648418,-0.4742614955366007,-0.4353884411438386,-0.41382303833961487,1.0821319818496704,-0.2565534710884094,-0.2622138559818268,-0.8187345266342163,-0.5108009576797485,0.15802690386772156,-0.5585694909095764,0.14182811975479126
0.9565978928547676,-0.4576921572556753,-0.44318353301497426,-0.4630979299545288,0.9353065490722656,-0.30896928906440735,-0.25465646386146545,-0.8172356486320496,-0.5169874429702759,0.15909072756767273,-0.5527290105819702,0.1970868706703186
0.9534349111929045,-0.44183358414256857,-0.4523868878759381,-0.5639104247093201,0.7321734428405762,-0.37381282448768616,-0.24753016233444214,-0.8154087066650391,-0.5232947468757629,0.14105439186096191,-0.5402430891990662,0.28209906816482544
0.9497397454376838,-0.4267294483439576,-0.463162719031115,-0.6237367391586304,0.5220566987991333,-0.44403666257858276,-0.2408437430858612,-0.8132640719413757,-0.5297128558158875,0.12142853438854218,-0.521162748336792,0.34808748960494995
0.9457175889968874,-0.4132492886223334,-0.47494458323326744,-0.6659172773361206,0.25346288084983826,-0.4762571156024933,-0.23499320447444916,-0.8109170198440552,-0.5359026789665222,0.13340023159980774,-0.5250661969184875,0.3639513850212097
0.94146368696753,-0.40280577733191325,-0.48665374635147735,-0.63973069190979,-0.051711395382881165,-0.430214524269104,-0.2307339459657669,-0.8084204792976379,-0.5414961576461792,0.16679967939853668,-0.5094505548477173,0.3465651273727417
0.9379415502618615,-0.39619920980370094,-0.496098685853057,-0.4182468056678772,-0.12437267601490021,-0.31594499945640564,-0.22824890911579132,-0.806342363357544,-0.5456320643424988,0.2299121767282486,-0.47135233879089355,0.3140341639518738
0.9363639683440528,-0.39282898454394205,-0.5019763408552955,-0.1447335034608841,-0.15375958383083344,-0.19804632663726807,-0.22689537703990936,-0.8054082989692688,-0.5475727319717407,0.27711212635040283,-0.4227715730667114,0.17885935306549072
0.9363613105830243,-0.3924981194603566,-0.5041405594852723,0.03451830521225929,-0.10541084408760071,-0.0292961522936821,-0.22671502828598022,-0.8054066896438599,-0.5476497411727905,0.287506103515625,-0.37618809938430786,0.1055416464805603
0.9368884075096154,-0.39403545611191165,-0.5026504173653377,0.12033601105213165,0.042815376073122025,0.15345075726509094,-0.22739368677139282,-0.8057190179824829,-0.5469085574150085,0.2899090051651001,-0.3246825337409973,0.10042107105255127
0.9372749553066975,-0.3964350067727052,-0.4981601379787682,0.14901793003082275,0.2090526670217514,0.2949187159538269,-0.22858504951000214,-0.8059478998184204,-0.5460739135742188,0.2960289716720581,-0.2989714741706848,0.12166595458984375
0.9373734961791474,-0.3981292544730169,-0.49223064943956757,0.126119002699852,0.4007051885128021,0.32594162225723267,-0.2294791042804718,-0.8060062527656555,-0.545612633228302,0.2773917615413666,-0.2949000597000122,0.1300089955329895
0.936828888834184,-0.39773359157430677,-0.48705161761334687,-1.4032702893018723e-05,0.495246946811676,0.2718561887741089,-0.22943325340747833,-0.8056837320327759,-0.5461081266403198,0.22432158887386322,-0.2996782064437866,0.13903409242630005
0.9352652265316359,-0.39543689473212473,-0.4837219357080731,-0.12681138515472412,0.49342507123947144,0.216587096452713,-0.2286633849143982,-0.8047565221786499,-0.5477954745292664,0.14756298065185547,-0.29970502853393555,0.18484991788864136
0.9330901394017467,-0.3924031342978654,-0.4814257296960094,-0.15330204367637634,0.4783073365688324,0.20452669262886047,-0.22766926884651184,-0.8034635186195374,-0.5501026511192322,0.1251607984304428,-0.28589189052581787,0.20456743240356445
0.9310740496261138,-0.3895724621202723,-0.4790803009984558,-0.10887438803911209,0.4655132293701172,0.20261400938034058,-0.2267259806394577,-0.8022615909576416,-0.5522423386573792,0.14199398458003998,-0.2541654109954834,0.14950186014175415
0.9294638050767074,-0.38697585344204827,-0.4765944164325918,-0.08814140409231186,0.4454934895038605,0.19134272634983063,-0.2257784754037857,-0.8012992739677429,-0.5540247559547424,0.15670201182365417,-0.2177741527557373,0.11051285266876221
0.9277074974950422,-0.38433433141080164,-0.4744810207056417,-0.1400938183069229,0.41897428035736084,0.17508172988891602,-0.22484153509140015,-0.800247311592102,-0.5559230446815491,0.15339995920658112,-0.18869000673294067,0.1089320182800293
0.9256475067596818,-0.3813414518022138,-0.4727640999759827,-0.1536370813846588,0.46860116720199585,0.17035016417503357,-0.22378979623317719,-0.7990102767944336,-0.558122456073761,0.12988726794719696,-0.15487760305404663,0.09887862205505371
0.9238253033248988,-0.37748250973488456,-0.47076387608640435,-0.08553473651409149,0.6272289156913757,0.18867804110050201,-0.2221706211566925,-0.7979132533073425,-0.560334324836731,0.12939724326133728,-0.1272423267364502,0.04158127307891846
0.9228998008923447,-0.3724713487817039,-0.4679271601560609,0.044883690774440765,0.8190785050392151,0.1906089186668396,-0.21962857246398926,-0.797355055809021,-0.5621282458305359,0.14843112230300903,-0.1020132303237915,-0.02373296022415161
0.9234808587715772,-0.3662679136800745,-0.4644772304228482,0.2110726684331894,0.9547830820083618,0.1518213152885437,-0.21597133576869965,-0.7977055907249451,-0.5630472898483276,0.16033782064914703,-0.07091629505157471,-0.05098170042037964
0.9254891596513468,-0.3594370334939171,-0.4608659923161429,0.30623525381088257,0.9649678468704224,0.11553460359573364,-0.21155619621276855,-0.7989150881767273,-0.5630084276199341,0.14441758394241333,-0.04514002799987793,-0.05277520418167114
0.9280835546256904,-0.3527931504293679,-0.45730465067431625,0.3213241696357727,0.9259520173072815,0.10668385028839111,-0.2070941925048828,-0.8004727363586426,-0.5624547600746155,0.09799391031265259,-0.016238689422607422,-0.03314155340194702
0.9308024424011613,-0.34648793179567117,-0.45383163538155213,0.33353710174560547,0.884150505065918,0.09728396683931351,-0.2028038501739502,-0.8020994067192078,-0.5617002248764038,0.08557063341140747,0.007421672344207764,0.004708588123321533
0.9336529805679336,-0.34066217614474936,-0.45026026070579106,0.3423337936401367,0.8494252562522888,0.11030708998441696,-0.1987633854150772,-0.8037984371185303,-0.5607149004936218,0.10512025654315948,-0.004261195659637451,0.021194636821746826
0.9367070945094579,-0.33531780654841975,-0.4465083199545112,0.38251394033432007,0.813938319683075,0.10253755003213882,-0.19495512545108795,-0.8056116104125977,-0.5594483017921448,0.12862522900104523,-0.01801198720932007,0.0249481201171875
0.9402743545592162,-0.33058276687101745,-0.44276214377895473,0.4274321496486664,0.7187268137931824,0.08167141675949097,-0.191369891166687,-0.807719886302948,-0.5576433539390564,0.1392917037010193,-0.0071604251861572266,0.042277753353118896
0.9439337786366008,-0.3271367830683939,-0.4391294391427823,0.38870590925216675,0.5477374196052551,0.0922219529747963,-0.18849602341651917,-0.8098719120025635,-0.5554966330528259,0.12680479884147644,0.019436299800872803,0.06950420141220093
0.946753807554489,-0.3254825127502869,-0.4355277812578494,0.26965805888175964,0.37072455883026123,0.12740710377693176,-0.1868458092212677,-0.8115229606628418,-0.5536416172981262,0.11346636712551117,0.04516559839248657,0.11040431261062622
0.9482114925836027,-0.32522100989968716,-0.4320524672831931,0.13796624541282654,0.2488631159067154,0.15808947384357452,-0.1863228678703308,-0.8123738765716553,-0.5525689721107483,0.11550687253475189,0.05567526817321777,0.14984369277954102
0.9484146099015418,-0.325637555983244,-0.4290297962627266,0.019141055643558502,0.1652049720287323,0.1540670394897461,-0.18650026619434357,-0.812492311000824,-0.5523350834846497,0.12268806993961334,0.038871705532073975,0.15801739692687988
0.9476469131361679,-0.32546436941778295,-0.4271907741605782,-0.09740331023931503,0.17998889088630676,0.09146478772163391,-0.18660394847393036,-0.8120445013046265,-0.552958071231842,0.10832642018795013,0.01938098669052124,0.14472442865371704
0.9459909924823683,-0.3232557512588227,-0.4272328461341228,-0.21617230772972107,0.25738009810447693,0.011257295496761799,-0.18580913543701172,-0.8110769987106323,-0.5546432137489319,0.05935962498188019,0.012569308280944824,0.11853176355361938
0.9435028417003198,-0.3188292184714534,-0.42906672882688346,-0.3186570107936859,0.32826462388038635,-0.05472074821591377,-0.1839841604232788,-0.8096190690994263,-0.5573748350143433,-0.00311906635761261,0.025729358196258545,0.09295833110809326
0.9402761507925844,-0.31277958942527506,-0.4320931376417526,-0.3992104232311249,0.3890230357646942,-0.07412879914045334,-0.18141180276870728,-0.807720959186554,-0.5609603524208069,-0.03146350383758545,0.04356086254119873,0.07055813074111938
0.9362165978326484,-0.3060084135481666,-0.43544329815065413,-0.4919905364513397,0.4145650565624237,-0.05387957766652107,-0.1785956472158432,-0.8053209185600281,-0.5652979016304016,-0.02599412202835083,0.04407531023025513,0.05733281373977661
0.9313908367414401,-0.29926797547991174,-0.4387379929107717,-0.537598729133606,0.39660871028900146,-0.034171123057603836,-0.17592503130435944,-0.8024506568908691,-0.5701959133148193,-0.013070285320281982,0.045034825801849365,0.05019158124923706
0.9264124690704122,-0.293041499980832,-0.4418202475454301,-0.5113133192062378,0.34602540731430054,-0.032859861850738525,-0.17352314293384552,-0.799470067024231,-0.5750976204872131,-0.015044912695884705,0.05107223987579346,0.027520716190338135
0.921960650585995,-0.2878069760777804,-0.4445834437946101,-0.428358793258667,0.2557264268398285,-0.032493144273757935,-0.17151899635791779,-0.7967879176139832,-0.5794050693511963,-0.028447404503822327,0.04884791374206543,-0.014314413070678711
0.9184747283291481,-0.2838831799008678,-0.4468361828885954,-0.3123769462108612,0.17167092859745026,-0.033152103424072266,-0.1700211465358734,-0.794676661491394,-0.5827364921569824,-0.03720840811729431,0.04879659414291382,-0.05527925491333008
0.9160865970106203,-0.2809564440414277,-0.4486558543785487,-0.21083007752895355,0.12724460661411285,-0.048083916306495667,-0.16884063184261322,-0.7932246923446655,-0.5850533843040466,-0.0432259738445282,0.05347847938537598,-0.07708632946014404
0.9146279656206672,-0.27829588477771033,-0.450430030394609,-0.12956181168556213,0.13188110291957855,-0.08172276616096497,-0.1676011085510254,-0.7923356890678406,-0.5866122841835022,-0.051087796688079834,0.05484795570373535,-0.0795406699180603
0.9139672525369806,-0.2752173305882981,-0.4524013688198433,-0.06638550758361816,0.16891822218894958,-0.11064150184392929,-0.1659366488456726,-0.7919324040412903,-0.5876291990280151,-0.056032925844192505,0.04455697536468506,-0.07614338397979736
0.9137641148647306,-0.27177485457033906,-0.45443340291030415,-0.05049492046236992,0.19585372507572174,-0.11469198763370514,-0.163955956697464,-0.7918083667755127,-0.5883519053459167,-0.05705229938030243,0.030257463455200195,-0.07119399309158325
0.913345829032267,-0.2679438789997299,-0.45652330372625993,-0.10521809011697769,0.24307289719581604,-0.1084149181842804,-0.1617884635925293,-0.7915527820587158,-0.5892950296401978,-0.05207866430282593,0.031741440296173096,-0.047103285789489746
0.912246605119266,-0.2631783168602223,-0.4587975283503151,-0.17780008912086487,0.3580609858036041,-0.10122695565223694,-0.15920454263687134,-0.790880560874939,-0.5908990502357483,-0.05409801006317139,0.033556461334228516,-0.02164977788925171
0.9105327470669053,-0.2570091694073006,-0.461193818357885,-0.2280733734369278,0.49373549222946167,-0.09288833290338516,-0.1559005230665207,-0.7898306250572205,-0.5931800007820129,-0.06269682943820953,0.018193721771240234,-0.018392205238342285
0.9083731924897066,-0.24955281696065948,-0.46366673788836493,-0.26238003373146057,0.6022682785987854,-0.09271293133497238,-0.15189418196678162,-0.7885042428970337,-0.5959774851799011,-0.06001982092857361,0.0015321969985961914,-0.026184380054473877
0.905800731669373,-0.2411619087675803,-0.46618383041620726,-0.31833916902542114,0.6716955304145813,-0.08048369735479355,-0.1473720520734787,-0.7869194746017456,-0.5991986989974976,-0.04957309365272522,-0.003378927707672119,-0.01731741428375244
0.9024557034292261,-0.23238652139951055,-0.4684547693919912,-0.39541444182395935,0.7213233709335327,-0.03166908398270607,-0.14271368086338043,-0.7848510146141052,-0.6030271053314209,-0.05116443336009979,-0.0044403076171875,-0.0070650577545166016
0.8982956219332303,-0.22372845636728056,-0.4698660040060828,-0.4422208368778229,0.7854887843132019,0.05055069178342819,-0.13821054995059967,-0.7822663187980652,-0.6074184775352478,-0.048053428530693054,-0.0007688999176025391,-0.005389750003814697
0.8937911371780608,-0.21536528918937659,-0.4700295795609636,-0.43026143312454224,0.8555496335029602,0.12679174542427063,-0.13387750089168549,-0.7794523239135742,-0.6119892001152039,-0.02879638969898224,0.00020128488540649414,-0.016520261764526367
0.8895042806257865,-0.20730328716499694,-0.4688793789827178,-0.3673674166202545,0.9302244186401367,0.19175583124160767,-0.12962588667869568,-0.7767596244812012,-0.6163128018379211,-0.012341827154159546,-0.004597067832946777,-0.04283636808395386
0.885961346854557,-0.19957776445813213,-0.46657864234002466,-0.26115477085113525,0.9594970941543579,0.23190432786941528,-0.12540555000305176,-0.7745234370231628,-0.6199893951416016,-0.009939849376678467,-0.002911806106567383,-0.06067466735839844
0.8835035533629326,-0.19251227305852323,-0.46346931098173155,-0.14385370910167694,0.9188620448112488,0.24481719732284546,-0.12138577550649643,-0.7729664444923401,-0.6227265000343323,-0.011090993881225586,0.007875502109527588,-0.05833423137664795
0.8820246078484743,-0.18661527993255758,-0.4599388433384331,-0.06777183711528778,0.7924683094024658,0.2507554888725281,-0.11792343854904175,-0.7720272541046143,-0.6245541572570801,-0.02071787416934967,0.008782684803009033,-0.03988981246948242
0.8811057179957196,-0.18250245399228152,-0.45612326281880156,-0.026015862822532654,0.6139691472053528,0.259173184633255,-0.11548247188329697,-0.7714428901672363,-0.6257312297821045,-0.020290181040763855,0.0062909722328186035,-0.009034395217895508
0.8804582823028718,-0.18035158062827672,-0.45218030994930974,-0.014441637322306633,0.42431458830833435,0.25390541553497314,-0.11422591656446457,-0.7710307836532593,-0.6264694333076477,-0.0018323808908462524,0.0008129477500915527,0.027592480182647705
0.8797585968839101,-0.17962681322957422,-0.44867485770541926,-0.0513935312628746,0.26280477643013,0.2049298733472824,-0.11386817693710327,-0.7705850601196289,-0.6270825862884521,0.005546063184738159,-0.01956075429916382,0.05541205406188965
0.8786242936285424,-0.1795174838554074,-0.4462456033148161,-0.1205134317278862,0.13895857334136963,0.1396740972995758,-0.11395562440156937,-0.76986163854599,-0.6279547810554504,-0.01818542182445526,-0.04149395227432251,0.06604981422424316
0.8768793119497218,-0.17953248786358783,-0.4449621814421263,-0.18931381404399872,0.058487966656684875,0.08384039998054504,-0.1142047569155693,-0.7687467932701111,-0.6292738318443298,-0.03714711219072342,-0.04852914810180664,0.07109212875366211
0.8747522290009406,-0.17941059932592193,-0.4445697132883566,-0.21045807003974915,0.03196306899189949,0.041663892567157745,-0.1144196018576622,-0.7673846483230591,-0.6308953166007996,-0.03609304130077362,-0.04990655183792114,0.06361931562423706
0.8727028048869422,-0.17904293859554946,-0.4447508629795235,-0.18966038525104523,0.012840772978961468,0.01143462024629116,-0.11446747183799744,-0.7660689949989319,-0.6324835419654846,-0.03439722955226898,-0.05380094051361084,0.02492433786392212
0.8710142936305003,-0.17860014339667973,-0.44514546198816074,-0.1516474485397339,0.021500512957572937,0.0014291908591985703,-0.11441703140735626,-0.7649825811386108,-0.6338061690330505,-0.04052066057920456,-0.043962061405181885,-0.017682969570159912
0.8697134266070692,-0.1779896190395309,-0.4453958971940873,-0.10880277305841446,0.06191238760948181,0.01599295437335968,-0.11420615762472153,-0.7641441226005554,-0.6348548531532288,-0.040914639830589294,-0.026566267013549805,-0.04432910680770874
0.868805239713592,-0.17734158213784224,-0.44519976455274746,-0.06791453063488007,0.09420038014650345,0.04241473972797394,-0.11391708999872208,-0.7635579705238342,-0.6356115341186523,-0.029072970151901245,-0.015815138816833496,-0.058800697326660156
0.8681520710574392,-0.17686620079482215,-0.4444580869086239,-0.04460228234529495,0.11596692353487015,0.07048685103654861,-0.1137026697397232,-0.7631360292434692,-0.6361565589904785,-0.017644956707954407,-0.010744035243988037,-0.06310802698135376
0.8676804383510103,-0.17635489374270852,-0.44350369154616576,-0.028109479695558548,0.13198237121105194,0.06495217978954315,-0.11344049870967865,-0.7628311514854431,-0.6365687251091003,-0.01653382182121277,-0.01027059555053711,-0.06005597114562988
0.8673135121463856,-0.1754240131372241,-0.4428262312951355,-0.030599266290664673,0.1595277041196823,0.02954758144915104,-0.11289672553539276,-0.7625938653945923,-0.6369496583938599,-0.024981655180454254,-0.01471930742263794,-0.05932408571243286
0.8669658477575212,-0.1736000800083965,-0.4428620956196123,-0.03936414793133736,0.20072892308235168,-0.027197016403079033,-0.1117805615067482,-0.76236891746521,-0.6374155282974243,-0.043050311505794525,-0.025304973125457764,-0.05730181932449341
0.8666554845824571,-0.17064162477065767,-0.4438568081283785,-0.03738568350672722,0.23869414627552032,-0.0868811160326004,-0.10993450880050659,-0.7621680498123169,-0.6379767656326294,-0.05713394284248352,-0.037819743156433105,-0.051186442375183105
0.866500814964896,-0.1668546182082425,-0.44569242157668276,-0.033785320818424225,0.22991159558296204,-0.13879260420799255,-0.10753725469112396,-0.7620679140090942,-0.6385045647621155,-0.06137748062610626,-0.04011702537536621,-0.045501112937927246
0.8664778689055606,-0.16294276757586257,-0.4480495794366364,-0.016814064234495163,0.19608758389949799,-0.16417892277240753,-0.10504156351089478,-0.7620530128479004,-0.6389377117156982,-0.05279532074928284,-0.028443753719329834,-0.03875088691711426
0.8667963834931678,-0.15902738811021208,-0.45065435681221244,0.03738939389586449,0.19802765548229218,-0.18280072510242462,-0.10250063240528107,-0.7622592449188232,-0.6391043663024902,-0.02965569496154785,-0.014214694499969482,-0.035593509674072266
0.8677750784981847,-0.15488859018290652,-0.45335789636428264,0.10655461996793747,0.21519333124160767,-0.19725769758224487,-0.09973951429128647,-0.7628923654556274,-0.6387858390808105,-0.011634349822998047,-0.011582732200622559,-0.04825639724731445
0.869264186330986,-0.15060170573505896,-0.45622822671402347,0.12635815143585205,0.20836897194385529,-0.21321402490139008,-0.09682963788509369,-0.7638542652130127,-0.6380835175514221,-0.01019546389579773,-0.011917829513549805,-0.055474162101745605
0.8702554859202224,-0.1463380447132333,-0.45913502749674684,0.005563287064433098,0.15784642100334167,-0.18500156700611115,-0.09399774670600891,-0.7644936442375183,-0.637741208076477,-0.011654064059257507,-0.0017874836921691895,-0.03575122356414795
0.8698989013825008,-0.14444314833538274,-0.4613051113574056,-0.09046929329633713,-0.06242895498871803,-0.09357453137636185,-0.09282835572957993,-0.7642637491226196,-0.6381879448890686,0.0625397115945816,0.01569807529449463,0.060017168521881104
0.8690753916542522,-0.14407475368795242,-0.46224158173269136,-0.08309207111597061,0.00528884120285511,-0.012271955609321594,-0.0926835834980011,-0.763732373714447,-0.6388447284698486,0.06239493191242218,0.015166759490966797,0.06067395210266113
0.8683362047667046,-0.14373235053088748,-0.46241406206699426,-0.06290101259946823,0.04093021899461746,-0.012864322401583195,-0.09254568070173264,-0.7632550001144409,-0.6394350528717041,0.05014153569936752,0.010340511798858643,-0.014129459857940674
0.8679043886219829,-0.142474307334015,-0.46304704071380404,-0.02479863539338112,0.1384381353855133,-0.07452183216810226,-0.09178793430328369,-0.7629759311676025,-0.6398769617080688,-0.00251132994890213,0.01141965389251709,-0.04843169450759888
0.8680456675353101,-0.13904637853897014,-0.4647473986082895,0.022661637514829636,0.29897743463516235,-0.1587030291557312,-0.0895790159702301,-0.7630672454833984,-0.6400811672210693,-0.04671242833137512,0.008596479892730713,-0.08541321754455566
0.8682461504836152,-0.13267073065146096,-0.4678741177853559,-0.048049282282590866,0.49969589710235596,-0.2487756609916687,-0.08547604829072952,-0.7631968259811401,-0.640487551689148,-0.0771825835108757,-0.012392103672027588,-0.11453253030776978
0.8671188859564929,-0.12338440497854347,-0.4724635453188689,-0.25369757413864136,0.6479644775390625,-0.3029625415802002,-0.07963050156831741,-0.7624679207801819,-0.6421070694923401,-0.0932668000459671,-0.02642667293548584,-0.07220256328582764
0.8637377764704441,-0.11242458926963149,-0.47767231363940643,-0.4969070255756378,0.7449208498001099,-0.27551841735839844,-0.07287728786468506,-0.7602759003639221,-0.6454992890357971,-0.08610399067401886,-0.027855753898620605,0.01418215036392212
0.8578035448684038,-0.10118345017553854,-0.48227509199408003,-0.7436811327934265,0.7886744737625122,-0.1883368045091629,-0.06607125699520111,-0.7564076781272888,-0.6507548689842224,-0.048766352236270905,-0.01864713430404663,0.05885118246078491
0.8492967852691193,-0.0908312725621331,-0.4856841527705402,-0.9857994914054871,0.7561391592025757,-0.094687819480896,-0.05991261824965477,-0.7508161067962646,-0.6577884554862976,-0.0064020417630672455,-0.009529292583465576,0.08303564786911011
0.8383332512560806,-0.08174475887996349,-0.48790614317805864,-1.2131503820419312,0.7300284504890442,-0.013701007701456547,-0.054602112621068954,-0.7435296177864075,-0.6664700508117676,0.019903674721717834,-0.017899155616760254,0.10923433303833008
0.8252154004523535,-0.07350965877645937,-0.48911468608734004,-1.3997544050216675,0.7341145277023315,0.05268680304288864,-0.049823958426713943,-0.7346939444541931,-0.6765666604042053,0.03273414075374603,-0.032350122928619385,0.12088727951049805
0.8103602990288105,-0.06576839628926405,-0.4894758958453966,-1.5521965026855469,0.7637766599655151,0.10271600633859634,-0.04529736191034317,-0.7245355248451233,-0.6877472400665283,0.03513504937291145,-0.029004395008087158,0.1241181492805481
0.794141965650409,-0.05796993882947959,-0.4891719847083833,-1.6657781600952148,0.8418973088264465,0.13474372029304504,-0.040608204901218414,-0.7132624983787537,-0.6997196674346924,0.0247848778963089,-0.022378981113433838,0.11539959907531738
0.7769326162557358,-0.049399597768897664,-0.4885681386623406,-1.753547191619873,0.9560070633888245,0.12921641767024994,-0.03521091863512993,-0.701095461845398,-0.7121975421905518,0.005868300795555115,-0.022140562534332275,0.09562039375305176
0.7588839699274126,-0.0393879893710723,-0.4881891194741528,-1.8404054641723633,1.0960770845413208,0.07896175980567932,-0.02857270836830139,-0.6881120800971985,-0.7250415682792664,-0.019049927592277527,-0.01858341693878174,0.07918286323547363
0.7398134558337296,-0.02729826502599198,-0.4884880388288172,-1.964475154876709,1.277051329612732,-0.0015711698215454817,-0.02015984058380127,-0.6741501688957214,-0.7383191585540771,-0.04790957272052765,-0.018446266651153564,0.08153510093688965
0.719210544080687,-0.012571520852044035,-0.4898028189946711,-2.152971029281616,1.4873098134994507,-0.11333232372999191,-0.009457632899284363,-0.6587909460067749,-0.752266526222229,-0.06570713222026825,-0.023719370365142822,0.10393589735031128
0.6964067564100068,0.005022459668371912,-0.4922024897841391,-2.4005143642425537,1.7020976543426514,-0.23224899172782898,0.003852973924949765,-0.6414652466773987,-0.7671423554420471,-0.0785447210073471,-0.03210341930389404,0.13971620798110962
0.6709834193980078,0.024905889415928556,-0.4953423509945368,-2.6554388999938965,1.8543859720230103,-0.32611769437789917,0.019504539668560028,-0.6217564940452576,-0.7829676866531372,-0.08011242747306824,-0.03579050302505493,0.1782008409500122
0.6430704044697937,0.04579188081719482,-0.4987103471479086,-2.8807616233825684,1.8848941326141357,-0.3969157934188843,0.03663252666592598,-0.5996553897857666,-0.7994194030761719,-0.05697246640920639,-0.025497138500213623,0.21662521362304688
0.6130590644844339,0.06620188805644127,-0.5016945119052952,-3.0565340518951416,1.8278816938400269,-0.4142867922782898,0.05410643666982651,-0.5753721594810486,-0.8161001205444336,-0.020170867443084717,-0.008749544620513916,0.2372274398803711
0.581517259306423,0.08518341292414668,-0.503767739782175,-3.173858404159546,1.715345859527588,-0.40166544914245605,0.0710957795381546,-0.5492924451828003,-0.8326002359390259,0.02335614711046219,0.009665369987487793,0.24559468030929565
0.5492539169004941,0.10233585742372017,-0.5048652792620344,-3.2029428482055664,1.5917099714279175,-0.38757094740867615,0.08713144063949585,-0.5220510363578796,-0.8484520316123962,0.06058892607688904,0.03344935178756714,0.23753589391708374
0.5169632394685039,0.11815888217747908,-0.50522921244507,-3.1828720569610596,1.533376693725586,-0.38340896368026733,0.10247951000928879,-0.49424248933792114,-0.8632625937461853,0.0762161910533905,0.05248531699180603,0.2020382285118103
0.4849348963862581,0.13334477743050344,-0.5050094373855514,-3.155338764190674,1.5130845308303833,-0.37770819664001465,0.1176215410232544,-0.46615076065063477,-0.8768515586853027,0.0651940330862999,0.06482934951782227,0.15866613388061523
0.4532531294539598,0.14799939195445272,-0.5041995935168485,-3.1159660816192627,1.477040410041809,-0.3629683554172516,0.1325702965259552,-0.43789249658584595,-0.8891992568969727,0.044095978140830994,0.07630497217178345,0.15314579010009766
0.42207590692048713,0.1618736996348798,-0.5028408041219631,-3.057406187057495,1.3965849876403809,-0.35875898599624634,0.14702369272708893,-0.40965506434440613,-0.9003148078918457,0.044275760650634766,0.08708423376083374,0.1599125862121582
0.3916053760835446,0.1745133162490222,-0.5011678927799418,-2.973572254180908,1.247422456741333,-0.35591480135917664,0.16048473119735718,-0.381672739982605,-0.9102585315704346,0.044669702649116516,0.08008277416229248,0.15545201301574707
0.36225741111455156,0.1853101251420959,-0.49920347840030244,-2.844257354736328,1.0380138158798218,-0.33192795515060425,0.1722933053970337,-0.35438603162765503,-0.9190894961357117,0.049325376749038696,0.06700199842453003,0.14070820808410645
0.33443646624987705,0.19347231907375095,-0.4969427965784901,-2.6772661209106445,0.7283710837364197,-0.292755126953125,0.18161508440971375,-0.3282369077205658,-0.9269716739654541,0.06254082918167114,0.0647328794002533,0.1210787296295166
0.30861821829298475,0.19806310528625512,-0.4944138519269146,-2.457043170928955,0.34010937809944153,-0.24081362783908844,0.1874740868806839,-0.3037424385547638,-0.9341273903846741,0.0640060305595398,0.0662393569946289,0.11544758081436157
0.28541743995192315,0.19864973169812725,-0.49186053305105604,-2.166269302368164,-0.07481987029314041,-0.19535008072853088,0.18936201930046082,-0.2815580368041992,-0.9406737685203552,0.06913714110851288,0.07544231414794922,0.09590142965316772
0.26547275855592484,0.19527524396723658,-0.48956446366776174,-1.8089154958724976,-0.4669298529624939,-0.15494407713413239,0.1872391700744629,-0.2623654901981354,-0.9466286301612854,0.06178426742553711,0.07066929340362549,0.039844632148742676
0.2494352152987133,0.18844736415224522,-0.4877800410273507,-1.3851206302642822,-0.7889845371246338,-0.11809355020523071,0.18153636157512665,-0.246856689453125,-0.9518961906433105,0.046277374029159546,0.0635833740234375,-0.03801774978637695
0.23781894343093393,0.1791555835046315,-0.4867005311818957,-0.9277464151382446,-0.9934974908828735,-0.10388372093439102,0.17318317294120789,-0.23558351397514343,-0.9562991261482239,0.03847150504589081,0.07222290337085724,-0.12524384260177612
0.23051710090489538,0.1688422150834007,-0.4865971524612545,-0.5186540484428406,-1.0363496541976929,-0.137595072388649,0.16359618306159973,-0.2284809798002243,-0.9597045183181763,0.021965965628623962,0.08289685845375061,-0.20580756664276123
0.22664390382850763,0.15914543544246518,-0.48776110576906967,-0.2252107411623001,-0.9310168027877808,-0.21131989359855652,0.15442167222499847,-0.22470852732658386,-0.9621122479438782,-0.01767238974571228,0.08983607590198517,-0.25254833698272705
0.22477014598275757,0.1511973443048158,-0.4899432220839897,-0.09278378635644913,-0.7508760690689087,-0.2572706937789917,0.14683307707309723,-0.22288230061531067,-0.9637237787246704,-0.06017841398715973,0.09354878962039948,-0.2629607319831848
0.22369928896686736,0.14502193531720803,-0.492419765436828,-0.05734776705503464,-0.5936794877052307,-0.2396259307861328,0.14091333746910095,-0.22183825075626373,-0.9648477435112,-0.06672510504722595,0.09036850929260254,-0.24212241172790527
0.22274834506788307,0.14016365811228193,-0.4944044486754193,-0.08111623674631119,-0.4643681049346924,-0.161282017827034,0.13625361025333405,-0.22091089189052582,-0.9657294154167175,-0.033775582909584045,0.08655725419521332,-0.2095024585723877
0.2215467467171267,0.13624981859915572,-0.49528932440067996,-0.13505564630031586,-0.3569242060184479,-0.04064188897609711,0.13250882923603058,-0.21973882615566254,-0.9665175676345825,0.010633885860443115,0.08065493404865265,-0.1847885251045227
0.2198990995655765,0.13302607788334847,-0.4947606192753693,-0.20286446809768677,-0.26515352725982666,0.1014251559972763,0.12944018840789795,-0.2181311547756195,-0.9672972559928894,0.04484573006629944,0.07794864475727081,-0.16575932502746582
0.21766621499759942,0.1303602868050266,-0.49264477139181,-0.29298797249794006,-0.17527155578136444,0.24601829051971436,0.12692411243915558,-0.21595150232315063,-0.9681194424629211,0.06329196691513062,0.07785943150520325,-0.15504950284957886
0.21475119520218852,0.1281997640833354,-0.4891830283652604,-0.36140701174736023,-0.11164817214012146,0.33845099806785583,0.12491212785243988,-0.21310435235500336,-0.9690116047859192,0.06847778707742691,0.06668096780776978,-0.1466957926750183
0.21154856598304228,0.12645692816981424,-0.48507981872054173,-0.36179235577583313,-0.06648814678192139,0.36492788791656494,0.12330855429172516,-0.20997419953346252,-0.9698998928070068,0.04859697073698044,0.04508771002292633,-0.1339055895805359
0.20866263944864608,0.12520382769103688,-0.4810027961654182,-0.3041990399360657,-0.010873418301343918,0.35040733218193054,0.12216824293136597,-0.20715174078941345,-0.970650851726532,0.01690036803483963,0.03245384991168976,-0.14398837089538574
0.2064365487731618,0.12467159332570919,-0.4771923593468001,-0.23212644457817078,0.06035708636045456,0.32868924736976624,0.12170864641666412,-0.20497341454029083,-0.9711709022521973,-0.0024154186248779297,0.01635950803756714,-0.16525793075561523
0.2047804378006042,0.12479934518576083,-0.47377125259795916,-0.18079347908496857,0.09848588705062866,0.2881881892681122,0.12187480181455612,-0.2033521831035614,-0.9714908003807068,-0.010989166796207428,-0.006074696779251099,-0.17006492614746094
0.20360931289254225,0.1251928383388311,-0.4708547699888907,-0.12114053964614868,0.08940743654966354,0.24572329223155975,0.12228672206401825,-0.20220538973808289,-0.9716784358024597,-0.017382532358169556,-0.022815987467765808,-0.14299136400222778
