attitudeX,attitudeY,attitudeZ,gyroX,gyroY,gyroZ,gravityX,gravityY,gravityZ,accX,accY,accZ
0.5737141983508479,0.06292329707767381,0.16559729924282754,0.6649176478385925,-0.4499717354774475,0.30415865778923035,0.05281383544206619,-0.5427553057670593,-0.838228702545166,0.06405322253704071,-0.018325626850128174,-0.08135747909545898
0.5809711132425223,0.05739318396655194,0.1688779754138631,0.7507153749465942,-0.28508707880973816,0.3276583254337311,0.04795035347342491,-0.5488359928131104,-0.8345536589622498,0.0657581314444542,0.00046563148498535156,-0.08443737030029297
0.5891920929216669,0.053716390938517856,0.17232946508944344,0.8538239598274231,-0.06449291855096817,0.3316975235939026,0.04463779181241989,-0.5556895136833191,-0.8301907181739807,0.06128871440887451,0.025400817394256592,-0.08187288045883179
0.5983832687961801,0.052491016371344484,0.175571259517946,0.9451212882995605,0.17742431163787842,0.29572877287864685,0.04335065186023712,-0.5633074045181274,-0.8251093626022339,0.03631547838449478,0.023955047130584717,-0.08957868814468384
0.6083866163568411,0.05388242097860886,0.17816998429926775,1.023097038269043,0.38452956080436707,0.23148562014102936,0.04419296979904175,-0.5715442895889282,-0.8193802833557129,0.004864025861024857,0.014217078685760498,-0.09495681524276733
0.6190885193867648,0.05741800794388786,0.17976468398900075,1.0904327630996704,0.49291086196899414,0.1439911127090454,0.046735979616642,-0.5802930593490601,-0.8130655884742737,-0.019315946847200394,0.02174508571624756,-0.09628188610076904
0.6303783082625312,0.06232352836891192,0.1800805222227452,1.148125410079956,0.5134968757629395,0.04235129430890083,0.050312645733356476,-0.5894504189491272,-0.806236207485199,-0.03416885435581207,0.0366397500038147,-0.09917449951171875
0.6420777766886204,0.06790589111549916,0.17896036175830954,1.1847944259643555,0.4572901427745819,-0.06834771484136581,0.05434086546301842,-0.5988607406616211,-0.7990074753761292,-0.045399222522974014,0.047972679138183594,-0.10341256856918335
0.6538370336319718,0.07360949057573955,0.17641724849553733,1.175055742263794,0.37419047951698303,-0.16587932407855988,0.05837520956993103,-0.60823655128479,-0.7916063666343689,-0.05178342014551163,0.04978013038635254,-0.1074720025062561
0.6652107503769239,0.07904177283275904,0.17274277339917604,1.1260875463485718,0.2563144862651825,-0.23019999265670776,0.06212427839636803,-0.6172249913215637,-0.7843301892280579,-0.04620937630534172,0.04235011339187622,-0.09398090839385986
0.6759127695782994,0.08362718901518701,0.16871594952421617,1.0482643842697144,0.16032083332538605,-0.20719347894191742,0.06516458094120026,-0.6256096363067627,-0.7774097919464111,-0.02276042103767395,0.03369075059890747,-0.06460058689117432
0.6857630892859224,0.08682771176394127,0.16568628365132357,0.9428844451904297,0.08956588059663773,-0.08145781606435776,0.0671146884560585,-0.6332637667655945,-0.7710204720497131,0.0314875990152359,0.024712741374969482,-0.030111730098724365
0.6946038640560547,0.0880309153321334,0.16476311765347212,0.82450270652771,0.043161094188690186,0.09231743961572647,0.06754747033119202,-0.6400811076164246,-0.7653322219848633,0.09581311047077179,0.001226186752319336,-0.007113456726074219
0.7025221947877679,0.08775536743661838,0.16602774347704127,0.7410122752189636,0.07861451059579849,0.23561164736747742,0.06689027696847916,-0.646144688129425,-0.760278046131134,0.11655087769031525,-0.03743380308151245,0.013711273670196533
0.7100197097815262,0.08709667204777656,0.16908319652615433,0.7161237001419067,0.19572995603084564,0.35198673605918884,0.06596620380878448,-0.6518487334251404,-0.7554745078086853,0.11498776078224182,-0.05338197946548462,0.006542623043060303
0.7177278220639378,0.08692063256564198,0.1735693577385312,0.7612771391868591,0.361503928899765,0.4489023685455322,0.06539507210254669,-0.6576747298240662,-0.7504581212997437,0.10547284781932831,-0.04262739419937134,-0.025573372840881348
0.7262765572342733,0.08805542192908666,0.1790097523620305,0.8688132166862488,0.5889400839805603,0.5054724216461182,0.06574979424476624,-0.6640903949737549,-0.7447556257247925,0.08132966607809067,-0.03715777397155762,-0.05446922779083252
0.7361175131521893,0.09139446162629437,0.18475342023288713,1.0110633373260498,0.8341445922851562,0.5159768462181091,0.06763643771409988,-0.6714157462120056,-0.7379879355430603,0.03931239992380142,-0.047639429569244385,-0.0772891640663147
0.7474566439879652,0.09681678987233719,0.19029391938342993,1.1613702774047852,0.9767760634422302,0.5092238187789917,0.07089649885892868,-0.679775595664978,-0.7299854159355164,-0.0008281543850898743,-0.07886087894439697,-0.09446215629577637
0.7603462948801916,0.10321876646792466,0.19561232481679589,1.3233132362365723,1.022940993309021,0.5167741179466248,0.0746593102812767,-0.6891723871231079,-0.720740795135498,-0.030759789049625397,-0.14234000444412231,-0.09604692459106445
0.7750112570868611,0.11042529453322757,0.2007698268448999,1.5069336891174316,1.142258882522583,0.5318798422813416,0.0787290558218956,-0.6997241377830505,-0.7100618481636047,-0.056008726358413696,-0.21995359659194946,-0.08109104633331299
0.7917217308764685,0.11940754777836658,0.2057762948261207,1.7228503227233887,1.3674566745758057,0.5531393885612488,0.0836990550160408,-0.7115640640258789,-0.6976181864738464,-0.1032760888338089,-0.3083791136741638,-0.052976906299591064
0.8107109145908526,0.13140589174918124,0.2104373600459371,1.9643899202346802,1.6902738809585571,0.5460836291313171,0.09027614444494247,-0.7247771620750427,-0.6830434203147888,-0.17024746537208557,-0.4319611191749573,-0.02604776620864868
0.832486495672779,0.14798896993523106,0.21361933543090114,2.2785935401916504,2.0977694988250732,0.4897472560405731,0.09923915565013885,-0.7396071553230286,-0.6656821966171265,-0.26266080141067505,-0.5679336786270142,0.007326483726501465
0.8574509953821264,0.17065177717603852,0.2148727898769942,2.6139988899230957,2.6085543632507324,0.4647209942340851,0.11112769693136215,-0.7561770081520081,-0.6448619365692139,-0.40096843242645264,-0.7393826246261597,0.021311521530151367
0.8858439455121383,0.19939594181939713,0.21395630816812133,2.974717617034912,2.9322404861450195,0.4710308611392975,0.12531085312366486,-0.7744491696357727,-0.6201013326644897,-0.49863240122795105,-0.9255629777908325,0.001983046531677246
0.9179633983170026,0.23252787197062302,0.21131894687851002,3.336320638656616,3.23884916305542,0.6129615902900696,0.13997714221477509,-0.794366180896759,-0.5910912156105042,-0.5553213953971863,-1.0727756023406982,-0.009982943534851074
0.9530322109116854,0.266342214611839,0.20977459858672665,3.434220790863037,3.2150886058807373,0.9466947913169861,0.15245166420936584,-0.8151755332946777,-0.558790922164917,-0.5884563326835632,-1.2418618202209473,0.009321928024291992
0.9882772629940242,0.296345195050029,0.21186103138926224,3.2239930629730225,3.1155385971069336,1.2058476209640503,0.16065242886543274,-0.8350794911384583,-0.5261492729187012,-0.7213519215583801,-1.3448978662490845,0.12760496139526367
1.021223249539072,0.32302776902464947,0.21709031136882748,2.8444390296936035,3.1035854816436768,1.3219645023345947,0.1658058613538742,-0.8527476191520691,-0.49530795216560364,-0.7904854416847229,-1.3237049579620361,0.3226242661476135
1.0509992036040363,0.34658426324086977,0.226053631966218,2.4712142944335938,3.109794855117798,1.5103347301483154,0.16872401535511017,-0.8679199814796448,-0.4671693444252014,-0.8832473754882812,-1.307327151298523,0.4225373864173889
1.0786191995710437,0.36248517168779726,0.24250249987327027,2.132789373397827,2.9188480377197266,1.9135380983352661,0.16756416857242584,-0.8813061714172363,-0.4418387711048126,-0.9738844037055969,-1.2446092367172241,0.4745230972766876
1.1047406435264906,0.3654769995561752,0.2713645301596647,1.7970904111862183,2.815615653991699,2.4178898334503174,0.1606011539697647,-0.8933476805686951,-0.41968709230422974,-1.0253167152404785,-1.0889978408813477,0.5210512280464172
1.1298532314942957,0.3552246566389713,0.31473665935531875,1.558418869972229,2.9426560401916504,2.881972551345825,0.14843890070915222,-0.9043495655059814,-0.40014728903770447,-1.003129482269287,-0.8796470165252686,0.5675209164619446
1.1540687116123975,0.3334355582887107,0.3724868743872013,1.3781777620315552,3.185131549835205,3.232557535171509,0.13247771561145782,-0.9144183993339539,-0.38247671723365784,-1.026597023010254,-0.6374613642692566,0.590682864189148
1.1772421522392447,0.30249527413239075,0.442149986109562,1.311532735824585,3.4192919731140137,3.3804333209991455,0.11423777043819427,-0.9235519766807556,-0.3660617470741272,-1.055232048034668,-0.35440194606781006,0.616397500038147
1.199414390255679,0.267751101674653,0.5181994610920179,1.351584792137146,3.714665174484253,3.2454545497894287,0.0960109606385231,-0.9318267107009888,-0.34997260570526123,-1.0669583082199097,-0.023541271686553955,0.6154907941818237
1.2207135018607622,0.23869172200326497,0.5903011235024986,1.5075277090072632,3.9348340034484863,2.659360408782959,0.08109024167060852,-0.9393442869186401,-0.333251416683197,-1.0841572284698486,0.3136730194091797,0.5812066793441772
1.2417110541528418,0.2313018008022885,0.641258912295436,1.7923974990844727,4.162052154541016,1.5395598411560059,0.0740867555141449,-0.9463383555412292,-0.3145707845687866,-1.1049858331680298,0.647296667098999,0.5334581136703491
1.2625631503965524,0.2661563247156613,0.6497046381701255,2.1184439659118652,4.383072376251221,-0.06534090638160706,0.07979531586170197,-0.9528710842132568,-0.29269319772720337,-1.1025309562683105,0.9960382580757141,0.4646444320678711
1.280660014168281,0.36666516624519263,0.5925946485972493,2.333639621734619,4.8116679191589355,-2.0267081260681152,0.10256180167198181,-0.9582048654556274,-0.2670660614967346,-1.0804823637008667,1.3095386028289795,0.42961791157722473
1.2874579487409885,0.5447660034203778,0.4617239283360985,2.029675006866455,5.716923713684082,-3.9862852096557617,0.14487428963184357,-0.9601275324821472,-0.23909538984298706,-0.9721295833587646,1.585219144821167,0.5035149455070496
1.2688507547982282,0.7649629722624656,0.2972074872205723,0.6589500904083252,6.69414758682251,-5.727876663208008,0.205937460064888,-0.9547597169876099,-0.21453100442886353,-0.45865359902381897,1.7671072483062744,0.7277603149414062
1.2182546550655025,0.9458234441536615,0.1781964578390637,-1.563474178314209,6.730297088623047,-6.778697967529297,0.2800181210041046,-0.9384981393814087,-0.2020171731710434,0.6911426782608032,1.7957675457000732,1.1442930698394775
1.1451952892083077,1.046542953981903,0.13979507556703633,-3.8782591819763184,6.2255048751831055,-6.94716739654541,0.357418954372406,-0.910790741443634,-0.20666798949241638,1.8244352340698242,1.6419310569763184,1.4922971725463867
1.0632546949089925,1.0846856192677226,0.16237961667684198,-5.6986002922058105,5.215909957885742,-6.264400005340576,0.42972660064697266,-0.8739420175552368,-0.2270686775445938,3.1554784774780273,1.5206706523895264,1.4657313823699951
0.986644381935082,1.0770196414054583,0.2178841093811544,-6.3569254875183105,2.497619390487671,-4.3224263191223145,0.48561573028564453,-0.8341800570487976,-0.26138225197792053,4.774897575378418,1.512982726097107,0.9419242143630981
0.9337308282849013,1.0270018285321736,0.2866500512670427,-5.467367649078369,-1.3212733268737793,-0.8211780190467834,0.5090343952178955,-0.8038447499275208,-0.30776187777519226,5.832899570465088,1.3896756172180176,-0.15226015448570251
0.9191129683364511,0.9395311547658388,0.3557501094974807,-2.8321211338043213,-5.0133748054504395,2.8525216579437256,0.48963701725006104,-0.7950639128684998,-0.35795122385025024,6.316561222076416,1.1330002546310425,-1.4815568923950195
0.9440466773684809,0.8319913889435601,0.41523813041376045,0.48183250427246094,-6.511008262634277,5.262202262878418,0.4335952401161194,-0.8099381923675537,-0.3949621319770813,5.787779331207275,0.9115923047065735,-2.439342737197876
0.9987453599483427,0.7295944313881833,0.467310139459088,3.0111260414123535,-5.067965984344482,6.429216384887695,0.36085131764411926,-0.8407924175262451,-0.40355220437049866,4.411960601806641,1.0340449810028076,-2.410397529602051
1.0701190485668233,0.6433832252556099,0.5227625098444029,4.264354705810547,-2.630155324935913,6.8633222579956055,0.2879665493965149,-0.8772576451301575,-0.3840497136116028,3.3939332962036133,1.6046595573425293,-1.3145434856414795
1.144763027942636,0.561802001208499,0.5941614192700367,4.2560625076293945,-1.0701361894607544,6.734372615814209,0.22014962136745453,-0.9106122255325317,-0.3497421443462372,2.6414377689361572,1.9809552431106567,-0.2442978024482727
1.2105818989812267,0.4620316181012253,0.6914905140537548,3.4696881771087646,-1.0614097118377686,6.108256816864014,0.15712176263332367,-0.9358212351799011,-0.3155171573162079,1.7952706813812256,1.9507596492767334,0.4196126461029053
1.2599783844281798,0.32932019514513927,0.8164397233976408,2.424715042114258,-1.906489610671997,5.248147964477539,0.09890778362751007,-0.9520837068557739,-0.28940248489379883,1.0626674890518188,1.638393521308899,0.7755169868469238
1.290834314407589,0.1649166070216793,0.9627828567652523,1.4625672101974487,-2.9461593627929688,4.50338077545166,0.04536328837275505,-0.961065948009491,-0.27256980538368225,0.5700236558914185,1.3539035320281982,0.8832112550735474
1.30472535333246,-0.014149764996540292,1.1137231114604513,0.7024819850921631,-3.6966123580932617,3.783928394317627,-0.0037204448599368334,-0.9648114442825317,-0.26291579008102417,0.32021820545196533,1.2410871982574463,0.9299536943435669
1.3056475544455761,-0.17921602050521296,1.2451541732027918,0.17072288691997528,-3.8548121452331543,3.0504560470581055,-0.046713054180145264,-0.9650534987449646,-0.2578556537628174,0.06284153461456299,1.1383476257324219,0.9540531039237976
1.2990979876688025,-0.31320157045807556,1.345424223145376,-0.11753341555595398,-3.5282084941864014,2.4249541759490967,-0.08268574625253677,-0.9633165001869202,-0.2553122639656067,-0.1941087245941162,1.00143301486969,0.9375632405281067
1.2896747975984102,-0.41487071686913013,1.4175413418401699,-0.2199554741382599,-2.8901448249816895,1.9234782457351685,-0.11182548850774765,-0.9607449173927307,-0.2538982033729553,-0.34670117497444153,0.856725811958313,0.884681224822998
1.2800847754854525,-0.49060690784183947,1.4695929934145422,-0.20600983500480652,-2.2771613597869873,1.563968539237976,-0.13505077362060547,-0.958040177822113,-0.2528245449066162,-0.4218492805957794,0.7211017608642578,0.7989060282707214
1.271282686617795,-0.5495545450315471,1.5097182728645457,-0.16264227032661438,-1.8414628505706787,1.3376131057739258,-0.15410950779914856,-0.9554800987243652,-0.2516104578971863,-0.500828206539154,0.5709892511367798,0.7067800760269165
1.263141987499048,-0.5970346730002034,1.5418091052566159,-0.1704237461090088,-1.5290184020996094,1.1524949073791504,-0.1702451854944229,-0.9530465006828308,-0.25043702125549316,-0.5726594924926758,0.43104350566864014,0.6216375827789307
1.2554967878888632,-0.6346977783102891,1.5666468471423658,-0.19383151829242706,-1.2701904773712158,0.9707353115081787,-0.1838696151971817,-0.9507035613059998,-0.24970930814743042,-0.7050158977508545,0.30823230743408203,0.5463859438896179
1.2485591172832584,-0.6647662162845758,1.5860368993120566,-0.16394606232643127,-1.055830478668213,0.8420007824897766,-0.19535763561725616,-0.9485293030738831,-0.24925366044044495,-0.88291996717453,0.1642886996269226,0.46762216091156006
1.2425846295842133,-0.69081945013648,1.6035653346862186,-0.0560685396194458,-0.8224561214447021,0.7862427234649658,-0.20539166033267975,-0.9466203451156616,-0.24844323098659515,-1.0004799365997314,0.03893613815307617,0.39712485671043396
1.2374875315943028,-0.715194002112404,1.6224052425829074,0.07151152193546295,-0.46662449836730957,0.8173191547393799,-0.21454717218875885,-0.9449649453163147,-0.24700327217578888,-1.0734319686889648,-0.03260451555252075,0.3514038920402527
1.232674998983319,-0.7388762516592609,1.6451421454889579,0.20700106024742126,0.038013823330402374,0.9462639093399048,-0.2233959287405014,-0.9433795213699341,-0.24521222710609436,-1.1117023229599,-0.06074017286300659,0.35593000054359436
1.227811414441743,-0.7624172977810951,1.6735464291119129,0.37772566080093384,0.6072149276733398,1.0957378149032593,-0.23227235674858093,-0.9417550563812256,-0.24320107698440552,-1.1191527843475342,-0.06112873554229736,0.38460421562194824
1.223011833455773,-0.7863072960394527,1.7083874277535163,0.583288311958313,1.1691983938217163,1.2568000555038452,-0.24121204018592834,-0.9401301145553589,-0.24077385663986206,-1.1489704847335815,-0.03428077697753906,0.3898826837539673
1.2180558717788386,-0.8107953439785359,1.7500539830179271,0.7644826173782349,1.754051685333252,1.4380656480789185,-0.2504095137119293,-0.9384294748306274,-0.23800255358219147,-1.2228723764419556,-0.03376901149749756,0.3684956729412079
1.212880139683178,-0.8349613596212102,1.7974180882112516,0.9481438398361206,2.2501962184906006,1.5344303846359253,-0.2596844434738159,-0.9366288781166077,-0.23513929545879364,-1.328969120979309,-0.08955526351928711,0.31883367896080017
1.208484067456268,-0.8591733255919993,1.8487037705307143,1.1797008514404297,2.445483446121216,1.4890578985214233,-0.2684163749217987,-0.9350797533988953,-0.23147010803222656,-1.418229103088379,-0.10747689008712769,0.24358558654785156
1.2062005301869927,-0.8854006458960239,1.9027714097685575,1.470682978630066,2.38313364982605,1.3124933242797852,-0.2760465443134308,-0.9342679381370544,-0.2257024645805359,-1.5043489933013916,-0.089535653591156,0.1533452421426773
1.2071304267129572,-0.9149945282663419,1.9593746711633262,1.7922199964523315,2.254298448562622,1.0298811197280884,-0.2819152772426605,-0.9345991611480713,-0.21690556406974792,-1.603033423423767,-0.06631624698638916,0.06312747299671173
1.212021682626497,-0.948216672314505,2.0182528412689233,2.1116983890533447,2.109610080718994,0.6532520055770874,-0.2852476239204407,-0.9363277554512024,-0.20475377142429352,-1.6693270206451416,-0.03573328256607056,0.004131138324737549
1.221159994601364,-0.9842743580010815,2.078908739824327,2.36659574508667,2.0506350994110107,0.22873003780841827,-0.2853049039840698,-0.9394973516464233,-0.18959368765354156,-1.7346383333206177,-0.018708765506744385,-0.013897538185119629
1.2341949220611192,-1.0219374189375054,2.1405543891803234,2.4963057041168213,2.000321626663208,-0.18375170230865479,-0.2817695438861847,-0.9438825845718384,-0.17231228947639465,-1.7501060962677002,-0.00490880012512207,-0.006917476654052734
1.249813545780186,-1.0601750358156983,2.201463349775518,2.432969570159912,1.8579338788986206,-0.5098688006401062,-0.275254487991333,-0.948925793170929,-0.15419059991836548,-1.680098295211792,0.01340949535369873,0.02188163995742798
1.2664229966783633,-1.096955909575477,2.2584059654954003,2.1895391941070557,1.5889650583267212,-0.7443408370018005,-0.2666756808757782,-0.9540349245071411,-0.13675308227539062,-1.549928903579712,0.024255871772766113,0.07670973241329193
1.2828281569754891,-1.130666225491855,2.30806869648057,1.838207483291626,1.1472294330596924,-0.9041174650192261,-0.2569376528263092,-0.9588229060173035,-0.12100207805633545,-1.4167073965072632,0.04874306917190552,0.13327008485794067
1.2982717319056858,-1.1598905179453838,2.347936563637964,1.4358879327774048,0.6638734936714172,-0.985283374786377,-0.24675825238227844,-0.9630944132804871,-0.10751467943191528,-1.301551103591919,0.08443242311477661,0.1702282428741455
1.3124613558486007,-1.183692523534972,2.377237937411837,1.089209794998169,0.24460674822330475,-1.020330548286438,-0.2365674078464508,-0.9668166637420654,-0.09644223004579544,-1.208882451057434,0.12450116872787476,0.18356984853744507
1.3256150445042711,-1.202743896818334,2.3981408374660496,0.8554465770721436,0.023965533822774887,-1.0320537090301514,-0.2264760136604309,-0.970093309879303,-0.08733465522527695,-1.1727550029754639,0.1523139476776123,0.16933530569076538
1.338124655126586,-1.2174906744832144,2.4136039147517288,0.7172554135322571,0.05959170684218407,-1.0451761484146118,-0.21633581817150116,-0.9730538129806519,-0.07978013902902603,-1.19588041305542,0.1438760757446289,0.12442731857299805
1.3503737001120832,-1.228487771505815,2.426404138025942,0.6655523180961609,0.24620231986045837,-1.0549285411834717,-0.20595654845237732,-0.9758051037788391,-0.07338982075452805,-1.2589025497436523,0.12274742126464844,0.07731127738952637
1.3625601547049955,-1.2375106831932898,2.4394294380713255,0.6597676873207092,0.4953961968421936,-1.0599967241287231,-0.1953577846288681,-0.9783970713615417,-0.06763289123773575,-1.3354954719543457,0.12408816814422607,0.05139750987291336
1.374899752577126,-1.2444242301515105,2.4529874789711745,0.6482101678848267,0.7791390419006348,-1.099948525428772,-0.18437065184116364,-0.9808735251426697,-0.06240510568022728,-1.4082807302474976,0.13379722833633423,0.0404323935508728
1.3875637547987267,-1.2470152247428137,2.4647609701735385,0.5604227781295776,0.9963592886924744,-1.1529970169067383,-0.1727413386106491,-0.9832598567008972,-0.05797044187784195,-1.460422158241272,0.151106595993042,0.05578833818435669
1.400379548246738,-1.2399854236872536,2.468661860864755,0.3828892409801483,1.1719869375228882,-1.2327719926834106,-0.16039717197418213,-0.9855141639709473,-0.05508539080619812,-1.4862092733383179,0.20598852634429932,0.09774893522262573
1.4137873318870566,-1.2177683244414013,2.4591811151849154,0.23292824625968933,1.4015016555786133,-1.3972545862197876,-0.14672161638736725,-0.9876993894577026,-0.05406159907579422,-1.5096046924591064,0.2869700789451599,0.16453516483306885
1.4285621955335654,-1.1787338846655184,2.4354333304557123,0.19854407012462616,1.7026591300964355,-1.6077313423156738,-0.1309988647699356,-0.9899017810821533,-0.054163821041584015,-1.5265634059906006,0.3759034276008606,0.19315612316131592
1.4455092980079944,-1.1228951766384283,2.3979219669006824,0.2882204055786133,2.017085552215576,-1.9002106189727783,-0.11263271421194077,-0.9921618700027466,-0.05411653593182564,-1.4806901216506958,0.48918652534484863,0.17723965644836426
1.4660641806238102,-1.0483997558098626,2.344863345655791,0.5758286714553833,2.3245694637298584,-2.2998979091644287,-0.09059728682041168,-0.9945206046104431,-0.05216124653816223,-1.3870943784713745,0.6385483741760254,0.16173458099365234
1.4917361219262422,-0.9471182357399971,2.2682221121979893,1.0330283641815186,2.666840076446533,-2.7607645988464355,-0.06410735845565796,-0.9968763589859009,-0.04612372815608978,-1.2511240243911743,0.8130386471748352,0.0990564227104187
1.5230857105055577,-0.7656995774534956,2.1156644556602977,1.6165703535079956,3.158618688583374,-3.2085845470428467,-0.03305249661207199,-0.998862087726593,-0.03438101336359978,-1.0337047576904297,1.0002354383468628,0.066165030002594
1.5556801101637534,0.1303047658054506,1.253786261890405,2.3740110397338867,3.7207958698272705,-3.587707281112671,0.0019625036511570215,-0.9998857378959656,-0.014975535683333874,-0.7169283628463745,1.1727374792099,0.11305892467498779
1.5292066054243658,1.8957127234727529,-0.47171539295882586,3.052860736846924,4.269448280334473,-3.8760266304016113,0.03939966484904289,-0.9991352558135986,0.01327196042984724,-0.2633071839809418,1.3172353506088257,0.18344426155090332
1.4781543576981644,2.1134691813490245,-0.6454364084342731,3.2362942695617676,4.526008129119873,-4.401534080505371,0.07921690493822098,-0.9957118034362793,0.04777323454618454,0.43135738372802734,1.4791104793548584,0.4602069854736328
1.4204179078279469,2.164036301567583,-0.6499907741161396,3.027433156967163,4.642439842224121,-5.340611457824707,0.12421469390392303,-0.9887144565582275,0.08375278860330582,1.2947763204574585,1.63741135597229,0.9770381450653076
1.3544714568672123,2.1643574323137758,-0.6022144941625251,2.924132823944092,4.7841572761535645,-6.485724449157715,0.17792737483978271,-0.9766928553581238,0.12005215138196945,1.9593863487243652,1.6560906171798706,1.3423806428909302
1.2815897022913654,2.1630965364814125,-0.5515441634256107,3.1197688579559326,4.680256366729736,-6.827261924743652,0.23661130666732788,-0.9584704637527466,0.15921390056610107,2.545050621032715,1.2883808612823486,1.3106651306152344
1.210698645541888,2.1768405169398055,-0.5196588603491815,3.096160650253296,4.019384860992432,-5.791241645812988,0.2896116375923157,-0.9358624219894409,0.20071443915367126,3.597381591796875,0.6280317306518555,1.0587306022644043
1.1581791867971836,2.200226651951757,-0.5070261235904181,1.9964954853057861,2.9237918853759766,-3.1100172996520996,0.32415974140167236,-0.9160744547843933,0.23606692254543304,4.886228561401367,-0.19067585468292236,0.9669206142425537
1.1426886587163223,2.2193753482264134,-0.50379554928664,-0.46773114800453186,1.418265461921692,0.482135146856308,0.3308508098125458,-0.9097529649734497,0.25077322125434875,5.88232946395874,-0.973410427570343,1.2174426317214966
1.1688844020139701,2.2233616428959584,-0.5025430484909035,-2.644091844558716,-0.378099262714386,3.4659526348114014,0.3108029365539551,-0.9203147888183594,0.237534299492836,6.104968547821045,-1.3825266361236572,1.6986992359161377
1.2237420683494589,2.2169134028752886,-0.5073942481314122,-3.508899450302124,-1.7168959379196167,5.304757595062256,0.2715681195259094,-0.940378725528717,0.20478829741477966,5.589363098144531,-1.0723774433135986,1.701980471611023
1.2892743381762317,2.2203828099733878,-0.5315221280039586,-3.041963577270508,-2.0261592864990234,5.837987899780273,0.22123593091964722,-0.9606336951255798,0.1680402159690857,4.504593849182129,-0.1915421485900879,1.019566535949707
1.3482244064851012,2.2632242460320464,-0.5942363078931163,-1.7779760360717773,-1.500256896018982,5.192865371704102,0.169902041554451,-0.9753329753875732,0.1409211903810501,2.996433973312378,0.558615505695343,0.26850247383117676
1.3908387783477367,2.365093144099734,-0.7099465285034665,-0.6358925104141235,-0.816823422908783,4.177555561065674,0.12543170154094696,-0.9838513135910034,0.12768414616584778,1.7900192737579346,0.829981803894043,-0.19273245334625244
1.4182450499856525,2.516397278758462,-0.8699156011087209,-0.23476718366146088,-0.5560038089752197,3.408076524734497,0.088934987783432,-0.9883866310119629,0.1232159286737442,1.209038496017456,0.9204088449478149,-0.13562144339084625
1.4379801180589027,2.6839554282882103,-1.0461681487637708,-0.6416899561882019,-0.8917751908302307,2.917555570602417,0.05850981920957565,-0.9911928772926331,0.11879938840866089,1.0190200805664062,0.9766207933425903,0.22234129905700684
1.4582390292577192,2.852101470510579,-1.2279979661624723,-1.5150907039642334,-1.5775234699249268,2.712606906890869,0.03206278383731842,-0.9936721324920654,0.10764425992965698,0.9565083384513855,0.9180039763450623,0.6700046062469482
1.4826213010907296,3.0599028409632623,-1.4560035872320174,-2.367947578430176,-2.1892430782318115,2.6474640369415283,0.007185497786849737,-0.9961150884628296,0.08776500821113586,0.8941053152084351,0.8655000925064087,0.9924503564834595
1.506989498562413,-2.8713805232270215,-1.8322606407452915,-2.85588002204895,-2.397571086883545,2.535914421081543,-0.01702028512954712,-0.9979650378227234,0.06144805997610092,0.7346563339233398,0.8919013142585754,1.0651845932006836
1.5183667211947633,-2.2569325531568727,-2.4714380070267294,-2.8675389289855957,-2.3156590461730957,2.3837356567382812,-0.04054395481944084,-0.9986258745193481,0.033199865370988846,0.44993722438812256,0.8981927037239075,0.8893617391586304
1.5072120484047793,-1.6826967515197955,-3.069091096345493,-2.552600383758545,-2.1617510318756104,2.215944766998291,-0.06314127892255783,-0.9979792237281799,0.0070951757952570915,0.17103615403175354,0.8394100069999695,0.5566864013671875
1.485099015257109,-1.3995169339537095,2.9092012784995878,-2.0771942138671875,-2.001852035522461,1.996629238128662,-0.08433802425861359,-0.9963302612304688,-0.014588302932679653,-0.06721227616071701,0.7902299761772156,0.24646079540252686
1.4627115443552172,-1.2800585502040147,2.7698318528846424,-1.560115933418274,-1.838560938835144,1.7216465473175049,-0.10334625840187073,-0.9941645264625549,-0.030922899022698402,-0.28520357608795166,0.748635470867157,0.019722940400242805
1.4434962314114461,-1.2308875643354025,2.7028421943062737,-1.1315255165100098,-1.61338472366333,1.4319779872894287,-0.11969270557165146,-0.9919082522392273,-0.04232743754982948,-0.4981509745121002,0.6594651341438293,-0.1328129768371582
1.4280812553014124,-1.211213137806983,2.6677576353702164,-0.8140196800231934,-1.40067458152771,1.1322907209396362,-0.133133664727211,-0.9898334741592407,-0.05004854500293732,-0.7207481861114502,0.51263028383255,-0.22204625606536865
1.4163264902111403,-1.2050575949285434,2.6483298177404135,-0.56382155418396,-1.2010517120361328,0.8678033947944641,-0.143680140376091,-0.9880932569503784,-0.05502502620220184,-0.9271054267883301,0.3716534972190857,-0.25420963764190674
1.407537641863263,-1.2057778935392738,2.637864620119363,-0.381126344203949,-1.0092154741287231,0.6623978018760681,-0.15182556211948395,-0.9867028594017029,-0.05801910161972046,-1.0768121480941772,0.2637873888015747,-0.2671610116958618
1.4009897261940032,-1.2092846786623666,2.63205507139221,-0.2719893753528595,-0.8334150314331055,0.49339988827705383,-0.15806825459003448,-0.985617458820343,-0.05977029353380203,-1.165509581565857,0.17604726552963257,-0.24716031551361084
1.3962706610832831,-1.2113667457743515,2.6263880253068237,-0.2547624409198761,-0.6965288519859314,0.3187148869037628,-0.16254526376724243,-0.9848090410232544,-0.06107666715979576,-1.2358922958374023,0.10684877634048462,-0.18645143508911133
1.393109337455982,-1.2078337314082566,2.6162014492440084,-0.30527931451797485,-0.6075643301010132,0.14913064241409302,-0.16523820161819458,-0.9842551350593567,-0.06275564432144165,-1.3106224536895752,0.061739206314086914,-0.11217118054628372
1.3910563079737792,-1.1965988827152987,2.598886405602651,-0.4209268093109131,-0.5502315163612366,0.018537482246756554,-0.16640199720859528,-0.983890175819397,-0.06534605473279953,-1.379435420036316,0.021655917167663574,-0.04589056223630905
1.3894501673354909,-1.1764973020370673,2.5732672865481208,-0.5484833121299744,-0.4595722556114197,-0.06170223280787468,-0.16651348769664764,-0.9836018085479736,-0.06928447633981705,-1.4242610931396484,-0.025263309478759766,0.001687958836555481
1.3879799381521183,-1.149377569379409,2.541513348268501,-0.6068646311759949,-0.3671213984489441,-0.12187795341014862,-0.16589373350143433,-0.983335554599762,-0.07436606287956238,-1.4659117460250854,-0.08905202150344849,0.013529181480407715
1.386796974898874,-1.1210370986078722,2.5091734075797936,-0.5430001616477966,-0.32494422793388367,-0.1543421596288681,-0.16476693749427795,-0.9831198453903198,-0.07954258471727371,-1.5042089223861694,-0.13545608520507812,-0.01925814151763916
1.3862036819519328,-1.098068795053355,2.482747734374579,-0.3618341088294983,-0.26795125007629395,-0.1691083312034607,-0.16341619193553925,-0.9830111265182495,-0.08357136696577072,-1.5013024806976318,-0.1538296341896057,-0.07757675647735596
1.386807394681916,-1.0844460823268756,2.4667901947575026,-0.09427773952484131,-0.13136692345142365,-0.20606403052806854,-0.16173772513866425,-0.9831217527389526,-0.08551221340894699,-1.4647881984710693,-0.1577014923095703,-0.1311168670654297
1.3889935283378543,-1.0814935723679995,2.4634429028599945,0.18502181768417358,0.06639835983514786,-0.23145566880702972,-0.15958724915981293,-0.9835193157196045,-0.08497907221317291,-1.4321027994155884,-0.16006571054458618,-0.17141443490982056
1.3921860816055323,-1.0887898056544882,2.472345087110622,0.37527164816856384,0.21252794563770294,-0.1704016625881195,-0.15742015838623047,-0.9840915203094482,-0.0823565423488617,-1.388279914855957,-0.1857997179031372,-0.1766156554222107
1.3948788313721348,-1.1049394006856672,2.4911624430579935,0.4451673626899719,0.24688486754894257,0.0069901784881949425,-0.15636156499385834,-0.9845663905143738,-0.07861307263374329,-1.286296010017395,-0.22315144538879395,-0.13829070329666138
1.3957658447354395,-1.127956638213499,2.5168689608787114,0.4282010495662689,0.20766478776931763,0.22278276085853577,-0.15734073519706726,-0.9847212433815002,-0.07461951673030853,-1.1439898014068604,-0.24510669708251953,-0.07244480401277542
1.394539037417705,-1.1532262122240333,2.54455142979098,0.3405667841434479,0.1938887983560562,0.3972586989402771,-0.16027891635894775,-0.9845068454742432,-0.07110954076051712,-1.0147546529769897,-0.23405981063842773,-0.023388199508190155
1.3912714221786133,-1.1757770551506697,2.5696410242868595,0.2111320048570633,0.24139198660850525,0.5518595576286316,-0.1648108959197998,-0.9839286208152771,-0.06871534138917923,-0.9381402134895325,-0.20589059591293335,0.003911197185516357
1.3859775886120322,-1.1936348516987443,2.5906525584406017,0.10268301516771317,0.31607741117477417,0.7131648659706116,-0.17085207998752594,-0.9829695820808411,-0.0676787942647934,-0.8905493021011353,-0.17814791202545166,0.01727890968322754
1.3787757656688766,-1.2092944022740764,2.6101479968480596,0.06379697471857071,0.37776440382003784,0.8909938931465149,-0.17850807309150696,-0.9816206097602844,-0.06749720871448517,-0.8461654782295227,-0.15413683652877808,-0.0003281310200691223
1.3697143046087563,-1.2253554344295785,2.6309079734044074,0.06988202780485153,0.48918840289115906,1.0836235284805298,-0.18793044984340668,-0.9798510670661926,-0.06763061881065369,-0.8346067667007446,-0.14900928735733032,-0.0668908879160881
1.3587478014399086,-1.2413897244351282,2.6529468145064965,0.04731211066246033,0.603614091873169,1.2753758430480957,-0.1991468220949173,-0.9776018261909485,-0.06808072328567505,-0.8830828070640564,-0.16685301065444946,-0.14566445350646973
1.3458049153064473,-1.2554017568308744,2.6737283753298704,-0.019871188327670097,0.6390359997749329,1.4531676769256592,-0.21209336817264557,-0.9747959971427917,-0.06920309364795685,-0.9470100998878479,-0.17220711708068848,-0.18989121913909912
1.3311028443493509,-1.266170337470619,2.690823163895482,-0.13247649371623993,0.5100718140602112,1.560896396636963,-0.22647398710250854,-0.9714108109474182,-0.07120618224143982,-0.9962586164474487,-0.11742573976516724,-0.18900203704833984
1.3156375029756346,-1.2727179300793845,2.701991836701507,-0.2570703625679016,0.3558068573474884,1.5238538980484009,-0.24126863479614258,-0.967623233795166,-0.07412544637918472,-1.0548739433288574,-0.04330199956893921,-0.18568599224090576
1.3011647188011666,-1.2747562599789164,2.7074678735252347,-0.3024730086326599,0.3076176047325134,1.2959084510803223,-0.2547883689403534,-0.9638690948486328,-0.07771113514900208,-1.1554136276245117,0.06115925312042236,-0.1769580841064453
1.2895677881277952,-1.2733163793035853,2.709494224231703,-0.2604967951774597,0.3859083950519562,0.9346650242805481,-0.26534560322761536,-0.9607151746749878,-0.08134891092777252,-1.2384538650512695,0.1914588212966919,-0.18812131881713867
1.282067798759618,-1.268355870969651,2.7093381483784356,-0.1853267103433609,0.5751605033874512,0.47956928610801697,-0.2718101739883423,-0.9586066603660583,-0.0848081037402153,-1.3096871376037598,0.2934608459472656,-0.23558074235916138
1.2796981884255558,-1.259915593772851,2.7072170420629234,-0.06619207561016083,0.6837301254272461,-0.07402785867452621,-0.2732464373111725,-0.957929253578186,-0.08779376745223999,-1.3491138219833374,0.3843057155609131,-0.2740989923477173
1.2833153411595641,-1.249461799062255,2.703480864875545,0.09831816703081131,0.6723944544792175,-0.6807802319526672,-0.2690246105194092,-0.9589611291885376,-0.08955053240060806,-1.3389008045196533,0.4858928918838501,-0.2965731620788574
1.293580893274374,-1.2387381354378797,2.6988275896473013,0.3215475082397461,0.5625646114349365,-1.3510520458221436,-0.2587279975414276,-0.9618212580680847,-0.08921618014574051,-1.2835540771484375,0.5954731106758118,-0.31103718280792236
1.3113838611648212,-1.2293409609859758,2.694361508275734,0.6467586755752563,0.4788805842399597,-2.0814576148986816,-0.24170361459255219,-0.9665408730506897,-0.08589547127485275,-1.2085374593734741,0.7076603174209595,-0.3264123201370239
1.3373888362350144,-1.2231668228958517,2.6939129728204123,1.1031956672668457,0.702338457107544,-2.8004844188690186,-0.21745789051055908,-0.972883939743042,-0.07879466563463211,-1.1343334913253784,0.8240956664085388,-0.32971370220184326
1.3718228563572514,-1.2252954891783308,2.7053271847924454,1.7054156064987183,1.1085048913955688,-3.482400417327881,-0.18598192930221558,-0.9802700281143188,-0.0669419914484024,-0.9643018841743469,0.9614102244377136,-0.2818129062652588
1.4147049371290163,-1.2520404321830354,2.745640339406548,2.437608003616333,1.4485812187194824,-4.169288158416748,-0.1476273536682129,-0.9878424406051636,-0.04871838912367821,-0.7196822762489319,1.0988959074020386,-0.16929924488067627
1.4670303498017498,-1.3477492812062788,2.858321662028453,3.120572805404663,1.7740504741668701,-5.087027549743652,-0.10101229697465897,-0.9946211576461792,-0.022911712527275085,-0.4001169204711914,1.2755508422851562,-0.029075022786855698
1.5244370091684787,-1.7657727181124356,-2.9858614422290493,3.500791311264038,2.220343589782715,-6.004271984100342,-0.04546019434928894,-0.9989256262779236,0.008977719582617283,-0.08153875917196274,1.4617249965667725,0.1883946657180786
1.522700840602998,2.7369247930085074,-1.1796247832069138,3.550051212310791,2.666867971420288,-6.970324993133545,0.018927665427327156,-0.9988436102867126,0.0441918782889843,0.4518364369869232,1.5810580253601074,0.5677465200424194
1.4494087741581823,2.2931963487621765,-0.7061274134015434,3.277164936065674,2.9928340911865234,-7.7231974601745605,0.09084377437829971,-0.9926415681838989,0.08006271719932556,1.117179274559021,1.537121057510376,0.95367431640625
1.3681687309032577,2.176115988752203,-0.5559510660250124,2.874661922454834,3.187845468521118,-7.8688507080078125,0.16548670828342438,-0.9795411825180054,0.11451264470815659,1.9052681922912598,1.2856019735336304,1.2358901500701904
1.2908045457725825,2.1314109807022574,-0.4773283056547781,2.4755067825317383,3.0968451499938965,-6.898658752441406,0.23404663801193237,-0.961057722568512,0.14693590998649597,2.8981401920318604,0.8042584657669067,1.4265044927597046
1.228550426027683,2.122041055006056,-0.43685033319202693,1.9270169734954834,2.6522486209869385,-4.838136672973633,0.28589144349098206,-0.9420033097267151,0.17577151954174042,3.975918769836426,0.11546534299850464,1.3749028444290161
1.1909789990846529,2.1270040328162256,-0.4186993047770602,0.8416185975074768,1.6667417287826538,-2.1609861850738525,0.3148648142814636,-0.9287323951721191,0.19574488699436188,4.743255615234375,-0.5533384680747986,1.1898598670959473
1.1841167355537203,2.1292622542796664,-0.41041664406011136,-0.6536622047424316,0.2605264484882355,0.6638983488082886,0.3198194205760956,-0.9261663556098938,0.19982782006263733,4.989811897277832,-0.9500389695167542,1.2220165729522705
1.2078444995132334,2.1217487602260947,-0.4085622911011284,-1.8836631774902344,-1.4111392498016357,3.2196004390716553,0.30249881744384766,-0.9348528981208801,0.18586024641990662,4.866019248962402,-0.9393534660339355,1.2726356983184814
1.255022472505264,2.1092956052124348,-0.41743628667154187,-2.372494697570801,-2.6371471881866455,4.997738361358643,0.26660218834877014,-0.9505563378334045,0.1592658907175064,4.414183616638184,-0.5564015507698059,1.0780844688415527
1.3126841745113693,2.1099788450569537,-0.4475675310017386,-1.9655084609985352,-2.85239315032959,5.585622787475586,0.21904192864894867,-0.9668735861778259,0.13105693459510803,3.5694100856781006,0.0669713020324707,0.7419288158416748
1.3668079451071058,2.1539747344177314,-0.5188064402850389,-0.9821521043777466,-2.1381044387817383,5.186577796936035,0.16909363865852356,-0.9792664051055908,0.1115545704960823,2.453526020050049,0.5535463094711304,0.3082756996154785
1.4086003038701476,2.271834640347464,-0.6560667168076656,-0.045072589069604874,-1.320338249206543,4.443951606750488,0.1234024316072464,-0.986875057220459,0.1041596531867981,1.5602370500564575,0.7243324518203735,-0.06404435634613037
1.4358908109335984,2.4688691789702477,-0.8662721634617854,0.4126059412956238,-0.9094558358192444,3.7932791709899902,0.08380740880966187,-0.9909140467643738,0.1051936224102974,1.0745940208435059,0.8111807107925415,-0.08628807961940765
1.4509640671572623,2.717320737633775,-1.1255386483543544,0.4118935465812683,-0.8759996294975281,3.3732919692993164,0.04921198636293411,-0.9928287267684937,0.10894688218832016,0.8335852026939392,0.9081118702888489,0.1479499489068985
1.457905910750736,2.9806357174828704,-1.4005917898072044,0.07140502333641052,-1.1205421686172485,3.1109135150909424,0.018053460866212845,-0.9936346411705017,0.11119301617145538,0.745358943939209,0.9247719049453735,0.3980231285095215
1.4606796982986674,-3.045884627790085,-1.671685873630542,-0.43076860904693604,-1.4129998683929443,2.9088075160980225,-0.010501744225621223,-0.9939432740211487,0.10939165204763412,0.6779516339302063,0.8914347887039185,0.5830368995666504
1.460909214490152,-2.795731583514122,-1.9386011749641465,-0.8689954876899719,-1.5936613082885742,2.7794904708862305,-0.03717728331685066,-0.9939684867858887,0.10317132622003555,0.5235511660575867,0.8805805444717407,0.6846704483032227
1.4574291691122483,-2.551935807245018,-2.2004470794015765,-1.104516625404358,-1.6710882186889648,2.7093048095703125,-0.06290572136640549,-0.9935808181762695,0.09402122348546982,0.3839810788631439,0.8677874803543091,0.6545138359069824
1.4490238200712875,-2.3329101297746955,-2.437961634941447,-1.1707066297531128,-1.6900581121444702,2.595210075378418,-0.08786910027265549,-0.9925948977470398,0.0838695541024208,0.2436612844467163,0.8238939046859741,0.5048907995223999
1.43657915871197,-2.158072755880371,-2.631529811244125,-1.116822361946106,-1.7316137552261353,2.39384388923645,-0.11139396578073502,-0.9910063743591309,0.0741458535194397,0.05525684356689453,0.7752166986465454,0.3333858251571655
1.4223351052330924,-2.0324221338354396,-2.776130493350161,-0.9684208035469055,-1.749677062034607,2.073615312576294,-0.1324337273836136,-0.9889998435974121,0.06588251143693924,-0.16599774360656738,0.7265182733535767,0.20377075672149658
1.4088429388652017,-1.9493058591649346,-2.877641687668951,-0.7927057147026062,-1.6573652029037476,1.6469537019729614,-0.14983217418193817,-0.9869142174720764,0.05958608537912369,-0.3849884271621704,0.6654421091079712,0.08984315395355225
1.398083785294169,-1.8944041323539822,-2.948932692456478,-0.7132560610771179,-1.3914709091186523,1.1772853136062622,-0.16293485462665558,-0.9851222038269043,0.05464806407690048,-0.5988449454307556,0.5820612907409668,0.010445840656757355
1.391315242649281,-1.8506592324529354,-3.005953362712147,-0.8051745295524597,-1.0834754705429077,0.7112348675727844,-0.17157268524169922,-0.9839364886283875,0.04931100457906723,-0.7759218215942383,0.4849589467048645,-0.013254527002573013
1.3887027175162294,-1.8056165759850022,-3.0616866764181836,-0.9962717294692993,-0.8822252154350281,0.3147569000720978,-0.17611809074878693,-0.9834667444229126,0.04213337600231171,-0.9109790921211243,0.3736342191696167,0.01943575218319893
1.3893443900224767,-1.7543491676074132,-3.1225818727363923,-1.170630693435669,-0.8603566288948059,0.0331885926425457,-0.17742547392845154,-0.9835827350616455,0.03293769061565399,-1.010105013847351,0.26538223028182983,0.02295517548918724
1.3918951698705853,-1.696859172485401,3.0928426107263745,-1.294323205947876,-0.974555253982544,-0.15640389919281006,-0.17653614282608032,-0.984039843082428,0.022373292595148087,-1.0138325691223145,0.19606077671051025,-0.010776638984680176
1.395646969760804,-1.6350263072983635,3.0195930956883825,-1.3236424922943115,-1.0563156604766846,-0.33630627393722534,-0.17389577627182007,-0.9847005009651184,0.011184707283973694,-0.9853450059890747,0.15967315435409546,-0.03282177448272705
1.4002163886831276,-1.5715214945713072,2.9446949485624896,-1.2675632238388062,-0.971627414226532,-0.4772310256958008,-0.16975387930870056,-0.9854865074157715,0.00012310006422922015,-1.015655755996704,0.12778997421264648,-0.03764450550079346
1.4049882006405379,-1.5058605713665627,2.869439750809508,-1.2178411483764648,-0.7069951891899109,-0.5429295897483826,-0.16470178961753845,-0.9862852692604065,-0.010710093192756176,-1.0500352382659912,0.090090811252594,-0.037995994091033936
1.409334976643085,-1.4350581633501693,2.7923899653386566,-1.1884410381317139,-0.320159375667572,-0.5604602694511414,-0.1592823714017868,-0.9869934320449829,-0.021754469722509384,-1.0642894506454468,0.053628504276275635,-0.014439405873417854
1.4127394841934373,-1.357757672495796,2.7131483717355174,-1.1575446128845215,0.13815464079380035,-0.5301803946495056,-0.15384191274642944,-0.9875349998474121,-0.03327926993370056,-1.0758639574050903,0.008988738059997559,0.0254056379199028
1.4148126242487071,-1.2790708836334685,2.63693418011287,-1.0239555835723877,0.5175921320915222,-0.45872583985328674,-0.14878755807876587,-0.9878591895103455,-0.04467983916401863,-1.060441017150879,-0.03797382116317749,0.03289997577667236
1.4158288724382795,-1.208808835528858,2.571981400329609,-0.8025137186050415,0.6704445481300354,-0.37160158157348633,-0.1443444788455963,-0.9880165457725525,-0.05465944856405258,-1.0111578702926636,-0.06422936916351318,-0.02229064330458641
1.4163762174738521,-1.154240193324033,2.523511450844403,-0.5306425094604492,0.6446388363838196,-0.29443445801734924,-0.14065434038639069,-0.9881008863449097,-0.06223226338624954,-0.968674898147583,-0.10604572296142578,-0.10289841890335083
1.4171434385112969,-1.1176465936971691,2.492805507530393,-0.2598688006401062,0.6165422201156616,-0.2441004514694214,-0.1376015692949295,-0.9882186055183411,-0.06700449436903,-0.9605277180671692,-0.17048794031143188,-0.17019343376159668
1.418574146549709,-1.0959854019318842,2.477355132707725,-0.036251574754714966,0.6642760038375854,-0.22557851672172546,-0.1348605751991272,-0.9884365797042847,-0.06932279467582703,-0.9852108955383301,-0.22549152374267578,-0.20756328105926514
1.4209079133173474,-1.085388422147033,2.473565374521121,0.14278556406497955,0.6925228238105774,-0.23838378489017487,-0.13207794725894928,-0.9887877702713013,-0.0696716383099556,-1.012117624282837,-0.26884156465530396,-0.208465576171875
1.4239412879946016,-1.0836607226596904,2.478652065199855,0.2643766403198242,0.6467640995979309,-0.2204165905714035,-0.12930649518966675,-0.9892361760139465,-0.06849551200866699,-1.014904260635376,-0.3043886423110962,-0.19221621751785278
1.4269764209934048,-1.0891083157652326,2.4902080952531254,0.2992001175880432,0.5381516218185425,-0.1545017659664154,-0.12701642513275146,-0.989675760269165,-0.06639888882637024,-0.9811073541641235,-0.33107924461364746,-0.17954236268997192
1.4290695616246596,-1.0981928232650746,2.504116779414681,0.23095327615737915,0.390323668718338,-0.035184960812330246,-0.12576915323734283,-0.9899735450744629,-0.06429892033338547,-0.9309782981872559,-0.35643136501312256,-0.1597306728363037
1.4296084645648566,-1.1054030594883693,2.514570488030886,0.06828764826059341,0.24038609862327576,0.07133056223392487,-0.12575280666351318,-0.9900495409965515,-0.0631510466337204,-0.8786112666130066,-0.3598496913909912,-0.12169396877288818
1.4284197880367093,-1.105468737967448,2.516520107916687,-0.12132687121629715,0.13636501133441925,0.16347922384738922,-0.1268085241317749,-0.9898815751075745,-0.06367077678442001,-0.8368908166885376,-0.34388911724090576,-0.08351552486419678
1.4256516926077203,-1.099295727390041,2.5113286534812818,-0.25209155678749084,0.0827888697385788,0.26579707860946655,-0.12885355949401855,-0.9894850254058838,-0.06569664925336838,-0.810096025466919,-0.31570595502853394,-0.0635911226272583
1.4214781823509317,-1.091221024241474,2.5041299410442126,-0.30996936559677124,0.11576485633850098,0.37884753942489624,-0.13198190927505493,-0.988872766494751,-0.06863998621702194,-0.7778844833374023,-0.28143662214279175,-0.09041768312454224
1.4161019448075196,-1.0858156561542731,2.5000990909051692,-0.28276437520980835,0.16142475605010986,0.5202792882919312,-0.1363096535205841,-0.9880586862564087,-0.07182946056127548,-0.7542390823364258,-0.24895596504211426,-0.1447538137435913
1.4095901296359739,-1.0896417684387674,2.5057046162214087,-0.1498093158006668,0.18328021466732025,0.7132399082183838,-0.1422836184501648,-0.9870343804359436,-0.07428331673145294,-0.7405441403388977,-0.22309410572052002,-0.20708881318569183
1.4019470008062014,-1.10716597109687,2.525741505175515,0.04519212990999222,0.2703397572040558,0.9379808902740479,-0.15030868351459503,-0.98577880859375,-0.07515110075473785,-0.7418727278709412,-0.21112066507339478,-0.28243863582611084
1.3931066826084602,-1.1374820566190176,2.5599584381949305,0.24140462279319763,0.4010790288448334,1.1570042371749878,-0.1604193150997162,-0.9842547178268433,-0.07421614974737167,-0.7607843279838562,-0.2019023299217224,-0.3553493022918701
1.3827955244752306,-1.176471306952763,2.6042810147632696,0.3987620174884796,0.5107437372207642,1.3681575059890747,-0.1725514829158783,-0.9823798537254333,-0.07180207967758179,-0.7973582148551941,-0.17602145671844482,-0.385778546333313
1.3707937810431865,-1.2204708185000144,2.6548749699599665,0.5434479117393494,0.6143380999565125,1.5643835067749023,-0.1866050809621811,-0.9800660610198975,-0.06818501651287079,-0.85494464635849,-0.15405869483947754,-0.3978642225265503
1.3570362104584313,-1.2663972220960964,2.7083946714353235,0.6463080048561096,0.6513227224349976,1.725107192993164,-0.2023831158876419,-0.9772401452064514,-0.06358126550912857,-0.9058628082275391,-0.11916476488113403,-0.4223043918609619
1.341704716774279,-1.310721951045413,2.7602722429915727,0.6738763451576233,0.6003204584121704,1.8318058252334595,-0.21945610642433167,-0.9738730788230896,-0.058397527784109116,-0.9397083520889282,-0.06964492797851562,-0.43450725078582764
1.3252857292040334,-1.3496776370838397,2.806273374841961,0.6352304220199585,0.5544469356536865,1.8462574481964111,-0.23713375627994537,-0.9700133204460144,-0.053306326270103455,-1.0069000720977783,-0.01613152027130127,-0.4216082692146301
1.3088039987269169,-1.3808049724527827,2.844050757134305,0.5377042889595032,0.5189477205276489,1.7335901260375977,-0.25434431433677673,-0.9658758640289307,-0.048913177102804184,-1.0678602457046509,0.06635516881942749,-0.3875035047531128
1.2937924776579401,-1.4028949506282362,2.871565332274104,0.35900455713272095,0.3514689803123474,1.4517743587493896,-0.26962926983833313,-0.9618791341781616,-0.04570138826966286,-1.1048214435577393,0.16433274745941162,-0.3570696711540222
1.2817290942040713,-1.4162269997427288,2.887714432250179,0.14028458297252655,0.06622350215911865,1.0535821914672852,-0.28165945410728455,-0.958510160446167,-0.0438859723508358,-1.1507747173309326,0.26789748668670654,-0.3141005039215088
1.2736058748530834,-1.4231055085006168,2.8935520392232172,-0.0474134162068367,-0.3269980847835541,0.5860645771026611,-0.2896464467048645,-0.9561629891395569,-0.04309189319610596,-1.1589313745498657,0.398973286151886,-0.2780446410179138
1.2703900562995447,-1.4269930263117583,2.892130853616663,-0.10124565660953522,-0.7177138924598694,0.016884448006749153,-0.2928535044193268,-0.9552163481712341,-0.04240601509809494,-1.1275718212127686,0.550843358039856,-0.25051701068878174
1.2736899961965302,-1.4333961876447685,2.889538165118927,0.07297780364751816,-1.0317659378051758,-0.7147673964500427,-0.28999537229537964,-0.9561876058578491,-0.04009805619716644,-1.0802438259124756,0.7079577445983887,-0.23846650123596191
1.2856843938811362,-1.4469245920911034,2.8925844576533843,0.42589759826660156,-1.0288809537887573,-1.6637978553771973,-0.2791096270084381,-0.9596301913261414,-0.03475172072649002,-1.0274699926376343,0.8710224628448486,-0.24349236488342285
1.3086079732738427,-1.4691534307977019,2.9068058725324506,0.8525498509407043,-0.6363567113876343,-2.8146119117736816,-0.25785693526268005,-0.965825080871582,-0.026299959048628807,-0.9776319861412048,1.030781865119934,-0.21852731704711914
1.3440469071553278,-1.5034390295633395,2.938411008126385,1.248011827468872,-0.07579179853200912,-4.111631870269775,-0.224300816655159,-0.9744023084640503,-0.015131186693906784,-0.8440127968788147,1.1733770370483398,-0.08620250225067139
1.3924629132352455,-1.5608695625694562,2.9994989036019857,1.556810975074768,0.5754967927932739,-5.4290266036987305,-0.17737990617752075,-0.9841406941413879,-0.0017608663765713573,-0.6031224131584167,1.2946877479553223,0.11830747127532959
1.4521810028294424,-1.6848160598104804,3.134129886120937,1.7781347036361694,1.2554196119308472,-6.615053176879883,-0.11756845563650131,-0.9929734468460083,0.01346351858228445,-0.21479853987693787,1.4318621158599854,0.3695930242538452
1.5143576046368625,-2.1483087284317244,-2.668603273889794,1.9317599534988403,1.8062899112701416,-7.47059440612793,-0.04725988209247589,-0.998407781124115,0.030795428901910782,0.3998599052429199,1.5357308387756348,0.6354643106460571
1.5130054409323184,2.617971623064976,-1.129125383743703,1.9122737646102905,2.374645709991455,-7.822721481323242,0.028880959376692772,-0.9983305931091309,0.050020717084407806,1.1376382112503052,1.4985899925231934,0.8590673208236694
1.4442918707410497,2.1636559578840022,-0.6468990549102539,1.8542935848236084,2.82034969329834,-7.5882978439331055,0.10463535785675049,-0.9920089840888977,0.07049339264631271,1.820993185043335,1.380772590637207,0.9467031955718994
1.3720695502202533,2.0682088205821976,-0.5208129806114353,2.1840600967407227,2.927316427230835,-6.731970310211182,0.17349761724472046,-0.9803187251091003,0.09420008957386017,2.4079079627990723,1.1784846782684326,0.8847885131835938
1.3066801343611503,2.0692751902278763,-0.49262099446195323,2.935638427734375,2.73701810836792,-5.26186466217041,0.22928830981254578,-0.9653236269950867,0.12480828166007996,2.948507070541382,0.8296120166778564,0.6502466201782227
1.2526153338601393,2.1185453494134086,-0.517263736121238,3.6160850524902344,2.3871896266937256,-3.3365557193756104,0.26707008481025696,-0.9498060345649719,0.16291606426239014,3.443027973175049,0.32587432861328125,0.2523212432861328
1.2127189006639922,2.192926800072338,-0.5719503404690308,3.6910829544067383,2.1903269290924072,-1.3048945665359497,0.28480860590934753,-0.9365723729133606,0.20424485206604004,3.658215045928955,-0.19915443658828735,0.017892464995384216
1.1888908593071108,2.275262855873881,-0.6380367338155388,2.8750064373016357,1.8735299110412598,0.44746214151382446,0.2839730978012085,-0.9279561638832092,0.24136367440223694,3.5530781745910645,-0.5665658712387085,0.0436551570892334
1.1826188196970142,2.348344535842395,-0.7016219923418858,1.4189999103546143,0.8668999671936035,1.787723183631897,0.2697339653968811,-0.9256004095077515,0.26553207635879517,3.212092876434326,-0.6463294625282288,0.241959810256958
1.1941333380514862,2.3990541779783623,-0.7551666711832236,-0.30736687779426575,-0.7202358245849609,2.5989491939544678,0.24870452284812927,-0.9298972487449646,0.2709922194480896,2.7954390048980713,-0.5250738859176636,0.48282238841056824
1.2207309205249202,2.4169463026057474,-0.7924890117183147,-1.8148601055145264,-2.6721627712249756,2.8527119159698486,0.22733762860298157,-0.9393503069877625,0.25678521394729614,2.416613817214966,-0.22806918621063232,0.5811206102371216
1.2568136516092727,2.3953638048107004,-0.807528953001395,-2.7958812713623047,-4.401863098144531,2.6479012966156006,0.20966985821723938,-0.9511110782623291,0.22677379846572876,1.926453709602356,0.1599886417388916,0.556658148765564
1.2952654493933575,2.331832109404092,-0.7934873845088375,-3.171025276184082,-5.480386734008789,2.1278204917907715,0.1970030516386032,-0.9622809290885925,0.18763060867786407,1.3994019031524658,0.5109106302261353,0.43909361958503723
1.3295950280342685,2.2297079211108652,-0.7467476027984533,-3.051405668258667,-5.769351482391357,1.5080287456512451,0.1888640969991684,-0.9710516929626465,0.14624924957752228,0.9775482416152954,0.7218909859657288,0.29041147232055664
1.355868068836857,2.100153710958527,-0.6718873332323204,-2.6556880474090576,-5.471301078796387,0.9541674852371216,0.18408618867397308,-0.9769917130470276,0.10770038515329361,0.7072407007217407,0.7766743898391724,0.19070041179656982
1.373827137639356,1.9594784845643727,-0.582231106841032,-2.2433876991271973,-5.094057559967041,0.6898283958435059,0.1811009794473648,-0.9806641936302185,0.07416360825300217,0.5830591320991516,0.7687195539474487,0.16977858543395996
1.3868579112411337,1.8203556844161826,-0.4917154164292997,-1.818502426147461,-4.948206424713135,0.708722710609436,0.17723633348941803,-0.9831309914588928,0.04517268389463425,0.6068364381790161,0.7272412180900574,0.19799137115478516
1.3964423532293704,1.6884265602676423,-0.40803295178141574,-1.4668906927108765,-4.948146820068359,0.5952946543693542,0.17227256298065186,-0.9848387837409973,0.02035844698548317,0.7050924897193909,0.6794800162315369,0.24714326858520508
1.402198981677831,1.559215822245006,-0.32808477971445144,-1.3554743528366089,-5.13291597366333,0.4361526370048523,0.1677880734205246,-0.9858211278915405,-0.0019431572873145342,0.6379522085189819,0.6337398886680603,0.22588109970092773
1.4052980157939,1.420422156669144,-0.24134489667765957,-1.4773367643356323,-5.492570877075195,0.42543068528175354,0.1628849357366562,-0.9863364100456238,-0.024679994210600853,0.45898693799972534,0.6132436990737915,0.264303982257843
1.4056821215270294,1.263899720913398,-0.1405582711656599,-1.7419105768203735,-5.892473220825195,0.37529855966567993,0.15668463706970215,-0.9863995909690857,-0.04965478181838989,0.3353044390678406,0.5778761506080627,0.3583858013153076
1.4008210390256994,1.0911951298080447,-0.027307131142989903,-2.1149027347564697,-6.267493724822998,0.15748828649520874,0.15007294714450836,-0.9855889678001404,-0.0780535489320755,0.21468833088874817,0.5284204483032227,0.4157152771949768
1.3883673497550006,0.9157623030422684,0.08563429993795599,-2.5449674129486084,-6.505578517913818,-0.12422383576631546,0.14386987686157227,-0.9834059476852417,-0.1105177029967308,0.05730193853378296,0.443839967250824,0.49027836322784424
1.3679927573320945,0.7548143527687984,0.18298964921200989,-2.9156720638275146,-6.499161720275879,-0.3830024003982544,0.1380006968975067,-0.979505717754364,-0.14671097695827484,-0.15063504874706268,0.35561972856521606,0.5514503121376038
1.3412773398833837,0.6208108317464972,0.25427413130383497,-3.1079747676849365,-6.297037124633789,-0.6390520334243774,0.13234087824821472,-0.9737759232521057,-0.18505750596523285,-0.337403804063797,0.270940899848938,0.5540608167648315
1.3105924750338611,0.5178316460729855,0.2971838906779797,-3.1557705402374268,-5.91544771194458,-0.9093050956726074,0.12735164165496826,-0.9663375616073608,-0.22354699671268463,-0.46687501668930054,0.15170139074325562,0.5160884857177734
1.2776397996967912,0.4417046559797888,0.316877486314639,-3.17297101020813,-5.4727864265441895,-1.1653403043746948,0.12353157997131348,-0.9573364853858948,-0.2612408697605133,-0.5483362674713135,0.007660031318664551,0.4540966749191284
1.2430223162081941,0.38537139502395823,0.3207035252919498,-3.2484211921691895,-5.029570579528809,-1.3895188570022583,0.12101684510707855,-0.9467613101005554,-0.29832494258880615,-0.5736993551254272,-0.1334540843963623,0.41981542110443115
1.2066858628851034,0.3435255003336569,0.3137681557011693,-3.3601815700531006,-4.618577003479004,-1.6170910596847534,0.11994361877441406,-0.9344409108161926,-0.33531105518341064,-0.5842381119728088,-0.22914844751358032,0.45986858010292053
1.1690854758574594,0.31168465361223285,0.30077022059351805,-3.406331777572632,-4.131991386413574,-1.6771823167800903,0.11990305036306381,-0.9203934073448181,-0.37215471267700195,-0.5402522087097168,-0.2826399803161621,0.49918413162231445
1.1319188941740095,0.2849754387967795,0.28749631182339946,-3.349073886871338,-3.5969982147216797,-1.5077027082443237,0.1194603443145752,-0.9052292108535767,-0.4077855348587036,-0.44393855333328247,-0.337812602519989,0.4605047106742859
1.096476213857957,0.26071784296771167,0.27743456509813014,-3.1995232105255127,-3.055431604385376,-1.2362831830978394,0.11773411929607391,-0.8896034359931946,-0.44129830598831177,-0.34956094622612,-0.38882356882095337,0.40641674399375916
1.0639248815086895,0.23771019042766237,0.27118525027969687,-2.923189640045166,-2.635131597518921,-0.9327564239501953,0.11431137472391129,-0.8742675185203552,-0.4717935025691986,-0.2572099566459656,-0.4355620741844177,0.3507760465145111
1.0353032135075793,0.21610096816609758,0.26814621346538636,-2.5712740421295166,-2.1773455142974854,-0.6478009819984436,0.10941252112388611,-0.8600171208381653,-0.49839675426483154,-0.205954909324646,-0.45770132541656494,0.28555190563201904
1.010438725837795,0.19716982321773174,0.2672129644462707,-2.2649781703948975,-1.8059128522872925,-0.47413328289985657,0.10411594063043594,-0.8470650911331177,-0.5211914777755737,-0.17239904403686523,-0.49079495668411255,0.22764289379119873
0.9886651395312782,0.17978361517970526,0.2670309853837277,-1.9977166652679443,-1.6933549642562866,-0.35714802145957947,0.09831434488296509,-0.8352928161621094,-0.5409436821937561,-0.17128190398216248,-0.5135230422019958,0.1843610405921936
0.9694693770663008,0.16328160705376635,0.2674076633271205,-1.7827337980270386,-1.5298491716384888,-0.25995808839797974,0.09196453541517258,-0.8245856165885925,-0.5582122802734375,-0.17291243374347687,-0.5101616382598877,0.1849822998046875
0.9522168466335514,0.14809139631826226,0.26801871146409895,-1.6305769681930542,-1.4006441831588745,-0.20378871262073517,0.08556144684553146,-0.8147029876708984,-0.5735312700271606,-0.16977474093437195,-0.5123995542526245,0.15666121244430542
0.9363291711227353,0.13429659346437647,0.2686528482320834,-1.5199426412582397,-1.237146019935608,-0.16878731548786163,0.07936501502990723,-0.8053876757621765,-0.587411105632782,-0.17084148526191711,-0.516526997089386,0.15038418769836426
0.9215275837960242,0.12242383271862983,0.26919547156409984,-1.4131886959075928,-1.0436618328094482,-0.14126336574554443,0.07383319735527039,-0.7965261340141296,-0.6000789403915405,-0.18366599082946777,-0.5027139186859131,0.1717495322227478
0.9076114100457792,0.11234231675077766,0.2699268087571275,-1.3626989126205444,-0.8572942614555359,-0.08967553824186325,0.06901588290929794,-0.78803551197052,-0.6117489337921143,-0.17521709203720093,-0.4834182858467102,0.14403659105300903
0.8939013009152671,0.10312825671420824,0.27123727044800927,-1.375632643699646,-0.7973706722259521,-0.04594119265675545,0.06448258459568024,-0.7795213460922241,-0.6230477094650269,-0.13816729187965393,-0.4683576226234436,0.12152183055877686
0.8801364964388262,0.09347250885241187,0.2730251893129781,-1.3752390146255493,-0.8527798652648926,0.0008835713379085064,0.05945960804820061,-0.7708258628845215,-0.6342650055885315,-0.1298941969871521,-0.4610161781311035,0.12083721160888672
0.8665020131726746,0.08315533188539508,0.2750801968066105,-1.3510795831680298,-0.8887196779251099,0.015181995928287506,0.053780730813741684,-0.7620686888694763,-0.6452588438987732,-0.14553184807300568,-0.4536142349243164,0.0926312804222107
0.8533590582971499,0.07280201682832699,0.2765493358560542,-1.2660845518112183,-0.9583626389503479,-0.03770731762051582,0.04782184213399887,-0.753493070602417,-0.6557142734527588,-0.15655598044395447,-0.429673433303833,0.043196022510528564
0.8413498355137016,0.06279046426598378,0.276541576584622,-1.1136289834976196,-1.0408226251602173,-0.127053901553154,0.04181965813040733,-0.7455434203147888,-0.6651437282562256,-0.19730672240257263,-0.4066477417945862,-0.005312204360961914
0.8311442455895909,0.05313336647454354,0.2750147363286825,-0.9052906632423401,-1.1002625226974487,-0.18911807239055634,0.03579667955636978,-0.7387031316757202,-0.6730796694755554,-0.23271137475967407,-0.3795371651649475,-0.058228254318237305
0.8230019876355045,0.04386854754958001,0.27260392505892894,-0.7048099040985107,-1.088634729385376,-0.2084975242614746,0.029822062700986862,-0.7331905364990234,-0.6793689727783203,-0.22542448341846466,-0.3513736128807068,-0.09045219421386719
0.8167196719247078,0.03506690698763795,0.27005948722431555,-0.5354611277580261,-1.0374170541763306,-0.18190640211105347,0.0240024421364069,-0.7289040088653564,-0.6841949820518494,-0.17657509446144104,-0.33063578605651855,-0.09194326400756836
0.8120905561220358,0.02636996730122879,0.2680984556280682,-0.3774537444114685,-0.9793092608451843,-0.1138346791267395,0.018139978870749474,-0.7257270216941833,-0.6877435445785522,-0.13160434365272522,-0.3186149597167969,-0.07302910089492798
0.8090657054813073,0.017461691205139133,0.2671996730009819,-0.222499281167984,-0.9292833805084229,-0.019801126793026924,0.012051005847752094,-0.7236426472663879,-0.6900695562362671,-0.10894432663917542,-0.3113609552383423,-0.05857241153717041
0.807637624851115,0.00785205240090501,0.2677616666752812,-0.06397116929292679,-0.9091871380805969,0.09439495205879211,0.0054273419082164764,-0.7226563096046448,-0.691186249256134,-0.08735178411006927,-0.2860717177391052,-0.05170315504074097
0.8077783668149298,-0.002636460511114079,0.2698500635843119,0.08095619082450867,-0.8648681640625,0.1887507438659668,-0.001822071149945259,-0.7227535843849182,-0.691103458404541,-0.05965559929609299,-0.2582034468650818,-0.047696590423583984
0.8089768200712445,-0.01336477704945334,0.2731546654158167,0.1548665463924408,-0.830635666847229,0.26447877287864685,-0.009224616922438145,-0.7235813140869141,-0.6901774406433105,-0.04877404868602753,-0.22517967224121094,-0.06157726049423218
0.8105055774320473,-0.02461808534643393,0.27730392334338755,0.16085678339004517,-0.8250914812088013,0.2999646067619324,-0.016963399946689606,-0.724635660648346,-0.6889233589172363,-0.05003795027732849,-0.17509877681732178,-0.03618955612182617
0.8119743475241328,-0.03657407377901506,0.2819909963602481,0.1497352570295334,-0.8800415396690369,0.331809401512146,-0.0251598060131073,-0.7256470918655396,-0.687606930732727,-0.0693836584687233,-0.13560473918914795,0.00817883014678955
0.8132387581905537,-0.04945953610282443,0.286968851584401,0.12462136894464493,-0.9726998209953308,0.33725184202194214,-0.03397221490740776,-0.7265164852142334,-0.6863086819648743,-0.06702571362257004,-0.10112017393112183,0.004423916339874268
0.8139906454234961,-0.06332924580390958,0.2919007826166768,0.05887559801340103,-1.0768942832946777,0.3279905915260315,-0.04345296695828438,-0.7270329594612122,-0.6852262616157532,-0.04692484438419342,-0.05243176221847534,-0.004654109477996826
0.8139967702525309,-0.0777239950700297,0.296567326097598,-0.016311567276716232,-1.0863181352615356,0.3042397201061249,-0.053311433643102646,-0.7270371317863464,-0.6845252513885498,-0.039370451122522354,-0.012846231460571289,-0.0030357837677001953
0.8132259974569219,-0.09120228285472232,0.30070226557490604,-0.09162082523107529,-0.9943796396255493,0.27446356415748596,-0.0625835582613945,-0.7265077233314514,-0.6843023896217346,-0.057335264980793,0.004583895206451416,0.010642170906066895
0.8116228355259357,-0.10321070927055256,0.3043411729624303,-0.17953069508075714,-0.870836079120636,0.253425657749176,-0.07091614603996277,-0.7254051566123962,-0.6846591234207153,-0.057486556470394135,0.01567322015762329,0.027798831462860107
0.8089755927121901,-0.11369583328637582,0.3075075105223638,-0.30052900314331055,-0.773571252822876,0.23826655745506287,-0.07830845564603806,-0.7235804796218872,-0.6857835650444031,-0.049041397869586945,0.03482925891876221,0.05019402503967285
0.8050744382603832,-0.12330556947333199,0.3102913983315513,-0.4234219193458557,-0.7492182850837708,0.23638929426670074,-0.08524147421121597,-0.72088223695755,-0.6877955198287964,-0.037103503942489624,0.042720675468444824,0.06403154134750366
0.8000391319269404,-0.1328697622104209,0.3127622186541622,-0.5238897800445557,-0.8191350698471069,0.23027557134628296,-0.09229540079832077,-0.7173833250999451,-0.6905379891395569,-0.02412915974855423,0.051840782165527344,0.06170809268951416
0.7941363701826409,-0.14340590572440412,0.314866892014941,-0.5979645252227783,-0.9670686721801758,0.21443268656730652,-0.10016917437314987,-0.7132585644721985,-0.6937061548233032,-0.006001472473144531,0.07483088970184326,0.0439106822013855
0.7876591893843279,-0.1544428844231916,0.31631850765140823,-0.6483909487724304,-1.0279536247253418,0.18044063448905945,-0.1085277646780014,-0.7087037563323975,-0.6971088647842407,-0.01044502854347229,0.09407973289489746,0.021953165531158447
0.7808198672849317,-0.1657717303480368,0.31728019828753046,-0.6715518832206726,-1.0899653434753418,0.17400005459785461,-0.11721517145633698,-0.7038620114326477,-0.700598955154419,-0.001818642020225525,0.0947464108467102,0.006064653396606445
0.7739501957180593,-0.17749418170604883,0.31828246307868097,-0.6491052508354187,-1.1028380393981934,0.20058052241802216,-0.12627042829990387,-0.6989656686782837,-0.7039194703102112,0.00459684431552887,0.09239834547042847,-0.005232691764831543
0.7674880416115523,-0.18946982050054348,0.3197464453951589,-0.5714597702026367,-1.0677261352539062,0.23970608413219452,-0.13553893566131592,-0.6943296790122986,-0.7067782282829285,0.028223872184753418,0.09325546026229858,-0.020562469959259033
0.7618462502682773,-0.20100503437558215,0.3218518098342136,-0.4674096703529358,-0.9285271167755127,0.27059245109558105,-0.14446237683296204,-0.6902585029602051,-0.7089948654174805,0.043632298707962036,0.10152870416641235,-0.03162097930908203
0.7573243195437417,-0.21126164887069515,0.3244818635563319,-0.33450061082839966,-0.761522114276886,0.28020432591438293,-0.15237949788570404,-0.6869795322418213,-0.7105205655097961,0.03807593882083893,0.09846335649490356,-0.028676092624664307
0.7541016747700097,-0.22012197560659955,0.32723989614693944,-0.2094305157661438,-0.6298093199729919,0.24009934067726135,-0.15915144979953766,-0.6846341490745544,-0.7112993597984314,0.017717748880386353,0.08259868621826172,-0.023212969303131104
0.752003232021697,-0.22749482160096432,0.32939706067716573,-0.13614991307258606,-0.5578901171684265,0.15597301721572876,-0.16471503674983978,-0.6831031441688538,-0.7115046977996826,-0.01626943051815033,0.08003008365631104,-0.016019046306610107
0.7504824365848017,-0.2340041924236775,0.33050690764521873,-0.12841570377349854,-0.6136147379875183,0.07570391893386841,-0.16958364844322205,-0.681991696357727,-0.7114271521568298,-0.04829658567905426,0.08261120319366455,0.01185750961303711
0.7489927922943036,-0.24072827401651611,0.33067943008220835,-0.15489977598190308,-0.7099615335464478,0.01982441172003746,-0.17460551857948303,-0.6809014678001404,-0.711256742477417,-0.06636127829551697,0.07009214162826538,0.04034304618835449
0.7473341382340032,-0.24825882965712617,0.3302752925472782,-0.18041037023067474,-0.8502107262611389,0.007746711373329163,-0.1802339106798172,-0.6796857714653015,-0.7110154628753662,-0.042986899614334106,0.06370371580123901,0.05429244041442871
0.7454322229431721,-0.2569255716620195,0.3295860441648061,-0.2128700464963913,-0.9547345042228699,-0.009164627641439438,-0.18671739101409912,-0.6782894730567932,-0.7106756567955017,-0.005558580160140991,0.07788670063018799,0.056363582611083984
0.7432674097400948,-0.2658177447503915,0.32851183867265793,-0.2417670488357544,-0.9537889361381531,-0.029477011412382126,-0.19341467320919037,-0.6766971945762634,-0.7104024291038513,-0.013341903686523438,0.07275432348251343,0.050810813903808594
0.7409073809130821,-0.27434588046097586,0.32717625603539896,-0.2622896432876587,-0.9264550805091858,-0.03243924677371979,-0.1998981088399887,-0.6749576926231384,-0.7102625370025635,-0.030631661415100098,0.03462260961532593,0.04313302040100098
0.7384278043110609,-0.2826213784501818,0.3258168486497201,-0.2636648118495941,-0.8976172208786011,-0.022483883425593376,-0.20623505115509033,-0.6731260418891907,-0.7101889848709106,-0.02705654501914978,0.02162158489227295,0.04357832670211792
0.7359605863929721,-0.29049126768415895,0.32465999198260426,-0.26072707772254944,-0.8254706263542175,-0.0009732658509165049,-0.21229276061058044,-0.6712994575500488,-0.7101330161094666,-0.017199426889419556,0.020603656768798828,0.04149287939071655
0.7334189414417365,-0.2975946714154831,0.32368534559598156,-0.26571619510650635,-0.7105334401130676,0.00800541415810585,-0.2178313136100769,-0.6694134473800659,-0.7102360129356384,0.001110762357711792,0.021815180778503418,0.03837627172470093
0.7308718928564771,-0.30355050341310236,0.3228044316646222,-0.25956907868385315,-0.6013457179069519,0.017855115234851837,-0.2225663959980011,-0.6675190925598145,-0.7105507850646973,0.016298100352287292,0.02051597833633423,0.04157501459121704
0.7283457444521476,-0.3087164250584155,0.3219328184388655,-0.2618052661418915,-0.5505397319793701,0.00854662898927927,-0.22674569487571716,-0.6656360030174255,-0.7109958529472351,0.018371686339378357,0.016237258911132812,0.03185772895812988
0.7256994714157539,-0.3131715698097616,0.32066789099621007,-0.3012365400791168,-0.5056609511375427,-0.026656098663806915,-0.23045285046100616,-0.663658857345581,-0.7116518616676331,0.0032800137996673584,0.014672040939331055,0.021298468112945557
0.7226904693290241,-0.3170597478460214,0.31888028489955167,-0.3524523377418518,-0.5170904994010925,-0.03586902469396591,-0.23383969068527222,-0.6614049673080444,-0.7126446962356567,-0.0009167492389678955,0.006802976131439209,0.013624310493469238
0.7192015946093822,-0.32124363549018925,0.316880335361295,-0.3982400596141815,-0.5820913314819336,-0.027725346386432648,-0.2375463992357254,-0.6587842106819153,-0.7138451933860779,0.012586086988449097,-0.0006853938102722168,0.009881019592285156
0.7152990474886529,-0.32605097273527384,0.3148772903326639,-0.43180933594703674,-0.6296908855438232,-0.006682828068733215,-0.24179700016975403,-0.655843198299408,-0.7151250839233398,0.022985979914665222,-0.007364809513092041,0.010458946228027344
0.7110737694530844,-0.3310514230009826,0.3131040997234443,-0.4494301378726959,-0.5917400121688843,0.027018144726753235,-0.2462684065103531,-0.6526476740837097,-0.7165212631225586,0.030722782015800476,-0.013261020183563232,0.004866659641265869
0.7066581322201809,-0.3359088695707766,0.3118575406424316,-0.4396684467792511,-0.5457168817520142,0.08138853311538696,-0.2506934702396393,-0.6492958068847656,-0.7180303931236267,0.04512706398963928,-0.016368865966796875,-0.008104801177978516
0.7022940135632109,-0.34095337694736794,0.31132456239976175,-0.4065757393836975,-0.5320399403572083,0.1317124217748642,-0.2552574872970581,-0.6459705233573914,-0.7194203734397888,0.05497065186500549,-0.025522947311401367,-0.026169776916503906
0.6981432358113732,-0.3464886658445975,0.31150121240927237,-0.3626830577850342,-0.5539628267288208,0.1701722890138626,-0.26014405488967896,-0.6427964568138123,-0.7205121517181396,0.05610355734825134,-0.032267630100250244,-0.03786492347717285
0.6943223156837727,-0.35279502601218926,0.3122969915646772,-0.31279510259628296,-0.6042912006378174,0.20228388905525208,-0.2655293643474579,-0.6398648023605347,-0.7211568355560303,0.05237936973571777,-0.029523015022277832,-0.04365944862365723
0.6908666536213461,-0.35984999421557884,0.3135904760848904,-0.2671407461166382,-0.6327499151229858,0.22090613842010498,-0.2713874578475952,-0.6372053623199463,-0.7213308215141296,0.0450080931186676,-0.02896285057067871,-0.05073338747024536
0.687685466396314,-0.36726795485951597,0.3151276751894693,-0.24418215453624725,-0.6522498726844788,0.22627773880958557,-0.27745720744132996,-0.6347504258155823,-0.7211861610412598,0.032202720642089844,-0.026687562465667725,-0.050054073333740234
0.6845080576398097,-0.3750478314113206,0.31668997958230716,-0.25875502824783325,-0.700993537902832,0.2308075726032257,-0.28379687666893005,-0.6322919726371765,-0.7208787798881531,0.015303254127502441,-0.030076801776885986,-0.03623175621032715
0.6811134016408519,-0.38324357195259934,0.3181981163847231,-0.28483057022094727,-0.7407816648483276,0.23814192414283752,-0.2904963493347168,-0.6296584010124207,-0.720515251159668,0.013457804918289185,-0.032725632190704346,-0.011967658996582031
0.6774066610465016,-0.3916798985143239,0.3195853578162493,-0.3161810636520386,-0.7714149951934814,0.2389223277568817,-0.2974533438682556,-0.6267744302749634,-0.7201911211013794,0.021513432264328003,-0.02929246425628662,0.0035926103591918945
0.6734722695824942,-0.40019784916477114,0.3205813906300101,-0.3473520278930664,-0.799705982208252,0.20381467044353485,-0.304535448551178,-0.6237038969993591,-0.7198969721794128,0.018799394369125366,-0.02761751413345337,0.009768187999725342
0.6694538467730627,-0.4084281737267036,0.3209207849832629,-0.3667106330394745,-0.7969600558280945,0.15947383642196655,-0.3114429712295532,-0.6205577850341797,-0.7196605205535889,-0.007847130298614502,-0.03512758016586304,0.017329037189483643
0.6655627393739985,-0.4161749463175894,0.3206603960665538,-0.3569831848144531,-0.7759170532226562,0.11344641447067261,-0.31798237562179565,-0.6175018548965454,-0.7194293737411499,-0.018656998872756958,-0.031988441944122314,0.016716420650482178
0.6621344585456012,-0.42336355735642184,0.31993423424046247,-0.31188541650772095,-0.7463487386703491,0.06118623539805412,-0.3240136206150055,-0.6148016452789307,-0.7190508246421814,-0.01961427927017212,-0.02065056562423706,0.008510053157806396
0.6592854552237238,-0.42980089293054663,0.3187336288101006,-0.29990464448928833,-0.6622987985610962,0.0013687112368643284,-0.32936418056488037,-0.6125522255897522,-0.7185394763946533,-0.03866252303123474,-0.029568135738372803,-0.00655817985534668
0.6562866384409705,-0.43406508926364323,0.31658992036488004,-0.3936591148376465,-0.36873263120651245,-0.07145649194717407,-0.3331961929798126,-0.6101791262626648,-0.7187918424606323,-0.04996722936630249,-0.037174999713897705,0.004787325859069824
0.6527436521133412,-0.43374374274897903,0.31281342562861675,-0.4984795153141022,-0.11531900614500046,-0.1678709089756012,-0.3338716924190521,-0.6073682904243469,-0.7208560109138489,-0.09772312641143799,-0.0410691499710083,0.12406957149505615
0.6485989314791015,-0.4320434118673986,0.3078329766158896,-0.5826789140701294,-0.13197964429855347,-0.1946403831243515,-0.33369672298431396,-0.6040704250335693,-0.7237024903297424,-0.07168349623680115,-0.03388422727584839,0.05924332141876221
0.6438955179119596,-0.4304162600514602,0.30263715622695336,-0.6069485545158386,-0.19069062173366547,-0.15593373775482178,-0.3337005376815796,-0.6003154516220093,-0.7268186211585999,-0.027841180562973022,-0.028102517127990723,0.07877784967422485
0.6389831992987978,-0.4302159967022158,0.29815326920452123,-0.5783081650733948,-0.2990768849849701,-0.08259125053882599,-0.33478087186813354,-0.5963795781135559,-0.7295568585395813,0.009356677532196045,-0.024912595748901367,0.009952366352081299
0.6341690516403928,-0.43179777935654484,0.29481617021465395,-0.5139043927192688,-0.4112500250339508,0.0003473046235740185,-0.337132066488266,-0.5925083160400391,-0.7316254377365112,0.042790114879608154,-0.03377336263656616,-0.033358633518218994
0.6296446851249243,-0.435301091382714,0.29283868918378475,-0.43709003925323486,-0.5148030519485474,0.0836239829659462,-0.3408200442790985,-0.5888575911521912,-0.7328631281852722,0.0565488338470459,-0.03420454263687134,-0.07302981615066528
0.6255867864233484,-0.43987497171575024,0.29191330520595615,-0.36677780747413635,-0.47558289766311646,0.11770764738321304,-0.34518319368362427,-0.5855730175971985,-0.7334526181221008,0.053892940282821655,-0.03329288959503174,-0.08859938383102417
0.6218837294676012,-0.4430864673744023,0.2912129424125925,-0.3588309586048126,-0.2185201495885849,0.08507364988327026,-0.3484641909599304,-0.5825672745704651,-0.7342942953109741,0.02879256010055542,-0.029279649257659912,-0.06378614902496338
0.6182378359427891,-0.4425293643019151,0.28964586543597387,-0.4119482636451721,0.15430694818496704,-0.008023004978895187,-0.34896227717399597,-0.5796000957489014,-0.7364028096199036,-0.015142887830734253,-0.019398927688598633,0.00289762020111084
0.6143819876029514,-0.43733103967040743,0.2864845871388809,-0.5035169720649719,0.5095288753509521,-0.12822043895721436,-0.3460734486579895,-0.5764536261558533,-0.7402258515357971,-0.071300208568573,-0.01722007989883423,0.0844031572341919
0.6100844095345791,-0.42795916117294186,0.2814665516658056,-0.6208377480506897,0.7673220634460449,-0.2527775466442108,-0.3401460647583008,-0.5729366540908813,-0.7456837892532349,-0.10545632243156433,-0.018860220909118652,0.13395893573760986
0.6050408771917932,-0.4155997638453147,0.2745996808825015,-0.7605486512184143,0.8996216058731079,-0.3575175702571869,-0.3320665657520294,-0.5687956809997559,-0.7524648308753967,-0.1110638976097107,-0.01468515396118164,0.14205223321914673
0.5988437303410296,-0.40153394247722446,0.26622436214853706,-0.9250736832618713,0.953487753868103,-0.4067743122577667,-0.3228214681148529,-0.563687801361084,-0.7602909207344055,-0.09327042102813721,-0.012102603912353516,0.1347721815109253
0.5910826327602728,-0.3866251387974038,0.25697848221794767,-1.086503505706787,0.987858772277832,-0.40416255593299866,-0.3130911588668823,-0.557260274887085,-0.7690479755401611,-0.0604744553565979,-0.017156779766082764,0.1309712529182434
0.5817198157562455,-0.37115605227185433,0.24748511201174248,-1.2265490293502808,1.0522977113723755,-0.3667624592781067,-0.3030368685722351,-0.5494616627693176,-0.778627336025238,-0.026415616273880005,-0.028968513011932373,0.12704652547836304
0.5707919383526097,-0.35494659380042537,0.23822312486333658,-1.3596118688583374,1.1823874711990356,-0.3043086528778076,-0.2924458980560303,-0.5402986407279968,-0.7890201210975647,-0.004017084836959839,-0.04711902141571045,0.13400614261627197
0.5582027045391005,-0.3377372667466285,0.22946124847279253,-1.5065816640853882,1.3072277307510376,-0.23195642232894897,-0.2810564339160919,-0.529662549495697,-0.8002904653549194,0.005772650241851807,-0.0776219367980957,0.16259515285491943
0.5436545114036742,-0.3198788431211656,0.22121358701820448,-1.6973696947097778,1.3857327699661255,-0.15541015565395355,-0.2691152095794678,-0.5172670483589172,-0.8124110698699951,0.011684179306030273,-0.09654825925827026,0.2055996060371399
0.5266812578382519,-0.30202594852639547,0.2135023260832276,-1.931654930114746,1.368288278579712,-0.06479477137327194,-0.2571439743041992,-0.5026671290397644,-0.8253500461578369,0.032122641801834106,-0.0852540135383606,0.2551901340484619
0.5068857553931599,-0.2856811252363662,0.20656652980523432,-2.1948318481445312,1.1931605339050293,0.06241288408637047,-0.24637627601623535,-0.4854569435119629,-0.8388267159461975,0.07315853238105774,-0.05209493637084961,0.2932640314102173
0.4840673076562993,-0.2725286941168258,0.20110717140321063,-2.434525489807129,0.8898004293441772,0.2789987027645111,-0.23824281990528107,-0.46538302302360535,-0.8524429798126221,0.12587712705135345,-0.008783847093582153,0.30373692512512207
0.45850497172017535,-0.2633678726091638,0.19794059619030985,-2.6186697483062744,0.6945233345031738,0.523682177066803,-0.23344524204730988,-0.4426079988479614,-0.8657952547073364,0.19468793272972107,0.04269036650657654,0.2769281268119812
0.4307068225899561,-0.25610260682249664,0.19708713853784923,-2.777863025665283,0.6936125755310059,0.7507688403129578,-0.23017741739749908,-0.4175131618976593,-0.879034161567688,0.20841839909553528,0.0639517605304718,0.2068082094192505
0.40092086224900275,-0.2501662041080021,0.1985892964395398,-2.881556987762451,0.45686808228492737,1.0171356201171875,-0.22793357074260712,-0.3902663588523865,-0.8920416831970215,0.195996955037117,0.03345480561256409,0.12904125452041626
0.36954011673551573,-0.24926928851962799,0.20295550432108672,-3.006849765777588,0.20596714317798615,1.2872531414031982,-0.23004233837127686,-0.3611866235733032,-0.9036729335784912,0.16586388647556305,-0.003208547830581665,0.09123396873474121
0.33605278753845474,-0.24632564523747597,0.20890448498891184,-3.178786516189575,0.8473640084266663,1.41854989528656,-0.23020252585411072,-0.329763263463974,-0.9155670404434204,0.1691216081380844,0.03359013795852661,0.1625000238418579
0.30147463589363466,-0.23652082137222552,0.21572259410781972,-3.1797587871551514,1.484435796737671,1.4862431287765503,-0.22375375032424927,-0.29692864418029785,-0.9283143877983093,0.05776865780353546,0.00046566128730773926,0.0435945987701416
0.26763101165121217,-0.22285557694251756,0.22391740601651405,-3.016977071762085,1.6254167556762695,1.5841174125671387,-0.2131473422050476,-0.26444754004478455,-0.9405507445335388,-0.025118619203567505,-0.03357189893722534,-0.1023111343383789
0.2357523631266468,-0.21036945565609116,0.23433035779285394,-2.7475147247314453,1.3634165525436401,1.749249815940857,-0.20304499566555023,-0.23357459902763367,-0.95090252161026,-0.029544711112976074,-0.03105860948562622,-0.12842786312103271
0.2067450020115964,-0.20064171384641138,0.24750059805039423,-2.3687381744384766,1.1539562940597534,1.9426275491714478,-0.19505400955677032,-0.20527531206607819,-0.9590703845024109,-0.011900931596755981,-0.003907456994056702,-0.1257227063179016
0.18203658473203885,-0.19446204347942722,0.2643423302257818,-1.7855585813522339,0.669917106628418,2.2798824310302734,-0.19004586338996887,-0.18103288114070892,-0.9649402499198914,0.003995463252067566,0.03984326124191284,-0.20841485261917114
0.16224483491456845,-0.19107608967594303,0.28527540127143,-1.3676785230636597,0.892886221408844,2.442824125289917,-0.18742138147354126,-0.16153396666049957,-0.968906581401825,0.037961557507514954,0.08025035262107849,-0.3095815181732178
0.14493594194165949,-0.1824374219473303,0.30610437098121573,-1.273281455039978,1.3864175081253052,2.2094099521636963,-0.17952485382556915,-0.1444290429353714,-0.973093569278717,0.09668488800525665,0.12501981854438782,-0.31018584966659546
0.12830286077252145,-0.1699076942354832,0.3239278266993726,-1.4227454662322998,1.6469221115112305,1.8117704391479492,-0.16770152747631073,-0.12795114517211914,-0.9774991869926453,0.01287059485912323,0.16467899084091187,-0.24277663230895996
0.10984457513549284,-0.15275363880551088,0.3367874855237777,-1.806248426437378,2.0531723499298096,1.2932829856872559,-0.15124323964118958,-0.10962381213903427,-0.9823991656303406,-0.07278630137443542,0.1520737111568451,-0.07878857851028442
0.08845549098838337,-0.13228952405800642,0.3445020440669504,-2.18681263923645,2.1256158351898193,0.8401404619216919,-0.13138830661773682,-0.08834018558263779,-0.9873870015144348,-0.10580955445766449,0.1114572137594223,0.04530942440032959
0.06443139582300976,-0.11237323402006226,0.3482360171384801,-2.4566810131073,1.869189977645874,0.4894602596759796,-0.11190419644117355,-0.06438682228326797,-0.9916308522224426,-0.13708871603012085,0.09342426061630249,0.0827258825302124
0.038723516541670895,-0.09603265518676646,0.34907040897313807,-2.612365245819092,1.383230447769165,0.21694955229759216,-0.09581323713064194,-0.038713838905096054,-0.9946461915969849,-0.14551977813243866,0.06260905414819717,0.06480610370635986
0.011945625160960162,-0.08453163343006706,0.3478398824600439,-2.7177231311798096,0.9027599692344666,0.027021966874599457,-0.08442497253417969,-0.011945340782403946,-0.9963582158088684,-0.1336841583251953,0.03985361382365227,0.04596453905105591
-0.015396459754987595,-0.07798717555034995,0.3450312869495694,-2.7513725757598877,0.40314745903015137,-0.14428311586380005,-0.07789891213178635,0.01539585180580616,-0.9968423843383789,-0.09893520176410675,0.04049703851342201,0.019852638244628906
-0.04267553175647501,-0.07629180268041305,0.34055799891285854,-2.7279293537139893,-0.03957189992070198,-0.3280494809150696,-0.07614842057228088,0.04266257956624031,-0.9961833953857422,-0.08733424544334412,0.05259798467159271,-0.013475418090820312
-0.06903250557192539,-0.07919969500610506,0.3343416543314504,-2.5905637741088867,-0.4481971263885498,-0.49403730034828186,-0.07892848551273346,0.06897769123315811,-0.9944910407066345,-0.09279392659664154,0.059913232922554016,-0.03448539972305298
-0.09331246512152828,-0.0845131738596872,0.32690502755957124,-2.3387234210968018,-0.40615618228912354,-0.5703760385513306,-0.08404537290334702,0.09317710995674133,-0.992095947265625,-0.09490970522165298,0.054741524159908295,-0.06335443258285522
-0.11419081979785937,-0.08644956855146585,0.319416790649398,-1.90864098072052,0.2171410173177719,-0.5408966541290283,-0.08577960729598999,0.11394281685352325,-0.9897772073745728,-0.08473736047744751,0.08420775830745697,-0.14050233364105225
-0.12972690258989594,-0.0821476646949118,0.3130010796685024,-1.2610363960266113,0.749508261680603,-0.45871129631996155,-0.08136581629514694,0.12936334311962128,-0.9882533550262451,-0.06400467455387115,0.12213195860385895,-0.2804539203643799
-0.1382293653136479,-0.07425815566450279,0.3080180588128983,-0.512391984462738,0.9037883877754211,-0.39944031834602356,-0.07348226755857468,0.13778959214687347,-0.98773193359375,-0.06720377504825592,0.09657008945941925,-0.3621978759765625
-0.13993193128266554,-0.06812485264795044,0.3034688368743753,0.08224844187498093,0.363638311624527,-0.5021358132362366,-0.0674067959189415,0.1394757181406021,-0.987928569316864,-0.0862797275185585,0.03351311385631561,-0.3792741894721985
-0.13580207714440898,-0.06875332028512207,0.2978814700528867,0.6573008894920349,-0.32081571221351624,-0.6512018442153931,-0.06806665658950806,0.13538505136966705,-0.9884522557258606,-0.07210057973861694,-0.0012145787477493286,-0.4085661768913269
-0.1272537118824773,-0.07656347889734698,0.2913709683296179,0.9021910429000854,-1.0586625337600708,-0.7359196543693542,-0.07587022334337234,0.12691053748130798,-0.9890083074569702,-0.025448143482208252,-0.04227009415626526,-0.3641563653945923
-0.11743638657929294,-0.09007257101743238,0.28500023247302103,0.9256633520126343,-1.4251006841659546,-0.6636664867401123,-0.08933126926422119,0.11716663837432861,-0.989086389541626,0.05481588840484619,-0.03287714719772339,-0.23306632041931152
-0.10795348068712568,-0.10552292556591532,0.2800065160780698,0.8478119373321533,-1.5253773927688599,-0.500804603099823,-0.1047140583395958,0.10774391889572144,-0.9886486530303955,0.1707693636417389,-3.219395875930786e-05,-0.147566556930542
