attitudeX,attitudeY,attitudeZ,gyroX,gyroY,gyroZ,gravityX,gravityY,gravityZ,accX,accY,accZ
0.8087264012378226,-0.45886502085304204,0.35046752552028637,0.599835216999054,0.6354027390480042,-0.20002742111682892,-0.305808424949646,-0.7234084606170654,-0.6190003156661987,0.028434187173843384,-0.05402684211730957,-0.02113640308380127
0.8153909023478176,-0.4517901047276872,0.3518284929062153,0.6705592274665833,0.9684916734695435,-0.21247245371341705,-0.2993099093437195,-0.7279936671257019,-0.6167970895767212,-0.011313170194625854,-0.07286381721496582,-0.024148285388946533
0.8227006289271006,-0.44209834154140365,0.35359235056620114,0.7468358874320984,1.2004921436309814,-0.1976783275604248,-0.2910335659980774,-0.7329856157302856,-0.6148425936698914,0.004977107048034668,-0.09935075044631958,-0.027720212936401367
0.8306895861045217,-0.43153803041545763,0.3562689718333881,0.855535626411438,1.281463384628296,-0.14538626372814178,-0.2820662260055542,-0.7383965849876404,-0.6125431060791016,0.010154664516448975,-0.12734127044677734,-0.04034990072250366
0.83957277904828,-0.4216753156840817,0.36038385262759565,0.9847114682197571,1.2862343788146973,-0.09102849662303925,-0.27331575751304626,-0.7443578839302063,-0.6092863082885742,0.011490225791931152,-0.15900814533233643,-0.08135700225830078
0.8494605976791998,-0.41302322307978767,0.36566408856667143,1.094300389289856,1.2160629034042358,-0.07694391906261444,-0.2650667428970337,-0.750924289226532,-0.6048572659492493,0.007391601800918579,-0.17355990409851074,-0.13453787565231323
0.8602591441371886,-0.40565113326278907,0.3712990368132429,1.165655493736267,1.1017099618911743,-0.11028721928596497,-0.2573854625225067,-0.7580116391181946,-0.5993087887763977,-0.01716586947441101,-0.17748939990997314,-0.15435326099395752
0.8717880607618936,-0.39892968665094913,0.3765890678929426,1.2140758037567139,1.0600007772445679,-0.16146866977214813,-0.2499401867389679,-0.7654806971549988,-0.5929327011108398,-0.06161373853683472,-0.18233418464660645,-0.13431644439697266
0.8838997200369575,-0.3915593229912348,0.38158988544033406,1.2614952325820923,1.1951074600219727,-0.17581351101398468,-0.24200719594955444,-0.7732177376747131,-0.5861456990242004,-0.09750083088874817,-0.18945926427841187,-0.09911119937896729
0.8965496644460648,-0.3822108217543465,0.3866724716172344,1.3133021593093872,1.4746352434158325,-0.18756328523159027,-0.23285016417503357,-0.7811774611473083,-0.5792602300643921,-0.11350905895233154,-0.1999472975730896,-0.059579432010650635
0.9098409185224668,-0.36943490437018983,0.39153780091608026,1.3757575750350952,1.8372453451156616,-0.23380640149116516,-0.22166188061237335,-0.7894061207771301,-0.5724543929100037,-0.15280404686927795,-0.20180481672286987,-0.008951246738433838
0.924345600524622,-0.35239604672238134,0.3954574193688546,1.5126947164535522,2.1813576221466064,-0.3534621596336365,-0.20790208876132965,-0.7982267737388611,-0.5653412342071533,-0.21511729061603546,-0.21007400751113892,0.031039535999298096
0.9412949302389464,-0.33025423154829064,0.39769504458081917,1.7783679962158203,2.5778369903564453,-0.5274589657783508,-0.19091926515102386,-0.8083211779594421,-0.5569261312484741,-0.29633963108062744,-0.22669774293899536,0.03501451015472412
0.9621625902185597,-0.3040668661941639,0.3982904823181872,2.211271286010742,2.726442337036133,-0.7131671905517578,-0.17118272185325623,-0.8204299211502075,-0.5455189943313599,-0.3511561155319214,-0.23480677604675293,0.010835826396942139
0.98820295528909,-0.2746810021212217,0.3969353450280596,2.733449935913086,2.9188385009765625,-0.9049667119979858,-0.1492338627576828,-0.8350386023521423,-0.529565691947937,-0.480465829372406,-0.28672653436660767,-0.02713596820831299
1.0200454073184515,-0.2416798543449176,0.39402099202630764,3.328500986099243,3.1794910430908203,-1.0013108253479004,-0.12524999678134918,-0.8521317839622498,-0.5081179141998291,-0.5550631284713745,-0.29484081268310547,-0.0054166316986083984
1.0576685845039535,-0.2045015333368247,0.39029462589887326,3.8902525901794434,3.63106632232666,-1.0203694105148315,-0.09969241917133331,-0.8712133765220642,-0.48067507147789,-0.5838708281517029,-0.293245792388916,0.06343874335289001
1.1006494600128032,-0.15897772860699566,0.3844498298483841,4.467206954956055,4.533822536468506,-1.0747168064117432,-0.07171663641929626,-0.891501784324646,-0.4473043382167816,-0.6610714197158813,-0.31826072931289673,0.1305777132511139
1.1496330806391426,-0.10146725154239883,0.3739360032398135,5.065147876739502,5.024774551391602,-1.1067615747451782,-0.04141093045473099,-0.9126139879226685,-0.4067195653915405,-0.7995467185974121,-0.33477669954299927,0.1703457236289978
1.2038484048706537,-0.026179279661731093,0.3512213565524993,5.62305212020874,5.855041027069092,-1.335280418395996,-0.00939121562987566,-0.9334266781806946,-0.35864508152008057,-1.272225022315979,-0.37574684619903564,0.23045599460601807
1.2631129169509805,0.08665671484641985,0.29964869155831525,6.292251110076904,6.928918361663818,-1.7561599016189575,0.02621128410100937,-0.9530377388000488,-0.3017151355743408,-1.5796780586242676,-0.2734484076499939,0.42793580889701843
1.3264081588027272,0.2760923927071056,0.1828508578347366,7.258701801300049,8.288344383239746,-2.167285919189453,0.06595849245786667,-0.9702855348587036,-0.23279878497123718,-1.7798562049865723,-0.061635732650756836,0.5005905628204346
1.3868761016214195,0.6097553997344829,-0.06722707371959744,8.050848007202148,9.479201316833496,-2.218679428100586,0.10473217070102692,-0.9831342697143555,-0.14992690086364746,-2.0777547359466553,0.13628685474395752,0.5285890102386475
1.423333273671707,1.1882594617060944,-0.5530848920235532,8.712165832519531,10.133094787597656,-2.1001460552215576,0.13630956411361694,-0.9891470074653625,-0.05484514683485031,-2.189120292663574,0.22016501426696777,0.5508015155792236
1.405979802013863,1.8741691802392515,-1.1436249258943274,9.158461570739746,10.183111190795898,-1.912402868270874,0.15657849609851837,-0.9864484667778015,0.04901466146111488,-2.0611348152160645,0.30355674028396606,0.582424521446228
1.3420411906213703,2.333584055466022,-1.5080057830928126,9.358795166015625,10.06435775756836,-1.706910252571106,0.16393119096755981,-0.9739494323730469,0.15668077766895294,-2.0067503452301025,0.4159051179885864,0.6713526248931885
1.2580420847400824,2.599883891753002,-1.6805773680341054,9.402234077453613,9.818631172180176,-1.5479906797409058,0.15864001214504242,-0.9514897465705872,0.2636290192604065,-1.9062901735305786,0.5020880699157715,0.7411164045333862
1.1666469422313441,2.772073481975117,-1.7597833015814601,9.387179374694824,9.711226463317871,-1.5110962390899658,0.1420239955186844,-0.9194372296333313,0.3666932284832001,-1.817622184753418,0.5583382248878479,0.7197172045707703
1.0719006748213509,2.8974160281362122,-1.7908340944589887,9.454745292663574,9.682344436645508,-1.6411441564559937,0.11567029356956482,-0.8781114816665649,0.46426334977149963,-1.7454768419265747,0.7062366008758545,0.5931859016418457
0.9743282738230181,2.995875925160229,-1.792540851549475,9.699711799621582,9.61636734008789,-1.9858845472335815,0.08156318962574005,-0.8273247480392456,0.5557706952095032,-1.6565754413604736,0.9306726455688477,0.43186962604522705
0.8730530871879503,3.0750702417289206,-1.7724765443857753,10.161116600036621,9.285664558410645,-2.567708730697632,0.04270845651626587,-0.7662940621376038,0.6410687565803528,-1.4606314897537231,1.2234779596328735,0.2921280860900879
0.7673618829407135,3.1364285797777467,-1.734814178379411,10.724732398986816,8.314448356628418,-3.3197555541992188,0.0037167950067669153,-0.6942389011383057,0.7197344899177551,-1.1045316457748413,1.6006875038146973,0.17818385362625122
0.6579842418427199,-3.1059390005687866,-1.6822780295648734,11.172410011291504,6.575617790222168,-4.265620231628418,-0.02820413187146187,-0.6115231513977051,0.7907235026359558,-0.6541231870651245,1.9414945840835571,0.11764734983444214
0.5486423232617065,-3.0865989581524955,-1.6184335228936186,10.966523170471191,4.453729152679443,-5.168716907501221,-0.046898797154426575,-0.5215293169021606,0.8519432544708252,-0.11225041002035141,2.2474205493927,0.1915593147277832
0.44822224882718037,-3.086486053208228,-1.5490744768057512,9.537480354309082,2.122326135635376,-5.8065948486328125,-0.049637969583272934,-0.43336406350135803,0.8998507261276245,0.523102879524231,2.50443959236145,0.5663051009178162
0.3672046591987158,-3.106264007572298,-1.4785994120346346,7.1287031173706055,-0.5409875512123108,-6.335803031921387,-0.032966580241918564,-0.3590078353881836,0.9327518939971924,1.1801222562789917,2.621443748474121,1.181948184967041
0.3094842314420315,3.135836274624999,-1.4063155996908094,4.623266220092773,-2.7715728282928467,-7.107241630554199,0.005482866894453764,-0.3045674264431,0.95247483253479,1.7711436748504639,2.674226760864258,1.9009795188903809
0.2723471461009708,3.0796627649326176,-1.3286717684688014,2.270069122314453,-3.856527090072632,-7.911783218383789,0.05960915610194206,-0.2689928114414215,0.9612956047058105,2.301612138748169,2.6513781547546387,2.3754656314849854
0.25497174058611927,3.019758546419745,-1.2461511835664336,-0.3123777508735657,-3.6695497035980225,-8.105923652648926,0.11760381609201431,-0.2522180676460266,0.9604974985122681,2.668147563934326,2.2547357082366943,2.440457820892334
0.25935276563885434,2.967272452337469,-1.1642984647322911,-2.8055756092071533,-2.6562411785125732,-7.2028398513793945,0.1676381379365921,-0.2564550042152405,0.951907217502594,2.7715401649475098,1.4175878763198853,2.309582233428955
0.2822187398212555,2.9243929646275224,-1.0929800079901244,-4.168851375579834,-2.197582721710205,-5.230029582977295,0.20697090029716492,-0.27848729491233826,0.9378740787506104,2.8947746753692627,0.42802339792251587,1.9244304895401
0.31571095522048453,2.888149129371936,-1.042448288198855,-4.458430767059326,-2.055065155029297,-2.499086856842041,0.23834626376628876,-0.3104923665523529,0.9202089309692383,3.1847341060638428,-0.5947046875953674,1.042055606842041
0.3549701086686438,2.8613239398750827,-1.0195633278578724,-4.178352355957031,-1.815043568611145,0.365543931722641,0.259368896484375,-0.34756234288215637,0.9010704755783081,3.2286529541015625,-1.287355899810791,0.07552242279052734
0.39817640065139437,2.845424618111599,-1.023923951703697,-3.874720811843872,-1.7193516492843628,2.8010921478271484,0.26902514696121216,-0.38773804903030396,0.8816375732421875,3.27038836479187,-1.2757599353790283,-0.5120697021484375
0.44614849035229415,2.8387382482310786,-1.0514756599148205,-3.8031206130981445,-1.912112832069397,4.730572700500488,0.26905229687690735,-0.43149423599243164,0.8610594868659973,3.126333475112915,-0.8449493050575256,-0.6132873296737671
0.49860835872223774,2.8384234701811613,-1.0965232503646725,-3.7853894233703613,-2.237833261489868,5.915449619293213,0.26219791173934937,-0.47820380330085754,0.8381962180137634,2.837808132171631,-0.2910526692867279,-0.40551823377609253
0.5529265707360628,2.8426669010866426,-1.151583504886053,-3.7407076358795166,-2.4016916751861572,6.264105796813965,0.2506115436553955,-0.5251799821853638,0.8132524490356445,2.3798511028289795,0.40190428495407104,-0.17131537199020386
0.6067610069877085,2.8501479722244545,-1.209110539023651,-3.737048625946045,-2.365618944168091,5.9726362228393555,0.23604652285575867,-0.5702096223831177,0.7868564128875732,1.893744707107544,1.0756112337112427,0.05957913398742676
0.6588621459437854,2.8596909812923066,-1.2635254324387963,-3.7551259994506836,-2.1239025592803955,5.327477931976318,0.2199561893939972,-0.6122175455093384,0.7594795227050781,1.4905998706817627,1.4970135688781738,0.29809194803237915
0.7091721895732677,2.870644169541969,-1.31247179816565,-3.8418967723846436,-1.889571189880371,4.717880725860596,0.20311644673347473,-0.6512057781219482,0.7312145829200745,1.2663507461547852,1.6341159343719482,0.454301655292511
0.7593463156104558,2.882050370949345,-1.3582302370263228,-4.045774459838867,-1.980140209197998,4.494472026824951,0.18613600730895996,-0.6884474754333496,0.700994074344635,1.254919171333313,1.5918443202972412,0.4871312379837036
0.8113633134568684,2.894518323430784,-1.4061800497625403,-4.292368412017822,-2.314210891723633,4.687952518463135,0.16838765144348145,-0.7252265214920044,0.6676014065742493,1.4449697732925415,1.467505693435669,0.5078439116477966
0.8657352245957015,2.910513956344446,-1.461667842742951,-4.47987174987793,-2.723590612411499,5.068948745727539,0.1484283208847046,-0.7615719437599182,0.6308542490005493,1.660333275794983,1.372823715209961,0.5425465703010559
0.9218248881328129,2.9328295001079807,-1.5276656071634631,-4.624585151672363,-3.0596354007720947,5.388100624084473,0.12525515258312225,-0.7967058420181274,0.5912452340126038,1.7259105443954468,1.3270708322525024,0.5338005423545837
0.978500802359695,2.963613325868903,-1.6039731562571162,-4.756028175354004,-3.153074264526367,5.420932292938232,0.09883624315261841,-0.8296613693237305,0.5494482517242432,1.5531412363052368,1.300257682800293,0.5340935587882996
1.034678264057327,3.0035525882921217,-1.688022617111054,-4.885083198547363,-3.00610089302063,5.16243314743042,0.07028751075267792,-0.8596980571746826,0.5059437155723572,1.1880589723587036,1.2594020366668701,0.5722575783729553
1.089491443566172,3.0545624877279804,-1.7787574807426867,-4.9501237869262695,-2.5880815982818604,4.821471214294434,0.04023855924606323,-0.8863915801048279,0.46118396520614624,0.800856351852417,1.1549615859985352,0.6249213218688965
1.1409144097088386,3.1218002179638877,-1.8789311240802191,-4.764081001281738,-1.937537431716919,4.501907825469971,0.008248220197856426,-0.9090149402618408,0.41668158769607544,0.4452276825904846,1.0440858602523804,0.6236625909805298
1.185474531176329,-3.0747183284143276,-1.9914346233272997,-4.273309707641602,-1.4029978513717651,4.172795295715332,-0.025116467848420143,-0.9266775250434875,0.37501710653305054,0.18162581324577332,0.9694327116012573,0.4695262908935547
1.2202819726705567,-2.9708444787990067,-2.1153058556701203,-3.651454448699951,-0.94224613904953,3.8264904022216797,-0.05834716558456421,-0.9391962289810181,0.3383873403072357,0.02477779984474182,0.9017817378044128,0.21430110931396484
1.244907852077443,-2.8546475266257763,-2.2465300138438202,-3.1131467819213867,-0.6007929444313049,3.523890495300293,-0.09061022102832794,-0.9473666548728943,0.30706074833869934,-0.14841875433921814,0.799096941947937,0.035773664712905884
1.2617799486201908,-2.7309598817050458,-2.3822248799369814,-2.9978339672088623,-0.4787532687187195,3.261357069015503,-0.12140240520238876,-0.9526331424713135,0.278840035200119,-0.24326744675636292,0.6754723787307739,0.03576570749282837
1.2761269564652753,-2.600137084720858,-2.5251054289133585,-3.484903573989868,-0.6646727919578552,2.936736822128296,-0.1496793031692505,-0.9568982124328613,0.24888066947460175,-0.263910174369812,0.5384718775749207,0.2302757352590561
1.292282704318906,-2.4556866628325986,-2.6840507710269024,-4.307118892669678,-0.9354002475738525,2.525554895401001,-0.17413143813610077,-0.9614651203155518,0.21275068819522858,-0.4180774390697479,0.4298795461654663,0.5338464975357056
1.3098537091118365,-2.2871100465655734,-2.869996254272804,-5.035126209259033,-1.1869992017745972,2.1391475200653076,-0.19458498060703278,-0.966147243976593,0.16939926147460938,-0.6838482618331909,0.3284367322921753,0.7311439514160156
1.3239336935937043,-2.0897195692314092,-3.087761129601868,-5.397828578948975,-1.500609278678894,1.9149458408355713,-0.21219293773174286,-0.969683825969696,0.1211903840303421,-0.8357807397842407,0.24904191493988037,0.7041116952896118
1.328121345154525,-1.8771340135950976,2.959170551897512,-5.318869113922119,-1.817487359046936,1.9237630367279053,-0.22911228239536285,-0.9706986546516418,0.07246686518192291,-0.9123672246932983,0.1892504096031189,0.49984443187713623
1.3187218516956085,-1.6787621662610224,2.7348684885878756,-4.971192359924316,-1.9721702337265015,2.1650331020355225,-0.24796107411384583,-0.9683970808982849,0.026875833049416542,-0.8961277008056641,0.14423948526382446,0.2535654306411743
1.2969846642180118,-1.5181668285119398,2.548815885757873,-4.526316165924072,-1.7942678928375244,2.3971238136291504,-0.2700282335281372,-0.9627472162246704,-0.014224587008357048,-0.8201664686203003,0.12821364402770996,0.16669034957885742
1.2677680654420194,-1.3981068747844527,2.4074998319407475,-4.09429931640625,-1.2365598678588867,2.45833420753479,-0.2939731180667877,-0.9544371962547302,-0.0512767918407917,-0.9125393629074097,0.180267333984375,0.2092510461807251
1.235317954936836,-1.3052090559572367,2.3012721111581906,-3.809237241744995,-0.33000457286834717,2.3966031074523926,-0.3176775872707367,-0.9442529082298279,-0.08641248941421509,-1.1148327589035034,0.2481776475906372,0.2783222794532776
1.2017206713741955,-1.226054192450465,2.218303505756109,-3.652200937271118,0.5439353585243225,2.274766683578491,-0.33952751755714417,-0.9326611757278442,-0.12191801518201828,-1.3394885063171387,0.2328016757965088,0.3358767032623291
1.1676162081355577,-1.156270356109603,2.1512715774017734,-3.5326759815216064,0.907863199710846,2.1870079040527344,-0.35911646485328674,-0.9198179244995117,-0.15801943838596344,-1.4849538803100586,0.18130791187286377,0.35243165493011475
1.1331296410241423,-1.0988936934265128,2.097860352486098,-3.3211817741394043,0.7612517476081848,2.1667184829711914,-0.37750494480133057,-0.9057430624961853,-0.19266410171985626,-1.4877904653549194,0.17791414260864258,0.28407949209213257
1.099069832570985,-1.0575402291106142,2.0584801221900366,-2.8970704078674316,0.42368412017822266,2.184260129928589,-0.3958722949028015,-0.8907850384712219,-0.223130002617836,-1.4715136289596558,0.20438379049301147,0.1450202465057373
1.0672178100550258,-1.0331759460464809,2.0342133372826905,-2.215373992919922,0.19094029068946838,2.1607935428619385,-0.414487361907959,-0.8758612871170044,-0.24711719155311584,-1.495516300201416,0.2480844259262085,-0.041975826025009155
1.0401422274674106,-1.0233309069751026,2.0255054218276363,-1.2758105993270874,0.30612146854400635,1.9970588684082031,-0.4321296513080597,-0.8624762296676636,-0.26343628764152527,-1.5625908374786377,0.30902475118637085,-0.22185426950454712
1.0206651169386989,-1.0237969692180842,2.0320962269102285,-0.15996447205543518,0.7582484483718872,1.6494431495666504,-0.44651690125465393,-0.8524559140205383,-0.2719217538833618,-1.6837626695632935,0.3726128935813904,-0.3655751645565033
1.0103367544310735,-1.0307515709817698,2.0524140657682155,0.9071996212005615,1.2791228294372559,1.2199738025665283,-0.4559246003627777,-0.8470109105110168,-0.2733224630355835,-1.7890857458114624,0.3883165121078491,-0.4927297830581665
1.0083215553867662,-1.0429718056306676,2.0841685570396034,1.751248836517334,1.608582615852356,0.8571854829788208,-0.4607042372226715,-0.845937967300415,-0.2685898542404175,-1.7964521646499634,0.3827117085456848,-0.56501305103302
1.0120967820499482,-1.060004029956025,2.124137107606523,2.2608723640441895,1.7192747592926025,0.6008639335632324,-0.46242260932922363,-0.8479451537132263,-0.25914132595062256,-1.6693522930145264,0.43890291452407837,-0.5260149836540222
1.0192762509885063,-1.081156144498929,2.168999443120208,2.540677070617676,1.6457937955856323,0.4133637249469757,-0.4624156653881073,-0.8517290353775024,-0.2464333474636078,-1.4727954864501953,0.5324847102165222,-0.4249991178512573
1.0283604447679031,-1.1073629805064706,2.2178978408996213,2.800328016281128,1.4520725011825562,0.3171059191226959,-0.46177396178245544,-0.8564537763595581,-0.23076331615447998,-1.2922085523605347,0.5939263701438904,-0.37891685962677
1.0384332351191403,-1.1414333907006338,2.273321048817837,3.1883602142333984,1.24867844581604,0.330133855342865,-0.46149927377700806,-0.8616100549697876,-0.21129752695560455,-1.1548490524291992,0.6390911936759949,-0.42734384536743164
1.04872401500076,-1.1871613332947164,2.3396849192171882,3.752009391784668,1.0832834243774414,0.42527422308921814,-0.4624285101890564,-0.8667876124382019,-0.18665175139904022,-1.0704084634780884,0.6682099103927612,-0.5486998558044434
1.0583707393726407,-1.2472528909368503,2.420958368667643,4.435138702392578,1.0314098596572876,0.5478593111038208,-0.46485385298728943,-0.8715578317642212,-0.15587787330150604,-1.0794730186462402,0.6765352487564087,-0.705923318862915
1.065924852028068,-1.3227079903351713,2.5192629221704985,5.131646156311035,1.0523167848587036,0.7122125625610352,-0.4688858389854431,-0.8752366304397583,-0.11877188831567764,-1.1726698875427246,0.6967089176177979,-0.8425776958465576
1.068841414089289,-1.411834205726721,2.6328391359434327,5.642008304595947,0.9980062246322632,0.9195958971977234,-0.4750739634037018,-0.8766436576843262,-0.07616135478019714,-1.2756584882736206,0.7622181177139282,-0.8922987580299377
1.0656491866273006,-1.5092143344774493,2.7545310214309597,5.891231060028076,0.830815851688385,0.9772229790687561,-0.4830186665058136,-0.8751032948493958,-0.029782911762595177,-1.3823378086090088,0.874966025352478,-0.8255332708358765
1.057153504075408,-1.6088359975787065,2.8769293065015886,5.967038154602051,0.6112914085388184,0.8260315656661987,-0.4909975230693817,-0.8709603548049927,0.01868639886379242,-1.599181890487671,0.9833109974861145,-0.6837713718414307
1.0457629591869058,-1.7076387697901514,2.9963368711184613,5.997921943664551,0.3626280725002289,0.34537068009376526,-0.49655598402023315,-0.8653072118759155,0.06837727874517441,-1.792811632156372,1.1044278144836426,-0.5678738355636597
1.0353734238745382,-1.8066747734525936,3.1146847249125615,6.130612850189209,0.278274267911911,-0.5702794194221497,-0.49607691168785095,-0.8600529432296753,0.11923342943191528,-1.9790666103363037,1.2495489120483398,-0.48228585720062256
1.0283299926155192,-1.9105634983422404,-3.0435248160443966,6.563398361206055,0.4117436408996582,-1.728355050086975,-0.48673680424690247,-0.8564380407333374,0.17204926908016205,-2.25258207321167,1.366569995880127,-0.4752415418624878
1.023006007298636,-2.0255474630535364,-2.9032554698566053,7.220729351043701,0.5645602941513062,-2.894867420196533,-0.46787315607070923,-0.8536773920059204,0.22875645756721497,-2.365760326385498,1.45462965965271,-0.5704618692398071
1.0153346616564793,-2.154200829826967,-2.7455313944341952,7.80850076675415,0.5481839776039124,-3.9284231662750244,-0.4401100277900696,-0.8496570587158203,0.29049253463745117,-2.2228844165802,1.5852223634719849,-0.6418719291687012
1.0012629504203094,-2.2926383116986244,-2.5762375349686955,8.140681266784668,0.4032561779022217,-4.7405900955200195,-0.40474721789360046,-0.8421527147293091,0.35631194710731506,-1.9425275325775146,1.7144978046417236,-0.5776407718658447
0.9783321439415648,-2.432767125409336,-2.405651318686941,8.168569564819336,0.08352504670619965,-5.290794372558594,-0.3634907007217407,-0.8295671939849854,0.4239014983177185,-1.4847911596298218,1.804375171661377,-0.35668665170669556
0.9459502847786557,-2.566300157484973,-2.244173521781137,7.988799571990967,-0.26392045617103577,-5.547892093658447,-0.3182716369628906,-0.8110532164573669,0.4908108413219452,-0.8947715759277344,1.8476134538650513,-0.015530318021774292
0.9041300136801255,-2.686141866810706,-2.098584257280337,7.88394021987915,-0.38529375195503235,-5.510122299194336,-0.27200043201446533,-0.7858874797821045,0.5553346276283264,-0.24240395426750183,1.888594388961792,0.32325106859207153
0.852190909657745,-2.786548973001772,-1.9712212392674118,8.021387100219727,-0.018669964745640755,-5.304931163787842,-0.22885803878307343,-0.7527245879173279,0.6172759532928467,0.38495537638664246,1.9218987226486206,0.5123777985572815
0.791270099747841,-2.8649273548596352,-1.8612100327592231,8.120340347290039,0.43687811493873596,-5.156875133514404,-0.19200821220874786,-0.71124666929245,0.6762106418609619,0.9831458330154419,1.9485208988189697,0.645520806312561
0.7255247599572346,-2.9267752445363464,-1.7643699891677926,7.945594310760498,0.43895989656448364,-5.2889723777771,-0.1594826877117157,-0.6635281443595886,0.7309552431106567,1.536466360092163,2.0494229793548584,0.9991014003753662
0.6595881565374883,-2.98185027264112,-1.6755436893297284,7.473684310913086,-0.17130987346172333,-5.688354015350342,-0.12569934129714966,-0.6127914190292358,0.7801832556724548,1.9816410541534424,2.2128586769104004,1.4387344121932983
0.5963951594452679,-3.037116301066505,-1.5902838372446728,6.786500453948975,-0.8122020959854126,-6.29099178314209,-0.08628293126821518,-0.5616636276245117,0.8228538036346436,2.337167978286743,2.2187836170196533,1.7363651990890503
0.5388905975176949,-3.0910471095165484,-1.5064443534128114,5.633626461029053,-0.8748835921287537,-6.862075328826904,-0.04336366802453995,-0.513184130191803,0.8571820259094238,2.607938766479492,2.0063788890838623,1.9421799182891846
0.49392684467786135,-3.1385641540214504,-1.4234330782598212,3.5854034423828125,-0.42767491936683655,-7.245322227478027,-0.002666523214429617,-0.47408702969551086,0.8804739713668823,2.7507286071777344,1.600139856338501,2.2031898498535156
0.47022505948974147,3.1053671802736815,-1.3427485793306344,0.8515276312828064,0.01633288711309433,-6.953683376312256,0.032286711037158966,-0.4530869424343109,0.8908810615539551,2.73445200920105,0.9920274615287781,2.4868650436401367
0.47112446173834605,3.072960631137631,-1.2707396394013941,-1.607185959815979,-0.06323466449975967,-5.7244977951049805,0.061107151210308075,-0.45388853549957275,0.8889607787132263,2.727024555206299,0.2918859124183655,2.5054636001586914
0.4910358133176066,3.0431085266930924,-1.2132885695855995,-3.0335211753845215,-0.6540992856025696,-4.02387809753418,0.08670740574598312,-0.47153955698013306,0.8775718212127686,2.8595969676971436,-0.2959928810596466,1.990210771560669
0.5200414241988078,3.0150139883535583,-1.174091741874676,-3.362978458404541,-1.0884665250778198,-2.120120048522949,0.10955170542001724,-0.4969160854816437,0.8608559370040894,2.8968112468719482,-0.6821610927581787,1.0733939409255981
0.5502020845330804,2.995110207274779,-1.154901039965805,-2.9758763313293457,-0.8639258742332458,-0.34877684712409973,0.12441834807395935,-0.522859513759613,0.8432900309562683,2.8077409267425537,-0.8194103837013245,0.22770917415618896
0.5772323331029494,2.9896826477190817,-1.155436127648133,-2.3383584022521973,-0.26983442902565,1.2135074138641357,0.12680795788764954,-0.5457068085670471,0.8283261060714722,2.558708429336548,-0.8539209961891174,-0.3426540493965149
0.6007984759564452,2.9999307011683745,-1.1741967980925283,-1.8977245092391968,0.1795540452003479,2.5129809379577637,0.1164642721414566,-0.5653012990951538,0.8166211843490601,2.29872727394104,-0.8432831764221191,-0.5961166024208069
0.622940372897234,3.0214108934424684,-1.20776184916922,-1.806788444519043,0.20036989450454712,3.4405040740966797,0.09737277030944824,-0.583425760269165,0.8063079714775085,2.1355984210968018,-0.5687043070793152,-0.5232576727867126
0.6459931300732105,3.047698180218437,-1.2509101721339186,-2.0685012340545654,-0.08507250994443893,3.8666510581970215,0.07486482709646225,-0.6019917726516724,0.7949848771095276,1.9508919715881348,-0.10653483867645264,-0.2507193088531494
0.6724725928240161,3.0730594972542957,-1.2972227231806368,-2.6219699382781982,-0.526896595954895,3.781338930130005,0.05357040464878082,-0.6229221820831299,0.7804471850395203,1.6896545886993408,0.28999072313308716,0.05021059513092041
0.7036879594047306,3.0939766552133436,-1.3418773263293533,-3.1708385944366455,-0.9362068772315979,3.429985761642456,0.036291610449552536,-0.6470339894294739,0.7615965604782104,1.3794950246810913,0.5982365608215332,0.32536303997039795
0.738395197094841,3.1106796554336413,-1.3833647409468657,-3.4541468620300293,-1.1673994064331055,3.0551958084106445,0.022858044132590294,-0.6731019616127014,0.7391959428787231,1.1568293571472168,0.8201510906219482,0.49415647983551025
0.7736162389281752,3.1252864595683194,-1.4221482986993352,-3.4040775299072266,-1.1941159963607788,2.7435975074768066,0.011664745397865772,-0.6987268328666687,0.715293288230896,1.057304859161377,0.9409143924713135,0.48986101150512695
0.8074644654290611,3.1401394761382337,-1.4592058258460168,-3.305696964263916,-1.0980035066604614,2.53171443939209,0.0010046280222013593,-0.7225366234779358,0.6913314461708069,1.047335147857666,0.9542262554168701,0.38612186908721924
0.8404422050080724,-3.1268184685891014,-1.4962608595076032,-3.317950487136841,-1.0995230674743652,2.4630327224731445,-0.009855988435447216,-0.7449381947517395,0.6670602560043335,1.136885404586792,0.9100384712219238,0.3613818883895874
0.8736166960181528,-3.1082232783128445,-1.5357638297753047,-3.425328254699707,-1.1541013717651367,2.554713726043701,-0.021421093493700027,-0.7666561007499695,0.6417003870010376,1.250348687171936,0.8674252033233643,0.45746636390686035
0.9075508369725145,-3.08559420429933,-1.5809744304198872,-3.5889744758605957,-1.3639187812805176,2.8199596405029297,-0.03445896506309509,-0.7879981994628906,0.6147123575210571,1.358158826828003,0.8198738694190979,0.5587494373321533
0.9421257162998643,-3.0580565816759,-1.6343817101631324,-3.714240312576294,-1.646760106086731,3.0763983726501465,-0.04906795546412468,-0.8088099956512451,0.5860194563865662,1.4534257650375366,0.7716699838638306,0.6151065826416016
0.9757130866827293,-3.025430936335899,-1.6952998025527988,-3.601478338241577,-1.7514026165008545,3.1785495281219482,-0.06497135013341904,-0.8281018137931824,0.556800127029419,1.4009698629379272,0.7547221779823303,0.604454755783081
1.0054021648105378,-2.9867202329712694,-1.7612614392073074,-3.2083792686462402,-1.488958716392517,3.1472458839416504,-0.08264143019914627,-0.8443775177001953,0.5293366312980652,1.177154302597046,0.7432421445846558,0.4926360845565796
1.0291326461303796,-2.942165479283115,-1.8285287554792604,-2.6773574352264404,-1.029828667640686,2.9450900554656982,-0.102136991918087,-0.856852114200592,0.5053440928459167,0.8681128621101379,0.7082161903381348,0.31148940324783325
1.0465343162508753,-2.8949714806643647,-1.8930346863030303,-2.1621696949005127,-0.6662548780441284,2.659550189971924,-0.12220451980829239,-0.8656935691833496,0.4854280948638916,0.5516631007194519,0.6439682245254517,0.15119898319244385
1.058896068732259,-2.8490272282043416,-1.9526062357933016,-1.8055951595306396,-0.5094176530838013,2.349730968475342,-0.1412729024887085,-0.8718152642250061,0.4690198004245758,0.3060983419418335,0.5959671139717102,0.03876200318336487
1.0685748837922373,-2.807071679666903,-2.0065843987584153,-1.6599462032318115,-0.563045859336853,2.0293526649475098,-0.15804298222064972,-0.8765153884887695,0.4546898603439331,0.11846163868904114,0.5460253953933716,-0.014946937561035156
1.0774863525323894,-2.7699321911947252,-2.056003994902601,-1.6403772830963135,-0.6800875067710876,1.7866687774658203,-0.1719736009836197,-0.8807702660560608,0.44121289253234863,-0.029656097292900085,0.4628167152404785,0.028910338878631592
1.0863569450087938,-2.7353003301292844,-2.1030909486973566,-1.6665855646133423,-0.6858313679695129,1.6254124641418457,-0.18405240774154663,-0.8849361538887024,0.4277998208999634,-0.16656409204006195,0.3782985210418701,0.10030680894851685
1.0953090094141844,-2.7012679694213393,-2.148366203928754,-1.6628906726837158,-0.5198479890823364,1.4335771799087524,-0.1951175034046173,-0.8890697360038757,0.4141063690185547,-0.30009129643440247,0.310136079788208,0.13035762310028076
1.1040227660153092,-2.6679955317046127,-2.1903083253385214,-1.5568071603775024,-0.29529905319213867,1.20639169216156,-0.20524385571479797,-0.8930248618125916,0.40047621726989746,-0.4694540500640869,0.2726941704750061,0.1249142587184906
1.1120542796904354,-2.6366583672048214,-2.227642331036205,-1.4251731634140015,-0.1353999376296997,0.9734559059143066,-0.2142142951488495,-0.8966102600097656,0.38755911588668823,-0.6278114318847656,0.2572365999221802,0.05195498466491699
1.1199966712354532,-2.6085335049586207,-2.26044420514075,-1.3879635334014893,-0.1564227044582367,0.7409288287162781,-0.22140228748321533,-0.900098979473114,0.3752366602420807,-0.7554043531417847,0.21685630083084106,-0.04366329312324524
1.1287403968904122,-2.584259704908405,-2.2900654687653863,-1.427219033241272,-0.33588486909866333,0.5335023999214172,-0.22627322375774384,-0.9038740396499634,0.36305931210517883,-0.8554681539535522,0.19287562370300293,-0.0753854513168335
1.1388817584111341,-2.5641738539251873,-2.316455568468598,-1.480544924736023,-0.40621012449264526,0.24531811475753784,-0.22850389778614044,-0.9081659317016602,0.3507428765296936,-0.944637656211853,0.19896793365478516,-0.04222545027732849
1.1512656309421971,-2.5484844365901775,-2.338341308544456,-1.578962802886963,-0.4488774240016937,-0.10771398991346359,-0.22767455875873566,-0.913280189037323,0.33776265382766724,-1.1147937774658203,0.1930195689201355,-0.005350083112716675
1.166360787888927,-2.53758627794071,-2.355798798522355,-1.6879523992538452,-0.5655825138092041,-0.42438673973083496,-0.22348591685295105,-0.9193246364593506,0.32387641072273254,-1.296762466430664,0.1375560164451599,0.0030125081539154053
1.183546150490498,-2.5308966680042206,-2.3696656333457824,-1.7213486433029175,-0.6412218809127808,-0.6440719366073608,-0.2165549099445343,-0.9259510040283203,0.30938389897346497,-1.4230477809906006,0.08777064085006714,0.0033296048641204834
1.2016128224573004,-2.527722568560381,-2.3800358257902317,-1.6501145362854004,-0.6338261961936951,-0.7947289347648621,-0.20786480605602264,-0.9326223134994507,0.2949712872505188,-1.490530014038086,0.030995666980743408,-0.05289074778556824
1.2193604794617963,-2.5281658476938493,-2.3861068901324183,-1.4729728698730469,-0.5844988822937012,-0.8752725124359131,-0.19817331433296204,-0.9388793706893921,0.2814834415912628,-1.5359270572662354,-0.05333864688873291,-0.1467941701412201
1.235051687567914,-2.5326888040689175,-2.387453527409927,-1.1171170473098755,-0.5680038332939148,-0.8331531882286072,-0.18844783306121826,-0.9441652297973633,0.2702580392360687,-1.5710127353668213,-0.12256145477294922,-0.24819394946098328
1.2465788567073695,-2.5419776446039024,-2.383193706940706,-0.603236973285675,-0.4646921455860138,-0.6817247867584229,-0.17977529764175415,-0.9479002952575684,0.26299405097961426,-1.5690040588378906,-0.17362076044082642,-0.3534635007381439
1.2523554139003508,-2.554236976508867,-2.374263236059115,-0.03743138164281845,-0.2725957930088043,-0.4158139228820801,-0.17349998652935028,-0.9497246742248535,0.26061511039733887,-1.5288316011428833,-0.20522809028625488,-0.4633130133152008
1.2517476794348361,-2.566052475154625,-2.36315663635937,0.5161647200584412,0.032034680247306824,-0.09670040011405945,-0.17072317004203796,-0.9495342373847961,0.26313164830207825,-1.4885632991790771,-0.23737066984176636,-0.5005432367324829
1.2449842430386318,-2.5748178289804704,-2.351649298004396,0.999113142490387,0.39438396692276,0.2180166244506836,-0.17185436189174652,-0.9473910927772522,0.2700296640396118,-1.4795739650726318,-0.2799800634384155,-0.48658251762390137
1.2327196563019989,-2.578330656450515,-2.3419621886986537,1.3894661664962769,0.728609025478363,0.5616727471351624,-0.17709553241729736,-0.9433943033218384,0.2804349660873413,-1.4838083982467651,-0.30102068185806274,-0.44742733240127563
1.2158908767875654,-2.575298483397038,-2.335669285958315,1.653775930404663,1.0582422018051147,0.8579257726669312,-0.18643736839294434,-0.9376793503761292,0.2932546138763428,-1.4517614841461182,-0.3037603497505188,-0.3885764181613922
1.1961635263378323,-2.566718580898292,-2.3316072914117494,1.7977136373519897,1.4100229740142822,1.0063972473144531,-0.1989673376083374,-0.9306420683860779,0.307111531496048,-1.4119946956634521,-0.2564002275466919,-0.31501564383506775
1.1752422008090186,-2.5544492950761617,-2.3277435516324148,1.8361316919326782,1.7384971380233765,1.0310927629470825,-0.2134612500667572,-0.9227831959724426,0.32078874111175537,-1.4089601039886475,-0.1994701623916626,-0.2677645683288574
1.1542290829788011,-2.540030181310141,-2.323304817645455,1.8302487134933472,1.9286832809448242,1.0247716903686523,-0.2289889007806778,-0.9144833087921143,0.3335924744606018,-1.4086453914642334,-0.15811777114868164,-0.25064581632614136
1.1332548174556432,-2.5249898601186884,-2.318147965260978,1.844433069229126,1.9897657632827759,1.018926978111267,-0.24501964449882507,-0.9057961106300354,0.3456858694553375,-1.412893533706665,-0.13314425945281982,-0.2691173553466797
1.1121364093333612,-2.510556814755764,-2.312484763255947,1.8555485010147095,1.8764965534210205,1.0571435689926147,-0.26121214032173157,-0.8966466188430786,0.35748088359832764,-1.4135773181915283,-0.14008104801177979,-0.3348217308521271
1.0906339794445874,-2.497006453500197,-2.3081537354118105,1.8053828477859497,1.5764113664627075,1.1905699968338013,-0.27755481004714966,-0.8869199156761169,0.3692376911640167,-1.4012477397918701,-0.13441187143325806,-0.3983210027217865
1.0692211294585197,-2.4837163909289504,-2.307101685094686,1.6382919549942017,1.2636340856552124,1.3006380796432495,-0.2939837872982025,-0.876826286315918,0.3804593086242676,-1.4305951595306396,-0.12259387969970703,-0.42213112115859985
1.0491405761246075,-2.4702614499575506,-2.309262832324797,1.370704174041748,1.0614235401153564,1.3296695947647095,-0.30996713042259216,-0.8669952750205994,0.3901788592338562,-1.5615997314453125,-0.12465810775756836,-0.408611536026001
1.0314294148916343,-2.4553872948258966,-2.3144337003746194,1.0487650632858276,1.0431715250015259,1.269545555114746,-0.32541564106941223,-0.8580340147018433,0.39734429121017456,-1.7189264297485352,-0.09747141599655151,-0.38951653242111206
1.017169420044806,-2.439344314504561,-2.3197241061176133,0.804304838180542,1.2789509296417236,0.927076518535614,-0.3396172821521759,-0.8506231904029846,0.40137284994125366,-1.847257137298584,0.008582234382629395,-0.34213829040527344
1.0071018885505054,-2.424555040356231,-2.3193919423252156,0.7727149128913879,1.7617226839065552,0.33394742012023926,-0.3511260747909546,-0.8452869057655334,0.40274128317832947,-1.9591615200042725,0.23408079147338867,-0.27858060598373413
1.0003711041179195,-2.4124728303773995,-2.3088154564011485,1.0280076265335083,2.415479898452759,-0.28550681471824646,-0.35974857211112976,-0.8416714072227478,0.40270349383354187,-1.9888384342193604,0.4800839424133301,-0.25341153144836426
0.9941277487788496,-2.405538752290596,-2.2849062491362107,1.6810650825500488,2.948249340057373,-0.7929710745811462,-0.36605292558670044,-0.8382837176322937,0.4040857255458832,-1.8625085353851318,0.647701621055603,-0.3356655240058899
0.9848564539796997,-2.407836218542778,-2.2445767544027286,2.681699752807617,3.278388500213623,-1.2382211685180664,-0.3703123927116394,-0.8331927061080933,0.4106800854206085,-1.5688507556915283,0.7764302492141724,-0.5568289160728455
0.9701878862655725,-2.422816003411473,-2.1865361627424074,3.8057167530059814,3.2791662216186523,-1.6408895254135132,-0.37212738394737244,-0.8249918818473816,0.42533421516418457,-1.2012215852737427,0.9469556212425232,-0.7688555121421814
0.9482101034037433,-2.4516454212067944,-2.113052161973548,4.9861040115356445,2.945586919784546,-1.9069961309432983,-0.3711651861667633,-0.8123730421066284,0.4497623145580292,-0.8362628221511841,1.0933637619018555,-0.8762149810791016
0.9170988784332046,-2.4919470162271393,-2.028589308935329,6.069790840148926,2.541320562362671,-2.0928256511688232,-0.36785757541656494,-0.7938407063484192,0.4842490553855896,-0.3742535710334778,1.2258172035217285,-0.883281946182251
0.877481736521366,-2.5392792911139965,-1.9389602685849097,6.80394983291626,1.9554415941238403,-2.3212382793426514,-0.3620767295360565,-0.7691318988800049,0.5266277194023132,0.14920130372047424,1.4307682514190674,-0.7355358004570007
0.8324624824142461,-2.5919841225668705,-1.8488811710721735,7.0827436447143555,1.0381953716278076,-2.685168743133545,-0.35157346725463867,-0.7395910024642944,0.5739349722862244,0.6863206624984741,1.6740849018096924,-0.39996957778930664
0.7851798532802339,-2.6509030722143416,-1.7607068765501193,7.134771823883057,-0.055652420967817307,-3.1682796478271484,-0.33328554034233093,-0.7069523930549622,0.6238098740577698,1.2910950183868408,1.9091161489486694,0.1452329158782959
0.7347405240747447,-2.7166039967079465,-1.6733429662666977,7.522172451019287,-1.0252289772033691,-3.683817148208618,-0.3059362769126892,-0.6703946590423584,0.6759984493255615,1.906049132347107,2.026794195175171,0.6869164705276489
0.6759162383345046,-2.7848953602619186,-1.5883607560167405,8.251791954040527,-1.489649772644043,-3.6887893676757812,-0.27240821719169617,-0.6256123781204224,0.7310285568237305,2.520287275314331,1.9485493898391724,0.9924514889717102
0.6050021805170324,-2.843358718116442,-1.5129219319782994,8.984903335571289,-1.0733590126037598,-3.150655508041382,-0.24167752265930176,-0.5687638521194458,0.7861931324005127,2.9943478107452393,1.6715775728225708,1.1394506692886353
0.5243526605172821,-2.8829397161962436,-1.451705064741098,9.180471420288086,-0.24829807877540588,-2.3249759674072266,-0.22141417860984802,-0.5006527304649353,0.8368525505065918,3.176034450531006,1.3090481758117676,1.3914339542388916
0.44420941436033756,-2.9006570736138326,-1.4070570295433,8.021746635437012,0.9288516640663147,-1.3796052932739258,-0.21545422077178955,-0.429744154214859,0.8768690824508667,3.0545806884765625,0.8045305013656616,1.8430253267288208
0.3809198403530987,-2.8963305245895854,-1.3790193719159238,5.318619728088379,2.0830166339874268,-0.5989208817481995,-0.2254066914319992,-0.3717745244503021,0.9005417823791504,2.6455726623535156,0.17428001761436462,2.427873134613037
0.3450735238006553,-2.879738969327978,-1.3656669447920156,2.2327167987823486,2.005241632461548,-0.06613636761903763,-0.24361112713813782,-0.33826586604118347,0.9089716672897339,2.0181777477264404,-0.5420441627502441,2.920724868774414
0.33748313038550554,-2.8648591244529418,-1.364283159233069,-0.6695152521133423,0.9530094861984253,0.17789903283119202,-0.2578030824661255,-0.3311132490634918,0.9076900482177734,1.6197110414505005,-1.082125186920166,2.842111349105835
0.35582766108483926,-2.8587862661858696,-1.3721430116651412,-3.1785390377044678,-0.22855493426322937,0.21797508001327515,-0.26157134771347046,-0.34836629033088684,0.9001226425170898,1.5020651817321777,-1.1105111837387085,2.348625898361206
0.3946638601142077,-2.859323255810767,-1.3876419449936137,-4.953999996185303,-0.9393629431724548,0.42930856347084045,-0.2571236789226532,-0.38449791073799133,0.8865936398506165,1.370542287826538,-0.8758779764175415,1.9877651929855347
0.4454385572573375,-2.8601297528165612,-1.411462619046233,-5.856144905090332,-1.0967717170715332,0.9526543021202087,-0.25065791606903076,-0.4308536946773529,0.8669118881225586,1.4037797451019287,-0.5461056232452393,1.5943310260772705
0.4986668429746923,-2.855124360335229,-1.4439445099171344,-5.832294464111328,-0.8197984099388123,1.6179652214050293,-0.24815554916858673,-0.47825515270233154,0.8424314260482788,1.5655688047409058,-0.07580667734146118,1.1324677467346191
0.5459085679834799,-2.8415205249446633,-1.483543880791326,-5.098351955413818,-0.4055951237678528,2.1861417293548584,-0.25262701511383057,-0.5191948413848877,0.8164658546447754,1.6391472816467285,0.3232414126396179,0.6334396600723267
0.5828749863231485,-2.8203805716198285,-1.5268402876025045,-4.144338130950928,-0.017602145671844482,2.467226266860962,-0.2635868787765503,-0.5504264831542969,0.7921822667121887,1.5859897136688232,0.5293692946434021,0.19353550672531128
0.6103196531875622,-2.7953813946432806,-1.5700792390221352,-3.4101905822753906,0.11655300110578537,2.4568018913269043,-0.27807411551475525,-0.573129415512085,0.7708418369293213,1.4140146970748901,0.618188738822937,-0.057218968868255615
0.6324349467433689,-2.770115822715896,-1.6119861837849463,-3.1661219596862793,0.040515270084142685,2.3520689010620117,-0.2927858531475067,-0.5911105275154114,0.7515748143196106,1.238144040107727,0.6071475148200989,-0.05148637294769287
0.653970851685526,-2.745646925308022,-1.6540716369074053,-3.3799314498901367,-0.21354949474334717,2.270684003829956,-0.30610501766204834,-0.6083427667617798,0.7322694659233093,1.1711257696151733,0.5640618801116943,0.20062226057052612
0.6784343170260985,-2.7218577718140913,-1.6989287487724054,-3.910545587539673,-0.5729808807373047,2.2598929405212402,-0.31727588176727295,-0.6275748014450073,0.7109750509262085,1.202987551689148,0.5534782409667969,0.5148090720176697
0.7070995536964788,-2.6974113126266626,-1.749082222820411,-4.483592510223389,-0.9325484037399292,2.3433544635772705,-0.3266933262348175,-0.6496314406394958,0.6864765882492065,1.2863337993621826,0.5452614426612854,0.7872781157493591
0.7387228334216475,-2.671491273480747,-1.8051147259987224,-4.823566436767578,-1.295913815498352,2.3651046752929688,-0.33489876985549927,-0.6733441948890686,0.6591283082962036,1.310103178024292,0.5798536539077759,0.9160363674163818
0.7711788368582833,-2.645970241125511,-1.8638760333065056,-4.831048488616943,-1.6287481784820557,2.1624832153320312,-0.3410329520702362,-0.6969810724258423,0.6308043003082275,1.1666096448898315,0.6527457237243652,0.7904602885246277
0.8030135413905441,-2.6221802485676755,-1.9218834177800515,-4.666429042816162,-1.7932476997375488,1.8980027437210083,-0.3447495102882385,-0.7194523811340332,0.6029388904571533,0.9276353120803833,0.6405647397041321,0.5577054023742676
0.8330457334406268,-2.5989897758052654,-1.9784610242936824,-4.382613658905029,-1.8047473430633545,1.7305573225021362,-0.34732112288475037,-0.7399834394454956,0.5760141015052795,0.7075353860855103,0.5979241728782654,0.42310070991516113
0.8598363912717165,-2.5756954560561556,-2.033457033826451,-3.9692537784576416,-1.7534343004226685,1.6505001783370972,-0.3498860001564026,-0.7577357888221741,0.5508321523666382,0.5348682999610901,0.5611721277236938,0.32578516006469727
0.8821016319116347,-2.551726693824834,-2.087073407348229,-3.5016982555389404,-1.6349989175796509,1.7118021249771118,-0.35351327061653137,-0.7720762491226196,0.5281350612640381,0.4144568145275116,0.5185971856117249,0.20134180784225464
0.8987102340247626,-2.526294897795399,-2.1396810241514457,-2.950932502746582,-1.4361087083816528,1.8526725769042969,-0.35937705636024475,-0.7825245261192322,0.508432149887085,0.29188743233680725,0.45162254571914673,0.07140165567398071
0.9089294295756553,-2.4995637475726267,-2.1899255105375564,-2.3484139442443848,-1.0854600667953491,1.9501421451568604,-0.3680301904678345,-0.7888462543487549,0.49221494793891907,0.18144568800926208,0.3873111605644226,-0.047070324420928955
0.9138362709505082,-2.4721191655491066,-2.2359355481741883,-1.8733893632888794,-0.699478030204773,1.882003664970398,-0.3789918124675751,-0.7918524146080017,0.4788893163204193,0.08191841840744019,0.42182672023773193,-0.09201806783676147
0.9162592874308128,-2.4456790113040476,-2.276393445789903,-1.6397193670272827,-0.4449879229068756,1.6098400354385376,-0.39028847217559814,-0.7933298349380493,0.4672284424304962,-0.08821189403533936,0.47562670707702637,-0.07358229160308838
0.9195633035546938,-2.4212856072751143,-2.3122807131983074,-1.7193429470062256,-0.39360058307647705,1.2637197971343994,-0.3998374342918396,-0.7953369617462158,0.4555974006652832,-0.2684517502784729,0.48761308193206787,-0.012863755226135254
0.925990266620463,-2.3985866354261436,-2.3462621495572615,-1.9693889617919922,-0.49927347898483276,0.9255271553993225,-0.4066087007522583,-0.7992163300514221,0.44263139367103577,-0.4105605483055115,0.4750891327857971,0.09035807847976685
0.9359996464168232,-2.377917170031928,-2.379771724765559,-2.2082881927490234,-0.7428714632987976,0.6314017176628113,-0.41011694073677063,-0.8051922917366028,0.42833319306373596,-0.5470669269561768,0.39201486110687256,0.11742782592773438
0.9486130135278878,-2.359742418346233,-2.413495343381426,-2.330970525741577,-1.081413745880127,0.46434617042541504,-0.41064465045928955,-0.8126079440116882,0.413568913936615,-0.6274107694625854,0.3215038776397705,0.044759273529052734
0.9618054657059149,-2.3444167681758112,-2.4477944181547024,-2.302635669708252,-1.433371663093567,0.4755559265613556,-0.4092290699481964,-0.820225715637207,0.3997012674808502,-0.670299768447876,0.2503405213356018,-0.08532464504241943
0.9733647627576868,-2.3312081603852657,-2.482769351559061,-2.1291656494140625,-1.658423662185669,0.6183106899261475,-0.40757545828819275,-0.8267831206321716,0.38770031929016113,-0.6820088028907776,0.17486685514450073,-0.2216389775276184
0.9821248950162671,-2.3199151413120855,-2.517076836649231,-1.8417444229125977,-1.7300254106521606,0.7157379984855652,-0.4066081941127777,-0.831679105758667,0.3781260550022125,-0.7229846715927124,0.15693563222885132,-0.2999096214771271
0.9882786968230477,-2.3106681891591117,-2.5480367314918255,-1.4915534257888794,-1.5354714393615723,0.6761479377746582,-0.40629956126213074,-0.8350802659988403,0.3708924353122711,-0.8567771911621094,0.17712152004241943,-0.32304099202156067
0.992398551276826,-2.303207870109488,-2.572795253335289,-1.0586251020431519,-1.08426034450531,0.5240447521209717,-0.40649357438087463,-0.8373396396636963,0.36554741859436035,-1.0511021614074707,0.21815341711044312,-0.3140338957309723
0.9946785867049579,-2.297913294107076,-2.589361231697573,-0.5871769189834595,-0.6526876091957092,0.3453149199485779,-0.40699607133865356,-0.8385838866233826,0.36212024092674255,-1.2213304042816162,0.21872621774673462,-0.30862295627593994
0.9949250756381698,-2.296318884626969,-2.5978285847304456,-0.13861650228500366,-0.4823032021522522,0.24615629017353058,-0.4074183702468872,-0.8387181758880615,0.36133378744125366,-1.3161686658859253,0.1831548810005188,-0.33702659606933594
0.9927945061612806,-2.299626375704287,-2.60009588460808,0.21708033978939056,-0.5802593231201172,0.24639837443828583,-0.40755289793014526,-0.837556004524231,0.36386844515800476,-1.339669942855835,0.15129214525222778,-0.3681563436985016
0.9886080880158726,-2.307386894591165,-2.5988006899019944,0.42532065510749817,-0.7495333552360535,0.2787306606769562,-0.4073107838630676,-0.8352614641189575,0.3693726062774658,-1.3283460140228271,0.14017796516418457,-0.3731567859649658
0.983296258776404,-2.318132533066058,-2.5957657481661665,0.5298851728439331,-0.8817193508148193,0.2687390148639679,-0.4065668284893036,-0.8323289752006531,0.3767383098602295,-1.3454015254974365,0.13153862953186035,-0.3361194133758545
0.9775936829477561,-2.331179629948363,-2.591084999074836,0.6331493258476257,-0.9307953715324402,0.19806458055973053,-0.40504956245422363,-0.8291546106338501,0.38527557253837585,-1.3991954326629639,0.13974732160568237,-0.2740238904953003
0.9716551011429998,-2.346477714313358,-2.58374669134404,0.7920063734054565,-0.9087600708007812,0.07862100005149841,-0.4026169180870056,-0.8258202075958252,0.3948676884174347,-1.4607712030410767,0.17561280727386475,-0.2262275218963623
0.9651800216748315,-2.3645699046103092,-2.5725770424339682,1.02010178565979,-0.8624655604362488,-0.05460221320390701,-0.39914849400520325,-0.8221514225006104,0.40589118003845215,-1.4995484352111816,0.21697252988815308,-0.21544617414474487
0.957664159531644,-2.3857003074051626,-2.5571042959940633,1.2847098112106323,-0.8194578886032104,-0.1780160367488861,-0.39471086859703064,-0.8178496956825256,0.41871872544288635,-1.4935338497161865,0.24334096908569336,-0.23036426305770874
0.9487965492499844,-2.409569155404837,-2.537601782261433,1.541050910949707,-0.7652422785758972,-0.27562078833580017,-0.3894367516040802,-0.8127148747444153,0.43339699506759644,-1.4584177732467651,0.24962002038955688,-0.2577989995479584
0.9382729737807587,-2.4349965412680996,-2.5149070103131272,1.7864375114440918,-0.6256953477859497,-0.335212767124176,-0.3838239908218384,-0.8065383434295654,0.44963887333869934,-1.4040484428405762,0.23785847425460815,-0.26972252130508423
0.9259151014951269,-2.4603098064196267,-2.4899139139055437,2.000410318374634,-0.4152137041091919,-0.3750055432319641,-0.37856876850128174,-0.7991711497306824,0.46691614389419556,-1.3259904384613037,0.22599023580551147,-0.2704898715019226
0.9120064361074967,-2.484494742660685,-2.4634745618113767,2.1511693000793457,-0.2272600531578064,-0.41441020369529724,-0.3739207088947296,-0.7907335758209229,0.48468902707099915,-1.2533681392669678,0.21004527807235718,-0.2650693953037262
0.896946775134178,-2.507663291975486,-2.43623553574877,2.2619752883911133,-0.14115439355373383,-0.460114985704422,-0.36960381269454956,-0.7814253568649292,0.5027595162391663,-1.2046759128570557,0.18781280517578125,-0.2614266872406006
0.8809126856375582,-2.5308004007111546,-2.4084528622643524,2.3692524433135986,-0.18989023566246033,-0.5152871608734131,-0.3650129437446594,-0.771320104598999,0.5213735103607178,-1.1653672456741333,0.15918338298797607,-0.26807790994644165
0.8640747084010261,-2.555027426366865,-2.380029326346763,2.4505271911621094,-0.3095719516277313,-0.6044996380805969,-0.359414279460907,-0.7604947686195374,0.5408040285110474,-1.1590641736984253,0.11790144443511963,-0.2910940647125244
0.8468876658434622,-2.5806888962063983,-2.3511905485196114,2.4578752517700195,-0.46770191192626953,-0.7021172642707825,-0.3523213863372803,-0.7492226958274841,0.5608344078063965,-1.1777232885360718,0.08102494478225708,-0.314237117767334
0.8301503452659831,-2.607441283351135,-2.3230296726540316,2.3240551948547363,-0.7008087635040283,-0.7631195783615112,-0.3435300588607788,-0.7380328178405762,0.58077073097229,-1.1835544109344482,0.07389408349990845,-0.3059142231941223
0.8148105120141393,-2.6346724170271356,-2.2968908983170104,2.084420680999756,-0.8865597248077393,-0.7937845587730408,-0.3330473005771637,-0.7275956273078918,0.5997369289398193,-1.1646335124969482,0.0818282961845398,-0.24828124046325684
0.8013357641701288,-2.6609568057663266,-2.272920009132667,1.8530806303024292,-0.8795256614685059,-0.8385089635848999,-0.32167428731918335,-0.7182860970497131,0.616920530796051,-1.1809351444244385,0.06923812627792358,-0.1777726411819458
0.7891173443752844,-2.685252906232111,-2.2508731037047784,1.7212879657745361,-0.8353641033172607,-0.7927875518798828,-0.3104364573955536,-0.7097317576408386,0.6323845386505127,-1.1975133419036865,0.04290729761123657,-0.17529219388961792
0.7768121158604971,-2.707513196691495,-2.2313393405647592,1.6928932666778564,-0.8635044097900391,-0.6366057991981506,-0.2999340295791626,-0.7010095119476318,0.6470121741294861,-1.1255420446395874,0.07016557455062866,-0.22977608442306519
0.7636883212928455,-2.7282719041592967,-2.2141682717465083,1.705637812614441,-0.8790751099586487,-0.5565943121910095,-0.2901096045970917,-0.6915901899337769,0.6614672541618347,-0.9834804534912109,0.1537332534790039,-0.2926473021507263
0.7506744849983752,-2.747990448491185,-2.1969813320195457,1.6308165788650513,-0.6576756834983826,-0.7502199411392212,-0.280439168214798,-0.6821321249008179,0.6753143668174744,-0.9088613986968994,0.24832487106323242,-0.30892038345336914
0.7399898536072813,-2.7659299496490064,-2.1774917857344707,1.4030848741531372,-0.2908436059951782,-1.1083197593688965,-0.270938515663147,-0.6742804050445557,0.6869774460792542,-0.9768184423446655,0.3617194890975952,-0.23955929279327393
0.7325746634847584,-2.7824420132193577,-2.1546451114990317,1.1995368003845215,0.06056491285562515,-1.511918544769287,-0.261308878660202,-0.6687859892845154,0.696019172668457,-0.9994485974311829,0.47554874420166016,-0.13257336616516113
0.7275802732457701,-2.7976076662347293,-2.1277450803039653,1.132175326347351,0.5001561641693115,-1.8899142742156982,-0.2518470287322998,-0.6650645732879639,0.7030377984046936,-0.91157466173172,0.5785472393035889,-0.061222732067108154
0.723224381643246,-2.8106130721925333,-2.0968454864991815,1.2266192436218262,0.9872385859489441,-2.1548879146575928,-0.2436218112707138,-0.6618053317070007,0.7089866399765015,-0.7384644150733948,0.7102367281913757,-0.06868213415145874
0.717833340249412,-2.820933656565158,-2.0631072140529967,1.4169756174087524,1.3756202459335327,-2.275902509689331,-0.23741278052330017,-0.6577542424201965,0.7148383259773254,-0.47297540307044983,0.8188719749450684,-0.10416662693023682
0.7105446106893475,-2.8297034538480417,-2.027318193057703,1.6406352519989014,1.5091480016708374,-2.4143524169921875,-0.23259980976581573,-0.6522467136383057,0.7214369773864746,-0.15802519023418427,0.9166815876960754,-0.13701027631759644
0.7018333572136901,-2.840751536347881,-1.9881029571728082,1.7943323850631714,1.3081035614013672,-2.7679860591888428,-0.2262905091047287,-0.6456188559532166,0.7293621301651001,0.12669628858566284,1.0078012943267822,-0.17182117700576782
0.6934930491800813,-2.8591960349675936,-1.9429539557685658,1.7450940608978271,0.7665047645568848,-3.3932344913482666,-0.21429301798343658,-0.6392272710800171,0.7385571002960205,0.3636307418346405,1.0673279762268066,-0.1753096580505371
0.6884724738202137,-2.8889093612569456,-1.8897773295765035,1.3360748291015625,0.03476054593920708,-4.241758823394775,-0.19305665791034698,-0.6353583335876465,0.7476958632469177,0.590242862701416,1.113828182220459,-0.08821099996566772
0.6894768641870965,-2.9327272156159907,-1.8273515272201002,0.650017261505127,-0.87591952085495,-5.143580913543701,-0.1599869579076767,-0.63613361120224,0.7548098564147949,0.8211655020713806,1.1642098426818848,0.11391854286193848
0.6961810546087965,-2.9912468088280866,-1.7563106711369296,0.030326537787914276,-1.7081544399261475,-5.759707927703857,-0.11492572724819183,-0.6412920951843262,0.7586408257484436,1.123989462852478,1.1344105005264282,0.3405410051345825
0.7037456062093992,-3.0597064533824287,-1.6803210817403764,-0.11187092959880829,-2.1129114627838135,-5.8560991287231445,-0.06236224249005318,-0.6470779776573181,0.7598690986633301,1.5748896598815918,1.055159091949463,0.4672122001647949
0.7065070275086617,-3.128780701768672,-1.6054570402899402,0.12596720457077026,-1.914681315422058,-5.467912197113037,-0.00974494218826294,-0.6491808891296387,0.7605717778205872,2.1387884616851807,0.9420731663703918,0.43042248487472534
0.702944892702005,3.094169954773068,-1.5382763234149048,0.3874586224555969,-1.3864049911499023,-4.702551364898682,0.0361671969294548,-0.6464672684669495,0.7620840072631836,2.542278289794922,0.604124128818512,0.3055429458618164
0.6958753472517194,3.0486805807367907,-1.4839726401913234,0.38032108545303345,-0.6916021108627319,-3.614020824432373,0.07120674848556519,-0.6410574913024902,0.7641819715499878,2.76064133644104,0.12195372581481934,0.29210734367370605
0.6914278957668102,3.021395736786356,-1.4463729605434306,-0.19307425618171692,0.012067227624356747,-2.1603736877441406,0.09236925095319748,-0.6376377940177917,0.7647783160209656,2.8663556575775146,-0.378002405166626,0.35715460777282715
0.696282144488062,3.011561088163268,-1.428107134240427,-1.1858725547790527,0.26586541533470154,-0.5215352177619934,0.09948346018791199,-0.641369640827179,0.7607547640800476,2.9187049865722656,-0.8161498308181763,0.46072638034820557
0.7148561045581032,3.011391759008013,-1.427696544829375,-2.488659143447876,-0.35779547691345215,0.9144883751869202,0.09804847836494446,-0.6555087566375732,0.748795211315155,2.919865369796753,-0.9778833985328674,0.5185385346412659
0.747484527759176,3.012371531766702,-1.4424635668501866,-3.6513984203338623,-1.435975193977356,2.041872978210449,0.09450734406709671,-0.679796040058136,0.7272861003875732,2.818410634994507,-0.7823009490966797,0.5604028701782227
0.7913825951478646,3.010036128430664,-1.4683336987476954,-4.495059967041016,-2.622328758239746,2.7108027935028076,0.09219958633184433,-0.7113257050514221,0.696788489818573,2.6270384788513184,-0.400490403175354,0.4391670823097229
0.8423344584267528,3.001279254324931,-1.5002453560436735,-4.9248738288879395,-3.738044261932373,2.9196650981903076,0.0931035652756691,-0.7461992502212524,0.6591798067092896,2.196737051010132,-0.03317379951477051,0.21507233381271362
0.8960169720377713,2.9845410195509032,-1.532733633951744,-5.0099663734436035,-4.465332984924316,2.768012523651123,0.09771120548248291,-0.7808448076248169,0.6170360445976257,1.7175352573394775,0.2926858067512512,0.02204763889312744
0.949712950632334,2.962000960957333,-1.5622726040519055,-4.941149711608887,-4.664368629455566,2.535461664199829,0.10394647717475891,-0.8132485151290894,0.572557270526886,1.380611538887024,0.5456703901290894,-0.06686592102050781
1.0025368566702302,2.9373510411903307,-1.5889331520398202,-4.825984954833984,-4.660227298736572,2.4097275733947754,0.10915327817201614,-0.8428389430046082,0.5269801616668701,1.1853107213974,0.6356855630874634,-0.023821651935577393
1.0543972372580657,2.9122827940476035,-1.615055077126507,-4.695092678070068,-4.82464075088501,2.465801477432251,0.11223252862691879,-0.8696027994155884,0.4808272123336792,1.1218525171279907,0.6119886040687561,0.014015257358551025
1.105878387682635,2.887774688258874,-1.6443399879846792,-4.619487285614014,-5.240664958953857,2.6616854667663574,0.11258109658956528,-0.8938583731651306,0.4339843690395355,1.1515027284622192,0.5688309669494629,0.005865335464477539
1.1578844523715177,2.8626029825907637,-1.677790091796796,-4.657525539398193,-5.82999324798584,2.780043601989746,0.11050570756196976,-0.9159562587738037,0.385762095451355,1.1703779697418213,0.5667437314987183,0.003260582685470581
1.211366171603917,2.832286051936255,-1.7119704268255584,-4.8187689781188965,-6.530409336090088,2.7497212886810303,0.10706917941570282,-0.9360974431037903,0.3350486159324646,1.0747087001800537,0.5880751013755798,0.05350109934806824
1.2669666783048832,2.7909767150988762,-1.7412334095767887,-5.062803745269775,-7.1981987953186035,2.632258653640747,0.10275979340076447,-0.9541977643966675,0.28097429871559143,0.890770435333252,0.5991259813308716,0.12986844778060913
1.3248244595829188,2.7322759699609276,-1.7579065471180746,-5.308839321136475,-7.675778865814209,2.487147331237793,0.09690816700458527,-0.9699011445045471,0.2233838438987732,0.6809238195419312,0.6019660830497742,0.21518419682979584
1.3841262157868546,2.6459818605884284,-1.750012523676799,-5.4531049728393555,-7.955970287322998,2.3908064365386963,0.08825959265232086,-0.9826276898384094,0.1632571816444397,0.49844077229499817,0.5771406888961792,0.2807430028915405
1.4428979912843558,2.5074629593189086,-1.6906847483882983,-5.4096550941467285,-7.920612812042236,2.2998268604278564,0.075569748878479,-0.9918321371078491,0.10275182127952576,0.3037636876106262,0.5295215249061584,0.31590354442596436
1.4967751705788286,2.2109049779607677,-1.4710795636358407,-5.247425556182861,-7.571874618530273,2.095891237258911,0.05931270495057106,-0.9972617030143738,0.04417092725634575,0.07406434416770935,0.47496867179870605,0.32121598720550537
1.5289133702355933,1.3216877521232744,-0.6536851329387188,-4.881518363952637,-6.952466011047363,1.8962148427963257,0.04057731851935387,-0.9991230368614197,-0.0103225689381361,-0.10780757665634155,0.40366411209106445,0.296073853969574
1.508280651188904,0.33209612376949765,0.2707339468750575,-4.424957752227783,-6.229133605957031,1.6668959856033325,0.020368117839097977,-0.9980465173721313,-0.05906051769852638,-0.27216866612434387,0.3292844295501709,0.2914366126060486
1.4694258227661186,0.006357368694795417,0.5387877433319478,-3.8676836490631104,-5.43638801574707,1.327491044998169,0.0006433302769437432,-0.9948664307594299,-0.10119307041168213,-0.4547906816005707,0.25324368476867676,0.34399092197418213
1.4330134186595758,-0.1212551375126725,0.6161226050283991,-3.2712643146514893,-4.697012424468994,0.9239251613616943,-0.016613183543086052,-0.9905229210853577,-0.1363379955291748,-0.5822942852973938,0.187483549118042,0.3836219310760498
1.4021724255104286,-0.1820454913517297,0.6333186440652386,-2.7386951446533203,-4.0520195960998535,0.5304781198501587,-0.030383430421352386,-0.9858166575431824,-0.1650523990392685,-0.6838652491569519,0.11132025718688965,0.3817119598388672
1.376697643677591,-0.2140507418537522,0.6268443111837163,-2.2946503162384033,-3.6178297996520996,0.2629236578941345,-0.04097197949886322,-0.9812219142913818,-0.18848012387752533,-0.7183511257171631,0.0018060803413391113,0.40903061628341675
1.3556201863804431,-0.23563684498340895,0.613677017095455,-1.9285811185836792,-3.254882574081421,0.17167158424854279,-0.04984867572784424,-0.976938784122467,-0.20761875808238983,-0.6599291563034058,-0.10280352830886841,0.4668808579444885
1.3378364069951583,-0.25571780534238114,0.6024573699821019,-1.6353566646575928,-2.9458565711975098,0.22528529167175293,-0.05839318037033081,-0.9729873538017273,-0.22335085272789001,-0.5648062825202942,-0.18715345859527588,0.5120776891708374
1.322178405609439,-0.2790625282729345,0.5971515767953252,-1.4645695686340332,-2.745760202407837,0.3578767776489258,-0.0677795484662056,-0.969253420829773,-0.2365451157093048,-0.4661712646484375,-0.2574921250343323,0.5541568398475647
1.306839775377449,-0.30439354057372103,0.5955445953454263,-1.5115739107131958,-2.6260757446289062,0.4345097541809082,-0.07819616049528122,-0.9653652906417847,-0.24890807271003723,-0.41893520951271057,-0.32134729623794556,0.6157751083374023
1.2900455015634513,-0.32737248765242427,0.5924187526668755,-1.7401565313339233,-2.5593321323394775,0.4397158920764923,-0.08909580856561661,-0.9608476758003235,-0.2623615562915802,-0.447250634431839,-0.35528385639190674,0.7289142608642578
1.270687787619118,-0.3446904826290492,0.5844172868208806,-2.054821491241455,-2.4171230792999268,0.4032668173313141,-0.09989287704229355,-0.9553043842315674,-0.2782352566719055,-0.48645660281181335,-0.35467779636383057,0.8522403836250305
1.2486863131315769,-0.35521815307408383,0.5711923442010295,-2.334617853164673,-2.1787869930267334,0.3355274796485901,-0.11010099202394485,-0.9485695362091064,-0.2968055307865143,-0.5309817790985107,-0.3660818338394165,0.9332953691482544
1.2247003316506277,-0.357811988929108,0.5525044377607062,-2.562041759490967,-1.8525991439819336,0.18313205242156982,-0.11880622059106827,-0.9407042264938354,-0.31774279475212097,-0.5788866281509399,-0.3915557861328125,0.9215483665466309
1.1994774079961874,-0.35255721895841174,0.5286424545771211,-2.7315571308135986,-1.5300334692001343,-0.004330616444349289,-0.12528978288173676,-0.9318495988845825,-0.3405269384384155,-0.6110535860061646,-0.42294764518737793,0.846676230430603
1.173933164004555,-0.3398964807203496,0.5000748691510153,-2.7492282390594482,-1.2971386909484863,-0.28314438462257385,-0.1288640946149826,-0.9222779870033264,-0.36441361904144287,-0.5992242693901062,-0.4280027151107788,0.8009065389633179
1.1495624355760787,-0.32437400541408523,0.4686160308174706,-2.6571552753448486,-1.364593744277954,-0.47481200098991394,-0.13031846284866333,-0.9125851392745972,-0.38756322860717773,-0.6016303896903992,-0.4413270950317383,0.6221824288368225
1.1263986563399213,-0.31069681915752373,0.43752943014692514,-2.532120704650879,-1.5609779357910156,-0.540654182434082,-0.13143426179885864,-0.9028697609901428,-0.4093301296234131,-0.46387213468551636,-0.4402240514755249,0.4409921169281006
1.1045289736677695,-0.30216644988759295,0.40907969098984265,-2.374436616897583,-1.8246468305587769,-0.5134966373443604,-0.13378272950649261,-0.8932525515556335,-0.42918750643730164,-0.3163820505142212,-0.4488189220428467,0.3273046016693115
1.0839551932991125,-0.29965215665865214,0.38437048862539425,-2.2118897438049316,-2.0517444610595703,-0.4228977560997009,-0.1380995810031891,-0.8838151097297668,-0.4469890594482422,-0.20444494485855103,-0.4626356363296509,0.21385005116462708
1.064710250893425,-0.30324822861274436,0.3637993187253302,-2.025412082672119,-2.2676825523376465,-0.30115950107574463,-0.1447591483592987,-0.8746485114097595,-0.4626387655735016,-0.1022806316614151,-0.4636387825012207,0.12570947408676147
1.0471045743386709,-0.31240944063020687,0.3476701177581928,-1.7970348596572876,-2.3303847312927246,-0.14442265033721924,-0.15370094776153564,-0.8659788966178894,-0.4758746027946472,-0.046158671379089355,-0.47180497646331787,0.05953848361968994
1.0313829066782894,-0.3252577130326555,0.33593717913372734,-1.5469071865081787,-2.231271505355835,-0.005554327741265297,-0.16413284838199615,-0.8580101132392883,-0.4867020547389984,-0.0050870925188064575,-0.4610663056373596,0.0005875527858734131
1.0180992776370887,-0.33995775176894577,0.3281448011817519,-1.2133013010025024,-2.0160181522369385,0.0988525003194809,-0.17505468428134918,-0.8511117100715637,-0.4949391186237335,0.007116466760635376,-0.440071702003479,-0.03589886426925659
1.0075464676416803,-0.3544146925220966,0.3232494666323429,-0.952861487865448,-1.685842514038086,0.14773039519786835,-0.18529821932315826,-0.8455243706703186,-0.5007524490356445,-0.016712874174118042,-0.3954118490219116,-0.07496166229248047
0.9993565107248216,-0.3679708502677155,0.3212532117040268,-0.6352654099464417,-1.3568387031555176,0.2175384908914566,-0.19455377757549286,-0.841123104095459,-0.5046390295028687,-0.05253174901008606,-0.35890424251556396,-0.08779865503311157
0.9943969050198829,-0.38079929630268444,0.32187339031357426,-0.27108919620513916,-1.1065322160720825,0.20259353518486023,-0.20255927741527557,-0.8384304046630859,-0.5059683322906494,-0.03166310489177704,-0.304681658744812,-0.10658043622970581
0.992240021431966,-0.39327284494564513,0.32439017285495225,-0.03661037236452103,-0.9741182327270508,0.21797381341457367,-0.20954710245132446,-0.8372529745101929,-0.5050715804100037,-0.04072752594947815,-0.24729591608047485,-0.1929263472557068
0.991809310004573,-0.4064864366753564,0.328774445215462,0.1384553164243698,-0.9289060831069946,0.2589018940925598,-0.21634499728679657,-0.8370173573493958,-0.5025899410247803,-0.026223957538604736,-0.19253885746002197,-0.16872048377990723
0.992401924812213,-0.4209854560006384,0.33510582997430377,0.23472937941551208,-0.9119929075241089,0.3271661698818207,-0.22340638935565948,-0.8373414874076843,-0.49894776940345764,0.01578003168106079,-0.13063037395477295,-0.13239991664886475
0.9930164686200679,-0.43681736905745916,0.3432179377082032,0.23367710411548615,-0.8801944255828857,0.4267880320549011,-0.23105958104133606,-0.8376772999763489,-0.4948820173740387,0.05016666650772095,-0.08825653791427612,-0.10872513055801392
0.99276018418377,-0.4534517451119968,0.3528892768621174,0.17232400178909302,-0.8342679738998413,0.5384572744369507,-0.23935328423976898,-0.8375372886657715,-0.49116307497024536,0.06962980329990387,-0.06793445348739624,-0.03195399045944214
0.9913818943529636,-0.47060394176431686,0.36318457448388297,0.0801030620932579,-0.8718409538269043,0.5804719924926758,-0.2482653558254242,-0.8367834091186523,-0.48801398277282715,0.07658876478672028,-0.052422404289245605,0.048545628786087036
0.9890344872387242,-0.48798827952107604,0.3729724426406737,0.0038333251141011715,-0.9651098847389221,0.5730997920036316,-0.25763148069381714,-0.8354958295822144,-0.48535823822021484,0.09436246752738953,-0.007140219211578369,0.06621456146240234
0.9863673089797182,-0.5051287293448414,0.3815312771139189,-0.013902697712182999,-1.0113332271575928,0.5010426640510559,-0.26698997616767883,-0.8340272307395935,-0.4828197658061981,0.07855921983718872,0.05285358428955078,0.06981015205383301
0.9841068743523245,-0.5212841314438645,0.38891606015501895,0.026086796075105667,-0.9747852683067322,0.43048006296157837,-0.2756930887699127,-0.8327779769897461,-0.48007723689079285,0.04131811857223511,0.06887727975845337,0.05315154790878296
0.9825763385240561,-0.5362718829565613,0.39571155685332593,0.09161637723445892,-0.8783453106880188,0.37477144598960876,-0.2835080623626709,-0.8319296836853027,-0.4769865870475769,0.033263951539993286,0.09633404016494751,0.024532973766326904
0.9818327131311502,-0.5501348188346251,0.4024564638883936,0.16508632898330688,-0.743179202079773,0.33969974517822266,-0.2904163599014282,-0.8315168619155884,-0.4735378324985504,0.04049268364906311,0.11209547519683838,0.019665181636810303
0.9818332210604218,-0.5627445400732132,0.4095987325960277,0.25339069962501526,-0.5957857966423035,0.3362888693809509,-0.29636403918266296,-0.8315171003341675,-0.46983784437179565,0.03713250160217285,0.11206525564193726,0.023808181285858154
0.982472167082601,-0.5746427334478048,0.4177595456623855,0.3363574743270874,-0.41950345039367676,0.35971882939338684,-0.30164432525634766,-0.8318718671798706,-0.4658324122428894,0.054253607988357544,0.11379331350326538,0.028835952281951904
0.9835339651901722,-0.5858195084124622,0.42727411324838266,0.4188816249370575,-0.2328680157661438,0.4118627905845642,-0.3063433766365051,-0.8324607014656067,-0.46169573068618774,0.061516135931015015,0.11471778154373169,0.039851248264312744
0.9848098987833763,-0.5967301004764787,0.43859142601848355,0.48590967059135437,-0.06288804113864899,0.4815446734428406,-0.31076520681381226,-0.8331669569015503,-0.4574468433856964,0.07455924153327942,0.10678768157958984,0.054904788732528687
0.9859488248773045,-0.6071526823658963,0.45124634719700546,0.4808617830276489,0.07676941156387329,0.5323690176010132,-0.31497442722320557,-0.8337962627410889,-0.4534034729003906,0.08151501417160034,0.09745299816131592,0.07191851735115051
0.9863477519410914,-0.6167883826196455,0.46389055153473513,0.37167268991470337,0.08973874151706696,0.5574533343315125,-0.31913620233535767,-0.8340164422988892,-0.4500761330127716,0.06700003147125244,0.08908241987228394,0.093813955783844
0.9853937109051696,-0.6255737964299758,0.4751514885048733,0.18454071879386902,0.026445049792528152,0.5559918880462646,-0.3235436975955963,-0.833489716053009,-0.44789984822273254,0.05279180407524109,0.08115518093109131,0.12719058990478516
0.9826694010691572,-0.6329952960171911,0.4835737708990607,-0.0826110988855362,-0.11828124523162842,0.5104348063468933,-0.32820096611976624,-0.8319813013076782,-0.4473155438899994,0.04830902814865112,0.0900837779045105,0.16609609127044678
0.9779188837694418,-0.6385794555779374,0.48798033417500924,-0.3900364637374878,-0.26268139481544495,0.44343066215515137,-0.33304572105407715,-0.8293363451957703,-0.44864422082901,0.014701634645462036,0.08302903175354004,0.207585871219635
0.9712294702965547,-0.6419696008336682,0.48820909557858744,-0.6522432565689087,-0.369003027677536,0.3732643723487854,-0.33787915110588074,-0.8255801200866699,-0.4519459009170532,-0.0012015998363494873,0.0855594277381897,0.2302052080631256
0.9632338063685035,-0.6436849282110173,0.48535587027414673,-0.8046589493751526,-0.4367440938949585,0.32895565032958984,-0.34260472655296326,-0.8210419416427612,-0.4566313922405243,-0.020966440439224243,0.07223206758499146,0.2046019434928894
0.9545783881677357,-0.6445279431054732,0.4811714188982687,-0.852593719959259,-0.41119423508644104,0.33201348781585693,-0.34724631905555725,-0.8160701394081116,-0.46200597286224365,-0.02946263551712036,0.05049097537994385,0.13783299922943115
0.9457829910109768,-0.6452308902298989,0.47727433387146917,-0.814913272857666,-0.35172414779663086,0.3625689446926117,-0.3518739938735962,-0.8109553456306458,-0.467478483915329,0.003653228282928467,0.04433852434158325,0.06925463676452637
0.9372365758430895,-0.6461296258659016,0.47457917376940756,-0.7340671420097351,-0.26757892966270447,0.41482388973236084,-0.35645410418510437,-0.805925190448761,-0.4726785719394684,0.015954256057739258,0.02951228618621826,0.01776832342147827
0.9289651518436387,-0.6478187801181997,0.47369107934182897,-0.6496521830558777,-0.21383817493915558,0.4965997636318207,-0.3612624406814575,-0.8010008335113525,-0.47737523913383484,0.020426899194717407,0.009374797344207764,-0.010204195976257324
0.9208267908934356,-0.6503829480147366,0.4745331678752007,-0.5869171619415283,-0.16579873859882355,0.5590642094612122,-0.3664204180240631,-0.7961022257804871,-0.48161956667900085,0.03747144341468811,-0.003504157066345215,-0.017587006092071533
0.9127829693123751,-0.6533553160987412,0.4762796182366047,-0.5597537159919739,-0.14461581408977509,0.5719769597053528,-0.3717308044433594,-0.7912087440490723,-0.4855974018573761,0.03470999002456665,-0.005895078182220459,-0.010725229978561401
0.9048712800951767,-0.6562883811959888,0.47812762505328493,-0.5547502040863037,-0.1569443792104721,0.5634505748748779,-0.3769614100456238,-0.7863456606864929,-0.48944923281669617,-0.000815659761428833,-0.014054059982299805,0.0007254481315612793
0.8971272947033083,-0.6592804317550669,0.47960938087660826,-0.5570568442344666,-0.20954672992229462,0.5180646777153015,-0.38214293122291565,-0.7815379500389099,-0.4931178092956543,-0.010236799716949463,-0.013460159301757812,0.010543346405029297
0.8896319134906634,-0.6620562994115726,0.48010199470963283,-0.5864791870117188,-0.26678311824798584,0.44164714217185974,-0.38710054755210876,-0.7768400311470032,-0.49666160345077515,-0.025893807411193848,-0.006073176860809326,0.010867536067962646
0.8823744775285068,-0.6643186655216143,0.47913648987635055,-0.6241353154182434,-0.33502820134162903,0.3526281416416168,-0.39168885350227356,-0.7722495794296265,-0.5002104043960571,-0.04793208837509155,0.0017723441123962402,0.004574418067932129
0.875381823256258,-0.6662261388204221,0.4768193306124667,-0.6521627306938171,-0.4026927053928375,0.28076621890068054,-0.3959699869155884,-0.7677881717681885,-0.5036953687667847,-0.06449443101882935,-0.000934302806854248,0.002337336540222168
0.8685206278664118,-0.6681823552673125,0.47366996585595356,-0.6732080578804016,-0.4661039412021637,0.25072619318962097,-0.4002090096473694,-0.7633741497993469,-0.5070430636405945,-0.05723416805267334,-0.010475337505340576,-0.0034702420234680176
0.8616364631502447,-0.67035480161728,0.4701374550271057,-0.6864279508590698,-0.4988139569759369,0.24525365233421326,-0.40456482768058777,-0.7589092254638672,-0.5102782249450684,-0.030798882246017456,-0.011812090873718262,-0.007818639278411865
0.8546949989798096,-0.6726243464537045,0.46660100220315914,-0.6811279654502869,-0.48351725935935974,0.2629597783088684,-0.40899431705474854,-0.7543707489967346,-0.5134670734405518,-0.01861792802810669,-0.01584714651107788,-0.005331754684448242
0.8476580588581123,-0.6750431280643651,0.4637285823969119,-0.6486663818359375,-0.4246020019054413,0.3202528953552246,-0.41354233026504517,-0.7497327327728271,-0.5166078209877014,-0.02093636989593506,-0.02549004554748535,-0.0023436546325683594
0.8405915036441391,-0.6775550786439815,0.4619257718529729,-0.5965267419815063,-0.3413739800453186,0.37195247411727905,-0.41814959049224854,-0.7450377941131592,-0.5196821689605713,-0.008089393377304077,-0.03378605842590332,-0.003373861312866211
0.8337861201086324,-0.6799414572035901,0.46102582913392776,-0.534990131855011,-0.27191102504730225,0.3812234699726105,-0.42256680130958557,-0.7404812574386597,-0.522613525390625,0.003606259822845459,-0.026517033576965332,-0.01031494140625
0.8275375290575886,-0.6821257298816545,0.4604941368929505,-0.4772612750530243,-0.24649371206760406,0.34111571311950684,-0.42661598324775696,-0.7362672686576843,-0.5252706408500671,-0.01678907871246338,-0.0206143856048584,-0.02442723512649536
0.8220985771514195,-0.6842012675899988,0.4598496214357626,-0.4193423092365265,-0.26496273279190063,0.27056458592414856,-0.4302300214767456,-0.7325758934020996,-0.5274794101715088,-0.03821474313735962,-0.00843656063079834,-0.036256492137908936
0.8176544867249729,-0.686363374850838,0.45877837170201446,-0.3607906699180603,-0.32512930035591125,0.17655067145824432,-0.4334283471107483,-0.7295436859130859,-0.5290611386299133,-0.052869170904159546,0.008245527744293213,-0.050711750984191895
0.8142241786921863,-0.6889117454085285,0.457189793429851,-0.3102888762950897,-0.4142082929611206,0.09447365254163742,-0.4363636076450348,-0.727193295955658,-0.5298837423324585,-0.06781727075576782,0.01653045415878296,-0.0667959451675415
0.8114765683690678,-0.692010593728652,0.45518674847441387,-0.29131513833999634,-0.48714444041252136,0.0469733327627182,-0.439276784658432,-0.7253044843673706,-0.5300653576850891,-0.06043323874473572,0.02271360158920288,-0.07042896747589111
0.8090438281525345,-0.6952874493626408,0.45282310877577725,-0.29029858112335205,-0.4978399872779846,0.01555175893008709,-0.4421404004096985,-0.7236275672912598,-0.5299764275550842,-0.03890812397003174,0.023020267486572266,-0.05731916427612305
0.8067620111092884,-0.6980766933271751,0.4501737203957614,-0.29143935441970825,-0.42834195494651794,-0.005001365207135677,-0.44467705488204956,-0.7220507860183716,-0.5300046801567078,-0.025324136018753052,0.021824955940246582,-0.035913288593292236
0.8046672173936089,-0.699675673889495,0.4473606075214124,-0.27317458391189575,-0.2908610701560974,-0.027323715388774872,-0.44649702310562134,-0.7205999493598938,-0.5304490327835083,-0.02747151255607605,0.014636814594268799,-0.016639649868011475
0.8030057013749475,-0.6999088973375857,0.4444182040411558,-0.2393585592508316,-0.18300601840019226,-0.07310018688440323,-0.4473913013935089,-0.7194469571113586,-0.5312598943710327,-0.032406002283096313,0.015177547931671143,-0.012792229652404785
0.8019756359562151,-0.6991364985482099,0.44129987511733937,-0.1888463944196701,-0.11330842971801758,-0.1253996044397354,-0.44745755195617676,-0.7187311053276062,-0.5321722626686096,-0.043905943632125854,0.022243738174438477,-0.02459043264389038
0.8018029803386045,-0.6978154199513045,0.4382404449993696,-0.1057562306523323,-0.07030897587537766,-0.17195431888103485,-0.4468337893486023,-0.7186110615730286,-0.5328579545021057,-0.04869532585144043,0.03474271297454834,-0.03794282674789429
0.8025793388634826,-0.6968360646421201,0.43580670578443736,0.007045951206237078,-0.08588767051696777,-0.18212546408176422,-0.4459535479545593,-0.719150722026825,-0.5328673124313354,-0.043090611696243286,0.03737282752990723,-0.06291210651397705
0.8041795800438908,-0.6967698419071324,0.4343826160585041,0.11019882559776306,-0.10248514264822006,-0.17397840321063995,-0.44517913460731506,-0.7202617526054382,-0.5320135951042175,-0.01751306653022766,0.03790396451950073,-0.08845454454421997
0.8063612808724187,-0.6974954763260884,0.4338581637813591,0.16954895853996277,-0.11694929748773575,-0.16300217807292938,-0.4445546865463257,-0.7217735052108765,-0.530484676361084,0.001912534236907959,0.03921741247177124,-0.08999866247177124
0.8088144056679906,-0.6985222018858732,0.4337023491296928,0.18506856262683868,-0.10115395486354828,-0.16881063580513,-0.44395914673805237,-0.7234691977500916,-0.5286704897880554,-0.0013075172901153564,0.028889119625091553,-0.06767350435256958
0.8112819235943048,-0.6990915178237123,0.43339927438556675,0.15862630307674408,-0.051493726670742035,-0.17722088098526,-0.4431098699569702,-0.7251704335212708,-0.5270496010780334,-0.012731105089187622,0.021679341793060303,-0.027012228965759277
0.8133926093753502,-0.6988586351782432,0.4326309822095509,0.08962791413068771,-0.01667797565460205,-0.1720789521932602,-0.44200149178504944,-0.7266222238540649,-0.5259798765182495,-0.017837345600128174,0.010054230690002441,0.005502581596374512
0.8147775367944495,-0.697870097073189,0.43121598982595516,-0.0011848141439259052,0.0014901096001267433,-0.15469489991664886,-0.4408342242240906,-0.7275729775428772,-0.5256449580192566,-0.012840032577514648,-0.0036739110946655273,0.03571581840515137
0.8153854388259031,-0.6965040784357714,0.42925148156568854,-0.07631554454565048,-0.020854653790593147,-0.1266687661409378,-0.43983194231987,-0.727989912033081,-0.5259072780609131,-0.0076777637004852295,-0.01732558012008667,0.050458669662475586
0.8152804979144368,-0.6953942280605497,0.4271159500481,-0.12409558147192001,-0.06872124969959259,-0.08390745520591736,-0.4392969310283661,-0.7279179692268372,-0.5264537930488586,0.004452049732208252,-0.027193665504455566,0.03777581453323364
0.8146175045017099,-0.6950341929816385,0.4252182626222219,-0.1402171552181244,-0.1360018253326416,-0.03062550723552704,-0.4394162595272064,-0.7274631857872009,-0.5269823670387268,0.015176266431808472,-0.03172248601913452,0.025166571140289307
0.8135216890920683,-0.695366245092479,0.42368220402774287,-0.16759896278381348,-0.14269886910915375,0.0055540683679282665,-0.4401017427444458,-0.726710855960846,-0.527448296546936,0.022606074810028076,-0.03137624263763428,0.005612969398498535
0.8117651837744987,-0.6948919906171738,0.4216162333460303,-0.2067062258720398,-0.10575495660305023,-0.02151944860816002,-0.44066816568374634,-0.725503146648407,-0.5286365747451782,0.022852063179016113,-0.028570890426635742,0.014842629432678223
0.8101355707508218,-0.694314918510106,0.4191465464090904,-0.22926399111747742,-0.13116765022277832,-0.04938303679227829,-0.4411190450191498,-0.7243806719779968,-0.5297987461090088,-0.018109440803527832,-0.029815495014190674,0.03448319435119629
0.8086936207596211,-0.6937096899442537,0.41646436846080115,-0.2242630422115326,-0.129472017288208,-0.06689722836017609,-0.4414656162261963,-0.7233858108520508,-0.5308681130409241,-0.023072868585586548,-0.012957513332366943,0.017989754676818848
0.8076010895673653,-0.6934683000811546,0.4140259099149068,-0.19168859720230103,-0.15187186002731323,-0.04798425734043121,-0.4418424367904663,-0.72263103723526,-0.5315821766853333,-0.013266146183013916,-0.00805133581161499,0.005291283130645752
0.8066167265869832,-0.6940308861899448,0.4124085916107521,-0.15274398028850555,-0.1603134423494339,0.009276727214455605,-0.4425962269306183,-0.7219502925872803,-0.5318800806999207,0.002929508686065674,-0.012958765029907227,-0.017817795276641846
0.8057060302066948,-0.695228118451256,0.4117945843035345,-0.08938950300216675,-0.15517647564411163,0.06055775657296181,-0.4436536431312561,-0.7213197946548462,-0.5318544507026672,0.03754103183746338,-0.019509613513946533,-0.02673935890197754
0.8051689504107221,-0.6973075684063441,0.4123350396267422,-0.0030210912227630615,-0.17330756783485413,0.10332182049751282,-0.4450073838233948,-0.7209477424621582,-0.5312276482582092,0.04290783405303955,-0.023406505584716797,-0.041800856590270996
0.8049857010853644,-0.6997133180816587,0.4135205435341633,0.0340607650578022,-0.14378510415554047,0.09923386573791504,-0.4463691711425781,-0.7208207249641418,-0.5302565693855286,0.04043957591056824,-0.018253982067108154,-0.06765908002853394
0.8050924625487026,-0.7012582790705149,0.4144449695328768,0.006497187539935112,-0.03494931757450104,0.04328440874814987,-0.44713813066482544,-0.7208947539329529,-0.5295074582099915,0.020441442728042603,-0.00994020700454712,-0.04942619800567627
0.8052316631016802,-0.7012967253218779,0.41465886768817484,-0.04153025895357132,0.09220224618911743,-0.023725781589746475,-0.44709375500679016,-0.7209911942481995,-0.5294135808944702,-0.019642025232315063,-0.009889423847198486,-0.00433880090713501
0.8051637349744778,-0.6993700254405215,0.41383208314478115,-0.07437128573656082,0.2009720355272293,-0.06528042256832123,-0.446104496717453,-0.7209441065788269,-0.5303115844726562,-0.03955221176147461,-0.01062321662902832,0.01808929443359375
0.8050972802159743,-0.6958438020297643,0.41230479064152903,-0.08453843742609024,0.28991442918777466,-0.09143958985805511,-0.44426241517066956,-0.7208980917930603,-0.5319181084632874,-0.024365484714508057,-0.005313456058502197,0.011578142642974854
0.8052342352818419,-0.6910413673619807,0.4102362419982456,-0.059380561113357544,0.3433728516101837,-0.12495085597038269,-0.44163984060287476,-0.7209929823875427,-0.5339693427085876,-0.01693248748779297,-0.002655029296875,-0.011608600616455078
0.8060799635678367,-0.6852052104158542,0.40776939095978454,-0.0087887579575181,0.38865402340888977,-0.1702277809381485,-0.4381300210952759,-0.7215787768363953,-0.5360654592514038,-0.022197067737579346,0.0008298754692077637,-0.04195272922515869
0.8076252930259188,-0.6792888603816577,0.4053025238070737,0.054116737097501755,0.36858972907066345,-0.22416327893733978,-0.43424972891807556,-0.7226477861404419,-0.5377799868583679,-0.031234830617904663,0.008734822273254395,-0.07951432466506958
0.8097414167116755,-0.6738329055014451,0.40292473487676506,0.11309057474136353,0.3309422433376312,-0.2570575773715973,-0.4303539991378784,-0.724108874797821,-0.5389450192451477,-0.03378778696060181,0.023638904094696045,-0.0964919924736023
0.8123070698441838,-0.668885302716484,0.40097315883967416,0.1460115611553192,0.35475629568099976,-0.2611803114414215,-0.42652881145477295,-0.725875973701477,-0.539608359336853,-0.029144376516342163,0.02874767780303955,-0.07750284671783447
0.8150333868980252,-0.6640204811329701,0.3994365171855748,0.14690318703651428,0.3930719792842865,-0.23854905366897583,-0.4226774275302887,-0.7277485132217407,-0.5401164293289185,-0.02478650212287903,0.010722815990447998,-0.04820138216018677
0.8175919232927714,-0.6590848675251104,0.3981273962506105,0.14750072360038757,0.39633312821388245,-0.21752162277698517,-0.4188649654388428,-0.7295008897781372,-0.5407223701477051,-0.01613256335258484,0.001061558723449707,-0.020648479461669922
0.8201726024100322,-0.6544407734141356,0.3970245086204441,0.16881027817726135,0.3669467568397522,-0.2193264365196228,-0.4152018427848816,-0.7312635779380798,-0.5411662459373474,-0.011403322219848633,0.0004439353942871094,-0.012437820434570312
0.8230349591111095,-0.6501379525389237,0.3959332266092161,0.19471843540668488,0.3359968662261963,-0.24818508327007294,-0.41160088777542114,-0.733212947845459,-0.5412794947624207,-0.01933780312538147,0.00515514612197876,-0.036219894886016846
0.8263434476347972,-0.6458928167919652,0.3945944395199882,0.22135217487812042,0.317482054233551,-0.29419225454330444,-0.4078369140625,-0.7354587316513062,-0.5410816669464111,-0.031982362270355225,0.010651051998138428,-0.06009930372238159
0.830075653980055,-0.6414322699160085,0.3928368771098884,0.22867543995380402,0.30859899520874023,-0.34067240357398987,-0.4037741720676422,-0.737982451915741,-0.5406923890113831,-0.05121234059333801,0.003393888473510742,-0.06379979848861694
0.8339338704104431,-0.6368745507073995,0.3907105469476502,0.21742971241474152,0.28927403688430786,-0.3424958884716034,-0.3996095061302185,-0.7405804991722107,-0.5402340292930603,-0.05313396453857422,-0.00032520294189453125,-0.04310953617095947
0.8375477104456842,-0.6324184622636567,0.3885008495285824,0.18695907294750214,0.26991093158721924,-0.32097306847572327,-0.3956136107444763,-0.7430040836334229,-0.5398470163345337,-0.041138678789138794,-0.0020520687103271484,-0.014642119407653809
0.8407320914583265,-0.6281904777478188,0.386254488382503,0.14717598259449005,0.23883503675460815,-0.29285728931427,-0.39193516969680786,-0.7451315522193909,-0.539597749710083,-0.019090771675109863,-0.007691323757171631,0.004121065139770508
0.843429407248322,-0.6242688869028321,0.3839430005280133,0.10981810837984085,0.19635675847530365,-0.2708975672721863,-0.38863980770111084,-0.7469277381896973,-0.5394977927207947,-0.015580713748931885,-0.004964232444763184,0.013100147247314453
0.8456615274165004,-0.6208132007309912,0.3816437183480446,0.0759674683213234,0.14629332721233368,-0.23132380843162537,-0.38580241799354553,-0.7484100461006165,-0.5394801497459412,-0.01826554536819458,-0.003009021282196045,0.014608323574066162
0.8472801811470793,-0.6181908518728234,0.37975430169654056,0.03952154517173767,0.09191668778657913,-0.15574027597904205,-0.3836837708950043,-0.7494825720787048,-0.5395020246505737,-0.0062239766120910645,-0.004698216915130615,0.014630258083343506
0.8480158280604011,-0.6164737593254327,0.3785624746738477,-0.0071367728523910046,0.09260112047195435,-0.0571599081158638,-0.38243797421455383,-0.7499694228172302,-0.5397100448608398,0.013511031866073608,-0.0122222900390625,0.02513796091079712
0.8479858195824851,-0.6150272734658907,0.37828334152485543,-0.01691794954240322,0.15040436387062073,0.029291898012161255,-0.3816698491573334,-0.74994957447052,-0.5402810573577881,0.018999040126800537,-0.027073681354522705,0.04171544313430786
0.8475025736545349,-0.613843328721024,0.37878197761433163,-0.021464763209223747,0.1428271383047104,0.07320555299520493,-0.3812386393547058,-0.7496297955513,-0.5410287380218506,0.024945974349975586,-0.0390663743019104,0.04293614625930786
0.8469728912332617,-0.6133848865739924,0.37950928360913866,-0.005335378460586071,0.05410613864660263,0.05666137486696243,-0.38121911883354187,-0.7492791414260864,-0.5415281057357788,0.022179871797561646,-0.0184057354927063,0.02340066432952881
0.8469143550387503,-0.6134791019252369,0.37993900482397763,0.028626050800085068,-0.0012082485482096672,-0.004166288301348686,-0.3812953531742096,-0.7492403388023376,-0.5415279865264893,-0.00952795147895813,0.012790262699127197,-0.0019289851188659668
0.8474701876657645,-0.6136417401178862,0.38003513661014715,0.07191526144742966,-0.013713398016989231,-0.042577773332595825,-0.38114362955093384,-0.7496083974838257,-0.5411255359649658,-0.042440325021743774,0.021352171897888184,-0.02267146110534668
0.8485037430826973,-0.6138335374998636,0.38029537057816165,0.11434740573167801,0.0159294493496418,-0.04689235985279083,-0.38080093264579773,-0.7502920627593994,-0.5404188632965088,-0.04398846626281738,0.025804758071899414,-0.02281355857849121
0.8498589394693833,-0.6137080728919516,0.380745336134767,0.14294572174549103,0.0796954333782196,-0.05949168652296066,-0.38014715909957886,-0.7511873245239258,-0.5396347641944885,-0.024012356996536255,0.02724933624267578,-0.0138930082321167
0.8518717290190086,-0.6130348670641843,0.3813449470166953,0.1738964468240738,0.15555930137634277,-0.07637399435043335,-0.3789130747318268,-0.7525144219398499,-0.538652777671814,-0.027672559022903442,0.02428877353668213,-0.00909191370010376
0.8545708701592827,-0.6117235529957893,0.38213177085859096,0.2057962417602539,0.24071241915225983,-0.0908416211605072,-0.3770385682582855,-0.7542892694473267,-0.5374844074249268,-0.0353454053401947,0.019807517528533936,-0.002508819103240967
0.8579153909212793,-0.6097561595736638,0.38304071376512366,0.23247766494750977,0.30051183700561523,-0.09186454117298126,-0.37453365325927734,-0.7564808130264282,-0.5361540913581848,-0.03223508596420288,0.023875892162322998,0.0018981695175170898
0.8610284743588659,-0.6071853901234684,0.3839369589775565,0.2574582099914551,0.33445364236831665,-0.09544258564710617,-0.37180858850479126,-0.7585131525993347,-0.5351784825325012,-0.022127509117126465,0.027098476886749268,-0.001640915870666504
0.8631981852051265,-0.6049752856396571,0.38523478076185375,0.2742246687412262,0.3280434012413025,-0.11422985792160034,-0.3696880638599396,-0.7599253058433533,-0.5346440672874451,-0.01765623688697815,0.02774757146835327,-0.007531225681304932
0.8648606148491816,-0.6034403830115852,0.38670013964413236,0.2732548117637634,0.2734573781490326,-0.14752966165542603,-0.3681495785713196,-0.7610048651695251,-0.5341699719429016,-0.021300435066223145,0.025363385677337646,-0.012232005596160889
0.8664820263298721,-0.6022417132584753,0.38772417394551034,0.2441251575946808,0.20453503727912903,-0.17205391824245453,-0.36680957674980164,-0.7620557546615601,-0.5335933566093445,-0.023922204971313477,0.02397286891937256,-0.014349758625030518
0.8681232151328255,-0.6009274046658005,0.38770314746906,0.17361238598823547,0.105181023478508,-0.19779656827449799,-0.3654002249240875,-0.7631173729896545,-0.5330426096916199,-0.0208301842212677,0.024363219738006592,-0.011329948902130127
0.8692461778346574,-0.6001003592965484,0.3867985304148776,0.07313744723796844,-0.010252363048493862,-0.2115246206521988,-0.3644750714302063,-0.7638426423072815,-0.5326370000839233,-0.014309048652648926,0.014300525188446045,0.007261693477630615
0.869655874045044,-0.5999781642939372,0.38520652425658214,-0.026681531220674515,-0.10429839789867401,-0.19888322055339813,-0.36423325538635254,-0.7641069889068604,-0.5324232578277588,-0.0060517191886901855,0.000953972339630127,0.033247292041778564
0.8694255626483581,-0.599993085638138,0.3830991269040343,-0.08836353570222855,-0.1278282105922699,-0.16694846749305725,-0.364340603351593,-0.7639583945274353,-0.5325630903244019,0.011160731315612793,-0.010074198246002197,0.042374491691589355
0.8687639984688229,-0.5996939125339734,0.3807554932800421,-0.11266322433948517,-0.11646594852209091,-0.1288696974515915,-0.36446645855903625,-0.7635313272476196,-0.5330892205238342,0.020548641681671143,-0.014407515525817871,0.03395897150039673
0.8679662191289821,-0.5992249087073624,0.37861473044898136,-0.10668335855007172,-0.09041862934827805,-0.08631957322359085,-0.36455976963043213,-0.7630159258842468,-0.5337628126144409,0.022183120250701904,-0.0225369930267334,0.016535699367523193
0.8675842664422475,-0.5987050543569898,0.3769063138487473,-0.07899831980466843,-0.06504358351230621,-0.054184988141059875,-0.3644464910030365,-0.7627689838409424,-0.5341930389404297,0.030843615531921387,-0.022356748580932617,-0.0016803741455078125
0.8673700024847174,-0.5984140795086452,0.37582005104223354,-0.036405049264431,-0.044410206377506256,-0.03971124067902565,-0.3643830716609955,-0.7626304030418396,-0.5344340205192566,0.03023090958595276,-0.019382476806640625,-0.016820192337036133
0.8674946637511589,-0.5983382323926624,0.37521739632660267,0.01465937402099371,-0.034979622811079025,-0.036662183701992035,-0.36428898572921753,-0.7627110481262207,-0.5343831181526184,0.018906354904174805,-0.016463756561279297,-0.028803527355194092
