attitudeX,attitudeY,attitudeZ,gyroX,gyroY,gyroZ,gravityX,gravityY,gravityZ,accX,accY,accZ
0.6241407313346703,0.4022104751165888,-1.15696883753487,0.46918755769729614,0.20786160230636597,-0.01358630321919918,0.3176509439945221,-0.5844002366065979,-0.7467089891433716,-0.04892838001251221,-0.0117606520652771,-0.04874694347381592
0.6284449820401129,0.40463162254020885,-1.158239979479965,0.3983660340309143,0.12232568114995956,0.1673533022403717,0.3184646666049957,-0.5878875255584717,-0.7436184883117676,0.018388360738754272,0.022091686725616455,-0.010623455047607422
0.6327535968023701,0.4043905171263378,-1.156975302117068,0.310813307762146,-0.02180459350347519,0.3545876443386078,0.31728577613830566,-0.5913674831390381,-0.7413596510887146,0.08139583468437195,0.04406535625457764,0.0288199782371521
0.6369334385300323,0.40130763335393116,-1.1534184859911554,0.23787757754325867,-0.16121244430541992,0.4900338053703308,0.3140304684638977,-0.594732940196991,-0.7400524020195007,0.1262771487236023,0.04682040214538574,0.04976010322570801
0.641113469488841,0.39617452967493944,-1.148440009361503,0.2284366637468338,-0.2608194649219513,0.5578488111495972,0.3092655539512634,-0.5980882048606873,-0.73935467004776,0.13702353835105896,0.032841622829437256,0.04137188196182251
0.6455654320123959,0.39028650384305164,-1.1431826655168424,0.28249818086624146,-0.2677311897277832,0.5448809266090393,0.30389082431793213,-0.6016501784324646,-0.7386930584907532,0.10768449306488037,0.020381927490234375,-0.010727107524871826
0.6508904993160126,0.38505849920275487,-1.1389014408847122,0.4495313763618469,-0.2705965042114258,0.4913894832134247,0.29881715774536133,-0.6058951020240784,-0.7372919917106628,0.05276060104370117,0.0055381059646606445,-0.07818347215652466
0.6580246102041173,0.38009991291033024,-1.1359952534639117,0.7014572024345398,-0.3535318076610565,0.46916741132736206,0.2935463786125183,-0.6115550994873047,-0.7347318530082703,-0.007993370294570923,0.010480940341949463,-0.16149312257766724
0.6674382899126821,0.3758175374307105,-1.1346717821939518,0.9671266674995422,-0.34808218479156494,0.41193342208862305,0.2882714569568634,-0.6189760565757751,-0.7305944561958313,-0.048540592193603516,0.020175457000732422,-0.2279321551322937
0.6789808072611333,0.3724539795070249,-1.1353573982931549,1.2039790153503418,-0.4081070125102997,0.32392317056655884,0.28319352865219116,-0.6280001997947693,-0.7248566746711731,-0.043615251779556274,0.03788185119628906,-0.2615477442741394
0.6920545323479143,0.36947587287385586,-1.1379838057315708,1.3606512546539307,-0.5148521065711975,0.2487402856349945,0.2780446708202362,-0.6381204128265381,-0.7179787755012512,-0.019698113203048706,0.07031035423278809,-0.2329336404800415
0.7059207822601421,0.3661288223477932,-1.14156345087101,1.3983781337738037,-0.6141127347946167,0.24843820929527283,0.2724458575248718,-0.6487348079681396,-0.7105746269226074,0.02828964591026306,0.10880261659622192,-0.18343782424926758
0.7198647103418632,0.3613218721501767,-1.1444468102463974,1.3481016159057617,-0.7149192094802856,0.3426653742790222,0.26580318808555603,-0.6592829823493958,-0.7033453583717346,0.07318609952926636,0.13308364152908325,-0.10869687795639038
0.7336825133701171,0.35453440745321596,-1.1453933531492948,1.2814520597457886,-0.75478595495224,0.49426138401031494,0.2578358054161072,-0.6696092486381531,-0.6965228915214539,0.10570487380027771,0.14652276039123535,-0.04896050691604614
0.7474112714498654,0.34594956625748785,-1.1439807080002136,1.2161191701889038,-0.7684218883514404,0.6365889310836792,0.24870598316192627,-0.6797423362731934,-0.6899968385696411,0.13053597509860992,0.15094900131225586,-0.04323375225067139
0.7609842533694979,0.33549045513406733,-1.1406118911425924,1.1758803129196167,-0.8759129643440247,0.7183935642242432,0.23841607570648193,-0.6896345615386963,-0.6837850213050842,0.13490547239780426,0.14469748735427856,-0.06636756658554077
0.7746224269297942,0.3226109931535101,-1.1363148760612332,1.211281180381775,-1.108574390411377,0.7398778200149536,0.22658661007881165,-0.6994462609291077,-0.6778151988983154,0.12468600273132324,0.13082754611968994,-0.10587620735168457
0.7893401095629158,0.3076738628499793,-1.1322435921719258,1.4225773811340332,-1.300989031791687,0.7180210947990417,0.21329620480537415,-0.7098886370658875,-0.6712396740913391,0.11797213554382324,0.1123698353767395,-0.1717931032180786
0.8068471986197228,0.29218470709704264,-1.1293900784242774,1.8077831268310547,-1.3155224323272705,0.6842346787452698,0.19926336407661438,-0.7221097350120544,-0.6624587774276733,0.10061764717102051,0.11499309539794922,-0.29915010929107666
0.8279932943231745,0.2794038457294209,-1.1284646117822055,2.186842203140259,-1.0911369323730469,0.620460033416748,0.1865270435810089,-0.7365756034851074,-0.6501262187957764,0.08671212196350098,0.10191679000854492,-0.44333386421203613
0.8518553273518509,0.27037578874110507,-1.1295941288425495,2.414715051651001,-0.8637255430221558,0.5264163613319397,0.17590466141700745,-0.7525035738945007,-0.6346619725227356,0.11997856199741364,0.08090329170227051,-0.4896971583366394
0.876611962854599,0.2658068038277641,-1.1317946949007562,2.3823068141937256,-0.3354492485523224,0.5127121210098267,0.16805683076381683,-0.7685757875442505,-0.6172909736633301,0.11891524493694305,0.08113688230514526,-0.4388003349304199
0.9009381876646788,0.26567200541378416,-1.1333849737654378,2.3643958568573,0.022660408169031143,0.5809114575386047,0.16301549971103668,-0.7839097380638123,-0.5990921854972839,0.1441744714975357,0.05737781524658203,-0.34452658891677856
0.9254535557292811,0.266633005852368,-1.1333095053149451,2.3449606895446777,0.16297560930252075,0.7121219038963318,0.15847888588905334,-0.7988936305046082,-0.5802184343338013,0.23748670518398285,0.01134181022644043,-0.24741828441619873
0.950286534398724,0.2667903676746668,-1.1311521999585286,2.3771615028381348,0.20689833164215088,0.8339767456054688,0.15329153835773468,-0.8135821223258972,-0.5608793497085571,0.375410258769989,-0.04257315397262573,-0.1932252049446106
0.9761268028586398,0.265376683260762,-1.1274412153139493,2.490756034851074,0.10092344135046005,0.9216578602790833,0.146934375166893,-0.8283336758613586,-0.5406232476234436,0.4980851411819458,-0.1341448426246643,-0.1786760687828064
1.0036063294414432,0.2617791874034736,-1.1227766605715812,2.6786952018737793,-0.03469244763255119,0.9978780746459961,0.13904371857643127,-0.8434140086174011,-0.518960177898407,0.5793248414993286,-0.1986238956451416,-0.1630467176437378
1.0336721763039087,0.25604471676592033,-1.1172023825959605,2.9835219383239746,-0.16988950967788696,1.107014536857605,0.12958288192749023,-0.8591837286949158,-0.4949864149093628,0.6478524804115295,-0.25270891189575195,-0.1422663927078247
1.0676211708920682,0.2472092736283799,-1.1099068856615852,3.400082588195801,-0.32546526193618774,1.2835880517959595,0.11799617111682892,-0.876055896282196,-0.46754977107048035,0.7307740449905396,-0.2886016368865967,-0.14985132217407227
1.1072381453472269,0.23460608010930847,-1.101327123585475,4.127430438995361,-0.603361964225769,1.3258079290390015,0.10394057631492615,-0.8944671750068665,-0.43488460779190063,0.8300804495811462,-0.3243284821510315,-0.17952576279640198
1.1536421663839997,0.22819561985691106,-1.0994883934158293,4.825170993804932,-0.3217225670814514,0.8924211859703064,0.09165545552968979,-0.9142456650733948,-0.3946568965911865,0.8909342885017395,-0.38238513469696045,-0.20234322547912598
1.205303752665606,0.24260118506021142,-1.1164503465672422,5.483875274658203,0.05101603642106056,0.2464381456375122,0.08585989475250244,-0.9339478015899658,-0.3469431400299072,0.8686079382896423,-0.42301619052886963,-0.12568265199661255
1.2607226449127378,0.2895973289313226,-1.164562823572377,5.979572772979736,0.23536615073680878,-0.4090861678123474,0.08713451772928238,-0.952311098575592,-0.29242292046546936,0.7649315595626831,-0.4147542715072632,0.11729776859283447
1.3164914899460716,0.38628318836231756,-1.2627639245326214,6.276864528656006,0.19148778915405273,-1.0453405380249023,0.09477943927049637,-0.9678384065628052,-0.23303553462028503,0.7796560525894165,-0.3787190914154053,0.46663230657577515
1.3668794432904516,0.5617155598414303,-1.4424856358831408,6.286085605621338,-0.18161281943321228,-1.5975956916809082,0.10786290466785431,-0.9792808890342712,-0.17138996720314026,0.9128586053848267,-0.348783016204834,0.8518556356430054
1.4026303903209454,0.8402066247095147,-1.7311299226199826,5.898197174072266,-0.9092325568199158,-1.920982837677002,0.12465766817331314,-0.9858934283256531,-0.11169078201055527,1.1516790390014648,-0.2788008451461792,1.236858606338501
1.4157797384718676,1.184442223127299,-2.0934348258374222,5.256784439086914,-1.7789440155029297,-1.9671677350997925,0.1430158168077469,-0.988008975982666,-0.05817873775959015,1.431920051574707,-0.11417907476425171,1.6773498058319092
1.4091336919690154,1.489908482751126,-2.425718272230662,4.5506510734558105,-2.792160749435425,-1.660212755203247,0.16043294966220856,-0.9869610071182251,-0.0130054522305727,1.6697367429733276,0.14386725425720215,2.0366411209106445
1.3941557954615735,1.7002440399532903,-2.6740117516120705,3.84354305267334,-4.095757961273193,-1.049790620803833,0.17425251007080078,-0.9844396114349365,0.022683430463075638,1.8753995895385742,0.4397772550582886,2.186300754547119
1.3813762261930178,1.8333412369410826,-2.858392057260781,3.2195305824279785,-5.517655849456787,-0.07717103511095047,0.18183669447898865,-0.9821135997772217,0.048868320882320404,1.957781195640564,0.7009247541427612,2.225270986557007
1.3780550019291289,1.9266111427981667,-3.0172066743956267,2.7483158111572266,-7.0093841552734375,1.3386759757995605,0.17955192923545837,-0.9814828038215637,0.06672728061676025,1.9055006504058838,1.027045488357544,2.0934746265411377
1.3875543102057972,2.022186715312147,3.0894328058934004,2.6086015701293945,-8.459627151489258,3.00439715385437,0.16396667063236237,-0.9832581281661987,0.07948628813028336,1.8207135200500488,1.3351106643676758,1.8309597969055176
1.4079473359859196,2.1754224317700124,2.8416086535446192,2.7305991649627686,-9.610982894897461,4.767974853515625,0.1333860158920288,-0.9867693781852722,0.09216303378343582,1.5957857370376587,1.505125880241394,1.4362030029296875
1.4302690013150525,2.4682726913871846,2.444954896987534,2.995997428894043,-10.061110496520996,6.507470607757568,0.08734183758497238,-0.990142285823822,0.10949590057134628,1.1635890007019043,1.6461635828018188,1.0522624254226685
1.4338187194361827,2.9461375786425816,1.863206232629981,2.989816665649414,-9.453581809997559,8.124343872070312,0.026519646868109703,-0.9906332492828369,0.13394932448863983,0.5134431719779968,1.8406240940093994,0.7576520442962646
1.402258539951017,-2.8444773468746396,1.2765093842107396,2.0428807735443115,-7.881402015686035,9.712078094482422,-0.04910815879702568,-0.985831081867218,0.160390704870224,-0.35325077176094055,1.9101934432983398,0.5517978668212891
1.3420078449187625,-2.4777367554809917,0.833425300764497,0.3367151916027069,-5.608534336090088,10.985474586486816,-0.13974328339099884,-0.9739418625831604,0.17863087356090546,-1.3032803535461426,1.9003487825393677,0.6258581876754761
1.265163411713675,-2.216494760156565,0.5169348261333603,-1.5211379528045654,-3.2234947681427,11.301058769226074,-0.24031992256641388,-0.9536566734313965,0.1810663938522339,-2.2552855014801025,1.9017616510391235,0.9190311431884766
1.1838993952665784,-2.026639755067623,0.29206093735663746,-2.8714778423309326,-1.1940058469772339,10.195944786071777,-0.3387882709503174,-0.9260843396186829,0.16610196232795715,-3.465914249420166,1.8050060272216797,1.0286306142807007
1.113143495120994,-1.8896092358171632,0.13776404629376246,-3.33146333694458,0.4457464814186096,7.472137451171875,-0.41957831382751465,-0.8970920443534851,0.13849124312400818,-4.745719909667969,1.4445774555206299,0.7655156850814819
1.0681609859480654,-1.7899807455098669,0.03943391478792029,-2.9101853370666504,1.9993518590927124,3.479487895965576,-0.4702110290527344,-0.8763160705566406,0.10474572330713272,-5.717655181884766,0.8347358703613281,0.14266014099121094
1.0593934844757373,-1.7158249706953728,-0.016018061175723255,-1.9707621335983276,3.078697443008423,-0.7169672250747681,-0.48426327109336853,-0.8720588088035583,0.07072862982749939,-6.185338020324707,0.15793216228485107,-0.6245923042297363
1.0850051618470808,-1.6622121857699519,-0.0368964672018394,-0.5424559116363525,3.9326863288879395,-3.9419338703155518,-0.4649587571620941,-0.8843058347702026,0.042623404413461685,-6.0676798820495605,-0.12330842018127441,-1.1508541107177734
1.1336308619129498,-1.6342974643915835,-0.022125037078469356,1.0941745042800903,4.152306079864502,-5.595451354980469,-0.42251965403556824,-0.9059553742408752,0.026866601780056953,-5.106136322021484,0.18659508228302002,-1.2792623043060303
1.1891571420249256,-1.6458856780592206,0.032111267529068566,2.37302827835083,3.363234519958496,-5.550787925720215,-0.37139245867729187,-0.9280554056167603,0.02794015221297741,-3.5719821453094482,0.8081976771354675,-0.9927840232849121
1.2369708851709997,-1.7053388248082098,0.12514465411710993,3.0052905082702637,2.1710312366485596,-4.528688907623291,-0.3246982991695404,-0.9447957873344421,0.04395123943686485,-2.0940332412719727,1.3393118381500244,-0.43775010108947754
1.2702593315276738,-1.80063991222834,0.24373548396451333,2.973641872406006,1.3873831033706665,-3.325033187866211,-0.2882474660873413,-0.9551776647567749,0.06744367629289627,-1.0909943580627441,1.571129322052002,0.005340568721294403
1.289673745626194,-1.9029293082640153,0.36425656436004156,2.5412731170654297,1.3223662376403809,-2.3371551036834717,-0.26227185130119324,-0.9607446193695068,0.09046013653278351,-0.6121787428855896,1.5692652463912964,0.26714468002319336
1.2999904970312908,-1.9876751338179655,0.4683457856419717,1.9557992219924927,1.8071060180664062,-1.696474313735962,-0.2445974051952362,-0.963555634021759,0.10831607133150101,-0.46830838918685913,1.4036498069763184,0.39333176612854004
1.3066930172038838,-2.0447038058965052,0.5505210554368581,1.3868424892425537,2.649294853210449,-1.4196287393569946,-0.23227448761463165,-0.9653269648551941,0.11913159489631653,-0.5331063270568848,1.1803538799285889,0.4158719778060913
1.3136499006418814,-2.0778858725130194,0.6172485559048345,1.0124518871307373,3.5752410888671875,-1.445221185684204,-0.2223181575536728,-0.9671196341514587,0.12350747734308243,-0.6351951360702515,1.006502628326416,0.39867866039276123
1.3221673231358573,-2.098327201860225,0.6792624098158224,0.8588144779205322,4.270534992218018,-1.5590572357177734,-0.2126217931509018,-0.9692506790161133,0.12387452274560928,-0.642938494682312,0.8542910814285278,0.3335838317871094
1.3314121517357422,-2.115905637753941,0.7434651387217507,0.879608154296875,4.599723815917969,-1.5890090465545654,-0.20274092257022858,-0.9714841842651367,0.12294133007526398,-0.5516077280044556,0.7111387848854065,0.2751450538635254
1.3395022998902684,-2.138016694881731,0.8139569490509012,1.0686664581298828,4.621888637542725,-1.496383547782898,-0.19333821535110474,-0.9733705520629883,0.12316686660051346,-0.337835431098938,0.5853700637817383,0.2626056671142578
1.3446932528340592,-2.168992712958883,0.8925336434955898,1.3326187133789062,4.4420552253723145,-1.3134959936141968,-0.1852526068687439,-0.9745473861694336,0.12624822556972504,-0.09856076538562775,0.46810829639434814,0.2605161666870117
1.3460744591377893,-2.2077807106083513,0.9767263702643819,1.5547313690185547,4.181035041809082,-1.0793429613113403,-0.17913539707660675,-0.9748561382293701,0.1325363665819168,0.09585301578044891,0.3669002652168274,0.2753005027770996
1.3441062870390286,-2.248172867239967,1.0598197126358073,1.6007969379425049,3.912571430206299,-0.8983625769615173,-0.175132155418396,-0.97441565990448,0.1408643126487732,0.22687475383281708,0.28459632396698,0.34627246856689453
1.3407668023268549,-2.285571767386912,1.1372022138799203,1.486161231994629,3.655442237854004,-0.8390772938728333,-0.1721990704536438,-0.9736596345901489,0.1494458019733429,0.2759894132614136,0.16511183977127075,0.48794424533843994
1.3374691176080213,-2.3161562340318693,1.2051192449014188,1.2666124105453491,3.4302358627319336,-0.736133873462677,-0.169907346367836,-0.9729024767875671,0.15681880712509155,0.31210407614707947,0.07972931861877441,0.6354937553405762
1.3343147880510322,-2.337205723558911,1.2611950271864256,1.0702061653137207,3.2437305450439453,-0.5983718037605286,-0.16877858340740204,-0.9721683263778687,0.16248749196529388,0.421799898147583,0.0037236809730529785,0.7300753593444824
1.3313289624206412,-2.3509262703744986,1.3076917138999054,0.9164578914642334,3.0213332176208496,-0.5167083740234375,-0.16859588027000427,-0.9714644551277161,0.16682878136634827,0.5565506815910339,-0.14375442266464233,0.7432358264923096
1.3289010142660986,-2.3610074125504554,1.3480564749409314,0.7827212810516357,2.779916524887085,-0.509289562702179,-0.16856500506401062,-0.970885694026947,0.17019544541835785,0.6528027653694153,-0.3015293478965759,0.7268228530883789
1.327510484005875,-2.3697571743154304,1.3846271609967982,0.6392197608947754,2.569239377975464,-0.5600592494010925,-0.16801120340824127,-0.9705516695976257,0.17263151705265045,0.6948820352554321,-0.393233060836792,0.7125155925750732
1.3278855446576765,-2.3787478679023337,1.419944871181074,0.48116570711135864,2.475372314453125,-0.7304182648658752,-0.16620025038719177,-0.9706419706344604,0.17387130856513977,0.6851822733879089,-0.44313037395477295,0.7101618051528931
1.3309699416513796,-2.3904786193980367,1.4571390663747077,0.2873466908931732,2.378575086593628,-0.9807705879211426,-0.16210533678531647,-0.9713792204856873,0.17361989617347717,0.657863438129425,-0.4798992872238159,0.7148230075836182
1.3368885056947877,-2.4052776668478164,1.4962421230400254,0.08505366742610931,2.23869252204895,-1.1459805965423584,-0.155654639005661,-0.9727680683135986,0.1717369705438614,0.6732785701751709,-0.4931284189224243,0.7308508157730103
1.3446592177355396,-2.4207000460706016,1.5340978194482118,-0.08488103747367859,2.0287728309631348,-1.1509047746658325,-0.1479942351579666,-0.9745397567749023,0.16843396425247192,0.7325432300567627,-0.44596195220947266,0.7604905366897583
1.3528082912920985,-2.434998445012852,1.5680271043046043,-0.1529981791973114,1.6963449716567993,-1.021103024482727,-0.14041000604629517,-0.9763345718383789,0.16448695957660675,0.8301683664321899,-0.3733968734741211,0.7711514234542847
1.3597265503964189,-2.4473560470593445,1.5960530283826437,-0.12698230147361755,1.2895313501358032,-0.761928379535675,-0.13404197990894318,-0.977807343006134,0.16101454198360443,0.9192287921905518,-0.31487154960632324,0.7456779479980469
1.3642196246837868,-2.455516081217784,1.6154528706956455,-0.051072560250759125,0.869029700756073,-0.4201999008655548,-0.12993913888931274,-0.9787387847900391,0.158702090382576,0.995158314704895,-0.2684689164161682,0.7352035045623779
1.365831046616263,-2.4578755571181143,1.6249975455349623,0.04588807374238968,0.530637264251709,-0.09221057593822479,-0.12856744229793549,-0.9790680408477783,0.15778480470180511,1.0308196544647217,-0.23733210563659668,0.7282166481018066
1.3649654105101663,-2.455343695808808,1.6263200558760582,0.11448922753334045,0.23955804109573364,0.1438959538936615,-0.12950344383716583,-0.9788914918899536,0.15811434388160706,1.042360544204712,-0.24054503440856934,0.7011537551879883
1.3625778376879834,-2.450461270247712,1.6226187376514167,0.15317164361476898,0.016843460500240326,0.2613314986228943,-0.13176360726356506,-0.978400707244873,0.15928100049495697,1.0373117923736572,-0.26419878005981445,0.6846215724945068
1.3595654010760037,-2.445886546446388,1.6171866417351528,0.16004933416843414,-0.16076479852199554,0.28868427872657776,-0.13437943160533905,-0.9777735471725464,0.1609383523464203,0.9969282746315002,-0.2868901491165161,0.6826895475387573
1.356573295578056,-2.442391406432377,1.6113239229707612,0.13750220835208893,-0.2757957875728607,0.2807379364967346,-0.13682323694229126,-0.9771418571472168,0.16270585358142853,0.9369788765907288,-0.3049473762512207,0.6517777442932129
1.3537985146282157,-2.439560397647837,1.605239484517214,0.12293270975351334,-0.3446827530860901,0.2790752649307251,-0.1390334516763687,-0.9765481948852539,0.16438715159893036,0.8989670276641846,-0.32192885875701904,0.6029009819030762
1.3509629446710532,-2.43737394408399,1.5987943098397426,0.13382317125797272,-0.48078975081443787,0.30458784103393555,-0.14118486642837524,-0.9759337902069092,0.16619256138801575,0.88868248462677,-0.31643980741500854,0.5396789312362671
1.3474867091012275,-2.43577511867918,1.5914694904588953,0.19447436928749084,-0.6205064058303833,0.3994820713996887,-0.14364992082118988,-0.975169837474823,0.1685473620891571,0.9060553908348083,-0.30749911069869995,0.4818127155303955
1.3424381436780686,-2.43451988314916,1.5829159947550906,0.33139148354530334,-0.8021936416625977,0.5489842295646667,-0.14705795049667358,-0.9740393757820129,0.172107994556427,0.9280486106872559,-0.3097587823867798,0.4167286157608032
1.3350412855434792,-2.4356229046112134,1.5744347011439235,0.5452818870544434,-1.0718268156051636,0.7011427283287048,-0.15153798460960388,-0.9723382592201233,0.17774777114391327,0.9644805788993835,-0.3388493061065674,0.35092341899871826
1.324955615460364,-2.4422592516139807,1.5687080243780114,0.8262262344360352,-1.3505008220672607,0.7933879494667053,-0.156659796833992,-0.969933032989502,0.1862448900938034,0.9826334118843079,-0.37781453132629395,0.3185005187988281
1.3121729078008648,-2.4578850233016807,1.5699267416895664,1.1836004257202148,-1.5109769105911255,0.7702259421348572,-0.16154958307743073,-0.9667429327964783,0.19826607406139374,0.9741717576980591,-0.4197620153427124,0.3032902181148529
1.2969404065778456,-2.4847784623037095,1.5817063682537535,1.5767711400985718,-1.585046410560608,0.6221946477890015,-0.16513317823410034,-0.9627352356910706,0.2141769677400589,0.9689204692840576,-0.44656646251678467,0.31208336353302
1.2797210795684213,-2.5225055325546553,1.6038952860148692,1.8958499431610107,-1.6850608587265015,0.4358309805393219,-0.16653329133987427,-0.9579358696937561,0.23372051119804382,1.0081318616867065,-0.45252537727355957,0.3662702739238739
1.2612478709730703,-2.5659400670831602,1.631552644092913,2.0372142791748047,-1.6816072463989258,0.2943588197231293,-0.1658339947462082,-0.9524711966514587,0.2555331587791443,1.1174942255020142,-0.46049243211746216,0.5015621185302734
1.2430115025225064,-2.607398022417869,1.6582511471336647,1.8847219944000244,-1.52032470703125,0.21415403485298157,-0.16391806304454803,-0.9467578530311584,0.27709195017814636,1.2884451150894165,-0.44256991147994995,0.7211989760398865
1.2279041293773598,-2.6400406801538505,1.677120358621398,1.283042073249817,-1.462209701538086,0.2205914407968521,-0.16164614260196686,-0.9417862296104431,0.2948029041290283,1.5138496160507202,-0.3518841862678528,1.0501220226287842
1.2195896407297009,-2.65797437784862,1.6797812823434546,0.20881971716880798,-1.6450165510177612,0.44114211201667786,-0.15996961295604706,-0.9389582872390747,0.3045772612094879,1.765652060508728,-0.23432064056396484,1.4720187187194824
1.2206371904914544,-2.654150712466629,1.6559687017297544,-1.1803338527679443,-2.0912115573883057,0.9458507895469666,-0.16067197918891907,-0.9393181204795837,0.3030936121940613,1.9986847639083862,-0.08288329839706421,1.8747169971466064
1.230949003235362,-2.6209446096981024,1.5944013620457578,-2.6043527126312256,-2.8892788887023926,1.731950044631958,-0.16581891477108002,-0.9428055882453918,0.28917399048805237,2.189500570297241,0.15124070644378662,2.1418561935424805
1.2465462910848157,-2.552046455056302,1.4844294268740117,-3.7516214847564697,-4.181046962738037,2.7213857173919678,-0.17713497579097748,-0.9478899240493774,0.26481589674949646,2.2445788383483887,0.47325021028518677,2.1952059268951416
1.2601837019182143,-2.4481651735072805,1.3213981109588513,-4.417128562927246,-6.049708366394043,3.767118453979492,-0.19535909593105316,-0.9521465301513672,0.23505672812461853,2.1286325454711914,0.828611433506012,2.004521369934082
1.2641146850962803,-2.325876689818598,1.1185177600237444,-4.472534656524658,-8.102930068969727,4.572124004364014,-0.2198459804058075,-0.9533405900001526,0.20690390467643738,1.7518285512924194,1.1682913303375244,1.6798300743103027
1.254906763125178,-2.2198033040749507,0.9123039927633458,-3.882850408554077,-9.824277877807617,4.859296798706055,-0.24749945104122162,-0.950520396232605,0.18776266276836395,1.0209828615188599,1.5099077224731445,1.29136323928833
1.234866910542223,-2.15945710291479,0.7390132717662696,-2.760612964630127,-10.764328956604004,4.761834144592285,-0.27416202425956726,-0.9441043138504028,0.1830354481935501,0.017677128314971924,1.8120548725128174,0.8425840139389038
1.2061903496826925,-2.1481540116656785,0.6127842610434472,-1.265915036201477,-10.397844314575195,4.781007289886475,-0.2987816631793976,-0.9342643618583679,0.19462591409683228,-0.9650732278823853,2.071532726287842,0.37475571036338806
1.1668555827084897,-2.1638454828863165,0.5291570550405285,0.41552525758743286,-7.932478904724121,5.26763916015625,-0.32592859864234924,-0.9195192456245422,0.21966961026191711,-1.7479543685913086,2.3195743560791016,-0.14766347408294678
1.1123400307897497,-2.175010591030448,0.473672523674988,1.8512791395187378,-4.361953258514404,6.364992618560791,-0.3642076253890991,-0.896736741065979,0.25142762064933777,-2.3206982612609863,2.501885175704956,-0.7234278917312622
1.0417458630025356,-2.1654100789132156,0.4288927037916591,2.510270118713379,-1.7990307807922363,7.60243034362793,-0.4180871248245239,-0.8632866740226746,0.2827349901199341,-2.770770788192749,2.592336416244507,-0.9335987567901611
0.9615333972223199,-2.1437842292366485,0.3871857302057214,2.534829616546631,-1.0872479677200317,8.143439292907715,-0.4808642566204071,-0.8200700283050537,0.31024983525276184,-3.190781831741333,2.4829421043395996,-0.4533315598964691
0.8819723572911503,-2.1270857165632227,0.3512710425591266,2.2776191234588623,-1.30705726146698,7.390814781188965,-0.5397894382476807,-0.7719940543174744,0.3356369435787201,-3.7093863487243652,1.9911255836486816,0.22155281901359558
0.8169788536514275,-2.122605301496387,0.3279381054402367,1.9059876203536987,-1.2210899591445923,5.052206993103027,-0.5828425884246826,-0.729081392288208,0.3587961196899414,-4.420773506164551,1.338486909866333,0.5805805921554565
0.7806411317057284,-2.128262535011414,0.32281605649539113,1.2588400840759277,-0.5722249150276184,1.3599629402160645,-0.6028972864151001,-0.7037350535392761,0.3758614659309387,-5.100304126739502,0.6491238474845886,0.6269918084144592
0.7819475203495756,-2.139045747963862,0.33766760756144215,0.3755359649658203,0.5624747276306152,-2.6373274326324463,-0.5980337262153625,-0.7046626210212708,0.3818454444408417,-5.450046539306641,0.004665732383728027,0.5193537473678589
0.8166645132847129,-2.150162868075549,0.37006641975552124,-0.30601754784584045,1.8044064044952393,-5.395061016082764,-0.5729265809059143,-0.7288662195205688,0.3748449385166168,-5.1048383712768555,-0.2704470157623291,0.44352954626083374
0.8693417185238095,-2.160924723538824,0.41393830405129384,-0.5867146849632263,2.4835762977600098,-6.351423263549805,-0.536184549331665,-0.7639042735099792,0.35910508036613464,-3.9246461391448975,0.10072672367095947,0.35262587666511536
0.923441456255678,-2.1736516033567503,0.46237030501852205,-0.4290875196456909,2.440206527709961,-5.803656578063965,-0.49676793813705444,-0.7976818084716797,0.3419435918331146,-2.429135322570801,0.8539561033248901,0.2983913719654083
0.9668454192798611,-2.1899457567787843,0.5098204695197575,0.024153904989361763,1.962389349937439,-4.39504337310791,-0.4624808132648468,-0.8230983018875122,0.32957571744918823,-1.1827216148376465,1.4152615070343018,0.2587878108024597
0.9944367110721732,-2.2080000708526444,0.552209088564467,0.5464586019515991,1.4696041345596313,-2.8443567752838135,-0.43803057074546814,-0.8384521007537842,0.3242330849170685,-0.3338198959827423,1.5819213390350342,0.13295066356658936
1.0082084245943215,-2.2256323398545153,0.5884133334476126,0.8700175881385803,1.129189372062683,-1.7695808410644531,-0.42304685711860657,-0.8458775877952576,0.3248422145843506,0.06870731711387634,1.5040653944015503,0.07348838448524475
1.014333974419541,-2.240809051803625,0.6194688219976342,0.950140118598938,1.1389533281326294,-1.2771646976470947,-0.41399917006492615,-0.8491289615631104,0.32800114154815674,0.07145467400550842,1.3236620426177979,0.05995345115661621
1.0181243379760962,-2.2520517449506126,0.6478669432086682,0.8936444520950317,1.4519239664077759,-1.2178126573562622,-0.40778234601020813,-0.8511248826980591,0.3306053876876831,-0.1332027018070221,1.142476201057434,0.11804866790771484
1.0228400212549316,-2.260135159154707,0.67624768256023,0.7973698377609253,1.7402137517929077,-1.404392123222351,-0.4019949734210968,-0.8535909652709961,0.3313343822956085,-0.3101784288883209,0.9251852035522461,0.14638769626617432
1.030078397381793,-2.2673998495242103,0.7064210617166339,0.6749264001846313,1.9565858840942383,-1.7075539827346802,-0.39482778310775757,-0.8573393225669861,0.33027297258377075,-0.36907297372817993,0.7128232717514038,0.1539187729358673
1.0404354554758506,-2.274562908104893,0.7390523896224931,0.5338504910469055,2.214350938796997,-2.006565570831299,-0.3856610059738159,-0.8626245856285095,0.3273288905620575,-0.3646745979785919,0.5878138542175293,0.18615984916687012
1.0535441122575089,-2.2815081844064036,0.7741189994110924,0.4345203638076782,2.439359426498413,-2.2358500957489014,-0.3747752606868744,-0.869181215763092,0.3225942552089691,-0.28593015670776367,0.5417430400848389,0.21953508257865906
1.0679044725503033,-2.288162680959503,0.8107021375293411,0.38753101229667664,2.5974509716033936,-2.220118761062622,-0.36317700147628784,-0.8761924505233765,0.31684255599975586,-0.12635537981987,0.5241110920906067,0.21768799424171448
1.0811530742505695,-2.291795313445219,0.8455359375736607,0.36488839983940125,2.7978317737579346,-1.9139304161071777,-0.3532724380493164,-0.8825007081031799,0.310468852519989,0.07753095030784607,0.4951106309890747,0.18467876315116882
1.0913625701969767,-2.2886335030348586,0.875167900152086,0.360093891620636,3.0611350536346436,-1.4169336557388306,-0.3474474251270294,-0.8872562646865845,0.3034079670906067,0.3158465623855591,0.451160192489624,0.15040358901023865
1.0976635198181488,-2.276214496515476,0.8971906280754628,0.33515664935112,3.3122901916503906,-0.8478984236717224,-0.3469254672527313,-0.8901451230049133,0.29543930292129517,0.5278642177581787,0.36888957023620605,0.1084606945514679
1.1002099710450155,-2.253260330987462,0.9102974566967891,0.24039898812770844,3.5986368656158447,-0.3132765591144562,-0.35185471177101135,-0.8913025856018066,0.2859680950641632,0.6611810326576233,0.2686982750892639,0.09928569197654724
1.100134455891015,-2.2188696429464527,0.9144475500228069,0.054112210869789124,4.013185501098633,0.06262347102165222,-0.3615330159664154,-0.8912683129310608,0.2737414836883545,0.6705387830734253,0.18727362155914307,0.12722885608673096
1.099242096845739,-2.173430598399886,0.9113546486404022,-0.1828705072402954,4.496609687805176,0.21763302385807037,-0.37424951791763306,-0.890863299369812,0.25748780369758606,0.5951205492019653,0.10653096437454224,0.16991081833839417
1.0987904076610036,-2.118695018967507,0.9029697026845137,-0.3969564437866211,4.903528213500977,0.25593724846839905,-0.38811880350112915,-0.8906580209732056,0.2368369847536087,0.4910546541213989,-0.013196229934692383,0.21213746070861816
1.0989077388878146,-2.0578472078061973,0.8911371392528021,-0.5395782589912415,5.092583656311035,0.2537238895893097,-0.40171027183532715,-0.8907113671302795,0.21274814009666443,0.3845137357711792,-0.11868786811828613,0.2494557797908783
1.0990236215904565,-1.9936517870037052,0.8763755610659166,-0.6787490844726562,5.05718994140625,0.32737359404563904,-0.41443681716918945,-0.890764057636261,0.18649733066558838,0.3279653489589691,-0.20918089151382446,0.30419468879699707
1.0981010350140321,-1.9267239731297847,0.8570809175936027,-0.8795551657676697,4.846933841705322,0.5099855065345764,-0.4267515242099762,-0.8903443813323975,0.15864941477775574,0.34688717126846313,-0.2511196732521057,0.3750877380371094
1.0954226049085503,-1.8577028421658215,0.8324031294007417,-1.0750763416290283,4.50860071182251,0.7010801434516907,-0.43896257877349854,-0.8891217708587646,0.12951456010341644,0.386091023683548,-0.2505266070365906,0.4786853790283203
1.0907662500911701,-1.7899682076307437,0.8041074693787955,-1.1942269802093506,3.965822458267212,0.837634801864624,-0.45075833797454834,-0.8869810104370117,0.10040643811225891,0.439054936170578,-0.285031259059906,0.5411339998245239
1.0845105278851919,-1.7277014893075462,0.7750273375331892,-1.2038136720657349,3.2976291179656982,0.8761112689971924,-0.4616040289402008,-0.8840747475624084,0.07302834093570709,0.44825273752212524,-0.3503000736236572,0.5106356143951416
1.0776153387589864,-1.6749875985682823,0.748583652064933,-1.0561375617980957,2.5538809299468994,0.7922909259796143,-0.47086256742477417,-0.8808313608169556,0.04923807084560394,0.42095112800598145,-0.42326098680496216,0.44920551776885986
1.0713714415662101,-1.634789132173507,0.7278252040799382,-0.7933069467544556,1.8289159536361694,0.6044795513153076,-0.47794032096862793,-0.8778581619262695,0.030626559630036354,0.37035071849823,-0.509272575378418,0.36388933658599854
1.0667007550718406,-1.6072552984819912,0.7137178974512296,-0.5160346031188965,1.2153699398040771,0.4017951190471649,-0.4826943874359131,-0.8756116628646851,0.01760634407401085,0.3443125784397125,-0.6039872169494629,0.26362836360931396
1.0636507758028955,-1.5893429826589005,0.7046447556929766,-0.36478912830352783,0.792102575302124,0.23372294008731842,-0.48560023307800293,-0.8741344213485718,0.009007292799651623,0.3383835256099701,-0.6629290580749512,0.21140587329864502
1.0621018751508895,-1.5760748154980577,0.6970680787478132,-0.3810426592826843,0.5598821043968201,0.09021025151014328,-0.48703035712242126,-0.8733810782432556,0.0025708081666380167,0.3694309890270233,-0.6723493933677673,0.22402215003967285
1.0614606269844231,-1.5626892616165833,0.6878878974675738,-0.527580976486206,0.5404437780380249,0.05372831970453262,-0.48758119344711304,-0.873068630695343,-0.003952939063310623,0.4226856231689453,-0.6962825059890747,0.25766074657440186
1.0603742291547713,-1.5447396562130244,0.6744570202682951,-0.7881316542625427,0.7146323323249817,0.14793658256530762,-0.4883797764778137,-0.8725383877754211,-0.012728431262075901,0.4995035231113434,-0.7182208895683289,0.27167004346847534
1.0580755720255295,-1.5204349280769318,0.6562072969335829,-0.9887090921401978,0.9676346778869629,0.22855550050735474,-0.4899277985095978,-0.8714130520820618,-0.024694330990314484,0.6433702707290649,-0.7169504761695862,0.2857111692428589
1.0550799367242665,-1.4915824287554704,0.6360860451235233,-0.990558922290802,1.2997617721557617,0.23236675560474396,-0.49161145091056824,-0.8699396252632141,-0.03902411833405495,0.7273751497268677,-0.7389317154884338,0.24581122398376465
1.0522747967566595,-1.4614249389191367,0.6184506072674606,-0.7632797956466675,1.6390047073364258,0.1411871463060379,-0.4926351010799408,-0.8685528635978699,-0.05409605801105499,0.7211965918540955,-0.7266771793365479,0.1586797833442688
1.051339726272743,-1.4344165563852782,0.6071466218649526,-0.34957155585289,1.764812707901001,-0.1065712571144104,-0.4917992353439331,-0.8680890798568726,-0.06749041378498077,0.6862115263938904,-0.6918474435806274,0.1094672679901123
1.0538348164568414,-1.4141950005753026,0.6046632075176761,0.19215619564056396,1.8408679962158203,-0.4196615517139435,-0.4881927967071533,-0.8693249225616455,-0.0770827978849411,0.6318696737289429,-0.7208086848258972,0.08658897876739502
1.060206046930508,-1.402231287343314,0.6125002689400293,0.7659278512001038,1.8924108743667603,-0.7031955122947693,-0.48176586627960205,-0.8724561929702759,-0.08198688924312592,0.6270143985748291,-0.7597764730453491,0.08432137966156006
1.0700010198295768,-1.398820212120585,0.6299675446373113,1.2097454071044922,1.8257839679718018,-0.9176826477050781,-0.47304049134254456,-0.8772010207176208,-0.08216328173875809,0.6698484420776367,-0.7753868103027344,0.16190564632415771
1.081588124222286,-1.402591925542535,0.6548494259471781,1.4864760637283325,1.8011536598205566,-0.9229578375816345,-0.46329495310783386,-0.8827052116394043,-0.07867159694433212,0.7749252319335938,-0.7745670676231384,0.34046661853790283
1.0921120970454576,-1.411303617566518,0.6851408628283441,1.6084396839141846,1.7885873317718506,-0.6605812907218933,-0.45476534962654114,-0.8876017332077026,-0.07315310090780258,0.9494096040725708,-0.7283191084861755,0.5798974633216858
1.0991086861027548,-1.4240193407935657,0.7187094279105458,1.6203902959823608,1.5981159210205078,-0.245284765958786,-0.4495043456554413,-0.8908026814460754,-0.06645480543375015,1.1627459526062012,-0.6444297432899475,0.8953121900558472
1.1019131125888113,-1.4414626722553467,0.7536868078744717,1.5814756155014038,1.1104954481124878,0.1170206218957901,-0.4481162428855896,-0.8920735120773315,-0.05828183889389038,1.3983116149902344,-0.623780369758606,1.2638177871704102
1.101173456770311,-1.4639656029497536,0.7881062802329885,1.4624358415603638,0.5127580165863037,0.39159491658210754,-0.4499697983264923,-0.891739010810852,-0.048254311084747314,1.5865514278411865,-0.7274014949798584,1.6499693393707275
1.0972381436194893,-1.4891958530840848,0.8177879060837199,1.0976375341415405,-0.3091183602809906,0.651034951210022,-0.4545381963253021,-0.8899511694908142,-0.0371730774641037,1.6928499937057495,-0.7858452796936035,2.0470759868621826
1.0894993440418608,-1.5132564487870668,0.8354151714073044,0.35869893431663513,-1.3847215175628662,1.0193841457366943,-0.4621630012989044,-0.886395275592804,-0.026622191071510315,1.763600468635559,-0.7515899538993835,2.4504199028015137
1.076943201384848,-1.531741575886085,0.8335317886862696,-0.6959164142608643,-2.6677536964416504,1.4689724445343018,-0.4736604392528534,-0.8805129528045654,-0.018508102744817734,1.9015170335769653,-0.6937972903251648,2.831496477127075
1.0600429806108134,-1.5425669147123882,0.806104733691619,-2.0990371704101562,-4.324275970458984,1.7952229976654053,-0.4886399209499359,-0.8723765015602112,-0.013797683641314507,2.0150530338287354,-0.6938771605491638,3.119464874267578
1.0397237599118585,-1.5448350086341398,0.7478005892126558,-3.8241958618164062,-6.24108362197876,2.118656635284424,-0.5062877535820007,-0.8622643351554871,-0.01314685121178627,1.903519868850708,-0.6977941989898682,3.2982420921325684
1.0150683887954115,-1.5418313952511447,0.6574368402709416,-5.61298942565918,-8.652383804321289,2.5470035076141357,-0.527340292930603,-0.8495166301727295,-0.015278647653758526,1.72868013381958,-0.39885056018829346,3.3704421520233154
0.985771899781542,-1.5440679315552723,0.540054045396342,-7.134495258331299,-11.520594596862793,2.9093997478485107,-0.5520221590995789,-0.833698570728302,-0.01475818082690239,1.4877521991729736,0.05632448196411133,3.225527763366699
0.9542141890787307,-1.5624607988325958,0.4048197950838512,-8.148765563964844,-14.305818557739258,3.0574891567230225,-0.578230082988739,-0.8158596158027649,-0.004819964524358511,0.9559919238090515,0.46937817335128784,2.892393112182617
0.9260014287969031,-1.6001201269942609,0.2621098647142911,-8.487256050109863,-15.968636512756348,2.635348320007324,-0.6007760763168335,-0.7992230653762817,0.0176220890134573,-0.022316455841064453,1.1228924989700317,2.3951892852783203
0.9084542464835721,-1.6523465179987555,0.1251916556989986,-7.741502285003662,-15.84216022491455,1.7574130296707153,-0.6129217147827148,-0.7885540723800659,0.05009498447179794,-1.2823572158813477,2.0509440898895264,1.6790766716003418
0.9016305450942073,-1.7140490242848103,0.01426983939729806,-5.493661880493164,-13.585657119750977,1.1746097803115845,-0.6139776706695557,-0.784339427947998,0.08856058120727539,-2.4523367881774902,2.798713207244873,0.5916455984115601
0.8966014415431125,-1.7810927977267708,-0.05076329046695573,-2.222897529602051,-9.843185424804688,1.3242651224136353,-0.6105153560638428,-0.7812098264694214,0.13031597435474396,-2.9400980472564697,2.997701406478882,-0.7360594272613525
0.880502559495244,-1.8471806255791707,-0.06872858236044814,0.7007892727851868,-6.2215423583984375,2.417168378829956,-0.6125974655151367,-0.771058976650238,0.17375941574573517,-2.635891914367676,2.7846240997314453,-1.6411057710647583
0.8452668290647537,-1.901890680218647,-0.06076071381724149,2.1821200847625732,-3.639218807220459,3.9901351928710938,-0.627493143081665,-0.7481482028961182,0.21569955348968506,-2.1964049339294434,2.7563116550445557,-1.5421462059020996
0.7939599494548198,-1.9361488815477088,-0.055171103239361655,1.823102593421936,-2.5563018321990967,5.295372486114502,-0.6547574400901794,-0.7131348848342896,0.2504618465900421,-2.0597658157348633,2.8497469425201416,-0.5562175512313843
0.7386151037480994,-1.950110817789549,-0.07000856539552071,0.11151481419801712,-2.2478585243225098,5.641432762145996,-0.6868438124656677,-0.6732645630836487,0.27378836274147034,-2.2966766357421875,2.6289989948272705,0.646453857421875
0.6928467832749194,-1.9439280571620414,-0.1070528271940722,-1.9230666160583496,-1.2462615966796875,4.700835227966309,-0.7164865732192993,-0.6387301683425903,0.28048330545425415,-2.9109089374542236,2.110470771789551,1.4210699796676636
0.6694164410768003,-1.9168629239056454,-0.15613674636394764,-3.416107416152954,0.5948238372802734,2.2139854431152344,-0.7376927137374878,-0.6205284595489502,0.2659952938556671,-3.5950403213500977,1.5131981372833252,1.4752917289733887
0.6735375414742181,-1.8701107317641144,-0.20344221511858696,-3.6451098918914795,2.852015972137451,-0.5621353983879089,-0.7468681931495667,-0.6237549185752869,0.23047247529029846,-4.291461944580078,0.7695983648300171,0.8327903747558594
0.697509307753476,-1.8111639822774195,-0.23703269690661966,-2.476515769958496,4.576848030090332,-2.5379137992858887,-0.744409441947937,-0.6423106789588928,0.1824595332145691,-4.265966415405273,0.22826343774795532,-0.20556139945983887
0.7309435246808239,-1.7521343224297494,-0.24902274845738342,-0.6658656597137451,5.496163368225098,-3.4380979537963867,-0.7323367595672607,-0.6675724387168884,0.13427554070949554,-3.2224514484405518,0.32551610469818115,-1.0767652988433838
0.7647074399136918,-1.70414397406113,-0.2400563059220662,0.8184930086135864,5.1352128982543945,-3.3019025325775146,-0.715178906917572,-0.6923259496688843,0.09593673795461655,-2.193695545196533,0.8703349828720093,-1.1059314012527466
0.7930862596689934,-1.6729165027068738,-0.218508673170415,1.443763256072998,4.089312553405762,-2.6443731784820557,-0.6979942321777344,-0.7125221490859985,0.0715281069278717,-1.294772982597351,1.454297661781311,-0.5300853252410889
0.814855177766117,-1.653575618701891,-0.19505298955440037,1.3133232593536377,3.181702136993408,-2.0038044452667236,-0.683624804019928,-0.7276262640953064,0.056719593703746796,-0.7335199117660522,1.6518664360046387,0.20708954334259033
0.8321487026021267,-1.6371094706194063,-0.17704066156875187,0.8516227006912231,2.810986042022705,-1.6574971675872803,-0.671808660030365,-0.7393797636032104,0.044615160673856735,-0.5088858008384705,1.537811279296875,0.6724257469177246
0.8481356339106634,-1.6163527669896898,-0.16613499777538712,0.4456421732902527,3.009014844894409,-1.6502931118011475,-0.6606963872909546,-0.7500486373901367,0.030119813978672028,-0.5686888694763184,1.3077573776245117,0.7947244644165039
0.8653247171031273,-1.5877396152644807,-0.16011210360867612,0.255512535572052,3.6583197116851807,-1.8049688339233398,-0.6482999324798584,-0.7613058686256409,0.010985384695231915,-0.7750398516654968,1.100356101989746,0.6548622846603394
0.8842378847471944,-1.5481747052577823,-0.1569625171753383,0.1643109917640686,4.743727207183838,-1.9654808044433594,-0.6337169408798218,-0.7734321355819702,-0.01433815062046051,-0.883815348148346,0.9474433660507202,0.42031335830688477
0.9042910233381013,-1.4956302708745688,-0.15610845316130517,0.14859861135482788,5.822229385375977,-2.0170278549194336,-0.6164970993995667,-0.7859870195388794,-0.046427126973867416,-0.898395299911499,0.8653938174247742,0.34130311012268066
0.9247156942564615,-1.4336107551392527,-0.15616180402118537,0.2904369831085205,6.4506449699401855,-2.0227773189544678,-0.5964049696922302,-0.7984496355056763,-0.08233532309532166,-0.8361815214157104,0.779193103313446,0.342543363571167
0.9449201536706255,-1.3688875753509804,-0.15579210933594748,0.415464848279953,6.448902606964111,-1.922202229499817,-0.5739072561264038,-0.8104501366615295,-0.1174776554107666,-0.6534333825111389,0.7407785654067993,0.33428966999053955
0.9634226578476478,-1.3060538000683195,-0.15522931830204328,0.5032407641410828,6.144433975219727,-1.634436011314392,-0.5508290529251099,-0.8211497068405151,-0.1493331491947174,-0.4702737331390381,0.7077769637107849,0.43059831857681274
0.979031888409754,-1.2487273130028422,-0.15284923686401974,0.668225884437561,5.659445285797119,-1.264830470085144,-0.5291441679000854,-0.8299577236175537,-0.1765686422586441,-0.274993896484375,0.6254289746284485,0.5544067025184631
0.9923007169281275,-1.2007959999486424,-0.14587340615973537,0.9547857046127319,5.023098468780518,-0.9878136515617371,-0.5097636580467224,-0.8372861742973328,-0.19771873950958252,-0.09512513875961304,0.46446824073791504,0.5476332306861877
1.0048946382713242,-1.1642599220521583,-0.13423148287908646,1.1397532224655151,4.201602458953857,-0.8739205002784729,-0.4924764633178711,-0.8441054821014404,-0.21202072501182556,-0.00950711965560913,0.2560623288154602,0.4629819393157959
1.0175008190959445,-1.1383607179187496,-0.11998552581922418,1.2700257301330566,3.3759090900421143,-0.8057241439819336,-0.47712084650993347,-0.8507973551750183,-0.2202257364988327,0.022332727909088135,0.09435820579528809,0.4478410482406616
1.030412777733819,-1.123201386028678,-0.10230089235461529,1.504707932472229,2.6779255867004395,-0.7432011961936951,-0.463785320520401,-0.8575114011764526,-0.22265972197055817,0.0904790461063385,-0.029253125190734863,0.4388462007045746
1.0443102917982745,-1.119762430947015,-0.07855235282782382,1.884879231452942,2.0857160091400146,-0.7107399106025696,-0.45224687457084656,-0.8645781874656677,-0.21903711557388306,0.17043238878250122,-0.181549072265625,0.3142824172973633
1.0597563698582184,-1.1293414060540257,-0.04653191441284266,2.2919423580169678,1.5566576719284058,-0.7058098316192627,-0.44219666719436646,-0.8722363710403442,-0.20896406471729279,0.26112061738967896,-0.3237781524658203,0.17670688033103943
1.0763307158901947,-1.1512381191850485,-0.006837729154451454,2.5244102478027344,1.0024056434631348,-0.701604962348938,-0.43340206146240234,-0.8802224397659302,-0.19331584870815277,0.3166877329349518,-0.42962247133255005,0.13603432476520538
1.0926455270341453,-1.1834203993928045,0.03796957799676172,2.572632074356079,0.49940627813339233,-0.6404635310173035,-0.4260433614253998,-0.8878473043441772,-0.17382176220417023,0.36070531606674194,-0.4880223274230957,0.19634366035461426
1.107258885733611,-1.2232255106573937,0.08590317531466518,2.5046980381011963,0.07906918972730637,-0.5176278352737427,-0.42037850618362427,-0.8944764733314514,-0.15229390561580658,0.4618520140647888,-0.5416500568389893,0.292552649974823
1.119243638107496,-1.2682884034881319,0.13471940351655115,2.322070837020874,-0.3249041736125946,-0.36727437376976013,-0.41654863953590393,-0.8997706770896912,-0.12999911606311798,0.5548391342163086,-0.6246280074119568,0.3708895444869995
1.1280205970228887,-1.3157814861047146,0.18192133591821852,2.062445878982544,-0.6499683260917664,-0.19208073616027832,-0.4145927131175995,-0.9035658836364746,-0.1080804318189621,0.6117058396339417,-0.7082656621932983,0.4365715980529785
1.1332497446916296,-1.3629013243395034,0.22523032278933805,1.7599812746047974,-0.9210801124572754,0.030861113220453262,-0.41459453105926514,-0.9057939648628235,-0.08745573461055756,0.6835460662841797,-0.7693921327590942,0.4651716947555542
1.1347289522838073,-1.4079617612007855,0.2635113296085362,1.475380539894104,-1.1505833864212036,0.26550745964050293,-0.416790634393692,-0.9064196944236755,-0.0684741958975792,0.7377593517303467,-0.7995433807373047,0.4890521764755249
1.1334744353996051,-1.4506985327947441,0.2969325235053542,1.2990412712097168,-1.3088430166244507,0.35202428698539734,-0.42046424746513367,-0.9058891534805298,-0.05074101686477661,0.7782676815986633,-0.7867683172225952,0.49651122093200684
1.131739691208797,-1.4920023799905264,0.32802444104282596,1.3074464797973633,-1.3015531301498413,0.2262927144765854,-0.4237663447856903,-0.9051530957221985,-0.03345949575304985,0.7072595357894897,-0.8100109100341797,0.4316527843475342
1.1315584903262796,-1.533982469621856,0.3601733300539057,1.4110140800476074,-1.2678382396697998,-0.040942780673503876,-0.4249614477157593,-0.9050760269165039,-0.01565154269337654,0.5934643745422363,-0.8555287718772888,0.2958638668060303
1.1334715666625705,-1.5779482330240129,0.39495599989542773,1.5425471067428589,-1.2076643705368042,-0.27960488200187683,-0.42350658774375916,-0.9058879017829895,0.0030289310961961746,0.5486898422241211,-0.8395801782608032,0.1895979642868042
1.1361460983667315,-1.6246726087431271,0.4340313660972883,1.7320185899734497,-1.0332937240600586,-0.32836881279945374,-0.4204823970794678,-0.9070174098014832,0.022675972431898117,0.5979268550872803,-0.7545732259750366,0.1333298683166504
1.1374171098811292,-1.673699923761513,0.477442699018023,1.856929063796997,-0.9101974368095398,-0.1969737857580185,-0.4177182614803314,-0.9075518846511841,0.0431370809674263,0.7262511253356934,-0.6232097148895264,0.0819697380065918
1.1360626042436601,-1.7232966167371073,0.5218223298100818,1.8549354076385498,-0.9784154891967773,-0.010881494730710983,-0.4162808954715729,-0.9069822430610657,0.06397970765829086,0.899648904800415,-0.4955446124076843,0.09771764278411865
1.132125409764788,-1.7733265820794533,0.5645478164532098,1.8354355096817017,-1.30471670627594,0.1411924660205841,-0.41605520248413086,-0.905316948890686,0.08543511480093002,1.0570464134216309,-0.4276755452156067,0.191878080368042
1.1260994730128187,-1.8262267821681761,0.6062455942730651,1.9163234233856201,-1.7180618047714233,0.20820772647857666,-0.41622644662857056,-0.9027411341667175,0.10869109630584717,1.1307804584503174,-0.4352715015411377,0.2505006790161133
1.1186664051424215,-1.8841059067205341,0.6497438503624221,2.1193020343780518,-1.9740309715270996,0.14260287582874298,-0.41561412811279297,-0.899518609046936,0.13465090095996857,1.132792592048645,-0.4859640598297119,0.20955680310726166
1.110496448434988,-1.9463208384489246,0.6969931608187667,2.32995343208313,-1.9332408905029297,-0.011511553078889847,-0.4132615625858307,-0.8959193229675293,0.16292113065719604,1.0941698551177979,-0.5189518332481384,0.12212823331356049
1.1014579805970872,-2.008579389881368,0.7465649290046018,2.4296135902404785,-1.6226372718811035,-0.059943802654743195,-0.4096418619155884,-0.8918677568435669,0.1917431354522705,1.091496229171753,-0.5221184492111206,0.09098684787750244
1.0903363182966375,-2.0649299496259523,0.7937081381795861,2.3837153911590576,-1.2570441961288452,0.14273247122764587,-0.4069003760814667,-0.8867824077606201,0.21920111775398254,1.2218265533447266,-0.5084813833236694,0.13313952088356018
1.0759784250866595,-2.1107554427630912,0.8331110636679073,2.22038197517395,-0.9476993680000305,0.5367940664291382,-0.40731120109558105,-0.8800551891326904,0.24413177371025085,1.4599846601486206,-0.5275832414627075,0.22574734687805176
1.0583618962282428,-2.144813043135565,0.8623049319418541,2.0193557739257812,-0.7637299299240112,0.9545495510101318,-0.41171807050704956,-0.8715534806251526,0.2662375569343567,1.7201745510101318,-0.5834330320358276,0.332334041595459
1.0379446619178039,-2.168792383755791,0.8819240197666007,1.8693772554397583,-0.618717610836029,1.3569647073745728,-0.4198375940322876,-0.8613619804382324,0.28599292039871216,1.8778913021087646,-0.6362271308898926,0.41063177585601807
1.0145266736306882,-2.1845112290989683,0.8938043991016428,1.8062894344329834,-0.5132074952125549,1.7879276275634766,-0.4316653311252594,-0.8492307066917419,0.3040921986103058,1.9617252349853516,-0.6616487503051758,0.45729076862335205
0.9875829961395777,-2.1950227138902574,0.8988149600821537,1.7421927452087402,-0.7956141829490662,2.2889411449432373,-0.44685372710227966,-0.8346973657608032,0.32187268137931824,2.0945284366607666,-0.6729778051376343,0.4752769470214844
0.9566449021231218,-2.203550260067404,0.8958433504757135,1.6029515266418457,-1.4296950101852417,2.9091148376464844,-0.46470120549201965,-0.8172627687454224,0.3407845199108124,2.2169902324676514,-0.6861550807952881,0.5042777061462402
0.9216783911914163,-2.2119979140754267,0.8835353448747518,1.3672209978103638,-2.2306203842163086,3.5567097663879395,-0.484419584274292,-0.796617329120636,0.36157718300819397,2.2912282943725586,-0.6689282059669495,0.5849864482879639
0.8834167422237973,-2.220920084761776,0.8617163321340235,1.0576287508010864,-2.9564802646636963,4.153125762939453,-0.5050787329673767,-0.7729113698005676,0.38406169414520264,2.244779109954834,-0.6129376292228699,0.6559772491455078
0.8429657964831715,-2.2311126138052453,0.8306593542016196,0.6489839553833008,-3.7990641593933105,4.696293354034424,-0.5254141092300415,-0.7466194033622742,0.4080428183078766,2.09035587310791,-0.4640128016471863,0.679222047328949
0.8012291822579408,-2.244677376643864,0.7903987450479248,0.20745840668678284,-4.800685405731201,5.211041450500488,-0.5437209606170654,-0.7182119488716125,0.43421053886413574,1.8879441022872925,-0.23375332355499268,0.7013789415359497
0.759433392952019,-2.26455451832791,0.7422862016808988,-0.2387574315071106,-5.911050319671631,5.529199600219727,-0.5575889348983765,-0.6885106563568115,0.4637322425842285,1.635042667388916,0.029422521591186523,0.6996129751205444
0.7199390928053747,-2.2924187405020704,0.6881489883444178,-0.7062228918075562,-6.862431526184082,5.60418176651001,-0.5644370317459106,-0.6593388915061951,0.4966720938682556,1.2357627153396606,0.29285311698913574,0.6947646141052246
0.6855660588191607,-2.3274155384587094,0.6306426841425138,-1.151381492614746,-7.475676536560059,5.299094200134277,-0.5628666877746582,-0.633111298084259,0.5313671231269836,0.7542730569839478,0.5670254826545715,0.7307788133621216
0.6600883668481627,-2.3684886764566153,0.5734709493057228,-1.6704747676849365,-7.758424758911133,4.529995441436768,-0.5516610741615295,-0.6131866574287415,0.5653950572013855,0.18039965629577637,0.898465096950531,0.7280464768409729
0.6471604603570195,-2.4117810814351155,0.519253175310081,-2.313657760620117,-7.300032138824463,3.4888226985931396,-0.5319158434867859,-0.6029234528541565,0.5945995450019836,-0.48337340354919434,1.3045684099197388,0.728520393371582
0.6469202597927176,-2.447848623309972,0.4697527140009677,-2.737102508544922,-5.697443962097168,2.569664716720581,-0.5102212429046631,-0.6027318239212036,0.6135047674179077,-1.1889209747314453,1.9267523288726807,0.7692617177963257
0.6527781584443086,-2.4670686617029034,0.424780748800554,-2.597644805908203,-3.5513718128204346,2.336306095123291,-0.4961226284503937,-0.6073957085609436,0.6204292178153992,-1.8510605096817017,2.8002820014953613,0.6883016228675842
0.6543171989514646,-2.4661640469006105,0.38144027349991355,-1.848351240158081,-1.5473089218139648,2.929175853729248,-0.4960988163948059,-0.6086176037788391,0.6192500591278076,-2.190638303756714,3.5768182277679443,0.4368106722831726
0.6426913193200229,-2.446190547821805,0.337023974026638,-0.8235053420066833,0.11012189090251923,4.012530326843262,-0.5128664374351501,-0.5993519425392151,0.6146096587181091,-2.15104341506958,3.692720651626587,0.16131490468978882
0.6176748820610265,-2.41258920770688,0.2919803756858583,-0.21604831516742706,1.2518301010131836,4.631256103515625,-0.5430446863174438,-0.5791411995887756,0.608027994632721,-2.081329822540283,3.268624782562256,0.03963130712509155
0.5885037195384455,-2.37114458751629,0.2503235024252307,-0.2587276101112366,2.275247812271118,4.174429416656494,-0.5792932510375977,-0.5551170706748962,0.5968784093856812,-2.3941869735717773,2.6598687171936035,0.15553218126296997
0.5682955404315715,-2.326913517826292,0.21735290331167503,-0.8811199069023132,2.884403705596924,2.402045726776123,-0.6131556630134583,-0.5381962656974792,0.5782598853111267,-2.8978304862976074,1.859149694442749,0.35217511653900146
0.5687041837362259,-2.285884150917022,0.1974919394595933,-1.608872652053833,3.1437742710113525,-0.3022983968257904,-0.6361925005912781,-0.5385406613349915,0.5524786114692688,-3.3550639152526855,0.9420594573020935,0.4734153747558594
0.5939637707763704,-2.252093921324813,0.19414063812904075,-1.9940835237503052,3.20934796333313,-3.1619975566864014,-0.6437200903892517,-0.5596503019332886,0.5219345092773438,-3.5850090980529785,0.21962350606918335,0.5124738812446594
0.6403013666888041,-2.2283170580481277,0.20752080123759234,-1.9792602062225342,3.0469810962677,-5.294348239898682,-0.6347241401672363,-0.5974371433258057,0.490095853805542,-3.3994860649108887,0.026514291763305664,0.40559494495391846
0.6978876372298998,-2.2159792700167666,0.23388918707948625,-1.6604481935501099,2.638943672180176,-6.174393177032471,-0.6121870875358582,-0.6426006555557251,0.46075111627578735,-2.715846300125122,0.4483562111854553,0.31247276067733765
0.7557558895913283,-2.215746798252137,0.2680749831568087,-1.1962560415267944,1.897046685218811,-6.005133152008057,-0.5815691351890564,-0.6858389377593994,0.43749532103538513,-1.7697796821594238,1.1420767307281494,0.31255030632019043
0.8070458935090349,-2.227545489656305,0.30582445543096004,-0.7459442019462585,1.0701842308044434,-5.331996917724609,-0.547761857509613,-0.7222471833229065,0.4222745895385742,-0.9175090789794922,1.6677579879760742,0.35526740550994873
0.8494708082545818,-2.2486217171101672,0.3449006134820983,-0.3526962399482727,0.5219488143920898,-4.585798263549805,-0.5143955945968628,-0.7509310245513916,0.414124995470047,-0.36055850982666016,1.8150789737701416,0.33413541316986084
0.8841884133366255,-2.274713178489891,0.3853627760716208,-0.046947237104177475,0.49803632497787476,-4.120436191558838,-0.4832432270050049,-0.7734007835388184,0.41027650237083435,-0.17956793308258057,1.701806664466858,0.23004311323165894
0.914259068751223,-2.301471926502787,0.42850837194176195,0.11318490654230118,0.9402249455451965,-3.938767910003662,-0.4545627236366272,-0.7921105623245239,0.40734952688217163,-0.24129903316497803,1.506191372871399,0.1078481674194336
0.9420155279283525,-2.3253919356067616,0.47370828445628704,0.10112084448337555,1.5044866800308228,-3.7805333137512207,-0.42850261926651,-0.8087452054023743,0.40288564562797546,-0.2611183524131775,1.3229968547821045,0.030601203441619873
0.9684795999360752,-2.3440062339200534,0.518373801246344,-0.053493231534957886,2.0577049255371094,-3.5893826484680176,-0.4054664969444275,-0.8240252733230591,0.39570119976997375,-0.18317177891731262,1.1600236892700195,0.027073949575424194
0.9947498569146647,-2.3556211478282356,0.5607995626113689,-0.2948853671550751,2.6553449630737305,-3.445390224456787,-0.38539066910743713,-0.8386227488517761,0.3849489986896515,-0.16539055109024048,1.0193021297454834,0.0844416618347168
1.0218115601578244,-2.359709770700074,0.6000346584390882,-0.5846313834190369,3.115565061569214,-3.3146886825561523,-0.3676840364933014,-0.8530547618865967,0.37027817964553833,-0.14534687995910645,0.9118621349334717,0.1904670000076294
1.04969336882242,-2.3567554301852405,0.634776283604306,-0.8474541306495667,3.4239938259124756,-3.093405246734619,-0.35182636976242065,-0.8672705888748169,0.3522213101387024,-0.04204869270324707,0.8455267548561096,0.24854758381843567
1.0768755731487822,-2.3459137329182207,0.6635493306631349,-0.96533203125,3.74940824508667,-2.700018882751465,-0.3386549949645996,-0.8804808855056763,0.3317623436450958,0.08674770593643188,0.7729674577713013,0.243280291557312
1.1013028115011452,-2.3260741979807036,0.685077204342571,-0.9717176556587219,3.9903945922851562,-2.1813440322875977,-0.32940924167633057,-0.8917975425720215,0.3101399838924408,0.24655401706695557,0.6921057105064392,0.18761685490608215
1.1219302353484228,-2.296903823773907,0.6978789306718223,-0.9773284196853638,4.091293811798096,-1.6224433183670044,-0.3244878947734833,-0.9009397625923157,0.28812316060066223,0.4692939221858978,0.5830992460250854,0.1419914960861206
1.1387209481352352,-2.258449331618673,0.7008653545443099,-1.0050641298294067,4.1048665046691895,-1.1043541431427002,-0.3235885202884674,-0.9080986380577087,0.265794962644577,0.6836655139923096,0.41945135593414307,0.1147591769695282
1.152025738817539,-2.212142558936281,0.6945852636931741,-1.0359853506088257,3.9520013332366943,-0.6786179542541504,-0.32583484053611755,-0.9135895371437073,0.2432808130979538,0.7838122844696045,0.20809954404830933,0.08620212972164154
1.162309984052948,-2.1607346629651234,0.680131328981554,-1.0997196435928345,3.64937424659729,-0.35375359654426575,-0.330080509185791,-0.9177231192588806,0.220977783203125,0.7727838158607483,-0.01329195499420166,0.07958987355232239
1.1707145483548471,-2.106299790697902,0.6593219809443717,-1.168070673942566,3.400045156478882,-0.22569337487220764,-0.33496880531311035,-0.9210291504859924,0.19874832034111023,0.7380603551864624,-0.14884066581726074,0.105206698179245
1.1785112764868646,-2.051052116857363,0.6357923181134937,-1.1585397720336914,3.299057960510254,-0.27561646699905396,-0.3390534818172455,-0.9240378737449646,0.17662516236305237,0.6232332587242126,-0.20369333028793335,0.11576364934444427
1.186443152925268,-1.9966276262822427,0.6123257129620641,-1.1238235235214233,3.2184903621673584,-0.36766064167022705,-0.3414735496044159,-0.9270411729812622,0.15488731861114502,0.44717127084732056,-0.22391384840011597,0.11783288419246674
1.1939685781840057,-1.9420951277109968,0.5883974059149489,-1.090783715248108,3.248244524002075,-0.3048384487628937,-0.3428977429866791,-0.929836630821228,0.133510023355484,0.35640183091163635,-0.23347818851470947,0.12416505813598633
1.1991299606142527,-1.8847933848624188,0.5622923867351283,-1.0400654077529907,3.3080713748931885,-0.0060738371685147285,-0.34541189670562744,-0.9317234754562378,0.11216919124126434,0.4111011028289795,-0.2394191026687622,0.1482982635498047
1.200063760438784,-1.82578539764202,0.534025181931305,-0.9681543707847595,3.181901216506958,0.3984336853027344,-0.35058361291885376,-0.9320622086524963,0.09138421714305878,0.5863929986953735,-0.2704066038131714,0.16691648960113525
1.1963150390596498,-1.7689121377150372,0.5058999901401734,-0.8437613248825073,2.913365364074707,0.7756068110466003,-0.3586345613002777,-0.930697500705719,0.07199559360742569,0.7178266048431396,-0.325253427028656,0.17573070526123047
1.1884125532412972,-1.7183801409277646,0.4809901067875143,-0.6880100965499878,2.5472168922424316,1.0757787227630615,-0.36907681822776794,-0.9277778267860413,0.054868705570697784,0.7366610765457153,-0.396761417388916,0.1616687774658203
1.1774866038641092,-1.6760335248309912,0.46129810611874883,-0.5042967200279236,2.2707087993621826,1.252724051475525,-0.3811272084712982,-0.9236456751823425,0.04025748372077942,0.6764916181564331,-0.4128410816192627,0.15226268768310547
1.1650940921519146,-1.6420549143089924,0.44816548450708815,-0.28623640537261963,2.100637912750244,1.2721503973007202,-0.393662691116333,-0.9188254475593567,0.028099425137043,0.5936902165412903,-0.3941781520843506,0.14784955978393555
1.1531542396277807,-1.6155679819651503,0.44190266747881174,-0.07533349096775055,2.0421926975250244,1.1149131059646606,-0.4051998555660248,-0.9140478372573853,0.01815359853208065,0.46135225892066956,-0.39230281114578247,0.13312196731567383
1.1432926565341301,-1.5947364337291776,0.4413418263059007,0.08973881602287292,2.003894329071045,0.8427274823188782,-0.4144813120365143,-0.9100035429000854,0.009924623183906078,0.2948983311653137,-0.44769287109375,0.12093472480773926
1.1363536713838982,-1.577288255404907,0.4442734806904652,0.1657952219247818,2.020812749862671,0.5325086712837219,-0.4208957254886627,-0.9071047902107239,0.002732463413849473,0.16210678219795227,-0.5089717507362366,0.147566556930542
1.1325699750480123,-1.5598104684751926,0.4479137948810766,0.12016322463750839,2.1259613037109375,0.22960835695266724,-0.42430824041366577,-0.9055057168006897,-0.004661577753722668,0.06299546360969543,-0.5042842030525208,0.19474029541015625
1.1311637626202578,-1.5380131321272255,0.4479918144331865,-0.1484495848417282,2.2237651348114014,0.0674804300069809,-0.42537808418273926,-0.9049081206321716,-0.01395025011152029,0.01764807105064392,-0.4941396117210388,0.2737615704536438
1.1304845561521126,-1.5080253078884538,0.43930226695029684,-0.6095830798149109,2.1625237464904785,0.04017192870378494,-0.42538201808929443,-0.9046187996864319,-0.0267367884516716,0.08300536870956421,-0.48751676082611084,0.4069399833679199
1.1293141617010198,-1.4690144050052452,0.4189305974836217,-1.1377497911453247,1.925987958908081,0.041696321219205856,-0.42506882548332214,-0.9041193723678589,-0.043414343148469925,0.25722214579582214,-0.5314581394195557,0.540362536907196
1.1273550817835933,-1.422166273283569,0.38692973178497136,-1.6012790203094482,1.6533714532852173,-0.004179634153842926,-0.4243199825286865,-0.9032805562019348,-0.06353524327278137,0.3655737340450287,-0.5977723002433777,0.585721492767334
1.124724508996347,-1.3699869646056715,0.3464892536906453,-1.8717364072799683,1.4877982139587402,-0.0863189846277237,-0.4227556884288788,-0.9021487832069397,-0.08605310320854187,0.37977176904678345,-0.6445430517196655,0.5331202745437622
1.1217934498562692,-1.3163990138250259,0.3031203954462726,-1.8702055215835571,1.3977149724960327,-0.19509132206439972,-0.4200969338417053,-0.9008803963661194,-0.10923832654953003,0.3821789026260376,-0.6466965079307556,0.41737425327301025
1.119388564649916,-1.2666251891669829,0.26213826019941944,-1.6557211875915527,1.1413990259170532,-0.3282850682735443,-0.41620755195617676,-0.8998338580131531,-0.13065272569656372,0.4016202390193939,-0.6162335276603699,0.25086140632629395
1.1184214512023662,-1.2253929087029012,0.22715372881659654,-1.2770835161209106,0.8122479319572449,-0.4556732773780823,-0.41128674149513245,-0.8994115591049194,-0.14799253642559052,0.4312453269958496,-0.6069969534873962,0.09003962576389313
1.1194160529186095,-1.1940013300335401,0.2003138021184025,-0.8390260934829712,0.6609220504760742,-0.5487289428710938,-0.4056074023246765,-0.8998458981513977,-0.16049931943416595,0.46226340532302856,-0.5953475832939148,-0.05139946937561035
1.1222747123523666,-1.1705815998889573,0.18184307394973007,-0.4384388029575348,0.7191705703735352,-0.5756042003631592,-0.39936694502830505,-0.9010891914367676,-0.16895072162151337,0.5021806955337524,-0.5307649970054626,-0.14689099788665771
1.1262950918764525,-1.1519435691002515,0.170316627837003,-0.17002171277999878,0.9346008896827698,-0.5468234419822693,-0.39283594489097595,-0.9028252363204956,-0.174889475107193,0.5112900137901306,-0.42328548431396484,-0.1444770097732544
1.1305034597541062,-1.134389673318038,0.16306745534077074,-0.06556740403175354,1.2817059755325317,-0.46763521432876587,-0.38625892996788025,-0.9046269059181213,-0.18015044927597046,0.5456981062889099,-0.36089128255844116,-0.10409033298492432
1.1337001844355115,-1.113562025818969,0.15696139955700025,-0.146845743060112,1.7840723991394043,-0.3186931312084198,-0.3798266649246216,-0.9059846997261047,-0.18687810003757477,0.6169177889823914,-0.3657132387161255,-0.034801602363586426
1.1342924165910595,-1.0869507594240782,0.14972268553075677,-0.35221725702285767,2.171048164367676,-0.050320807844400406,-0.3742443025112152,-0.9062352776527405,-0.1966685652732849,0.7045513987541199,-0.36604243516921997,0.08222761750221252
1.1311942069655387,-1.0574178140850268,0.14116558322314235,-0.5717102289199829,2.1044318675994873,0.24331773817539215,-0.3707178831100464,-0.9049210548400879,-0.2090117484331131,0.8414974212646484,-0.39241158962249756,0.23518051207065582
1.1247368584440953,-1.0308347651293392,0.13276262902041108,-0.673531711101532,1.6602100133895874,0.5042292475700378,-0.3700360059738159,-0.9021540880203247,-0.22179122269153595,0.9672040343284607,-0.4994267225265503,0.36253821849823
1.1162412917566522,-1.012582110223636,0.12818407093063802,-0.5127905011177063,1.1590451002120972,0.7302969694137573,-0.3724140226840973,-0.8984565138816833,-0.23255938291549683,1.045952320098877,-0.6332360506057739,0.38406381011009216
1.1075794573104023,-1.0072444181302955,0.13269324440283337,-0.02685629576444626,0.7161949872970581,0.9435631036758423,-0.3777320981025696,-0.8946197628974915,-0.23869217932224274,1.1361855268478394,-0.8061553239822388,0.24996840953826904
1.1005954674656988,-1.0192560711810792,0.1516099369808332,0.7612053155899048,0.2466314733028412,1.1311140060424805,-0.3858840763568878,-0.8914772868156433,-0.23740610480308533,1.22911536693573,-0.9992697238922119,-0.0049492716789245605
1.0963836358644097,-1.0522633348718093,0.1883998215927334,1.6802812814712524,-0.3322412669658661,1.2929863929748535,-0.3967662751674652,-0.8895611763000488,-0.22640100121498108,1.3141400814056396,-1.1958880424499512,-0.2344602346420288
1.0940960024715338,-1.1087094501575416,0.24298260748013795,2.4734723567962646,-1.2844477891921997,1.4598076343536377,-0.41072729229927063,-0.8885138034820557,-0.2045629769563675,1.3653782606124878,-1.3280844688415527,-0.3010370433330536
1.091482282255302,-1.1885384259847265,0.31235123675926973,3.0907087326049805,-2.344897508621216,1.61337411403656,-0.427885502576828,-0.8873114585876465,-0.1720241755247116,1.435011386871338,-1.431246280670166,-0.16521036624908447
1.086901670273155,-1.2877029686193835,0.39202796278322993,3.5356884002685547,-3.3309249877929688,1.638933539390564,-0.4467117488384247,-0.8851897120475769,-0.1299513280391693,1.4707750082015991,-1.4836150407791138,0.08190138638019562
1.0792364844964786,-1.3998629454782436,0.47623842425568275,3.747093915939331,-4.183556079864502,1.6360136270523071,-0.4651225209236145,-0.8815976977348328,-0.08028845489025116,1.3854870796203613,-1.494638204574585,0.3280453681945801
1.0666290201630513,-1.5170205654937947,0.5572784521457841,3.5811569690704346,-4.97343111038208,1.7397053241729736,-0.4823799729347229,-0.8755770325660706,-0.025965383276343346,1.3737679719924927,-1.4816005229949951,0.5528360605239868
1.0490041726491097,-1.6297401965691223,0.6251422516559858,3.0342421531677246,-5.651782989501953,1.765958309173584,-0.49756869673728943,-0.8669273257255554,0.029362637549638748,1.5187480449676514,-1.3795936107635498,0.8534650802612305
1.0275522574369942,-1.7297002979739484,0.6742739134228971,2.3627946376800537,-5.7851409912109375,1.9759892225265503,-0.510403037071228,-0.8560363054275513,0.08179468661546707,1.52103853225708,-1.2165496349334717,1.1594009399414062
1.0028430105626354,-1.812646850186624,0.7029598163360059,1.563007116317749,-5.916642665863037,2.2616758346557617,-0.5222522616386414,-0.8430036902427673,0.12882862985134125,1.6054280996322632,-0.9831526875495911,1.283402681350708
0.9762586057148335,-1.8804966977562578,0.711196931972494,0.7640304565429688,-6.245875358581543,2.6131107807159424,-0.533477783203125,-0.8284075260162354,0.17071138322353363,1.7297821044921875,-0.6847608685493469,1.3333320617675781
0.9481654728741074,-1.938168048075158,0.7019461263495421,0.13382506370544434,-6.805786609649658,3.0339179039001465,-0.544261634349823,-0.8123469948768616,0.20945504307746887,1.6530721187591553,-0.27882421016693115,1.3894370794296265
0.9181137767286172,-1.9933989496237319,0.6800593930453898,-0.17747050523757935,-7.7365617752075195,3.506382465362549,-0.5538906455039978,-0.7944574952125549,0.24908342957496643,1.51139497756958,0.25985050201416016,1.289444923400879
0.8848942373270571,-2.053313824342317,0.6511670409703275,-0.08566640317440033,-8.703015327453613,4.009923458099365,-0.5610591173171997,-0.7738479971885681,0.2938911020755768,1.1949398517608643,0.8229964971542358,1.115013837814331
0.8472717633323575,-2.120734050333994,0.6206664599333042,0.4061030447483063,-9.296262741088867,4.432205677032471,-0.5644184947013855,-0.7494770288467407,0.3459995687007904,0.7568472027778625,1.3817554712295532,0.8559808731079102
0.8050618233283822,-2.1925665050884144,0.5930058733611012,1.1555224657058716,-8.920093536376953,4.598113059997559,-0.5633581280708313,-0.7208734750747681,0.4036938548088074,0.27244943380355835,1.9152705669403076,0.5440446734428406
0.759769304936685,-2.2589278079860122,0.5706332081494006,1.7991749048233032,-7.317201137542725,4.462646961212158,-0.5600104928016663,-0.6887542009353638,0.46044042706489563,-0.3279898166656494,2.3561432361602783,0.27166077494621277
0.7138979922331388,-2.3068267460272267,0.5505969355999143,1.8577595949172974,-4.83860445022583,4.425319194793701,-0.5601643323898315,-0.6547849178314209,0.5074173212051392,-1.0238046646118164,2.7113797664642334,0.10122507810592651
0.6700556985705919,-2.3253632659011756,0.5253603445627529,1.1452361345291138,-2.0436675548553467,4.648982524871826,-0.5710422396659851,-0.6210296154022217,0.5368730425834656,-1.6371181011199951,3.082714796066284,0.14450794458389282
0.6312591414290668,-2.309471064868657,0.48811531685457776,-0.28928089141845703,0.6979705691337585,5.069098472595215,-0.5968752503395081,-0.5901617407798767,0.5435518026351929,-2.08795428276062,3.3876471519470215,0.3669856786727905
0.5986825539906474,-2.2592539459283083,0.43403745852888204,-2.1290183067321777,3.0280752182006836,5.584100723266602,-0.637920081615448,-0.5635546445846558,0.5248464345932007,-2.3293497562408447,3.3975696563720703,0.62710040807724
0.572765655435545,-2.1804779930239024,0.3637062254524455,-4.037991523742676,4.884557247161865,5.443221092224121,-0.688989520072937,-0.5419583916664124,0.48122140765190125,-2.4910335540771484,3.056042194366455,0.713724672794342
0.5584790101127158,-2.0807522197702215,0.2841711772708831,-5.704229831695557,6.5079498291015625,3.883798599243164,-0.7401596307754517,-0.5298969149589539,0.413971871137619,-2.8161909580230713,2.4308979511260986,0.47587478160858154
0.5625872568902185,-1.9641619241844044,0.205290253042532,-6.4507832527160645,8.458640098571777,1.0911285877227783,-0.7812733054161072,-0.5333764553070068,0.32422423362731934,-3.177802562713623,1.5519616603851318,-0.019567400217056274
0.587632416109768,-1.8311481773206604,0.13628098804275604,-5.8854193687438965,10.511643409729004,-2.0577218532562256,-0.804207980632782,-0.5543921589851379,0.21423965692520142,-3.2569797039031982,0.5747168660163879,-0.6998050212860107
0.6298738122891712,-1.689892278635617,0.08217237274160481,-4.278639316558838,11.281110763549805,-4.343661785125732,-0.8023776412010193,-0.5890427827835083,0.09601431339979172,-3.022390365600586,-0.13533776998519897,-1.3380645513534546
0.680273235141731,-1.5551003181824605,0.043436741003147435,-2.357102394104004,10.809475898742676,-5.17088508605957,-0.7773050665855408,-0.6290054321289062,-0.012201589532196522,-2.4545369148254395,-0.19380950927734375,-1.6411340236663818
0.7300085035760823,-1.433357046566942,0.01796320619038622,-0.8142148852348328,10.18088436126709,-4.898137092590332,-0.7381418347358704,-0.666875958442688,-0.10209332406520844,-1.6861439943313599,0.389623761177063,-1.40254545211792
0.7739026670882336,-1.322972189901166,0.001545542623141676,0.051615022122859955,9.607736587524414,-4.107750415802002,-0.6933383345603943,-0.6989316940307617,-0.1754322499036789,-1.0995845794677734,1.1810178756713867,-0.6581554412841797
0.8100320970716276,-1.2196665152376391,-0.011013513265866868,0.32069098949432373,9.219476699829102,-3.3194916248321533,-0.6474065780639648,-0.7243093252182007,-0.237151101231575,-0.8007744550704956,1.7720389366149902,0.10157670080661774
0.8396357355175178,-1.1185094421425619,-0.024570214000663126,0.27328619360923767,8.976396560668945,-2.8809280395507812,-0.6005934476852417,-0.7443999648094177,-0.29181554913520813,-0.6883469223976135,1.982925295829773,0.5712802410125732
0.865355572764592,-1.016091840232921,-0.04219950488201052,0.1838831752538681,8.792415618896484,-2.7574450969696045,-0.551150381565094,-0.7613258361816406,-0.34149107336997986,-0.799542248249054,1.9567756652832031,0.777266800403595
0.8891180027882428,-0.9113739707993441,-0.06442754158552026,0.21237845718860626,8.688799858093262,-2.753758430480957,-0.49799489974975586,-0.776516318321228,-0.3860355615615845,-0.9038451910018921,1.7997403144836426,0.7683292627334595
0.91185209063847,-0.8044864409510709,-0.08985976497416197,0.38039863109588623,8.638946533203125,-2.7224948406219482,-0.44113394618034363,-0.7906391024589539,-0.42460644245147705,-0.8785070776939392,1.5325672626495361,0.597366452217102
0.9334671152708947,-0.6971424427195956,-0.1163815720745025,0.5941184163093567,8.538829803466797,-2.5250351428985596,-0.3820403218269348,-0.8036878705024719,-0.45621374249458313,-0.7295166254043579,1.2299573421478271,0.42001980543136597
0.953296320715907,-0.5921381194773574,-0.1412698467048131,0.8073168992996216,8.353668212890625,-2.1664977073669434,-0.32316023111343384,-0.8153284788131714,-0.4804236590862274,-0.5437983274459839,0.9581508040428162,0.3301093578338623
0.971151539430905,-0.49267809287483955,-0.1624649887160191,0.9834141731262207,7.980999946594238,-1.7286254167556763,-0.26692989468574524,-0.8255361318588257,-0.4972306787967682,-0.38150754570961,0.7656607627868652,0.3022080957889557
0.9868617323729051,-0.40147626652665996,-0.179017839128054,1.0236504077911377,7.435395240783691,-1.2908886671066284,-0.21543996036052704,-0.8342999219894409,-0.5074734687805176,-0.2689197063446045,0.6376904249191284,0.3555569648742676
1.0000472297724723,-0.31987969350145207,-0.1917145957838964,0.9473760724067688,6.670073986053467,-0.9359891414642334,-0.16988684237003326,-0.8414965271949768,-0.5128567814826965,-0.15414877235889435,0.5015764832496643,0.48604708909988403
1.0108032835404988,-0.2518755672248386,-0.2002789026509668,0.8440118432044983,5.3662285804748535,-0.5344693660736084,-0.13238118588924408,-0.8472588062286377,-0.5144198536872864,-0.016269907355308533,0.2602989673614502,0.6460117101669312
1.0189110564428898,-0.2037638958003577,-0.20277894034259078,0.6716645956039429,3.823106527328491,-0.09479106217622757,-0.10609433799982071,-0.8515375852584839,-0.5134468078613281,0.1551971584558487,-0.019495069980621338,0.7520637512207031
1.024357494835646,-0.1748530259957193,-0.19923589440827935,0.46978646516799927,2.5916788578033447,0.2255437970161438,-0.09039968997240067,-0.8543804883956909,-0.5117242336273193,0.30473992228507996,-0.15378284454345703,0.8431146740913391
1.028150179407806,-0.159415860558012,-0.19209148012966118,0.4227052330970764,1.750516653060913,0.3488713204860687,-0.08197470009326935,-0.8563451766967773,-0.5098558068275452,0.30453944206237793,-0.22490781545639038,0.8424822092056274
1.0322534402714878,-0.1512063013047805,-0.18440312344272422,0.5251325368881226,1.2284324169158936,0.2968063950538635,-0.07725637406110764,-0.8584569096565247,-0.5070337057113647,0.16372796893119812,-0.27900946140289307,0.7070611715316772
1.0380609549019297,-0.14620777361045592,-0.1778649578859798,0.7300574779510498,0.8925893306732178,0.17625680565834045,-0.07399341464042664,-0.8614210486412048,-0.5024726986885071,-0.00013375282287597656,-0.33170944452285767,0.49446189403533936
1.0459080880210216,-0.1422171688064577,-0.17390099524456384,0.86388099193573,0.5938915014266968,-0.010062986984848976,-0.07102735340595245,-0.8653799295425415,-0.4960571527481079,-0.07261885702610016,-0.4339669346809387,0.3581482172012329
1.0547266208450663,-0.13733778961380402,-0.17380427619812744,0.8636122345924377,0.4192124009132385,-0.23519836366176605,-0.06755860149860382,-0.8697653412818909,-0.4888189435005188,-0.09392513334751129,-0.5192879438400269,0.2959325909614563
1.0630730766884686,-0.1287129941795606,-0.1789965061905496,0.7045086026191711,0.4160084128379822,-0.4879448711872101,-0.06240617111325264,-0.8738536834716797,-0.48216700553894043,-0.15820536017417908,-0.5467242002487183,0.3228347599506378
1.0694628244961095,-0.1143844475904895,-0.1900480671749676,0.419138640165329,0.5195188522338867,-0.7215328216552734,-0.054852839559316635,-0.8769424557685852,-0.4774547815322876,-0.20402774214744568,-0.5349074602127075,0.3987957239151001
1.0726711721012434,-0.09411128848163344,-0.20645956337540386,0.04902568459510803,0.6474713087081909,-0.8971288204193115,-0.044898081570863724,-0.8784798383712769,-0.47566503286361694,-0.2083214968442917,-0.5154256820678711,0.47468850016593933
1.0718555010055641,-0.06946116865310077,-0.22675705984817096,-0.3668769896030426,0.6999629735946655,-1.0109329223632812,-0.033210158348083496,-0.8780898451805115,-0.4773419499397278,-0.15860804915428162,-0.5113906860351562,0.5293439030647278
1.0668921385726247,-0.04252426859348453,-0.24952643951681028,-0.7309883236885071,0.6807498335838318,-1.1161060333251953,-0.020526576787233353,-0.8757041096687317,-0.48241162300109863,-0.10068921744823456,-0.5230995416641235,0.5636036396026611
1.058422309720323,-0.014279508983929823,-0.27441255606376863,-1.0106271505355835,0.611915647983551,-1.251050591468811,-0.0070002577267587185,-0.871583104133606,-0.49019768834114075,-0.07541243731975555,-0.508253812789917,0.5644927024841309
1.0472295606012296,0.014835928854092382,-0.3012311299575856,-1.2033065557479858,0.5477691888809204,-1.3956878185272217,0.007417281158268452,-0.8660414218902588,-0.49991726875305176,-0.08586269617080688,-0.46792763471603394,0.5192196369171143
1.0341149691137739,0.04439492488084205,-0.3293838988379505,-1.3163710832595825,0.5080273747444153,-1.5134570598602295,0.02269107662141323,-0.8594101667404175,-0.5107828974723816,-0.09721498191356659,-0.42669200897216797,0.4383952021598816
1.019667277681015,0.07378739452224245,-0.3577043420987598,-1.3782473802566528,0.5239953398704529,-1.5652689933776855,0.03860367462038994,-0.8519338369369507,-0.5222245454788208,-0.07929883897304535,-0.39237457513809204,0.3606797456741333
1.0043079985022558,0.10206106843796874,-0.3848196628184847,-1.4150218963623047,0.5305421352386475,-1.5532970428466797,0.054678287357091904,-0.8437907695770264,-0.5338793992996216,-0.03172904625535011,-0.3560992479324341,0.29668158292770386
0.9883720998897335,0.12879858839394304,-0.41002587731044876,-1.4157352447509766,0.5896615386009216,-1.5201687812805176,0.07064996659755707,-0.8351316452026367,-0.545494019985199,0.003187336027622223,-0.308285653591156,0.23540490865707397
0.9724867151651139,0.15420123319159434,-0.43318102958284005,-1.3473846912384033,0.6327357292175293,-1.4663926362991333,0.08650951832532883,-0.8262888789176941,-0.5565633177757263,0.018821924924850464,-0.26300549507141113,0.1724691390991211
0.9574256506944617,0.17785171812277767,-0.4541106788728611,-1.2097716331481934,0.649395763874054,-1.3647007942199707,0.10183736681938171,-0.8177124261856079,-0.5665469765663147,0.04309062659740448,-0.21616202592849731,0.1011996865272522
0.9441329261973221,0.1991062396334187,-0.4724041699464025,-0.985054075717926,0.6124414801597595,-1.2097362279891968,0.11599496006965637,-0.8099887371063232,-0.5748593211174011,0.09076164662837982,-0.16722983121871948,0.0262143611907959
0.9335934573823004,0.21757791855836425,-0.4880096279468217,-0.6803728938102722,0.5609894394874573,-1.0241353511810303,0.12842893600463867,-0.8037630319595337,-0.5809224247932434,0.16978885233402252,-0.14759188890457153,-0.03801983594894409
0.9264165196962516,0.2338484086005503,-0.5017134140292656,-0.35145068168640137,0.4956570267677307,-0.9057936072349548,0.13919654488563538,-0.799472451210022,-0.5843525528907776,0.22017844021320343,-0.16543221473693848,-0.10201817750930786
0.9223991996220727,0.2488056675042543,-0.5153346967767289,-0.040626488626003265,0.31130450963974,-0.879548192024231,0.14871066808700562,-0.797052800655365,-0.5853134989738464,0.19592434167861938,-0.15779638290405273,-0.1396315097808838
0.9209857650078068,0.26208487989500023,-0.5295391019147242,0.18780136108398438,0.07604990899562836,-0.8415871858596802,0.15676157176494598,-0.7961984276771545,-0.584374725818634,0.1503673493862152,-0.14455169439315796,-0.11966574192047119
0.9212729362742563,0.27293170041453824,-0.5436419839917551,0.3065308630466461,-0.1453910917043686,-0.7855427265167236,0.16302919387817383,-0.7963721752166748,-0.5824198722839355,0.15670348703861237,-0.1558067798614502,-0.06763505935668945
0.9220496722842837,0.28163498379650503,-0.5574231049105235,0.27162641286849976,-0.32491767406463623,-0.7686337828636169,0.16791994869709015,-0.7968416810035706,-0.5803844928741455,0.19667357206344604,-0.15552031993865967,0.004914581775665283
0.9217752832212066,0.2863295877193706,-0.5700078125546442,0.10146090388298035,-0.711034893989563,-0.6890527606010437,0.17070452868938446,-0.7966758608818054,-0.5797995924949646,0.18706832826137543,-0.14128196239471436,0.1140555739402771
0.9204754781431286,0.28743327672281527,-0.5804005535091388,0.008288616314530373,-0.706994354724884,-0.5936237573623657,0.17163774371147156,-0.7958895564079285,-0.5806033611297607,0.20235519111156464,-0.11243557929992676,0.20091891288757324
0.918629078198624,0.28769585312147655,-0.5895945133462914,-0.037072714418172836,-0.6749035120010376,-0.583279550075531,0.172206848859787,-0.794770359992981,-0.5819663405418396,0.1883888691663742,-0.09736520051956177,0.1109885573387146
0.9165775349928384,0.2893281039190644,-0.5988563824584908,-0.036703601479530334,-0.45658206939697266,-0.6092534065246582,0.17362138628959656,-0.7935235500335693,-0.5832460522651672,0.11632612347602844,-0.08204096555709839,0.03228175640106201
0.9144598971276338,0.2937632815661356,-0.6085981829519032,-0.022490981966257095,-0.19410446286201477,-0.6432923674583435,0.1766926497220993,-0.7922331094741821,-0.5840773582458496,0.05647692084312439,-0.06509721279144287,-0.040983617305755615
0.9126133400049627,0.30104954467882783,-0.6186730213925266,0.03559495881199837,0.050329774618148804,-0.6292798519134521,0.18137715756893158,-0.7911049723625183,-0.5841706395149231,0.038990288972854614,-0.06511145830154419,-0.06901228427886963
0.911394919975458,0.3096073064505541,-0.628103537784435,0.0718078538775444,0.15347976982593536,-0.5271580815315247,0.18666315078735352,-0.7903590798377991,-0.5835145711898804,0.056256771087646484,-0.04310643672943115,-0.09736305475234985
0.9108297881442674,0.3173821061297906,-0.6354924542611765,0.10407604277133942,0.23458127677440643,-0.3651086986064911,0.19133353233337402,-0.7900127172470093,-0.5824699401855469,0.09112191200256348,0.018131732940673828,-0.08447641134262085
0.9110961756561017,0.3237435692771422,-0.64066698432963,0.1459837257862091,0.19829025864601135,-0.22165927290916443,0.19496804475784302,-0.7901760339736938,-0.5810414552688599,0.12175862491130829,0.05587738752365112,-0.06040745973587036
0.9121704538470563,0.32763521223738556,-0.6438659530892966,0.18324454128742218,0.0686395913362503,-0.08569158613681793,0.19695447385311127,-0.7908340096473694,-0.5794742703437805,0.13507676124572754,0.06913912296295166,-0.019845128059387207
0.9138533078156738,0.3289513058880224,-0.6456252070071605,0.19861768186092377,-0.08554752171039581,-0.03143279626965523,0.19728678464889526,-0.7918628454208374,-0.5779543519020081,0.14446432888507843,0.0651782751083374,0.018506169319152832
0.9153795561322601,0.3290201996912191,-0.6478341068510128,0.16948163509368896,-0.24418775737285614,-0.1423627734184265,0.19693584740161896,-0.7927939891815186,-0.576796293258667,0.11197835206985474,0.047127485275268555,0.04971194267272949
0.9159546272635237,0.32946480213898155,-0.6521306787475409,0.10684256255626678,-0.33171817660331726,-0.3106238842010498,0.1970447301864624,-0.7931443452835083,-0.5762771964073181,0.012611046433448792,0.004951655864715576,0.07099771499633789
0.9154760108546577,0.3310106437345435,-0.6583349443805315,0.05027782544493675,-0.3290041387081146,-0.42063000798225403,0.19805866479873657,-0.7928527593612671,-0.576330840587616,-0.04649309813976288,-0.016290247440338135,0.08034390211105347
0.9143939682848525,0.33351721916400134,-0.6652225096259508,0.024335335940122604,-0.25310125946998596,-0.43037644028663635,0.19978339970111847,-0.7921928763389587,-0.5766428709030151,-0.022567808628082275,-0.021665096282958984,0.06879985332489014
0.9131469150754193,0.33661858420985885,-0.6715986063689836,-0.010955541394650936,-0.1340063065290451,-0.3826794922351837,0.20189693570137024,-0.7914312481880188,-0.5769524574279785,0.03058597445487976,-0.019649624824523926,0.048189640045166016
0.9114651243083589,0.34015184522128206,-0.6767073037483563,-0.10614024102687836,0.04247532784938812,-0.31372514367103577,0.20437797904014587,-0.7904021143913269,-0.57748943567276,0.06249825656414032,-0.01185917854309082,0.03488689661026001
0.9090083905750281,0.34452509945751786,-0.6800365667503511,-0.21815384924411774,0.31037071347236633,-0.23288117349147797,0.20755675435066223,-0.788894772529602,-0.578416109085083,0.06621645390987396,-0.004531681537628174,0.04121518135070801
0.9058882872466847,0.3500242159556056,-0.6813252069415667,-0.30585911870002747,0.5791111588478088,-0.1208314448595047,0.2115774154663086,-0.7869735360145569,-0.5795753598213196,0.0729990005493164,0.0032212138175964355,0.05851823091506958
0.902844772246512,0.3561463983250446,-0.6803385197596054,-0.29146578907966614,0.7780455946922302,0.02646639570593834,0.21595579385757446,-0.7850920557975769,-0.5805113315582275,0.08337585628032684,0.007870495319366455,0.062383949756622314
0.9007616532495126,0.3620199164062915,-0.6776234111667112,-0.21116262674331665,0.7909697890281677,0.1313687264919281,0.2199404388666153,-0.7838001251220703,-0.5807610750198364,0.1085049957036972,0.022966444492340088,0.040279507637023926
0.8996931846406624,0.3668979311346173,-0.6745143170464931,-0.12506209313869476,0.6554471254348755,0.14276093244552612,0.22307108342647552,-0.7831361293792725,-0.5804627537727356,0.11333945393562317,0.03071010112762451,0.017321884632110596
0.8993630005795685,0.3707261231808205,-0.6721063515844661,-0.046545758843421936,0.4860953092575073,0.10611043870449066,0.22538521885871887,-0.7829307913780212,-0.5798454880714417,0.07953114807605743,0.017244815826416016,0.011425137519836426
0.8995041117350698,0.3738274559312013,-0.67096529285489,0.018088627606630325,0.30811598896980286,0.03323489427566528,0.2271420955657959,-0.7830185890197754,-0.5790408849716187,0.059479013085365295,0.00982522964477539,0.011673331260681152
0.8996811282584425,0.37645569471616724,-0.6716867793791481,0.042913198471069336,0.09990645945072174,-0.11577896773815155,0.22861218452453613,-0.7831286787986755,-0.5783129334449768,0.04729725420475006,0.003496110439300537,0.019276738166809082
0.8992753701044586,0.3790678794213645,-0.6751610463949881,0.03801005333662033,-0.11546523869037628,-0.31308457255363464,0.2302396297454834,-0.7828762531280518,-0.5780089497566223,0.0011141151189804077,-0.013586699962615967,0.022894322872161865
0.8981467329784082,0.3818458015949523,-0.6812124525903507,0.03176701441407204,-0.2609073519706726,-0.4546346962451935,0.23217351734638214,-0.7821735739707947,-0.5781866908073425,-0.04546697437763214,-0.03290510177612305,0.009842634201049805
0.8966670491783745,0.3848278045367027,-0.6886960302066889,0.05026187002658844,-0.29417315125465393,-0.5053194165229797,0.23433086276054382,-0.7812507748603821,-0.578563928604126,-0.03276224434375763,-0.022780537605285645,-0.013904333114624023
0.8954683169822503,0.3883664642984898,-0.6965193769749549,0.09686804562807083,-0.2064252346754074,-0.4763352870941162,0.23673118650913239,-0.7805019617080688,-0.5785974264144897,0.010049194097518921,0.000549018383026123,-0.04420524835586548
0.8948034698935105,0.39243856924283915,-0.7036088534069963,0.11596370488405228,-0.0894155278801918,-0.38422825932502747,0.2392837554216385,-0.7800861597061157,-0.578108012676239,0.04245452582836151,0.027293801307678223,-0.08320784568786621
0.8946611481180545,0.39648250751821273,-0.7091907459054679,0.12118447571992874,0.03463396430015564,-0.26410582661628723,0.24166245758533478,-0.7799970507621765,-0.5772379636764526,0.06035473942756653,0.06355124711990356,-0.11284071207046509
0.8950615550436123,0.40029338522745816,-0.7127607566681845,0.12599040567874908,0.17100751399993896,-0.11350832879543304,0.24373877048492432,-0.7802475690841675,-0.5760251879692078,0.08220422267913818,0.09422773122787476,-0.11440449953079224
0.896125421727865,0.40376262867910356,-0.7141198354368182,0.13869045674800873,0.3113773465156555,0.03867767006158829,0.24540939927101135,-0.7809125781059265,-0.57441246509552,0.11547622084617615,0.09582352638244629,-0.10167396068572998
0.8979824678049121,0.4075791520906325,-0.714007137141911,0.20149818062782288,0.464735746383667,0.10709801316261292,0.24702459573745728,-0.7820711731910706,-0.5721392631530762,0.13192743062973022,0.08492773771286011,-0.09137386083602905
0.900466221628293,0.4127586108133738,-0.714289105229219,0.2597305476665497,0.5010060667991638,0.04505996033549309,0.24920472502708435,-0.7836166620254517,-0.5690711736679077,0.08957090973854065,0.06747591495513916,-0.08374559879302979
0.9028475230978561,0.41907300386890356,-0.7163307739842312,0.26750537753105164,0.43560999631881714,-0.08115389943122864,0.2520330250263214,-0.7850937843322754,-0.5657800436019897,0.002437800168991089,0.04694986343383789,-0.07093870639801025
0.9046902538543871,0.4260074957686999,-0.7199317074624276,0.2475508749485016,0.38190433382987976,-0.16775575280189514,0.25535207986831665,-0.7862337827682495,-0.5627003908157349,-0.03544241189956665,0.03281587362289429,-0.03506267070770264
0.9060185905649181,0.4329387964218343,-0.7242202614067876,0.21420304477214813,0.3244330585002899,-0.19393356144428253,0.2588077485561371,-0.7870539426803589,-0.5599684119224548,-0.005466043949127197,0.018316149711608887,0.004472196102142334
0.9069796352017848,0.4392027189440814,-0.7283304287962435,0.17406347393989563,0.28294575214385986,-0.17587150633335114,0.26198849081993103,-0.7876464128494263,-0.5576514601707458,0.03296390175819397,0.01060783863067627,0.02583688497543335
0.9075527746269065,0.4446521465721078,-0.7319041545408449,0.11564916372299194,0.2417176067829132,-0.17112335562705994,0.26482921838760376,-0.7879993915557861,-0.5558078289031982,0.04432910680770874,0.026967346668243408,0.029928922653198242
0.9076201350820717,0.44919830330305,-0.7348534781910945,0.053019262850284576,0.20584486424922943,-0.1459120810031891,0.26733019948005676,-0.7880408763885498,-0.554550290107727,0.028369873762130737,0.05610734224319458,0.03376781940460205
0.9073249523037767,0.452785640358986,-0.7368721376345104,0.006003819406032562,0.19400471448898315,-0.10108228772878647,0.2694196403026581,-0.7878591418266296,-0.5537969470024109,0.02850821614265442,0.07405298948287964,0.04607599973678589
0.9068857236374812,0.45545059655613357,-0.7379386603377508,-0.029215028509497643,0.16424833238124847,-0.06012291461229324,0.2710467278957367,-0.7875885367393494,-0.5533877015113831,0.04749578237533569,0.07239389419555664,0.04644501209259033
0.9061947054142588,0.45724462584273945,-0.7383899120295618,-0.06929773092269897,0.12855079770088196,-0.05330841615796089,0.2722792327404022,-0.7871625423431396,-0.5533886551856995,0.04887247085571289,0.0643233060836792,0.03806889057159424
0.9051026587445388,0.45878522194488336,-0.7386760621002215,-0.1106860563158989,0.13813623785972595,-0.07478605210781097,0.27351200580596924,-0.7864885330200195,-0.5537389516830444,0.02304255962371826,0.06227594614028931,0.038037657737731934
0.9035823393864558,0.4604331382614358,-0.7388843158002179,-0.14803263545036316,0.15805268287658691,-0.08043142408132553,0.2749551832675934,-0.7855486869812012,-0.5543581247329712,0.002968400716781616,0.06187015771865845,0.04987204074859619
0.9016645587685239,0.4620521158667234,-0.7388467689582319,-0.19846183061599731,0.16809490323066711,-0.08616560697555542,0.27652332186698914,-0.7843605279922485,-0.5552597045898438,0.0014612674713134766,0.06181114912033081,0.06490325927734375
0.8991330422671089,0.46349137015814035,-0.7385457081475252,-0.2726556360721588,0.16258907318115234,-0.10844428092241287,0.27820903062820435,-0.7827876806259155,-0.5566354990005493,0.007710158824920654,0.0603756308555603,0.07808935642242432
0.8957488101422374,0.46484348426737476,-0.7381256225541646,-0.3521360754966736,0.174355611205101,-0.14574018120765686,0.28014737367630005,-0.7806772589683533,-0.5586236119270325,-0.0024069249629974365,0.05536603927612305,0.08889716863632202
0.8915756306693952,0.46637937429551957,-0.73765591672748,-0.4167347848415375,0.20237447321414948,-0.17378805577754974,0.2824675738811493,-0.7780625224113464,-0.5610979199409485,-0.015728682279586792,0.05284285545349121,0.09131032228469849
0.8868036607223081,0.4679444808902275,-0.7369865232973276,-0.4685680866241455,0.207375168800354,-0.17716149985790253,0.28501683473587036,-0.7750559449195862,-0.5639623999595642,-0.0024393200874328613,0.04603683948516846,0.08826965093612671
0.8815045147237199,0.46899316877413383,-0.7358742199861915,-0.5374531149864197,0.1700616180896759,-0.1769103705883026,0.28746041655540466,-0.7716966271400452,-0.567318856716156,0.02395617961883545,0.03216421604156494,0.08479022979736328
0.8755160222284408,0.4693052054240636,-0.7342384667483721,-0.6210033297538757,0.14758507907390594,-0.17644834518432617,0.2897223234176636,-0.7678741812705994,-0.5713405609130859,0.039257168769836426,0.021673738956451416,0.08499723672866821
0.868884390708056,0.4689952703027929,-0.7319356386952949,-0.6878984570503235,0.14208218455314636,-0.1565827578306198,0.291840523481369,-0.7636091113090515,-0.5759602189064026,0.03681853413581848,0.021955668926239014,0.08169758319854736
0.8619522956963236,0.46808683555193575,-0.7289269053040631,-0.7145208716392517,0.12929536402225494,-0.11752744764089584,0.2936984598636627,-0.7591148614883423,-0.5809352993965149,0.04194912314414978,0.027242302894592285,0.06975060701370239
0.8551312637400891,0.46638740492183617,-0.7253104675082989,-0.7083458304405212,0.07539485394954681,-0.07551794499158859,0.2950323224067688,-0.7546570301055908,-0.58604496717453,0.0556299090385437,0.026904404163360596,0.045792341232299805
0.8485818180661919,0.4639900428367925,-0.7214956192492785,-0.6799147129058838,0.02214052341878414,-0.06437250971794128,0.2958320379257202,-0.7503436803817749,-0.5911579132080078,0.0613914430141449,0.022652089595794678,0.016481459140777588
0.8423444971972944,0.46136547286042373,-0.7179090050717427,-0.6366477012634277,-0.0062708780169487,-0.06700078397989273,0.29635724425315857,-0.7462059259414673,-0.5961116552352905,0.04754534363746643,0.019811272621154785,-0.014041543006896973
0.8365531161550251,0.45883846657441063,-0.7147214781312887,-0.5848227739334106,-0.024280287325382233,-0.06360811740159988,0.2967590391635895,-0.7423380613327026,-0.6007232069969177,0.02649843692779541,0.02152806520462036,-0.039825499057769775
0.8312724388459259,0.45642637521124174,-0.711876476569672,-0.5273703932762146,-0.03552335500717163,-0.05810576304793358,0.2970327138900757,-0.7387894988059998,-0.6049475073814392,0.02376803755760193,0.02077198028564453,-0.05761963129043579
0.826465873559404,0.45411023228466796,-0.7093880045463145,-0.485808789730072,-0.062388163059949875,-0.06761577725410461,0.29718512296676636,-0.7355416417121887,-0.6088181138038635,0.03434258699417114,0.008780837059020996,-0.06862634420394897
0.8217797548103453,0.4519816781722894,-0.7074274657334492,-0.47456786036491394,-0.06990253180265427,-0.10287310183048248,0.2973906695842743,-0.7323588728904724,-0.6125432252883911,0.03166508674621582,-0.0073566436767578125,-0.07214909791946411
0.8169995673708808,0.45027303173712746,-0.7058901448262835,-0.47142457962036133,-0.04508398473262787,-0.1212548315525055,0.29786381125450134,-0.7290955781936646,-0.6161953806877136,0.01370537281036377,-0.019042789936065674,-0.06668120622634888
0.8123562658101328,0.44888934942566394,-0.7044776862790316,-0.44253700971603394,-0.028681308031082153,-0.10232747346162796,0.29847684502601624,-0.7259098291397095,-0.6196502447128296,0.014343559741973877,-0.019680321216583252,-0.062341272830963135
0.8082245663435249,0.4473902017601859,-0.7029241498791615,-0.38629958033561707,-0.048131026327610016,-0.06184617429971695,0.29884251952171326,-0.7230618596076965,-0.6227957606315613,0.03181543946266174,-0.02037680149078369,-0.06803065538406372
0.8048499923625626,0.4457220092503441,-0.7013293634566141,-0.3140093982219696,-0.0487653911113739,-0.031667232513427734,0.29885339736938477,-0.7207266688346863,-0.6254914999008179,0.052129268646240234,-0.025550127029418945,-0.07917463779449463
0.8022376457320588,0.4443706214344419,-0.699890457249841,-0.24424609541893005,-0.014520559459924698,-0.015538757666945457,0.2988162040710449,-0.7189132571220398,-0.6275925636291504,0.05476042628288269,-0.037556350231170654,-0.09047073125839233
0.8002107375553112,0.44352310674159134,-0.698716769305098,-0.19146835803985596,0.011784547939896584,-0.012315799482166767,0.29890891909599304,-0.7175028920173645,-0.6291605830192566,0.03393104672431946,-0.04659616947174072,-0.08957421779632568
0.7985286557694103,0.4430417655422289,-0.6978658096425115,-0.16371949017047882,0.01219995878636837,-0.02550973743200302,0.29912301898002625,-0.7163302302360535,-0.6303938627243042,0.014872342348098755,-0.04697537422180176,-0.0694962739944458
0.7969568680961316,0.442743629463978,-0.6973617419627406,-0.14829659461975098,0.00024103466421365738,-0.04451512172818184,0.29941707849502563,-0.7152326107025146,-0.6314996480941772,-0.0019164681434631348,-0.05098748207092285,-0.043640732765197754
0.7954439742636665,0.44252233477236347,-0.6971615602839184,-0.13858100771903992,-0.01172494888305664,-0.057665228843688965,0.2997403144836426,-0.7141744494438171,-0.6325429081916809,-0.017712146043777466,-0.052915334701538086,-0.022593140602111816
0.7935702910687654,0.4418892957477627,-0.6967025616517472,-0.23194052278995514,-0.10308229923248291,-0.03957197815179825,0.2999115586280823,-0.7128616571426392,-0.6339410543441772,-0.019668638706207275,-0.049604713916778564,0.0004113912582397461
0.7910992988989399,0.4382688958611837,-0.6950912427141558,-0.29668834805488586,-0.36112430691719055,0.03053119219839573,0.2983611226081848,-0.7111265659332275,-0.6366158127784729,0.011041373014450073,-0.04993605613708496,0.1007881760597229
0.7887357371638081,0.4328538143431582,-0.6927031845048575,-0.2658739686012268,-0.3741586208343506,0.06061346083879471,0.2956136167049408,-0.7094628810882568,-0.6397460699081421,0.039148956537246704,-0.059503793716430664,0.08931577205657959
0.7866206764284706,0.42750733233236066,-0.6909116119896613,-0.2189714014530182,-0.4403992295265198,-0.014902336522936821,0.29281049966812134,-0.7079706788063049,-0.6426814794540405,0.003057420253753662,-0.07385909557342529,0.03574788570404053
0.7845632259324283,0.4226418093302905,-0.690643989132228,-0.1727314591407776,-0.483648419380188,-0.12072783708572388,0.2902769148349762,-0.7065161466598511,-0.6454256772994995,-0.0655454695224762,-0.07952511310577393,0.028177082538604736
0.7821261692266253,0.41842145478023757,-0.6918431518405712,-0.21465618908405304,-0.5346615314483643,-0.2213546186685562,0.2882491648197174,-0.7047893404960632,-0.6482163071632385,-0.0978805422782898,-0.08450198173522949,0.0360032320022583
0.7786191372479303,0.41410055473550794,-0.6936537718546218,-0.3232673406600952,-0.5728009343147278,-0.2943577170372009,0.28643834590911865,-0.7022970914840698,-0.6517145037651062,-0.11726418137550354,-0.0992165207862854,0.09106087684631348
0.7738054596564811,0.40960525517691027,-0.6956746826789828,-0.4437553882598877,-0.6135401725769043,-0.35268667340278625,0.2848488688468933,-0.6988621950149536,-0.6560889482498169,-0.1230446994304657,-0.09555608034133911,0.14643019437789917
0.7676069713320759,0.40430823039185004,-0.6975774050394875,-0.5843545198440552,-0.7132225632667542,-0.37946873903274536,0.2830682694911957,-0.694415271282196,-0.6615586280822754,-0.11822757124900818,-0.08604121208190918,0.1923203468322754
0.7601400282490399,0.39735138762435046,-0.6988217316416944,-0.7143368721008301,-0.84452885389328,-0.3632601499557495,0.28045782446861267,-0.689022958278656,-0.668274462223053,-0.10186898708343506,-0.0855589509010315,0.22773796319961548
0.7516298340335886,0.3884150765075369,-0.6992506610345125,-0.8267332315444946,-0.9994907379150391,-0.34281665086746216,0.27668559551239014,-0.6828303933143616,-0.6761566400527954,-0.08646953105926514,-0.08837926387786865,0.2536407709121704
0.7421799061374875,0.37731841052810616,-0.6988870401529335,-0.9373113512992859,-1.1519906520843506,-0.3041553199291229,0.2715308964252472,-0.6758961081504822,-0.6851535439491272,-0.07864457368850708,-0.09360456466674805,0.2766299843788147
0.7321244201276292,0.36398256844684596,-0.6972468606425535,-1.0219695568084717,-1.304254174232483,-0.19600406289100647,0.2647761404514313,-0.668451189994812,-0.6950298547744751,-0.07416337728500366,-0.10027128458023071,0.2960736155509949
0.7214252424101787,0.3479518093551575,-0.6943427101908082,-1.1253118515014648,-1.4959468841552734,-0.15140147507190704,0.2560248076915741,-0.6604555249214172,-0.7058680653572083,-0.02509826421737671,-0.10481852293014526,0.286159873008728
0.7097007884081813,0.33014505100787817,-0.6910270790338028,-1.2469898462295532,-1.6181652545928955,-0.16059629619121552,0.24590912461280823,-0.6516068577766418,-0.7175911664962769,-0.06524507701396942,-0.10736525058746338,0.30285733938217163
0.6965220884493807,0.31114454024426214,-0.6877530270910677,-1.4061636924743652,-1.7488737106323242,-0.1998833417892456,0.23483973741531372,-0.6415537595748901,-0.7302458882331848,-0.11635522544384003,-0.09875690937042236,0.3309844732284546
0.6815046282313021,0.2909852405634259,-0.6847818613030899,-1.5926883220672607,-1.8923275470733643,-0.25074678659439087,0.22281096875667572,-0.6299622654914856,-0.7439776659011841,-0.14566251635551453,-0.10714399814605713,0.35370367765426636
0.6643310395106448,0.26965796785062424,-0.6823031972834821,-1.8092045783996582,-2.052673578262329,-0.33045145869255066,0.20974594354629517,-0.616532564163208,-0.7588769197463989,-0.16158919036388397,-0.12521237134933472,0.3749047517776489
0.6445930199188743,0.2470602054825008,-0.6807426279513942,-2.0599703788757324,-2.2690203189849854,-0.4423212707042694,0.1954832524061203,-0.6008731722831726,-0.7750726938247681,-0.1879301369190216,-0.13701128959655762,0.40201056003570557
0.6220639019002103,0.22281941755387005,-0.6806690119720198,-2.3080592155456543,-2.5541343688964844,-0.5995508432388306,0.17958565056324005,-0.5827136635780334,-0.7925867438316345,-0.23434942960739136,-0.12718617916107178,0.4317163825035095
0.5967941983539178,0.19736882168880646,-0.6827406775131665,-2.54186749458313,-2.7297346591949463,-0.7851523756980896,0.16219410300254822,-0.5619937181472778,-0.8110833168029785,-0.26870042085647583,-0.11227685213088989,0.442965030670166
0.5692399125729058,0.17255385338379484,-0.687351594970068,-2.710364818572998,-2.696659564971924,-0.9795349836349487,0.144623801112175,-0.5389919877052307,-0.8298021554946899,-0.2916879653930664,-0.10680574178695679,0.42729055881500244
0.539806152097845,0.15029080691771826,-0.6947540481615233,-2.8840584754943848,-2.514357328414917,-1.2030839920043945,0.1284359246492386,-0.5139697194099426,-0.8481387495994568,-0.3299282193183899,-0.07138794660568237,0.37917518615722656
0.5082730746109152,0.13091793489786835,-0.7050309569977002,-3.0949835777282715,-2.379929304122925,-1.4312031269073486,0.11404168605804443,-0.4866693615913391,-0.8661105036735535,-0.36187490820884705,-0.03000849485397339,0.32747530937194824
0.4745574330277387,0.11326204553973993,-0.7178058410174906,-3.29923939704895,-2.364292621612549,-1.6016267538070679,0.10053076595067978,-0.4569448232650757,-0.8837957382202148,-0.376592755317688,-0.018473267555236816,0.2798071503639221
0.4388314388634098,0.09454712858361321,-0.7315173884631775,-3.532512664794922,-2.5809383392333984,-1.5552828311920166,0.08546121418476105,-0.4248819053173065,-0.9012057185173035,-0.34669166803359985,-0.0067282021045684814,0.20354336500167847
0.40122805088340396,0.07317987284703323,-0.7448732562629042,-3.7158560752868652,-2.754593849182129,-1.5117089748382568,0.0673079639673233,-0.3905491530895233,-0.9181181788444519,-0.2643752098083496,0.009582996368408203,0.1218077540397644
0.3626875114186812,0.050239020184464064,-0.7589139652260053,-3.780137300491333,-2.8394687175750732,-1.5701128244400024,0.0469510480761528,-0.3547881841659546,-0.9337670803070068,-0.1704404056072235,0.05411374568939209,0.042943716049194336
0.3245532775665588,0.027658475432719893,-0.7748439346650966,-3.6822290420532227,-2.7143964767456055,-1.7272942066192627,0.026211174204945564,-0.3188854157924652,-0.9474307894706726,-0.15345418453216553,0.1312328279018402,-0.05356103181838989
0.288299776384987,0.007122662975494058,-0.7933440359498545,-3.469233274459839,-2.4827864170074463,-1.912859320640564,0.006828643381595612,-0.284322589635849,-0.9587043523788452,-0.17562133073806763,0.1573999524116516,-0.17940294742584229
0.2550773057606654,-0.011290218712940942,-0.8142200795940284,-3.150710344314575,-2.321953773498535,-2.076361894607544,-0.010924678295850754,-0.25232020020484924,-0.967582106590271,-0.18965205550193787,0.16391077637672424,-0.2647024393081665
0.22582719000857573,-0.029118125735675335,-0.8369044918083234,-2.760303497314453,-2.31656551361084,-2.1897103786468506,-0.02837478369474411,-0.22391262650489807,-0.9741960763931274,-0.1626804769039154,0.18239346146583557,-0.31329476833343506
0.20114736105988454,-0.04794586010180168,-0.8607428286100491,-2.3318843841552734,-2.461451530456543,-2.257767677307129,-0.04696117714047432,-0.19979369640350342,-0.9787119626998901,-0.0891624316573143,0.21448789536952972,-0.38685810565948486
0.18126565857268132,-0.06904300810665152,-0.8853839467270991,-1.9090224504470825,-2.66721248626709,-2.330852746963501,-0.06785788387060165,-0.18027463555335999,-0.98127281665802,-0.0061471909284591675,0.2220989614725113,-0.391804575920105
0.16601325069739423,-0.09221518185699522,-0.9110285320413666,-1.5327295064926147,-2.816415548324585,-2.455730438232422,-0.09081850945949554,-0.1652517318725586,-0.9820610284805298,0.03970162570476532,0.2052602767944336,-0.3567298650741577
0.15510469818477923,-0.11645231524141719,-0.9381467679828657,-1.1839231252670288,-2.860074043273926,-2.622161388397217,-0.11479447782039642,-0.15448354184627533,-0.9813037514686584,0.015581883490085602,0.18977710604667664,-0.29076045751571655
0.14846983042224993,-0.14087006050907946,-0.9666127826414347,-0.8520879745483398,-2.869176149368286,-2.7711663246154785,-0.13885995745658875,-0.1479249745607376,-0.9792017936706543,-0.01288864016532898,0.20200210809707642,-0.2524571418762207
0.14581480894784718,-0.16563040594915804,-0.9961841957439213,-0.5740661025047302,-2.893139600753784,-2.8992624282836914,-0.1631244719028473,-0.14529864490032196,-0.9758476614952087,-0.0020671188831329346,0.21927323937416077,-0.24476391077041626
0.14626435446849226,-0.19040492407197862,-1.0259887913539647,-0.3869801163673401,-2.9387004375457764,-2.880011558532715,-0.18723571300506592,-0.14574339985847473,-0.9714430570602417,-0.04530817270278931,0.22579100728034973,-0.2076646089553833
0.14868283226417983,-0.21636114471677562,-1.0545132640604802,-0.2887643277645111,-3.0458309650421143,-2.7028591632843018,-0.21230851113796234,-0.14813563227653503,-0.9659093618392944,0.006345435976982117,0.23436303436756134,-0.14738714694976807
0.15151120540053956,-0.24280994599934244,-1.0804073925917925,-0.33963602781295776,-2.9656195640563965,-2.3868906497955322,-0.237676739692688,-0.1509321928024292,-0.9595463871955872,0.09778425097465515,0.2228163629770279,-0.12184399366378784
0.1531837393805725,-0.2689099216577393,-1.1033338992811268,-0.4848777949810028,-2.965522527694702,-2.0681755542755127,-0.2625696361064911,-0.15258535742759705,-0.9527722001075745,0.17867690324783325,0.19611868262290955,-0.07827943563461304
0.15273677722958884,-0.29581767953869453,-1.123751180643556,-0.7329911589622498,-2.9960198402404785,-1.776394248008728,-0.2881283164024353,-0.15214361250400543,-0.9454281330108643,0.13560155034065247,0.17596258223056793,-0.04559969902038574
0.14919344333934267,-0.3219621974306456,-1.1424438417658846,-1.0628583431243896,-2.750189781188965,-1.5148497819900513,-0.3129134178161621,-0.14864058792591095,-0.9380784630775452,0.09077605605125427,0.15097516775131226,-0.02755880355834961
0.14210731600105983,-0.3455365109907083,-1.1597584757158943,-1.3865927457809448,-2.447563886642456,-1.2469499111175537,-0.33528733253479004,-0.14162950217723846,-0.9314094185829163,0.1351226270198822,0.12716418504714966,0.00454479455947876
0.13164772091455104,-0.366179030747377,-1.1756346178162556,-1.6503307819366455,-2.088536024093628,-0.9630109071731567,-0.3549521863460541,-0.13126778602600098,-0.9256228804588318,0.15405505895614624,0.08944346010684967,0.010080277919769287
0.11829190094447613,-0.38309961756214017,-1.1896350808341343,-1.826464056968689,-1.6030499935150146,-0.6304600834846497,-0.37118497490882874,-0.11801622062921524,-0.921028733253479,0.1548154056072235,0.05507370084524155,-0.0008768439292907715
0.10262721218754278,-0.3949005889080535,-1.20084787900328,-1.8936430215835571,-0.9973296523094177,-0.23258601129055023,-0.38269221782684326,-0.10244715958833694,-0.9181782007217407,0.13395878672599792,0.032012589275836945,-0.006534934043884277
