attitudeX,attitudeY,attitudeZ,gyroX,gyroY,gyroZ,gravityX,gravityY,gravityZ,accX,accY,accZ
0.9981580226269379,-0.638218423795261,0.38070912276762986,-0.027294885367155075,0.4197145998477936,0.5887119770050049,-0.3228164315223694,-0.8404743075370789,-0.43519261479377747,0.14317470788955688,-0.07747924327850342,-0.0847199559211731
0.9937032775773469,-0.6417798597912726,0.3903876971127777,-0.06316547840833664,0.4959036111831665,0.776447057723999,-0.32660236954689026,-0.8380522131919861,-0.4370349943637848,0.13858354091644287,-0.07224148511886597,-0.09332990646362305
0.9877857419476831,-0.6455210821846071,0.4013757499826109,-0.1725846379995346,0.5979987978935242,0.8848918080329895,-0.3312127888202667,-0.8348090052604675,-0.439763605594635,0.12515810132026672,-0.045974135398864746,-0.09624707698822021
0.9802199593207923,-0.647531285394349,0.41164563531166426,-0.35241225361824036,0.6908194422721863,0.917116105556488,-0.3358965814113617,-0.8306198716163635,-0.4441218376159668,0.1189623475074768,-0.036399900913238525,-0.06178319454193115
0.9713416787184077,-0.6472999515160813,0.4197518588472334,-0.4856933355331421,0.6750652194023132,0.8707712292671204,-0.34022754430770874,-0.8256434202194214,-0.45006462931632996,0.11741870641708374,-0.06313538551330566,-0.042809367179870605
0.9623588496589971,-0.6469344190621652,0.42665025327815653,-0.45067471265792847,0.5610679984092712,0.8303881287574768,-0.34451958537101746,-0.8205421566963196,-0.45608875155448914,0.12171074748039246,-0.08982783555984497,-0.0979120135307312
0.9542543641663392,-0.6482878973624339,0.4345723125163873,-0.28720828890800476,0.407499223947525,0.881984531879425,-0.3491407036781311,-0.8158828020095825,-0.4609079360961914,0.1519666314125061,-0.05861377716064453,-0.15167129039764404
0.946937287161061,-0.6545053060189686,0.4451333284086881,-0.12986722588539124,0.08385103940963745,0.9693113565444946,-0.3556244373321533,-0.8116301894187927,-0.46345221996307373,0.14783021807670593,-0.025024712085723877,-0.189486563205719
0.9405265275067822,-0.6646512140267228,0.45770470906858807,0.015485446900129318,-0.055954527109861374,0.9620446562767029,-0.36350998282432556,-0.8078685402870178,-0.4639063775539398,0.13589459657669067,-0.0064015984535217285,-0.22847634553909302
0.9353882361278375,-0.6757707824193541,0.47044911131351214,0.10808227956295013,-0.12413414567708969,0.8311887383460999,-0.3712373375892639,-0.8048295378684998,-0.46306824684143066,0.1317506730556488,0.006123483180999756,-0.2463737428188324
0.9318978849339536,-0.6860459431025903,0.4807494771427976,0.10984183102846146,-0.2687366008758545,0.5420056581497192,-0.37775298953056335,-0.8027530908584595,-0.4614000916481018,0.10573458671569824,0.04558151960372925,-0.22933465242385864
0.9302665225234684,-0.6940430751423432,0.48635286674909817,0.06457778811454773,-0.44702088832855225,0.17539481818675995,-0.3822680413722992,-0.8017792701721191,-0.45937061309814453,0.0631456971168518,0.11801755428314209,-0.15362060070037842
0.9307571172236964,-0.7002847232197085,0.4869134433891515,0.056189630180597305,-0.7010539770126343,-0.17568357288837433,-0.38487428426742554,-0.8020723462104797,-0.4566749036312103,0.028917253017425537,0.054010093212127686,-0.07430034875869751
0.9330674086717227,-0.7049391413887608,0.48342289484285517,0.024892743676900864,-0.7453049421310425,-0.42629534006118774,-0.38579386472702026,-0.8034499883651733,-0.4534659683704376,-0.010949939489364624,-0.02960371971130371,-0.023264288902282715
0.9368321341938131,-0.7061094552466537,0.47677854427638877,0.05363038554787636,-0.5275124311447144,-0.6576443910598755,-0.38435879349708557,-0.8056856989860535,-0.45070937275886536,-0.03782138228416443,-0.04253518581390381,-0.014363139867782593
0.9426474260348179,-0.7017890575411108,0.4677921781712108,0.15359069406986237,-0.028413239866495132,-0.8982951045036316,-0.3793768584728241,-0.8091166615486145,-0.4487800896167755,-0.016985535621643066,-0.016506075859069824,-0.045863986015319824
0.950933983210255,-0.6901591741802474,0.4570569088033012,0.3176099956035614,0.6216486692428589,-1.1144256591796875,-0.3698505163192749,-0.8139584064483643,-0.4479758143424988,0.0315784215927124,0.029641330242156982,-0.09278029203414917
0.961607637381217,-0.6711543701578961,0.445650768502998,0.5186865925788879,1.297071099281311,-1.2275012731552124,-0.35584715008735657,-0.8201125264167786,-0.44809412956237793,0.06785276532173157,0.07786387205123901,-0.13883507251739502
0.974345079095611,-0.6471574329137086,0.43536224731379414,0.7825334072113037,1.7689387798309326,-1.233637809753418,-0.3386668264865875,-0.8273341655731201,-0.44813278317451477,0.13317668437957764,0.09150952100753784,-0.1937432885169983
0.9884547376660343,-0.6229035638135686,0.4271146830910041,0.8413229584693909,1.3801708221435547,-1.1590673923492432,-0.3208566904067993,-0.8351771235466003,-0.4466880261898041,0.20417273044586182,0.08322393894195557,-0.22947460412979126
1.0012996247882553,-0.6115788119235412,0.4186720108653841,0.860438346862793,-0.29963645339012146,-1.0729039907455444,-0.30959218740463257,-0.8421724438667297,-0.4414726495742798,0.28388115763664246,0.04541957378387451,-0.18734192848205566
1.0153215843029875,-0.6133469497510212,0.413146141569637,1.0278300046920776,-0.881266176700592,-1.0110257863998413,-0.3035447299480438,-0.8496502041816711,-0.43122512102127075,0.3266160488128662,0.04639703035354614,-0.23756751418113708
1.0289589228834164,-0.6186854794336721,0.40860105687681453,0.9184801578521729,-0.8839203119277954,-0.9364324808120728,-0.2990943491458893,-0.8567625880241394,-0.4201197922229767,0.2992469370365143,0.08506447076797485,-0.16467320919036865
1.0414891174557346,-0.6220829532077553,0.4046765521792705,0.8872870206832886,-0.44187381863594055,-0.8493841886520386,-0.2942407727241516,-0.8631570935249329,-0.41034433245658875,0.2792719006538391,0.04168480634689331,-0.07352703809738159
1.053696465006517,-0.621081152944579,0.40081262764421816,0.8719993829727173,-0.040851034224033356,-0.890883207321167,-0.287676066160202,-0.8692565560340881,-0.40203914046287537,0.2827780246734619,0.00824880599975586,-0.05233690142631531
1.0662618107477295,-0.6159360792018002,0.39690971518924384,0.9634041786193848,0.42405158281326294,-0.8443702459335327,-0.27927130460739136,-0.8753995895385742,-0.3945671617984772,0.35645025968551636,0.05166906118392944,-0.07053583860397339
1.079051075885333,-0.6082716508031305,0.39773238982192827,1.1887259483337402,1.259484887123108,-0.5272634029388428,-0.26981887221336365,-0.8815101385116577,-0.3874762952327728,0.38369518518447876,0.11509162187576294,-0.08740764856338501
1.0920432508139488,-0.60113946024434,0.40849373193219596,1.515704870223999,2.0456738471984863,-0.13302947580814362,-0.2605486512184143,-0.8875700235366821,-0.3799132704734802,0.3717394471168518,0.07467317581176758,-0.12042236328125
1.105906869240532,-0.5961345970006635,0.42952223591096195,1.8410913944244385,2.6639668941497803,0.13748671114444733,-0.2517106235027313,-0.8938711285591125,-0.3709935247898102,0.3652818202972412,-0.0017588138580322266,-0.14215943217277527
1.1208654421779203,-0.594047624775607,0.45987471818382547,2.1178107261657715,3.174729108810425,0.4175679385662079,-0.2434239536523819,-0.9004771709442139,-0.36039647459983826,0.3847813904285431,0.024332761764526367,-0.10974195599555969
1.1359474606803002,-0.596362932737569,0.5003469629537608,2.2908308506011963,3.6540045738220215,0.7554013729095459,-0.23660260438919067,-0.9069337248802185,-0.3485546410083771,0.4014280438423157,0.0655640959739685,-0.062211841344833374
1.1500773778097637,-0.6027799900939376,0.5499777103061001,2.3355214595794678,4.039143085479736,1.027396321296692,-0.2315458208322525,-0.9127955436706543,-0.33643877506256104,0.3745511472225189,0.07829219102859497,0.012113302946090698
1.162848430787526,-0.6128525946196924,0.6057116940717127,2.301198720932007,4.092642307281494,1.177272915840149,-0.22819846868515015,-0.9179368615150452,-0.3245265781879425,0.30749836564064026,0.08917093276977539,0.07423681020736694
1.1741333727231633,-0.6257432276259878,0.6645925324214329,2.191617250442505,4.147382736206055,1.2550708055496216,-0.22628092765808105,-0.9223553538322449,-0.31314167380332947,0.24886390566825867,0.1100994348526001,0.1009531021118164
1.1835991839145656,-0.6392780400534276,0.7247420969508507,2.032648801803589,4.237614631652832,1.3261513710021973,-0.22527901828289032,-0.9259710311889648,-0.3030296862125397,0.21659675240516663,0.14087581634521484,0.1777094304561615
1.1910283162802455,-0.652021349305899,0.7853656826392648,1.875933289527893,4.457169532775879,1.3904235363006592,-0.2249416559934616,-0.9287506341934204,-0.2946581244468689,0.13314476609230042,0.16211861371994019,0.22053101658821106
1.196682785709143,-0.6617151714227242,0.8457334924279786,1.7223777770996094,4.8018364906311035,1.4247384071350098,-0.22455710172653198,-0.9308319687843323,-0.2883162498474121,0.06345473229885101,0.13923633098602295,0.21392974257469177
1.2009314604628814,-0.6671367442584375,0.9049275682733179,1.5910444259643555,5.096867561340332,1.4264968633651733,-0.22366784512996674,-0.9323762059211731,-0.28398504853248596,0.026981979608535767,0.15161430835723877,0.194950133562088
1.2040471904004044,-0.6685892027293988,0.9624798479862325,1.4532517194747925,5.303432941436768,1.4340996742248535,-0.22227796912193298,-0.933497965335846,-0.2813786268234253,-0.0021177828311920166,0.20441782474517822,0.14856627583503723
1.2061154342058287,-0.6670994225600256,1.018325001764112,1.3419171571731567,5.358974456787109,1.432620882987976,-0.22066356241703033,-0.9342375993728638,-0.280192106962204,0.0054383426904678345,0.24966734647750854,0.06605038046836853
1.2077343025962572,-0.6650891827752122,1.0727660329325788,1.306412935256958,5.150051593780518,1.4068639278411865,-0.2191663682460785,-0.9348137378692627,-0.2794449031352997,0.016560107469558716,0.2942497134208679,-0.031864821910858154
1.2093327705849741,-0.6655771647794873,1.1266564260562066,1.2941622734069824,4.784809589385986,1.4033949375152588,-0.21837960183620453,-0.935380220413208,-0.2781620919704437,0.020503580570220947,0.331650972366333,-0.10848027467727661
1.2104629738792427,-0.6701425959574451,1.180465516891101,1.2138996124267578,4.327841281890869,1.4415638446807861,-0.218990758061409,-0.935779333114624,-0.2763338088989258,-0.0009495317935943604,0.3472476601600647,-0.13948336243629456
1.2101060382360735,-0.6777366203962544,1.23267607090322,1.011008381843567,3.9287073612213135,1.4709458351135254,-0.22129228711128235,-0.9356534481048584,-0.2749229371547699,-0.05052784085273743,0.33367884159088135,-0.09548407793045044
1.2076042088006953,-0.685298285100343,1.281003736026785,0.7467193603515625,3.556713104248047,1.488078236579895,-0.2248457372188568,-0.9347675442695618,-0.27505338191986084,-0.11450982093811035,0.30786001682281494,-0.019013911485671997
1.2029581022077427,-0.6906762485977278,1.3231516762813624,0.4354431927204132,3.2430243492126465,1.4005262851715088,-0.22908586263656616,-0.9331068992614746,-0.27718472480773926,-0.2363682985305786,0.25627273321151733,0.02449929714202881
1.1968388767959715,-0.6891993699878118,1.355360158782075,0.10136109590530396,3.055272340774536,1.1542664766311646,-0.23230290412902832,-0.9308889508247375,-0.2819240689277649,-0.39855653047561646,0.20327359437942505,0.015459954738616943
1.190164879831266,-0.6770728630203915,1.3751518862413712,-0.21077096462249756,3.0426106452941895,0.8032873272895813,-0.23275446891784668,-0.9284302592277527,-0.2895562946796417,-0.5598633885383606,0.1335541009902954,0.007192492485046387
1.1837169721407532,-0.6537318564376402,1.3826603949225509,-0.4388432800769806,2.972161054611206,0.4388803541660309,-0.22956906259059906,-0.9260154962539673,-0.29965558648109436,-0.6641383171081543,0.07871007919311523,-0.06464794278144836
1.177752119637715,-0.6241074961110487,1.3811994714203126,-0.5692365765571594,2.6275410652160645,0.20899753272533417,-0.22381651401519775,-0.9237474203109741,-0.3108009099960327,-0.6400446891784668,0.0692092776298523,-0.18222573399543762
1.171891937720762,-0.595983947566932,1.3766502301722283,-0.574876606464386,2.134948253631592,0.2001936435699463,-0.21802321076393127,-0.9214870929718018,-0.3214462101459503,-0.5129797458648682,0.10270035266876221,-0.3008071482181549
1.165879949628022,-0.5751589884223167,1.3745131195409563,-0.5068767070770264,1.6238840818405151,0.33322882652282715,-0.21429206430912018,-0.919135332107544,-0.33055925369262695,-0.4317193627357483,0.08699709177017212,-0.42194315791130066
1.1595677602481134,-0.5627471433177228,1.3759482885662877,-0.5035565495491028,1.1143827438354492,0.4385235607624054,-0.21326379477977753,-0.9166303873062134,-0.33809372782707214,-0.44660261273384094,0.005665421485900879,-0.4755811095237732
1.1521974492250777,-0.5570010991501424,1.379409680481494,-0.6034237146377563,0.6722452640533447,0.5839718580245972,-0.21488326787948608,-0.913659393787384,-0.3450389802455902,-0.5301271677017212,-0.10338473320007324,-0.4339831471443176
1.1429465251978614,-0.5565227266778372,1.3841858182480746,-0.751243531703949,0.3041023910045624,0.7066157460212708,-0.2191736400127411,-0.9098600149154663,-0.35230350494384766,-0.6257666349411011,-0.18164700269699097,-0.40491384267807007
1.1322452146402606,-0.55868583423807,1.388272405892219,-0.871053159236908,0.012657925486564636,0.6959186792373657,-0.22508372366428375,-0.9053678512573242,-0.36006465554237366,-0.7779681086540222,-0.24442774057388306,-0.4232909381389618
1.1210469816185922,-0.5615414184311764,1.3898808196351293,-0.9407650828361511,-0.29355767369270325,0.5969289541244507,-0.2314952313899994,-0.9005560874938965,-0.3679790794849396,-0.942180335521698,-0.296602725982666,-0.4756487309932709
1.1100774450471427,-0.5645048914197658,1.3887319104457292,-0.9581745266914368,-0.5102397203445435,0.48832231760025024,-0.2378557026386261,-0.895733118057251,-0.3756152391433716,-1.0291426181793213,-0.315784215927124,-0.5122935771942139
1.0995240675181843,-0.5684381326012412,1.3855385993084637,-0.9729183316230774,-0.8638949990272522,0.39665499329566956,-0.2444065362215042,-0.8909913897514343,-0.38262224197387695,-1.0413448810577393,-0.2902219891548157,-0.549369215965271
1.0896046886998714,-0.5744970118974816,1.3801783435249106,-0.9437722563743591,-1.2905511856079102,0.25138765573501587,-0.2515107989311218,-0.8864440321922302,-0.3885347843170166,-1.045272707939148,-0.2634735703468323,-0.6075741052627563
1.0813419501623818,-0.5821847710451075,1.3722592188931435,-0.8274869322776794,-1.6209783554077148,0.02563336119055748,-0.25850895047187805,-0.8825895190238953,-0.3926943838596344,-1.0450341701507568,-0.21375447511672974,-0.6810054779052734
1.0758293900884661,-0.5904358890526957,1.3616892074655416,-0.6288257241249084,-1.8775651454925537,-0.2536238431930542,-0.2644450068473816,-0.879984438419342,-0.3945838510990143,-1.0291951894760132,-0.146977961063385,-0.761376142501831
1.073968288113016,-0.599212963383593,1.3487716376347016,-0.3537003695964813,-2.1351239681243896,-0.5565224885940552,-0.26882126927375793,-0.8790988922119141,-0.39359933137893677,-1.010765552520752,-0.11357694864273071,-0.8404399156570435
1.0764800157578258,-0.6089816232634687,1.334482381368503,0.0016927770338952541,-2.301506519317627,-0.8381867408752441,-0.2713893949985504,-0.8802932500839233,-0.389142245054245,-0.955875039100647,-0.07292336225509644,-0.8888576030731201
1.0835046554556318,-0.6197863709584049,1.3200093535894186,0.34914979338645935,-2.3894364833831787,-1.0740859508514404,-0.2719793915748596,-0.8836042284965515,-0.3811442255973816,-0.8837823867797852,-0.02572810649871826,-0.8964130282402039
1.0943042451913716,-0.6314590879077155,1.3058678475112564,0.6261854767799377,-2.436732053756714,-1.2347326278686523,-0.2707604467868805,-0.8886093497276306,-0.3702191114425659,-0.8148108720779419,-0.010835230350494385,-0.843968391418457
1.1079721969856364,-0.6448233336296758,1.2929378653095553,0.86070716381073,-2.5303385257720947,-1.319184422492981,-0.2683582007884979,-0.8947951793670654,-0.3568270206451416,-0.727842390537262,0.006703078746795654,-0.7865902185440063
1.1237709001483007,-0.6606158114310817,1.2815654922876945,1.0262054204940796,-2.660076856613159,-1.3854280710220337,-0.26525166630744934,-0.9017369747161865,-0.34133875370025635,-0.6404338479042053,0.04759567975997925,-0.7446901798248291
1.1409254052855446,-0.6787819508848051,1.2710416218806562,1.0885181427001953,-2.867323637008667,-1.4319231510162354,-0.2616569399833679,-0.9090195298194885,-0.32437530159950256,-0.5820168256759644,0.08345788717269897,-0.6994588375091553
1.158483336517776,-0.6989762740399376,1.2603931369356007,1.0514699220657349,-3.0994365215301514,-1.4638065099716187,-0.2578433156013489,-0.9161964058876038,-0.30675917863845825,-0.5383298397064209,0.11924499273300171,-0.6409488320350647
1.175922040145559,-0.7199937102140791,1.2480335724392708,0.949268639087677,-3.3549110889434814,-1.5465307235717773,-0.2536585032939911,-0.9230449199676514,-0.289215624332428,-0.5107305645942688,0.1702067255973816,-0.5923455953598022
1.193337579976697,-0.7396367159239393,1.231653308141929,0.8150572776794434,-3.582345724105835,-1.687482237815857,-0.24841651320457458,-0.9296042323112488,-0.27226006984710693,-0.5096554756164551,0.23113298416137695,-0.5645623207092285
1.2108854541390999,-0.7565065415259465,1.2101403927396384,0.7031784057617188,-3.7732059955596924,-1.8246062994003296,-0.24173852801322937,-0.935928225517273,-0.25612667202949524,-0.4904392659664154,0.29238879680633545,-0.5497050285339355
1.228844047180391,-0.7702085289941052,1.183698936374638,0.6352778077125549,-3.899104118347168,-1.9618139266967773,-0.23348300158977509,-0.9421018362045288,-0.24068601429462433,-0.4519113004207611,0.3623441457748413,-0.543264627456665
1.247575038579711,-0.7796018425290092,1.1520023112784936,0.5880804657936096,-3.930708408355713,-2.1285171508789062,-0.2232876569032669,-0.9482172131538391,-0.22589126229286194,-0.41620826721191406,0.44470763206481934,-0.5237576961517334
1.2672186190101808,-0.7825585669532754,1.1140698012637302,0.5466390252113342,-3.8395981788635254,-2.2773404121398926,-0.2107788324356079,-0.9542731046676636,-0.21197929978370667,-0.37377017736434937,0.5116766095161438,-0.45963621139526367
1.2873712433191422,-0.7770922658443902,1.068785522549286,0.4678654372692108,-3.7152411937713623,-2.4035797119140625,-0.196089968085289,-0.9601032733917236,-0.1993747353553772,-0.3166053295135498,0.5547536015510559,-0.38389232754707336
1.3077014253761086,-0.7601039872694494,1.01318892479063,0.36164790391921997,-3.555670976638794,-2.5673389434814453,-0.17918767035007477,-0.965589702129364,-0.18848975002765656,-0.2565881013870239,0.610029399394989,-0.2994098663330078
1.3281332324182011,-0.7268944829011563,0.9433211045899934,0.28582876920700073,-3.3088090419769287,-2.75238299369812,-0.15968433022499084,-0.9707015156745911,-0.17955367267131805,-0.19236648082733154,0.6671888828277588,-0.2397577166557312
1.3486481590766353,-0.6752227252722794,0.8570856720839382,0.29348286986351013,-3.1337730884552,-2.9066009521484375,-0.13771924376487732,-0.9754263758659363,-0.1719791293144226,-0.09625904262065887,0.7191702723503113,-0.24783580005168915
1.369032752041086,-0.6036690613252573,0.7521734694983109,0.33859336376190186,-3.056072473526001,-3.044660806655884,-0.1137591227889061,-0.9797146916389465,-0.16497907042503357,0.02585320919752121,0.7573788166046143,-0.273909330368042
1.3883316549400202,-0.5092963014219399,0.6246165254765323,0.3661689758300781,-3.107419490814209,-3.0776472091674805,-0.08847032487392426,-0.9833994507789612,-0.15842540562152863,0.16670212149620056,0.7621622681617737,-0.2597416043281555
1.4047944172358025,-0.3944560081613408,0.4759693546586768,0.3164946138858795,-3.1859192848205566,-2.9616434574127197,-0.06350290030241013,-0.9862533211708069,-0.15255093574523926,0.3281513452529907,0.7350478768348694,-0.2162386029958725
1.4164538202306467,-0.26084707779166394,0.3077648266389303,0.14762520790100098,-3.2904138565063477,-2.8396904468536377,-0.039647042751312256,-0.9881128072738647,-0.14853042364120483,0.45850080251693726,0.6966851353645325,-0.12443393468856812
1.4220377355931149,-0.11529497939097813,0.1266212826173657,-0.06964132934808731,-3.389852285385132,-2.717076539993286,-0.01705007627606392,-0.9889558553695679,-0.14722636342048645,0.5362456440925598,0.6199830770492554,-0.020665928721427917
1.4215597104609756,0.029510246847884048,-0.05424706556074235,-0.24031458795070648,-3.384765386581421,-2.6307716369628906,0.004387069959193468,-0.9888848662376404,-0.14861944317817688,0.5944288372993469,0.546654462814331,0.02688489854335785
1.4162326389028248,0.16663096459629406,-0.22651051593752441,-0.2904807925224304,-3.2051477432250977,-2.6534764766693115,0.025534233078360558,-0.988078773021698,-0.15181733667850494,0.6230863928794861,0.5278431177139282,0.0129319429397583
1.4072568337249667,0.29587590657280044,-0.38837609555011254,-0.269656240940094,-2.884587049484253,-2.7206156253814697,0.04747239872813225,-0.9866572022438049,-0.15573744475841522,0.6617560982704163,0.48491764068603516,-0.04160434007644653
1.39567903741027,0.41298218868731257,-0.5349480203661783,-0.1718849241733551,-2.5792195796966553,-2.67885422706604,0.06992354243993759,-0.9847061038017273,-0.15957672894001007,0.7703016996383667,0.403300404548645,-0.0848383903503418
1.3831167684563301,0.5145098145600498,-0.6628357615651111,-0.0017778552137315273,-2.2378780841827393,-2.551609754562378,0.09181772917509079,-0.9824398159980774,-0.16242456436157227,0.9304448366165161,0.3006923198699951,-0.12071734666824341
1.3706289808113208,0.603551828236163,-0.774208821150943,0.16143344342708588,-1.7893325090408325,-2.3940136432647705,0.11285225301980972,-0.9800333380699158,-0.16370494663715363,1.0573290586471558,0.18881922960281372,-0.14919167757034302
1.3587978319544611,0.6819045915618648,-0.8703055387933687,0.2995036244392395,-1.3419666290283203,-2.1410250663757324,0.13261829316616058,-0.9776123762130737,-0.16335998475551605,1.1908527612686157,0.059262096881866455,-0.153778538107872
1.3485859946293082,0.748676847442167,-0.9501242769200233,0.407959520816803,-0.883729875087738,-1.7711573839187622,0.1500099003314972,-0.9754127264022827,-0.16145235300064087,1.3526756763458252,-0.07323217391967773,-0.138535276055336
1.3407653676298767,0.8031043374583802,-1.0131219301062353,0.4391230344772339,-0.5287110209465027,-1.3238773345947266,0.16405527293682098,-0.973659336566925,-0.15834617614746094,1.5218273401260376,-0.18977761268615723,-0.12067592144012451
1.3356197312306701,0.84329547485129,-1.0590249458423107,0.40592992305755615,-0.3944944143295288,-0.8626505732536316,0.17402459681034088,-0.9724732041358948,-0.15495619177818298,1.6373310089111328,-0.28155517578125,-0.10505342483520508
1.3333017928098594,0.8682730758373977,-1.0889354634161592,0.34049397706985474,-0.43699589371681213,-0.4047371745109558,0.1795605719089508,-0.9719305038452148,-0.15201795101165771,1.7230578660964966,-0.3203365206718445,-0.10178138315677643
1.3338161827188224,0.8784136928037927,-1.1042755322541098,0.27369043231010437,-0.5067393183708191,0.014575131237506866,0.18070809543132782,-0.9720513820648193,-0.14987018704414368,1.7401140928268433,-0.33533716201782227,-0.10724027454853058
1.3370401572081232,0.8756190508246008,-1.106829522163731,0.23451735079288483,-0.5456544160842896,0.3987141251564026,0.1778804361820221,-0.9728032350540161,-0.1483660638332367,1.7177189588546753,-0.32820695638656616,-0.10822562873363495
1.343071508316089,0.8621813649239412,-1.0989009832131167,0.27425438165664673,-0.590070366859436,0.7505797743797302,0.1714126318693161,-0.9741825461387634,-0.14692175388336182,1.6857041120529175,-0.2880244851112366,-0.13005565106868744
1.352069630832741,0.8403293882706356,-1.0823832762431849,0.36066338419914246,-0.5375697612762451,1.0757378339767456,0.16162583231925964,-0.976174533367157,-0.14477775990962982,1.632548451423645,-0.24222469329833984,-0.16079463064670563
1.3639843547609212,0.811143624168773,-1.057174531809892,0.47091320157051086,-0.35768818855285645,1.3850789070129395,0.14888764917850494,-0.978690505027771,-0.14141210913658142,1.5627975463867188,-0.194862961769104,-0.15560005605220795
1.3785129706415309,0.7741273073312134,-1.0218349019791617,0.5610021948814392,-0.11044152826070786,1.6514078378677368,0.13359704613685608,-0.9815704226493835,-0.13664300739765167,1.4754728078842163,-0.15122675895690918,-0.13476495444774628
1.3948940401919336,0.726259920431124,-0.972834247275033,0.6005764603614807,0.17668798565864563,1.8757526874542236,0.11621178686618805,-0.9845690131187439,-0.13083899021148682,1.3637534379959106,-0.10693806409835815,-0.08786512911319733
1.4121431513798763,0.6626392525838335,-0.9051154607465993,0.6019161939620972,0.445567786693573,2.042957067489624,0.0971950888633728,-0.9874409437179565,-0.12455438822507858,1.2589603662490845,-0.06031912565231323,-0.04260551929473877
1.4294462113612922,0.5781405410593975,-0.8139460517114991,0.6300323009490967,0.6816490888595581,2.164433479309082,0.07698654383420944,-0.9900267124176025,-0.11798449605703354,1.153695821762085,0.012746989727020264,-0.038143277168273926
1.4462733769818146,0.4670415319224512,-0.693736510788876,0.6892255544662476,0.9223094582557678,2.2561981678009033,0.05592119321227074,-0.9922570586204529,-0.11089982092380524,1.0647300481796265,0.09246152639389038,-0.07432650029659271
1.4618124186347952,0.3203159345585822,-0.5356380246353749,0.7546125054359436,1.136054277420044,2.3099312782287598,0.034247588366270065,-0.9940671324729919,-0.10323621332645416,1.0057761669158936,0.17860686779022217,-0.11946570873260498
1.4748419650464275,0.12883852065062745,-0.33059581995308823,0.8352928757667542,1.3523880243301392,2.330073833465576,0.012309839017689228,-0.9953998923301697,-0.09501545876264572,0.9198495745658875,0.26851677894592285,-0.16067595779895782
1.483863899104062,-0.11188633675704865,-0.0742913572195951,0.9086275100708008,1.5446856021881104,2.3418691158294678,-0.009694227948784828,-0.9962237477302551,-0.0862816870212555,0.8322345018386841,0.34432244300842285,-0.20693105459213257
1.4871412154038262,-0.3904969831780359,0.2221114550158235,0.9604790210723877,1.8049061298370361,2.358137369155884,-0.03180650621652603,-0.9965029358863831,-0.07726852595806122,0.7579570412635803,0.4039278030395508,-0.22091859579086304
1.4835655165339694,-0.6688739318610952,0.5214606350108892,0.9910427927970886,2.1683149337768555,2.375723361968994,-0.05402351915836334,-0.9961978197097778,-0.06834761053323746,0.6678235530853271,0.44596588611602783,-0.2135125994682312
1.4734726910724387,-0.9057831666985239,0.7831981083548795,0.9932019114494324,2.554194927215576,2.424374580383301,-0.07646509259939194,-0.9952678084373474,-0.05996156856417656,0.5752291083335876,0.47489720582962036,-0.20139086246490479
1.4580528429796085,-1.0836924212128358,0.9893415020449183,0.940412700176239,2.83345365524292,2.476431131362915,-0.09941992908716202,-0.9936512112617493,-0.05266013741493225,0.4990018606185913,0.4975574016571045,-0.1890084147453308
1.4390084512755887,-1.2041334682513885,1.1401375480020983,0.8185539245605469,2.97464919090271,2.478034019470215,-0.12267256528139114,-0.9913285374641418,-0.04710981622338295,0.38387250900268555,0.5359146595001221,-0.1715637445449829
1.4180112483949843,-1.2787963379913165,1.245812323392875,0.6619839668273926,2.990807294845581,2.441143751144409,-0.1457490772008896,-0.988351047039032,-0.04381103441119194,0.2790956497192383,0.5783931612968445,-0.16280806064605713
1.3963800360675915,-1.3248043739377846,1.3233655033793907,0.6264795064926147,3.1160037517547607,2.371074914932251,-0.1683100163936615,-0.984827995300293,-0.04225875809788704,0.1875055581331253,0.6249799132347107,-0.1723865270614624
1.3753582400951117,-1.350127184358204,1.3815173937835208,0.4678853452205658,3.193981885910034,2.1890783309936523,-0.1894877701997757,-0.9809626936912537,-0.042506299912929535,0.09242658317089081,0.6632593870162964,-0.2352035641670227
1.3553536802005903,-1.3593446456288987,1.423267190369145,0.3347227871417999,3.1175265312194824,2.089212656021118,-0.20901846885681152,-0.9768818616867065,-0.044868018478155136,0.01881764829158783,0.6403950452804565,-0.20238524675369263
1.3356135595016385,-1.3578053699295807,1.4535196297520527,0.1543806940317154,3.0616862773895264,2.042531967163086,-0.22775496542453766,-0.9724717736244202,-0.049256861209869385,0.0024894922971725464,0.6426683664321899,-0.2169477939605713
1.3159703456997904,-1.3493498482206918,1.4761825401779591,0.07103733718395233,3.015613555908203,2.0333921909332275,-0.24592183530330658,-0.9677071571350098,-0.055366527289152145,-0.057545006275177,0.57485431432724,-0.2068709135055542
1.2960201149279396,-1.3363455119543606,1.4938622478659767,-0.06813652813434601,2.962235450744629,2.0688257217407227,-0.26390859484672546,-0.9624859690666199,-0.06303275376558304,-0.11991101503372192,0.5575329065322876,-0.229417085647583
1.2752607930588442,-1.3207912114918312,1.5079081139097175,-0.15510083734989166,2.8210036754608154,2.1379542350769043,-0.2821979522705078,-0.9566463232040405,-0.07205850630998611,-0.18020445108413696,0.5001947283744812,-0.21802622079849243
1.2539198781951844,-1.3047034070400636,1.520391050358273,-0.19087454676628113,2.7724642753601074,2.1629140377044678,-0.30063366889953613,-0.9502133727073669,-0.08193960040807724,-0.27961236238479614,0.47041594982147217,-0.249847412109375
1.232591383724307,-1.2890500662526938,1.533023804091342,-0.17852769792079926,2.718756675720215,2.1460909843444824,-0.3187123239040375,-0.9433517456054688,-0.09224998205900192,-0.4125346839427948,0.444114625453949,-0.29283589124679565
1.2116523246884117,-1.2742003943954179,1.545686357067074,-0.18625859916210175,2.612936019897461,2.1055846214294434,-0.33612701296806335,-0.9361980557441711,-0.10272389650344849,-0.5529569387435913,0.3972880244255066,-0.30781370401382446
1.1911761052267824,-1.2602105438723092,1.5580942576169667,-0.17400319874286652,2.4658303260803223,2.0468204021453857,-0.3528377115726471,-0.928805410861969,-0.11325155943632126,-0.7040165662765503,0.35064995288848877,-0.2874135971069336
1.171754495524927,-1.2480801551426917,1.570418532189759,-0.14903020858764648,2.217508316040039,1.9153326749801636,-0.3684788942337036,-0.921433687210083,-0.12322176247835159,-0.8934688568115234,0.2993784546852112,-0.30516862869262695
1.1539351177633173,-1.237767546055493,1.581598668199964,-0.1638621985912323,1.8604626655578613,1.7280224561691284,-0.3826463520526886,-0.9143643379211426,-0.13236215710639954,-1.1052076816558838,0.2575497627258301,-0.300849974155426
1.1380177124153505,-1.2295692477537794,1.5902471617502325,-0.22234176099300385,1.3303385972976685,1.5001811981201172,-0.3952147364616394,-0.9078038930892944,-0.1403478980064392,-1.2961610555648804,0.20324456691741943,-0.26954883337020874
1.1239699752485157,-1.2240984753702264,1.5958894952658935,-0.27035027742385864,0.7923778295516968,1.2932170629501343,-0.4063953459262848,-0.9018229842185974,-0.14682690799236298,-1.4835584163665771,0.1449565291404724,-0.22647923231124878
1.1117037093409252,-1.220215717148878,1.598026801331013,-0.3970760107040405,0.37340110540390015,1.075514554977417,-0.416180819272995,-0.896454930305481,-0.15219175815582275,-1.6584652662277222,0.06776529550552368,-0.1675560474395752
1.1008037267065816,-1.216594212787572,1.5958274984045482,-0.5263087749481201,-0.037122681736946106,0.9021897912025452,-0.4247666299343109,-0.8915716409683228,-0.15707778930664062,-1.8072433471679688,-0.03153938055038452,-0.07151401042938232
1.0913059038005908,-1.2134847182558868,1.5902108700738171,-0.6071977615356445,-0.3259912431240082,0.6789827942848206,-0.43219009041786194,-0.8872300982475281,-0.16135241091251373,-1.8939818143844604,-0.0726546049118042,-0.034036219120025635
1.0841930252913898,-1.2103463658347544,1.5816103250196263,-0.6326006054878235,-0.559622585773468,0.36362382769584656,-0.43757590651512146,-0.8839263319969177,-0.16492964327335358,-1.9980320930480957,-0.07301342487335205,-0.06900268793106079
1.0802536790244663,-1.207298851092403,1.5705470661577758,-0.6073083281517029,-0.7798566818237305,-0.009124433621764183,-0.44032254815101624,-0.8820773363113403,-0.16749919950962067,-2.068939685821533,-0.04013347625732422,-0.1339532881975174
1.0805548367240196,-1.2043489269806273,1.5572499094186254,-0.529086709022522,-0.9601442217826843,-0.508108913898468,-0.4395783841609955,-0.8822191953659058,-0.1687021553516388,-2.1061065196990967,0.024217307567596436,-0.22111399471759796
1.0863144151990494,-1.2012230603029799,1.5421594894209794,-0.3579082787036896,-1.0672935247421265,-1.076859951019287,-0.4343033730983734,-0.884916365146637,-0.16823710501194,-2.1231613159179688,0.10741996765136719,-0.31941843032836914
1.098285670328914,-1.198609585794416,1.5267027117728718,-0.09123045206069946,-1.146764874458313,-1.656209111213684,-0.4239632487297058,-0.8904284238815308,-0.16550719738006592,-2.0520498752593994,0.190599262714386,-0.43385791778564453
1.1164327980659683,-1.1978190160389712,1.5123635706926268,0.21883553266525269,-1.258792519569397,-2.1672956943511963,-0.4087153971195221,-0.8985405564308167,-0.15992720425128937,-1.8949955701828003,0.2637748718261719,-0.5405120849609375
1.1398744413038158,-1.2000304882138697,1.4998657191338038,0.47648289799690247,-1.4436311721801758,-2.557016372680664,-0.389325350522995,-0.9085810780525208,-0.1513480693101883,-1.6789882183074951,0.31498366594314575,-0.6004676222801208
1.1670841379979247,-1.2057059465879296,1.488706097172703,0.6117850542068481,-1.7328619956970215,-2.8117456436157227,-0.3669438064098358,-0.9196090698242188,-0.14025533199310303,-1.4286494255065918,0.3398513197898865,-0.5937075614929199
1.196262229588895,-1.2143467999700206,1.4771582556367917,0.6081153750419617,-2.128584384918213,-2.9239492416381836,-0.3428433835506439,-0.9306781888008118,-0.1276593655347824,-1.1735751628875732,0.34857046604156494,-0.5354111790657043
1.2258669080423754,-1.2245229733148852,1.463146843962041,0.49118104577064514,-2.503305435180664,-2.9484260082244873,-0.3180602490901947,-0.9410993456840515,-0.11475963890552521,-0.9416443705558777,0.35740482807159424,-0.46029824018478394
1.2549333353012229,-1.2333675934734933,1.4444136477637795,0.3026870787143707,-2.7790284156799316,-2.9141974449157715,-0.2931198179721832,-0.9505286812782288,-0.10284005850553513,-0.7645279169082642,0.369748592376709,-0.38553255796432495
1.2829964426147822,-1.237666239776088,1.4186616887615775,0.09754057973623276,-2.970381259918213,-2.872162103652954,-0.26823827624320984,-0.9588707089424133,-0.09281740337610245,-0.6240346431732178,0.3866661787033081,-0.3373734951019287
1.310147216721458,-1.2345367534484957,1.3840075189413295,-0.08104647696018219,-3.042208671569824,-2.8610408306121826,-0.24327479302883148,-0.966222882270813,-0.08503279834985733,-0.5108603239059448,0.42958664894104004,-0.32498598098754883
1.337014405319507,-1.2214457535903163,1.339155088791049,-0.16753315925598145,-3.0006916522979736,-2.926628828048706,-0.21766504645347595,-0.9727972149848938,-0.07929378747940063,-0.41649025678634644,0.4963720440864563,-0.34702134132385254
1.3645590065405548,-1.1967257098300694,1.2837118322661807,-0.12763209640979767,-2.8460960388183594,-3.072580099105835,-0.19061733782291412,-0.9788083434104919,-0.07482751458883286,-0.33939671516418457,0.5796689987182617,-0.4102950692176819
1.3937649722396859,-1.1588941105679926,1.2169683705566134,0.020358968526124954,-2.680589199066162,-3.277010440826416,-0.16137881577014923,-0.9843708276748657,-0.0705055370926857,-0.26351743936538696,0.6699634790420532,-0.5084585547447205
1.4248039190904496,-1.103167154455542,1.1335800239723384,0.1907453089952469,-2.6300928592681885,-3.447300434112549,-0.129856675863266,-0.9893620014190674,-0.06557592004537582,-0.1608843058347702,0.7401096820831299,-0.5948853492736816
1.4566161162525952,-1.0150524435021973,1.0181797573070046,0.2978177070617676,-2.6163218021392822,-3.5226492881774902,-0.09678736329078674,-0.9934884905815125,-0.06010846048593521,-0.02165137231349945,0.7687264680862427,-0.6107593774795532
1.4869122340649283,-0.8533630448962856,0.8295688636187182,0.26764634251594543,-2.56959867477417,-3.5083746910095215,-0.06313315778970718,-0.9964838027954102,-0.055086009204387665,0.11414328217506409,0.7569360136985779,-0.5508861541748047
1.5110850183925426,-0.5297010916239124,0.47947508914038833,0.20776674151420593,-2.517129898071289,-3.338336229324341,-0.0301526952534914,-0.9982178211212158,-0.051497682929039,0.25619637966156006,0.6947510242462158,-0.43032896518707275
1.520923503123183,0.018544125477199122,-0.09443281403287523,0.04278934746980667,-2.4488630294799805,-3.1240153312683105,0.0009244343964383006,-0.9987565875053406,-0.04984481260180473,0.4108492434024811,0.6459428668022156,-0.35841917991638184
1.5115609737231968,0.5335718794776675,-0.6348412677536196,-0.20079268515110016,-2.4701640605926514,-2.953078031539917,0.03011098876595497,-0.9982460737228394,-0.050972919911146164,0.4949439465999603,0.6033638119697571,-0.2765568494796753
1.4909846136582918,0.8022466161122068,-0.9295143688041164,-0.45957502722740173,-2.5794129371643066,-2.7438082695007324,0.057317860424518585,-0.9968167543411255,-0.05541825294494629,0.570001482963562,0.5687313675880432,-0.20048677921295166
1.4673503091362872,0.9160976752878611,-1.0700852100565859,-0.6469001770019531,-2.619060516357422,-2.492825508117676,0.08191167563199997,-0.9946542382240295,-0.06287909299135208,0.6920140981674194,0.5238288640975952,-0.15513837337493896
1.443980945489006,0.9654081560356247,-1.145909546973125,-0.6748786568641663,-2.5455806255340576,-2.314701795578003,0.10399848967790604,-0.9919697046279907,-0.07197488099336624,0.7770592570304871,0.4939991235733032,-0.1807258129119873
1.4214792384301818,0.9936278341012722,-1.1990265411126497,-0.6074146628379822,-2.290895462036133,-2.244412422180176,0.12466499209403992,-0.9888728857040405,-0.08117299526929855,0.8107903599739075,0.483272910118103,-0.2194250226020813
1.3997743788583998,1.0173978208228867,-1.2442174235224557,-0.49256354570388794,-1.8412652015686035,-2.2120790481567383,0.14478790760040283,-0.9854113459587097,-0.08944866806268692,0.8549069166183472,0.44534170627593994,-0.19737064838409424
1.3787817841171643,1.0436818768538323,-1.2868051764068666,-0.33902859687805176,-1.2596489191055298,-2.1685943603515625,0.16493375599384308,-0.9816218018531799,-0.09599926322698593,0.9573654532432556,0.3808831572532654,-0.1604856252670288
1.3592330007290516,1.0738951469963158,-1.3276824067146942,-0.14318281412124634,-0.7077646255493164,-2.0178186893463135,0.18459397554397583,-0.9777038097381592,-0.10010266304016113,1.0971901416778564,0.2853972315788269,-0.15604650974273682
1.3422371134845072,1.1061701303623757,-1.3655569330472794,0.019600510597229004,-0.2430957704782486,-1.7382551431655884,0.20255540311336517,-0.9739938378334045,-0.10152558982372284,1.2731678485870361,0.16527795791625977,-0.15962845087051392
1.3284818500471667,1.135508022017362,-1.3964952427504336,0.06946516782045364,0.07610823959112167,-1.3458775281906128,0.21757425367832184,-0.9707852005958557,-0.10118012875318527,1.4380959272384644,0.03343784809112549,-0.11674575507640839
1.3184351124502083,1.15705536682084,-1.4170427491382453,0.008410600014030933,0.22276507318019867,-0.913314700126648,0.22862301766872406,-0.9683255553245544,-0.10038518905639648,1.5793908834457397,-0.07920557260513306,-0.04721289128065109
1.3115394675093957,1.1679585638312817,-1.4260558562871024,-0.14088748395442963,0.20546939969062805,-0.5524341464042664,0.23584142327308655,-0.9665807485580444,-0.10050199925899506,1.6610244512557983,-0.14343518018722534,0.0085526704788208
1.307264454892319,1.1686013136155902,-1.42490880577996,-0.23292766511440277,0.15207968652248383,-0.20490337908267975,0.23970654606819153,-0.9654759764671326,-0.10196708887815475,1.7034544944763184,-0.18459433317184448,0.0313037633895874
1.30634199108471,1.1623973883175323,-1.4168794475447781,-0.21018624305725098,0.16980719566345215,0.20444466173648834,0.23988622426986694,-0.9652352929115295,-0.10380572825670242,1.7452975511550903,-0.2210898995399475,-0.013534188270568848
1.3094995177512918,1.1522211059327419,-1.4041955987227155,-0.13731496036052704,0.2510003447532654,0.6332594156265259,0.23603138327598572,-0.9660558104515076,-0.1050020307302475,1.7694159746170044,-0.23726755380630493,-0.06829188764095306
1.3167267596769903,1.1382906054005235,-1.3867918949843723,-0.07569660246372223,0.3211202919483185,1.0449351072311401,0.22820110619068146,-0.9678975939750671,-0.10535070300102234,1.728570818901062,-0.2406291961669922,-0.08028759062290192
1.3278321200402146,1.118598133433659,-1.3629551475738124,-0.037045616656541824,0.36299261450767517,1.4580223560333252,0.21640010178089142,-0.970629096031189,-0.10512048006057739,1.658416748046875,-0.2330300211906433,-0.06886011362075806
1.3425668511917028,1.0902599732235199,-1.329779693676831,-0.02052757516503334,0.4223422110080719,1.851736068725586,0.2006293535232544,-0.9740685224533081,-0.1045866310596466,1.5740593671798706,-0.2147437334060669,-0.04639892280101776
1.3603618077813817,1.0513220451178786,-1.2848717322971976,0.01458114292472601,0.5708270072937012,2.187209129333496,0.18132956326007843,-0.9779402613639832,-0.10369584709405899,1.46657395362854,-0.19495725631713867,-0.03845490515232086
1.380551665862667,1.0006349483001156,-1.2259055824320375,0.07528667896986008,0.8566376566886902,2.4567081928253174,0.15918652713298798,-0.9819579720497131,-0.10206981003284454,1.3212517499923706,-0.15990298986434937,-0.050868920981884
1.402364471810709,0.9365942894454491,-1.1502275464157372,0.17168059945106506,1.2255477905273438,2.6392877101898193,0.13503925502300262,-0.9858488440513611,-0.09933087974786758,1.170014500617981,-0.11264669895172119,-0.08624637126922607
1.4249331225179864,0.8550184400782721,-1.0532080355356916,0.26947838068008423,1.6155805587768555,2.7524943351745605,0.10967640578746796,-0.9893808364868164,-0.09537739306688309,1.0338172912597656,-0.06944185495376587,-0.10924279689788818
1.4470544011002229,0.7457068335877879,-0.9245195396528068,0.31867122650146484,2.0266058444976807,2.796424627304077,0.08374423533678055,-0.9923537373542786,-0.0906706377863884,0.924403965473175,-0.02224898338317871,-0.10853272676467896
1.4671267474176648,0.5925130877198158,-0.7474815811589974,0.32871532440185547,2.4934611320495605,2.813810110092163,0.05779126659035683,-0.9946311116218567,-0.08584542572498322,0.8425383567810059,0.03354084491729736,-0.09977764636278152
1.4834636644005461,0.37106879566075684,-0.49795731650212993,0.3412207365036011,2.8736627101898193,2.884319305419922,0.03162795305252075,-0.9961889386177063,-0.08128630369901657,0.7617070078849792,0.09762930870056152,-0.12437152862548828
1.49327704077236,0.06058526226402848,-0.1556603099852399,0.35303738713264465,3.232858180999756,2.991227388381958,0.004688960034400225,-0.9969968795776367,-0.07729968428611755,0.7142288684844971,0.16209697723388672,-0.16647464036941528
1.4932109392733737,-0.3050735303828972,0.24490793975458494,0.38894906640052795,3.4816975593566895,3.1078274250030518,-0.023280460387468338,-0.996991753578186,-0.07392874360084534,0.6830552220344543,0.22186052799224854,-0.22354120016098022
1.4824192281644777,-0.6348248865022451,0.611685408513322,0.45776835083961487,3.634326934814453,3.2232396602630615,-0.05234214663505554,-0.9960972666740417,-0.07106580585241318,0.6411330699920654,0.2594029903411865,-0.2819003462791443
1.4632000140671724,-0.8776705264592896,0.8923138482477162,0.5237764120101929,3.6201493740081787,3.345211982727051,-0.0826091319322586,-0.9942170977592468,-0.06861554086208344,0.6051768660545349,0.3058626055717468,-0.3412659168243408
1.4382707663839307,-1.0404131013833051,1.092449669198721,0.5302698612213135,3.5446317195892334,3.437507152557373,-0.11398470401763916,-0.9912313222885132,-0.06684426963329315,0.5615860223770142,0.3449605107307434,-0.3596387505531311
1.409624033198876,-1.144036358719085,1.2327478740660605,0.4713898003101349,3.475155830383301,3.4997470378875732,-0.1460830420255661,-0.9870398640632629,-0.06642473489046097,0.5082350969314575,0.39150452613830566,-0.3363156318664551
1.378590738855553,-1.2081838235491527,1.3330934835230766,0.3966013789176941,3.419358968734741,3.555795907974243,-0.17860287427902222,-0.9815853238105774,-0.06775986403226852,0.4521777033805847,0.4266688823699951,-0.32402467727661133
1.346048086371521,-1.247880582771641,1.4079283627190469,0.33887097239494324,3.254298448562622,3.5816891193389893,-0.21134237945079803,-0.9748502373695374,-0.07072117924690247,0.38782554864883423,0.46586281061172485,-0.33392655849456787
1.3128352243062418,-1.2727202081933326,1.466169030693959,0.27752935886383057,3.0739362239837646,3.5583019256591797,-0.24386030435562134,-0.9669121503829956,-0.07492108643054962,0.31574442982673645,0.5072410702705383,-0.3189234137535095
1.2798565370705102,-1.2866708343245001,1.5119468649380134,0.2121836543083191,2.930598735809326,3.437653064727783,-0.2753518223762512,-0.9579747319221497,-0.08040996640920639,0.22994166612625122,0.5590184330940247,-0.3098181486129761
1.2481194150500925,-1.2935484286905043,1.54910782056076,0.1865847110748291,2.7635955810546875,3.2573204040527344,-0.3049970865249634,-0.9483899474143982,-0.08679515868425369,0.1107526421546936,0.6339367628097534,-0.3237576484680176
1.2180160666559647,-1.2955738125562357,1.5800727991485528,0.13253238797187805,2.6672966480255127,3.0786211490631104,-0.33250534534454346,-0.9384157657623291,-0.0938958004117012,-0.009398430585861206,0.6836548447608948,-0.31572628021240234
1.1894997262083005,-1.290780626807076,1.6034785230780475,-0.1148165836930275,2.64237642288208,2.8348639011383057,-0.35763055086135864,-0.9281828999519348,-0.10284429043531418,-0.09329724311828613,0.6857817769050598,-0.2899473309516907
1.1630168669316123,-1.2761877303654838,1.615710579844238,-0.47450870275497437,2.4877266883850098,2.520944118499756,-0.379486083984375,-0.9180036783218384,-0.11515077203512192,-0.19328314065933228,0.6418806314468384,-0.21497297286987305
1.1381749754184876,-1.2571968550856905,1.6205296117569288,-0.6000419855117798,2.165322780609131,2.3425891399383545,-0.39880532026290894,-0.9078698754310608,-0.12933292984962463,-0.2532181143760681,0.632341742515564,-0.1910252720117569
1.1145596691053774,-1.2404435443572916,1.624193962655955,-0.5824515223503113,1.8436672687530518,2.2356302738189697,-0.4167502820491791,-0.8977168798446655,-0.1429116278886795,-0.2584817409515381,0.6455195546150208,-0.28792017698287964
1.0919055088789036,-1.2276743337843892,1.6291268723885626,-0.47830823063850403,1.587276816368103,2.1820733547210693,-0.43393492698669434,-0.8875065445899963,-0.15502473711967468,-0.31647709012031555,0.5683079361915588,-0.35127705335617065
1.0697908805235858,-1.2189046244506587,1.6364879743794694,-0.41213560104370117,1.482601284980774,2.201695680618286,-0.45087581872940063,-0.8771001100540161,-0.16554976999759674,-0.4334626793861389,0.5381717085838318,-0.3585895299911499
1.0475010211582547,-1.210781635036279,1.6443856215909953,-0.41604870557785034,1.5167438983917236,2.230055809020996,-0.46769979596138,-0.8661770820617676,-0.17605137825012207,-0.5885441303253174,0.48691993951797485,-0.3136793375015259
1.0249572915456302,-1.2015739004456172,1.6515512058129038,-0.5258598923683167,1.5345873832702637,2.226015567779541,-0.48414990305900574,-0.8546920418739319,-0.18735094368457794,-0.7737999558448792,0.42894136905670166,-0.2669336199760437
1.0020463789400575,-1.19060487537775,1.655726043309523,-0.7390715479850769,1.3246060609817505,2.1812355518341064,-0.5001212358474731,-0.8425748944282532,-0.19986581802368164,-0.9727944135665894,0.3826902508735657,-0.20111976563930511
0.9788639609659463,-1.1797516685608522,1.6564274970747268,-0.9228968024253845,0.9412378072738647,2.1253786087036133,-0.515845537185669,-0.8298640251159668,-0.21267105638980865,-1.1721274852752686,0.3439326882362366,-0.1379605382680893
0.9559688844584164,-1.170819330488792,1.6542159145172564,-1.0581908226013184,0.4667562246322632,1.9738891124725342,-0.5312895178794861,-0.8168730139732361,-0.22461120784282684,-1.3299776315689087,0.3362210988998413,-0.1635875105857849
0.9346242922098881,-1.1647263964272487,1.6493345617144124,-1.1233370304107666,-0.03702118992805481,1.7034245729446411,-0.5458070635795593,-0.804375946521759,-0.23467883467674255,-1.5017547607421875,0.33387112617492676,-0.1951305866241455
0.9161685051661158,-1.1618892689022482,1.6423398427752687,-1.079880952835083,-0.49937549233436584,1.337458610534668,-0.5586667656898499,-0.7932745814323425,-0.2420884072780609,-1.700427532196045,0.3466956615447998,-0.21233347058296204
0.9020453576952269,-1.1621337588013283,1.6342130767622476,-0.957777738571167,-0.7965802550315857,0.8285380601882935,-0.5689509510993958,-0.7845966815948486,-0.24637967348098755,-1.865955114364624,0.35988354682922363,-0.2464180588722229
0.8934966972178202,-1.1630970957033295,1.6242787932102156,-0.8468117713928223,-0.9327439665794373,0.24831680953502655,-0.5753247141838074,-0.7792678475379944,-0.2484818994998932,-1.995277762413025,0.3396010994911194,-0.24538396298885345
0.890572684548948,-1.163855999275173,1.6128706220977844,-0.6910299062728882,-0.9704530239105225,-0.2714821398258209,-0.5776031017303467,-0.7774320840835571,-0.24894598126411438,-2.0036957263946533,0.32160627841949463,-0.2381754368543625
0.8930137236552715,-1.1637911750612122,1.6006987643506472,-0.5123583078384399,-0.9003282785415649,-0.7831833362579346,-0.5758424401283264,-0.7789651155471802,-0.2482314258813858,-1.9340300559997559,0.3145638704299927,-0.27718961238861084
0.900986156987585,-1.1624162465151222,1.587865079325737,-0.322689026594162,-0.8221480250358582,-1.3062667846679688,-0.5697829723358154,-0.7839395403862,-0.2465488761663437,-1.8346360921859741,0.3130227327346802,-0.33351385593414307
0.914443928292239,-1.1599933858079576,1.5746537870364874,-0.08517996221780777,-0.7737526893615723,-1.7953754663467407,-0.559460461139679,-0.7922233939170837,-0.24369323253631592,-1.7142670154571533,0.3271963596343994,-0.4009752571582794
0.9331297307995137,-1.1578032677964991,1.5621838035242555,0.2149505615234375,-0.7851006984710693,-2.2042713165283203,-0.5452696681022644,-0.8034870624542236,-0.23893405497074127,-1.5407289266586304,0.3488057255744934,-0.5112489461898804
0.9561926421620959,-1.1579466810437191,1.5521671467915181,0.5585822463035583,-0.8711211681365967,-2.4565000534057617,-0.5281867384910583,-0.8170020580291748,-0.231358140707016,-1.3057671785354614,0.35728520154953003,-0.6163437962532043
0.9823036799075209,-1.1624282659255132,1.5459331003462924,0.8602635264396667,-1.059393286705017,-2.5868008136749268,-0.5094616413116455,-0.831778347492218,-0.22044014930725098,-1.042631983757019,0.34378695487976074,-0.678195595741272
1.0102333558157204,-1.1719590195186629,1.5431002082783971,1.0233659744262695,-1.317922592163086,-2.6502933502197266,-0.4899347424507141,-0.8469559550285339,-0.20646993815898895,-0.8385260105133057,0.32342684268951416,-0.6589016318321228
1.0388862894198192,-1.1857089262847669,1.541642306824757,0.9971404671669006,-1.6922128200531006,-2.6821846961975098,-0.4700373113155365,-0.8618398904800415,-0.19051730632781982,-0.6938878893852234,0.3156821131706238,-0.5732612609863281
1.067206480352739,-1.2024451975141317,1.538769092992591,0.8025770783424377,-2.1411523818969727,-2.6627140045166016,-0.45020294189453125,-0.8758558630943298,-0.1737636774778366,-0.5842514038085938,0.29948562383651733,-0.45894187688827515
1.0943324707789372,-1.2206679070736193,1.5326445468137826,0.5603987574577332,-2.559067487716675,-2.5959994792938232,-0.4308134913444519,-0.8886222839355469,-0.15732190012931824,-0.4647859036922455,0.2972679138183594,-0.3727682828903198
1.12000042045049,-1.2393776646416903,1.5229537876313237,0.34450477361679077,-2.885411024093628,-2.519037961959839,-0.4119727909564972,-0.9001006484031677,-0.14176426827907562,-0.3501273989677429,0.3092803955078125,-0.35985302925109863
1.1444819656160856,-1.257630174366311,1.5101050799474718,0.18343758583068848,-3.0438475608825684,-2.45917010307312,-0.3934056758880615,-0.9104959964752197,-0.1273934543132782,-0.273723840713501,0.3410227298736572,-0.36276453733444214
1.1682741157665961,-1.2744348988758236,1.4952925884080563,0.11810481548309326,-2.981570243835449,-2.425443410873413,-0.3746626675128937,-0.9200758934020996,-0.11440473049879074,-0.2250535488128662,0.37875503301620483,-0.3582361340522766
1.1919592906138718,-1.2893785553853223,1.4800829019686403,0.12873615324497223,-2.79516339302063,-2.4378702640533447,-0.3552917242050171,-0.9290953874588013,-0.1027112677693367,-0.1861969232559204,0.41681206226348877,-0.37984782457351685
1.216230540486956,-1.3031268441817763,1.4658878435772167,0.2131003737449646,-2.580400228500366,-2.50179123878479,-0.33482030034065247,-0.9377973079681396,-0.09182471036911011,-0.1473117470741272,0.4721142053604126,-0.40165966749191284
1.241699010321623,-1.3161914239460848,1.45361716317076,0.29944536089897156,-2.3247971534729004,-2.621239423751831,-0.31277069449424744,-0.9463344812393188,-0.08139947056770325,-0.10190224647521973,0.5339502692222595,-0.4147704243659973
1.268592130787819,-1.3285513947955272,1.443289447866672,0.41375645995140076,-2.1051061153411865,-2.7233426570892334,-0.2889355719089508,-0.9546827673912048,-0.07139522582292557,-0.03148376941680908,0.5538800954818726,-0.412384569644928
1.2966295894220043,-1.3432773337374277,1.43752532300168,0.561933696269989,-1.929054617881775,-2.789872884750366,-0.26376765966415405,-0.9626511335372925,-0.061069559305906296,0.055088430643081665,0.58189857006073,-0.41576749086380005
1.3253904385178596,-1.3607083996875036,1.4365175506318313,0.613222599029541,-1.7412505149841309,-2.8125929832458496,-0.2376078963279724,-0.9700387716293335,-0.050666168332099915,0.1593913584947586,0.583716869354248,-0.39261680841445923
1.3540470767091481,-1.377565597100359,1.4366156381753596,0.5184598565101624,-1.6086416244506836,-2.778367280960083,-0.2110542356967926,-0.9766017198562622,-0.04129743576049805,0.2735389471054077,0.5430841445922852,-0.3061602711677551
1.381833602482586,-1.3893576183086653,1.4327556930277636,0.3594769239425659,-1.4916481971740723,-2.6922357082366943,-0.18475738167762756,-0.9821996092796326,-0.03389490023255348,0.3518868684768677,0.512381374835968,-0.23057031631469727
1.4084101402663314,-1.3934992727289017,1.4223657513428227,0.236077219247818,-1.3847696781158447,-2.5882070064544678,-0.1591392606496811,-0.9868443012237549,-0.028514325618743896,0.4402061700820923,0.4948856830596924,-0.20326656103134155
1.4337705453286151,-1.3891427717216134,1.404049800145347,0.13059324026107788,-1.3677746057510376,-2.4851112365722656,-0.1343500316143036,-0.9906266331672668,-0.02467719279229641,0.533764123916626,0.46854716539382935,-0.21714401245117188
1.4579795859549385,-1.3717660324516925,1.372580370435559,0.015774773433804512,-1.3882505893707275,-2.406595468521118,-0.11035588383674622,-0.9936429262161255,-0.022258857265114784,0.6081585884094238,0.4521084427833557,-0.21933341026306152
1.4810701105381052,-1.3296997146511853,1.316696851424781,-0.10477565973997116,-1.292737603187561,-2.3248612880706787,-0.0870143249630928,-0.9959772825241089,-0.021395020186901093,0.6929560899734497,0.4167536497116089,-0.17870861291885376
1.502523743019166,-1.2451359062417013,1.2200198082024372,-0.15048642456531525,-1.0411884784698486,-2.193997383117676,-0.06463439017534256,-0.9976703524589539,-0.02182595431804657,0.7881298661231995,0.3569842576980591,-0.14084786176681519
1.5214672245039706,-1.092508840414105,1.0585965618285107,-0.104400634765625,-0.6490904688835144,-2.0065250396728516,-0.043777529150247574,-0.9987835884094238,-0.02269585244357586,0.9136200547218323,0.27795833349227905,-0.12708425521850586
1.5369142227273187,-0.8237841099116315,0.785508949656825,0.02058151364326477,-0.1744060069322586,-1.7904560565948486,-0.024858256801962852,-0.9994260668754578,-0.023019520565867424,1.0566117763519287,0.18108177185058594,-0.10852634906768799
1.5473546376073382,-0.34941336262581485,0.3116459645232022,0.18885621428489685,0.3011736273765564,-1.5735870599746704,-0.008025728166103363,-0.9997252821922302,-0.022026685997843742,1.2052150964736938,0.05723559856414795,-0.07063978910446167
1.5505792336552842,0.3312750222069877,-0.36444183773644273,0.3882995545864105,0.6180370450019836,-1.3159009218215942,0.006579342298209667,-0.9997956156730652,-0.019128769636154175,1.3055238723754883,-0.09236764907836914,-0.029271962121129036
1.5474328807624884,0.9097508028808161,-0.9363022109590876,0.5414168238639832,0.6950169801712036,-1.0398017168045044,0.01844489574432373,-0.9997270703315735,-0.014346100389957428,1.3865691423416138,-0.21017295122146606,0.03729546070098877
1.5418559951380322,1.2796759788993752,-1.3000698707402694,0.6237255334854126,0.5275094509124756,-0.8003615736961365,0.027714025229215622,-0.9995812773704529,-0.008304045535624027,1.4390828609466553,-0.30332082509994507,0.1464419960975647
1.5362640365807367,1.5139172688603297,-1.5309689415787668,0.6102268695831299,0.14628896117210388,-0.5448880195617676,0.03446957468986511,-0.9994038343429565,-0.001962713897228241,1.4606781005859375,-0.36160385608673096,0.2374059557914734
1.531904338953383,1.665690945744327,-1.6834299830723567,0.516065776348114,-0.25382331013679504,-0.30294835567474365,0.03870563209056854,-0.9992437958717346,0.0036840210668742657,1.473013162612915,-0.3975456953048706,0.3067713975906372
1.5295043935222958,1.7638374076216976,-1.7860309368479206,0.3571716248989105,-0.610534131526947,-0.04761729761958122,0.04051241651177406,-0.9991475939750671,0.007919174619019032,1.4235836267471313,-0.4099709987640381,0.3426668643951416
1.5298747511132644,1.8228843668051762,-1.8525969175553465,0.1538749635219574,-0.8549832701683044,0.23844347894191742,0.039616234600543976,-0.9991628527641296,0.010203845798969269,1.3762925863265991,-0.38155919313430786,0.3538404703140259
1.53330712401107,1.8467385399797074,-1.885530015428793,-0.08727619051933289,-0.9283745884895325,0.4756906032562256,0.03606739267706871,-0.9992973804473877,0.010213063098490238,1.3394056558609009,-0.32620322704315186,0.35438060760498047
1.539393673132706,1.8223746517928554,-1.8702052802354476,-0.3259686529636383,-0.8640515208244324,0.6659138202667236,0.030416671186685562,-0.999506950378418,0.007817809469997883,1.2411288022994995,-0.29393500089645386,0.3699594736099243
1.5477607050304718,1.7187819569280844,-1.774467620266865,-0.4983520805835724,-0.6938965320587158,0.8705925941467285,0.022785943001508713,-0.9997346997261047,0.003396824933588505,1.129603624343872,-0.26349472999572754,0.37042832374572754
1.557710689759978,1.4197627168517986,-1.4811182966333347,-0.5319305658340454,-0.4410431981086731,1.0913434028625488,0.012948058545589447,-0.9999144077301025,-0.0019705987069755793,1.0690526962280273,-0.2217807173728943,0.3116631507873535
1.5637543256694724,0.13189052866506754,-0.19612613137577264,-0.45412513613700867,-0.14150074124336243,1.3008795976638794,0.0009270601440221071,-0.9999752044677734,-0.006988208275288343,1.014072299003601,-0.18633460998535156,0.21780377626419067
1.5537137794891616,-0.8758146368082396,0.8117645313235028,-0.3329789936542511,0.17466893792152405,1.4985979795455933,-0.01312639657407999,-0.9998540878295898,-0.010944078676402569,0.9403877258300781,-0.15197092294692993,0.12540042400360107
1.5387168141243754,-1.1256704343563597,1.0651588198685584,-0.2240496426820755,0.5184505581855774,1.659409761428833,-0.028949400410056114,-0.9994854927062988,-0.013810534030199051,0.866275429725647,-0.10403013229370117,0.049501001834869385
1.5221277585915938,-1.2379338827768607,1.184360200110465,-0.1428767591714859,0.842533528804779,1.7501673698425293,-0.04597882926464081,-0.9988158941268921,-0.015896089375019073,0.800464928150177,-0.041055262088775635,-0.012698767706751823
1.5047936704488052,-1.3009783080175878,1.2574326615675402,-0.0884232148528099,1.1235030889511108,1.7910056114196777,-0.06356870383024216,-0.997822642326355,-0.017580702900886536,0.7301946878433228,0.022221386432647705,-0.03951758146286011
1.487116551900101,-1.3393333877897868,1.3083068047024313,-0.048586323857307434,1.3354547023773193,1.8085370063781738,-0.081354521214962,-0.9965009093284607,-0.019174207001924515,0.6512244939804077,0.07523620128631592,-0.05827927589416504
1.4692313206498964,-1.3666489069853442,1.349995371365662,0.03392181918025017,1.4790968894958496,1.8427361249923706,-0.09928706288337708,-0.9948467016220093,-0.02055555395781994,0.5868053436279297,0.11926668882369995,-0.08784270286560059
1.4510905208462057,-1.3924243623056511,1.3910015717836117,0.17034758627414703,1.4950846433639526,1.8779270648956299,-0.11752622574567795,-0.9928438067436218,-0.021188577637076378,0.549945056438446,0.16831982135772705,-0.13580894470214844
1.4328550568328557,-1.4203251614275396,1.434135841534651,0.3219716548919678,1.4723622798919678,1.8841902017593384,-0.1359511762857437,-0.9905011653900146,-0.020612534135580063,0.4893752336502075,0.20958679914474487,-0.1755543351173401
1.4147503648736304,-1.4482354709573055,1.4775040958411048,0.4354470670223236,1.5371558666229248,1.8605839014053345,-0.15424907207489014,-0.9878495335578918,-0.019000127911567688,0.41735631227493286,0.24228960275650024,-0.19035029411315918
1.3967442027963781,-1.471950056638248,1.5186088943301328,0.500453531742096,1.8406357765197754,1.8618247509002686,-0.1723305881023407,-0.9848911166191101,-0.017089933156967163,0.3457314372062683,0.2688875198364258,-0.1859586238861084
1.378531578858972,-1.488833111564696,1.5565218306240631,0.5502051115036011,2.2314674854278564,1.8773090839385986,-0.19044120609760284,-0.9815739989280701,-0.015644220635294914,0.30170828104019165,0.29913991689682007,-0.207896888256073
1.3602176484554283,-1.501199211100351,1.594171456285384,0.6834946870803833,2.6519510746002197,1.8767807483673096,-0.2085195779800415,-0.9779101014137268,-0.014535837806761265,0.241341233253479,0.3383685350418091,-0.23297685384750366
1.3421038935888787,-1.5123534790915585,1.634512536372691,0.808896541595459,2.9530115127563477,1.8210551738739014,-0.22631746530532837,-0.9739636778831482,-0.013241716660559177,0.17568877339363098,0.3903912305831909,-0.27981841564178467
1.3253423567225238,-1.5173287804985258,1.6707834016707803,0.6591606140136719,3.0463569164276123,1.5859482288360596,-0.2426501363515854,-0.9700270891189575,-0.01298628468066454,0.0914812833070755,0.42010027170181274,-0.246992826461792
1.3115931709399355,-1.5087642374772858,1.6924430453689965,0.23809461295604706,2.7916271686553955,1.2092992067337036,-0.2558174729347229,-0.9665945172309875,-0.015889277681708336,-0.0539206862449646,0.39319974184036255,-0.11175036430358887
1.301165965694349,-1.4864195702742917,1.695341063658542,-0.21654292941093445,2.198256492614746,0.8993109464645386,-0.26542747020721436,-0.9638694524765015,-0.022449210286140442,-0.13546669483184814,0.37904584407806396,-0.017055628821253777
1.292806986182088,-1.4560254052212223,1.6836022704312907,-0.5790990591049194,1.6381741762161255,0.7122979164123535,-0.2726174592971802,-0.9616091251373291,-0.03142666444182396,-0.12179175019264221,0.4271395206451416,-0.029486294835805893
1.2851345131347425,-1.4194562929754446,1.6612949871093503,-0.8177609443664551,1.4254469871520996,0.6670430302619934,-0.2785719037055969,-0.9594753980636597,-0.04248392581939697,-0.17003652453422546,0.4320552945137024,-0.08671212196350098
1.2767225550067998,-1.3818403906937902,1.6372817096355137,-0.7812223434448242,1.5124597549438477,0.7901622653007507,-0.2846949100494385,-0.9570710062980652,-0.05444430932402611,-0.2666967511177063,0.38684993982315063,-0.17588698863983154
1.2665455829541856,-1.3498332233032433,1.620976416752845,-0.559885561466217,1.775955319404602,1.0043143033981323,-0.29229509830474854,-0.9540717005729675,-0.06565850973129272,-0.35458606481552124,0.34309446811676025,-0.2977294325828552
1.2550522191768099,-1.3248718271182762,1.615047886610514,-0.3213457465171814,2.066636562347412,1.137770652770996,-0.3011813461780548,-0.9505655765533447,-0.0755980834364891,-0.5004696846008301,0.30263155698776245,-0.37442928552627563
1.2430527571100911,-1.3053624136389212,1.6172381771922424,-0.16284430027008057,2.213339328765869,1.2128562927246094,-0.3106340169906616,-0.9467710852622986,-0.08444537967443466,-0.6744581460952759,0.29831838607788086,-0.3810544013977051
1.2308564997387932,-1.2893589317300773,1.623821699085774,-0.08539824187755585,2.2037785053253174,1.2435686588287354,-0.3203122019767761,-0.9427747130393982,-0.09260585159063339,-0.7931979894638062,0.30057811737060547,-0.35333216190338135
1.218883302299862,-1.2761337868523406,1.632711688729637,-0.015602163970470428,2.0820205211639404,1.211869716644287,-0.32983821630477905,-0.9387150406837463,-0.10010512173175812,-0.9030262231826782,0.29627418518066406,-0.3387985825538635
1.2079123029284806,-1.2668573877386557,1.6433134722093021,0.07533785700798035,1.7163437604904175,1.0842883586883545,-0.33870211243629456,-0.9348769783973694,-0.10623642057180405,-0.9989444017410278,0.2922072410583496,-0.3768872618675232
1.19879809790136,-1.2630970638447938,1.6549995884225435,0.17072919011116028,1.2007602453231812,0.9013564586639404,-0.346406489610672,-0.9316028952598572,-0.1100853979587555,-1.090498447418213,0.2687457799911499,-0.39801687002182007
1.1915891019110458,-1.2650986617372713,1.667284586457231,0.2349153757095337,0.6737781763076782,0.7279096245765686,-0.3530217707157135,-0.9289584159851074,-0.1114102154970169,-1.1682642698287964,0.2472718358039856,-0.38767415285110474
1.1863550958358553,-1.2703396805289877,1.6770783847746715,0.13491316139698029,0.08689510822296143,0.49625837802886963,-0.3582402169704437,-0.9270081520080566,-0.11099595576524734,-1.228902816772461,0.19873660802841187,-0.3276940584182739
1.1822209959142471,-1.2772472047618182,1.6822618861828345,0.0030398042872548103,-0.49892228841781616,0.4352719783782959,-0.3626638650894165,-0.925449788570404,-0.10962678492069244,-1.264503002166748,0.10524392127990723,-0.2013777643442154
1.17763464867397,-1.2865866982967733,1.6843879376695459,-0.10517236590385437,-0.949709415435791,0.4910140931606293,-0.36774203181266785,-0.9237024188041687,-0.10742391645908356,-1.2158914804458618,0.061306118965148926,-0.11578154563903809
1.1722729495411806,-1.2974742300017117,1.6841641806841592,-0.2055538445711136,-1.2396161556243896,0.5285024046897888,-0.3736531436443329,-0.9216350317001343,-0.1047491729259491,-1.2075389623641968,-0.009227454662322998,-0.057527899742126465
1.1666006346881406,-1.3086534808225094,1.6817968975827142,-0.2634291648864746,-1.4107176065444946,0.48951831459999084,-0.3798438310623169,-0.91941899061203,-0.10191868990659714,-1.2349634170532227,-0.07757502794265747,-0.005304694175720215
1.1621584589893994,-1.3190202522809813,1.6770367874829002,-0.3311770558357239,-1.5203282833099365,0.2549300193786621,-0.3848315179347992,-0.9176629185676575,-0.0989920049905777,-1.311411738395691,-0.07197630405426025,0.012947812676429749
1.1602684326152084,-1.3263739582259297,1.6683308355203543,-0.43170902132987976,-1.5215191841125488,-0.07000688463449478,-0.3872314989566803,-0.9169102907180786,-0.09657903015613556,-1.4379485845565796,-0.04572099447250366,0.03732931613922119
1.161768540845724,-1.32953555891927,1.6553538924765934,-0.4893568754196167,-1.487107515335083,-0.4734930992126465,-0.3861985504627228,-0.9175079464912415,-0.0950254574418068,-1.4331679344177246,-0.051989734172821045,0.03652340918779373
1.1672151447890466,-1.3293049978286968,1.638930614577369,-0.5016549825668335,-1.4734402894973755,-0.8878369927406311,-0.3813185393810272,-0.9196605086326599,-0.09391795843839645,-1.3928513526916504,-0.012468338012695312,-0.015472158789634705
1.176491255957514,-1.3267554283672072,1.6198465177439902,-0.49371957778930664,-1.5613139867782593,-1.249632477760315,-0.372783899307251,-0.9232637286186218,-0.09282463043928146,-1.3022496700286865,0.051742732524871826,-0.06534785032272339
1.1891376464289203,-1.3225286981067494,1.5977563686440444,-0.5032183527946472,-1.6640417575836182,-1.6013460159301758,-0.3610408306121826,-0.9280481338500977,-0.09152291715145111,-1.1413853168487549,0.11382383108139038,-0.09287941455841064
1.2052679740148478,-1.315122279131634,1.571968477385046,-0.5186745524406433,-1.639375925064087,-1.9798656702041626,-0.3458237051963806,-0.9339350461959839,-0.09039649367332458,-1.0409866571426392,0.10033208131790161,-0.11918282508850098
1.224773922577284,-1.3016005883583972,1.5404169146767204,-0.5902819633483887,-1.5380245447158813,-2.348716974258423,-0.32694387435913086,-0.9407292008399963,-0.09020134806632996,-1.0051484107971191,0.03821760416030884,-0.15317624807357788
1.2472767693832207,-1.2798015793153288,1.5015096209846208,-0.6200848817825317,-1.4598010778427124,-2.644231081008911,-0.30454060435295105,-0.9481223821640015,-0.09120883047580719,-0.9215641021728516,0.010256171226501465,-0.18465465307235718
1.2712587266253677,-1.2505180557788143,1.454810709406897,-0.6705461740493774,-1.5970567464828491,-2.747002124786377,-0.2800731658935547,-0.955473005771637,-0.09289977699518204,-0.7829914689064026,0.04362303018569946,-0.24872910976409912
1.2947283248510373,-1.2147074529145798,1.3989511627905125,-0.7593922019004822,-1.9647982120513916,-2.705357551574707,-0.25547558069229126,-0.9621346592903137,-0.09502264857292175,-0.5415062308311462,0.12126851081848145,-0.24817794561386108
1.3165034795635835,-1.1728498279682387,1.3331729843969515,-0.8308165669441223,-2.3303864002227783,-2.587907552719116,-0.23190394043922424,-0.9678414463996887,-0.09748655557632446,-0.34338295459747314,0.18610310554504395,-0.2357041835784912
1.3361512093950003,-1.125192084872555,1.258676429527558,-0.8346664309501648,-2.563225269317627,-2.4561874866485596,-0.20979419350624084,-0.9725968837738037,-0.10020715743303299,-0.22688181698322296,0.22607600688934326,-0.24812035262584686
1.3538744811715888,-1.0727909762009045,1.177997320751692,-0.754779040813446,-2.6457927227020264,-2.3199944496154785,-0.189082533121109,-0.9765645861625671,-0.10280707478523254,-0.1726270616054535,0.2503530979156494,-0.2718570828437805
1.3699157043321524,-1.017645187115947,1.0947111382615184,-0.6127300262451172,-2.5871450901031494,-2.1705727577209473,-0.16977724432945251,-0.9798912405967712,-0.1048288345336914,-0.11064879596233368,0.27113568782806396,-0.28976333141326904
1.3846403420490896,-0.9611201445205142,1.0115033704979264,-0.4462810158729553,-2.4024839401245117,-2.03548002243042,-0.15173780918121338,-0.9827229380607605,-0.10597929358482361,-0.0369371622800827,0.29981565475463867,-0.28867387771606445
1.3984149207734837,-0.9013121469037682,0.9275248169335613,-0.3165470063686371,-2.144975423812866,-1.9569792747497559,-0.13450385630130768,-0.98517906665802,-0.10644835978746414,0.01659916341304779,0.3302106261253357,-0.25703108310699463
1.411655669465948,-0.8327191847268892,0.837284538073939,-0.24659638106822968,-1.9339579343795776,-1.9899872541427612,-0.11723106354475021,-0.9873638153076172,-0.10662982612848282,0.031095169484615326,0.34975987672805786,-0.21639861166477203
1.4246110827772855,-0.7457753275192933,0.7304617098725277,-0.24323759973049164,-1.7914953231811523,-2.129715919494629,-0.09883955866098404,-0.9893339276313782,-0.10699976980686188,0.02671126276254654,0.36827075481414795,-0.1975197196006775
1.4368044749302749,-0.628961442414967,0.5946682756960894,-0.28594115376472473,-1.7342082262039185,-2.3298308849334717,-0.07859262824058533,-0.9910365343093872,-0.10802735388278961,0.025644630193710327,0.39281564950942993,-0.19490528106689453
1.446788962022549,-0.47228308663467994,0.41894235100202093,-0.38951414823532104,-1.7905939817428589,-2.540137767791748,-0.056269366294145584,-0.9923209547996521,-0.11015035212039948,0.04139203950762749,0.41620999574661255,-0.20302093029022217
1.452314343531469,-0.2752351132007152,0.2016825616778692,-0.5040209889411926,-1.9255725145339966,-2.721639633178711,-0.03212513402104378,-0.9929892420768738,-0.11375655978918076,0.08568347990512848,0.4116750955581665,-0.2002233862876892
1.4512175702506496,-0.05709792774134415,-0.03828146185877168,-0.6478735208511353,-2.095700740814209,-2.8206002712249756,-0.006807803642004728,-0.9928589463233948,-0.11910071223974228,0.17892694473266602,0.4132080078125,-0.20888686180114746
1.442753435622069,0.14451979208915927,-0.263274794826479,-0.7786462306976318,-2.2117066383361816,-2.75229811668396,0.018390092998743057,-0.9918137192726135,-0.12636250257492065,0.31069621443748474,0.40462493896484375,-0.1914321780204773
1.4287101454412625,0.29946957090946724,-0.44186212434958105,-0.8863292932510376,-2.161750555038452,-2.514819860458374,0.041776400059461594,-0.9899227023124695,-0.13530592620372772,0.4375326931476593,0.35855984687805176,-0.15857826173305511
1.4117889467129834,0.40439287424283277,-0.5693011411177616,-0.9569819569587708,-2.033635139465332,-2.220348358154297,0.06230022385716438,-0.9873849153518677,-0.14556773006916046,0.5406661033630371,0.31540292501449585,-0.13630779087543488
1.3940307459676173,0.47132169164799625,-0.6571445948736563,-1.0059889554977417,-1.8812777996063232,-1.9346458911895752,0.07984564453363419,-0.9844176173210144,-0.1566738337278366,0.5863988995552063,0.29090559482574463,-0.12024253606796265
1.3762110779011956,0.5126326269521133,-0.7175752965207514,-1.074187994003296,-1.7299416065216064,-1.7168751955032349,0.0948379784822464,-0.9811279773712158,-0.16850493848323822,0.5859481692314148,0.26776421070098877,-0.10305565595626831
1.3583979065129104,0.536854590602327,-0.7594132277885379,-1.1511932611465454,-1.6142624616622925,-1.5268551111221313,0.10781324654817581,-0.9775281548500061,-0.1811494082212448,0.5581260919570923,0.24850893020629883,-0.08534519374370575
1.3406484259951206,0.5491645765581068,-0.7879480321801847,-1.2336684465408325,-1.4706592559814453,-1.3740131855010986,0.11907406151294708,-0.9736326932907104,-0.1945793330669403,0.5436456799507141,0.21032679080963135,-0.07571473717689514
1.3229110338248864,0.5530522978139619,-0.8062787686478317,-1.3238519430160522,-1.3122799396514893,-1.2156025171279907,0.12888166308403015,-0.9694334268569946,-0.20877854526042938,0.5318086743354797,0.16277748346328735,-0.08104676008224487
1.3052898710232441,0.5498136073661092,-0.8161067137563378,-1.402299165725708,-1.2345229387283325,-1.0519778728485107,0.13711053133010864,-0.9649597406387329,-0.2237265408039093,0.5349934101104736,0.13790279626846313,-0.08701854944229126
1.2879416492535762,0.540954824936924,-0.8196444133434279,-1.447191596031189,-1.2190252542495728,-0.9141644239425659,0.14372290670871735,-0.9602625966072083,-0.23924776911735535,0.5454555749893188,0.13508248329162598,-0.10869824886322021
1.2711347758005087,0.5290098409585772,-0.820076287995271,-1.411095142364502,-1.2421742677688599,-0.8226516246795654,0.14897967875003815,-0.9554364681243896,-0.2548457384109497,0.5251994132995605,0.14182251691818237,-0.15761446952819824
1.2553885495487143,0.516965052877568,-0.8203888642196128,-1.290285348892212,-1.2079041004180908,-0.7681119441986084,0.1533166617155075,-0.9506699442863464,-0.2696678340435028,0.4868048429489136,0.13083040714263916,-0.22193974256515503
1.2413375314432502,0.507102800329355,-0.8223239348832269,-1.0821772813796997,-1.1197184324264526,-0.713496744632721,0.15712183713912964,-0.9462175965309143,-0.28281643986701965,0.46034035086631775,0.10634320974349976,-0.2753347158432007
1.229794707335796,0.5003639912301909,-0.8263220608157285,-0.8027620911598206,-0.9642863869667053,-0.6223418116569519,0.16044189035892487,-0.9424201846122742,-0.29343298077583313,0.4515576660633087,0.06729793548583984,-0.3089686930179596
1.2213882291165805,0.496554035659456,-0.8313427906564226,-0.5115672945976257,-0.7317957878112793,-0.47121793031692505,0.16309113800525665,-0.9395754933357239,-0.30099695920944214,0.46964508295059204,0.031219780445098877,-0.3112465441226959
1.2162258892151445,0.4946446534648852,-0.8359871705395862,-0.24778330326080322,-0.5285654067993164,-0.3054473102092743,0.1648164838552475,-0.9377956986427307,-0.3055727481842041,0.4744504988193512,0.01975071430206299,-0.28134122490882874
1.2138390002127828,0.4936196549829114,-0.8398422709664266,-0.0551036074757576,-0.4059654772281647,-0.16264569759368896,0.1655634492635727,-0.9369643330574036,-0.3077120780944824,0.4383947253227234,0.014662027359008789,-0.23424947261810303
1.2132777537210329,0.4923248655400351,-0.8425434252500297,0.039088137447834015,-0.36439594626426697,-0.06260219216346741,0.16541342437267303,-0.9367680549621582,-0.3083895742893219,0.38251447677612305,0.0002903938293457031,-0.17867088317871094
1.2136727253360546,0.48982964214671415,-0.8439378190062852,0.06895890086889267,-0.40340161323547363,0.012192092835903168,0.16446931660175323,-0.9369062185287476,-0.3084748089313507,0.33873507380485535,-0.006422698497772217,-0.11860328912734985
1.2143559937145203,0.48495169522405784,-0.8436956360414879,0.035773515701293945,-0.5308676958084106,0.05590548366308212,0.16266405582427979,-0.9371448755264282,-0.30870676040649414,0.2959998846054077,0.016276955604553223,-0.07389196753501892
1.2145212978871334,0.4776999721184148,-0.8424687224932184,-0.05367854982614517,-0.686220645904541,0.02667856216430664,0.16035014390945435,-0.937202513217926,-0.3097410798072815,0.22610926628112793,0.0175246000289917,-0.04369798302650452
1.213503760565394,0.46868658757953513,-0.8407533886634077,-0.18608026206493378,-0.7793292999267578,-0.011393189430236816,0.15798243880271912,-0.9368471503257751,-0.31202420592308044,0.18070167303085327,0.013186812400817871,-0.020907223224639893
1.2108496830456186,0.4577350437857694,-0.837861077668371,-0.38984495401382446,-0.8786308169364929,-0.04532923176884651,0.1556541472673416,-0.9359155893325806,-0.3159649670124054,0.15516741573810577,-0.003980100154876709,0.01577889919281006
1.2057273161670983,0.4447082652192665,-0.8334163001317558,-0.6557179093360901,-0.8630377650260925,-0.12420807033777237,0.1535855084657669,-0.9340991377830505,-0.3222895562648773,0.12555880844593048,-0.03431522846221924,0.12848776578903198
1.1984814145384028,0.432463898775423,-0.8293378360659152,-0.757229745388031,-0.8116148710250854,-0.21677473187446594,0.152460515499115,-0.9314877390861511,-0.33028239011764526,0.0973411351442337,-0.026764273643493652,0.1347869336605072
1.190700989037111,0.4228745460982075,-0.8266581055663285,-0.7196477651596069,-0.5874001979827881,-0.24650812149047852,0.15225593745708466,-0.9286292791366577,-0.33832788467407227,0.09742364287376404,-0.012868523597717285,0.053537994623184204
1.1839156550863625,0.4176376602598802,-0.825908461279179,-0.5204315185546875,-0.3123672902584076,-0.25209563970565796,0.15303438901901245,-0.9260904788970947,-0.3448724150657654,0.11671051383018494,-0.01913052797317505,0.005364477634429932
1.1794378537258787,0.4178073453092272,-0.8279427119838156,-0.22754265367984772,-0.028630897402763367,-0.24876803159713745,0.15477390587329865,-0.9243917465209961,-0.34863293170928955,0.12505704164505005,-0.026062965393066406,-0.08113071322441101
1.1777791536578932,0.4235327356498283,-0.833221697835993,0.08720757067203522,0.1868211179971695,-0.25786980986595154,0.15739752352237701,-0.9237577319145203,-0.3491387665271759,0.13036800920963287,-0.009302020072937012,-0.13573968410491943
1.1786197891536996,0.43438690856139595,-0.8420821919092829,0.33083727955818176,0.3352105915546417,-0.2859347462654114,0.16085083782672882,-0.9240793585777283,-0.3467050790786743,0.11455507576465607,-0.016029953956604004,-0.16133615374565125
1.1807298662582295,0.4483675455120936,-0.8531363185550874,0.3846433460712433,0.40250685811042786,-0.2958802878856659,0.16483649611473083,-0.9248837828636169,-0.34266459941864014,0.11191219091415405,-0.03350555896759033,-0.1354236602783203
1.1825191266540827,0.46246710798375684,-0.8643302588452658,0.29864373803138733,0.3315639793872833,-0.3078106939792633,0.1689128428697586,-0.9255626797676086,-0.3388250470161438,0.11810502409934998,-0.057179808616638184,-0.03615960478782654
1.1832230636065377,0.4743616971214318,-0.8742001267407463,0.15736477077007294,0.21647675335407257,-0.2880474627017975,0.17263315618038177,-0.9258289337158203,-0.3362119495868683,0.12859061360359192,-0.06377983093261719,0.04118344187736511
1.182777938772547,0.4828291430092409,-0.8815370329797647,0.018354684114456177,0.12070149183273315,-0.242970272898674,0.17566527426242828,-0.9256606101989746,-0.33510342240333557,0.1393829882144928,-0.07485824823379517,0.07532262802124023
1.1814829565798333,0.48803664623817705,-0.8861590683594839,-0.07420284301042557,0.07363367825746536,-0.1850036382675171,0.1779698133468628,-0.9251698851585388,-0.33524253964424133,0.1356593668460846,-0.10827744007110596,0.0768808126449585
1.1800173625540953,0.49080824619374547,-0.8884067696820677,-0.0933200791478157,0.06898592412471771,-0.10553544014692307,0.17953720688819885,-0.9246126413345337,-0.3359434902667999,0.14423908293247223,-0.11266469955444336,0.049993932247161865
1.1789368655266164,0.4922611667945874,-0.8891345556056935,-0.0653943344950676,0.08751679956912994,-0.048387959599494934,0.18049703538417816,-0.9242005348205566,-0.33656224608421326,0.13333050906658173,-0.09960317611694336,0.012892931699752808
1.178416405449073,0.4933110528608765,-0.8892060238617848,-0.019829239696264267,0.11033636331558228,-0.008368104696273804,0.18107807636260986,-0.9240016341209412,-0.33679625391960144,0.10903729498386383,-0.10029035806655884,-0.01766529679298401
1.1785578700993322,0.49433764416624376,-0.8889998665408125,0.03616068512201309,0.13402415812015533,0.03694809973239899,0.18136173486709595,-0.9240556955337524,-0.33649516105651855,0.10112424194812775,-0.09651315212249756,-0.030860036611557007
1.179363941250003,0.49536820052940467,-0.8885246039920607,0.08611918985843658,0.16396288573741913,0.06725167483091354,0.1813543438911438,-0.9243635535240173,-0.33565273880958557,0.09199164807796478,-0.08782833814620972,-0.028589725494384766
1.1805504602662553,0.49678953748266647,-0.8881509733626184,0.10559877753257751,0.18322226405143738,0.06726362556219101,0.18130840361118317,-0.9248155355453491,-0.3344302475452423,0.07352867722511292,-0.07770222425460815,-0.023769676685333252
1.1817737982981118,0.49849346389511495,-0.8880262860655319,0.10194811969995499,0.17766477167606354,0.0584578774869442,0.18133698403835297,-0.9252802133560181,-0.333126962184906,0.050184667110443115,-0.07505553960800171,-0.016268670558929443
1.1829213432592338,0.5000806978527147,-0.8878900856330818,0.09264814108610153,0.16337145864963531,0.06235533952713013,0.1813562512397766,-0.9257148504257202,-0.3319067358970642,0.04110167920589447,-0.06969237327575684,-0.009386509656906128
1.183954630258836,0.5012366308165929,-0.8873986702518809,0.06788074225187302,0.1582600474357605,0.06630853563547134,0.1812800168991089,-0.9261052012443542,-0.3308577239513397,0.032114177942276,-0.06386983394622803,-0.0028061270713806152
1.1847248262415022,0.5019029511247418,-0.88652114519407,0.02777780033648014,0.13708017766475677,0.06872829794883728,0.18115714192390442,-0.9263954758644104,-0.3301112949848175,0.014353752136230469,-0.0672263503074646,0.005083948373794556
1.1851635880801419,0.5013821786000777,-0.8846156844460736,-0.018842432647943497,0.11097027361392975,0.10068570077419281,0.18078982830047607,-0.926560640335083,-0.32984912395477295,0.018200069665908813,-0.06378054618835449,0.014419585466384888
1.1854448720556297,0.49943228913108323,-0.88139431002239,-0.04426667466759682,0.0934227928519249,0.14200499653816223,0.18002162873744965,-0.9266663789749146,-0.3299724757671356,0.032991111278533936,-0.050186097621917725,0.01724374294281006
1.1857920715889454,0.49648072547597205,-0.8771775405933053,-0.042978234589099884,0.09956137835979462,0.16932210326194763,0.17889362573623657,-0.9267968535423279,-0.33021944761276245,0.03251694142818451,-0.03522413969039917,0.0047190189361572266
1.186311325160421,0.49345501549064946,-0.8726620792839209,-0.026939719915390015,0.12676039338111877,0.17853184044361115,0.17766568064689636,-0.9269917011260986,-0.3303353488445282,0.011558592319488525,-0.024073421955108643,-0.008791148662567139
1.1869118672778178,0.490821072596144,-0.8684031950631108,-0.017146743834018707,0.1305985450744629,0.15811045467853546,0.17653247714042664,-0.9272168278694153,-0.33031097054481506,-0.011279776692390442,-0.014891386032104492,-0.017207831144332886
1.1875103777406193,0.48896497121851273,-0.8651040215674345,0.01289520412683487,0.10411932319402695,0.11161869764328003,0.17565827071666718,-0.9274408221244812,-0.3301478922367096,-0.02322295308113098,-0.0016210675239562988,-0.039038389921188354
1.1882154145187935,0.4884092615081497,-0.8636298193722982,0.06083902716636658,0.05702691525220871,0.054007597267627716,0.17516809701919556,-0.9277042150497437,-0.329668253660202,-0.032040610909461975,0.015304863452911377,-0.07186669111251831
1.189161435943406,0.48917284866956856,-0.8638920337505165,0.11367224901914597,0.048322729766368866,0.02116631157696247,0.17500734329223633,-0.9280569553375244,-0.3287596106529236,-0.04248473048210144,0.02061671018600464,-0.08367007970809937
1.1904982725376112,0.49099017002032147,-0.865325884098722,0.1693035513162613,0.05218937247991562,0.015364615246653557,0.1750192493200302,-0.9285540580749512,-0.3273463845252991,-0.04017731547355652,0.021022319793701172,-0.07646211981773376
1.1923818271738666,0.49392929416825143,-0.8677004907256209,0.23629462718963623,0.09807799756526947,0.012735093012452126,0.1751512736082077,-0.9292515516281128,-0.325290322303772,-0.029872283339500427,0.028845489025115967,-0.07227733731269836
1.1947252474859744,0.4981881153744703,-0.8708370067918696,0.2761048674583435,0.16348470747470856,0.01059683971107006,0.175493985414505,-0.9301148056983948,-0.32262760400772095,-0.03215289115905762,0.024719178676605225,-0.0702250599861145
1.1971724540667716,0.5032807145338343,-0.874392573511347,0.27536123991012573,0.18063977360725403,-0.0016927460674196482,0.1760362833738327,-0.9310107827186584,-0.3197346329689026,-0.04738941788673401,0.006801128387451172,-0.05506691336631775
1.199373697157613,0.5080208480882282,-0.8776979970588155,0.23358236253261566,0.15003259479999542,0.0022316882386803627,0.17655254900455475,-0.9318119287490845,-0.3171052634716034,-0.04085609316825867,0.006259500980377197,-0.03152745962142944
1.2011515316789434,0.5113929997130654,-0.8800277289215289,0.18068084120750427,0.09676056355237961,0.013368044048547745,0.17680972814559937,-0.9324557185173035,-0.3150627315044403,-0.02242128551006317,0.012045621871948242,-0.012985855340957642
1.2024408239264037,0.5132807270611077,-0.8813213651481938,0.13241584599018097,0.05240534991025925,0.018581448122859,0.17681384086608887,-0.9329207539558411,-0.31368109583854675,-0.01597091555595398,0.011060953140258789,-0.0032743215560913086
1.2034269809089768,0.5140917608954483,-0.8818977779286261,0.11153479665517807,0.021525198593735695,0.02388007380068302,0.17661570012569427,-0.9332754015922546,-0.3127363920211792,-0.013468697667121887,0.008913159370422363,-0.00511932373046875
1.2043927925319753,0.5148703860391979,-0.882501772712948,0.1262623518705368,0.038377419114112854,0.016625089570879936,0.17641523480415344,-0.9336218237876892,-0.3118141293525696,-0.01352761685848236,0.014615416526794434,-0.01408296823501587
1.2055927514296574,0.5162456988662628,-0.8835719748230368,0.1658417135477066,0.04814630001783371,0.027337778359651566,0.17629076540470123,-0.9340510964393616,-0.31059667468070984,-0.014272928237915039,0.02140754461288452,-0.025920510292053223
1.2073416253999008,0.5176067211740452,-0.8844944243369094,0.21854540705680847,0.06665846705436707,0.08029740303754807,0.17590487003326416,-0.9346742630004883,-0.30893656611442566,-0.0058303773403167725,0.01212775707244873,-0.03588145971298218
1.2100749982107284,0.5181673812516243,-0.8843209480846791,0.28602346777915955,0.09115581959486008,0.18104314804077148,0.17481181025505066,-0.9356424808502197,-0.3066169321537018,0.027443453669548035,0.0028574466705322266,-0.04316017031669617
1.2139596941420114,0.5171405680889872,-0.8823777981974396,0.33986860513687134,0.06414896994829178,0.3017629086971283,0.17269866168498993,-0.9370065331459045,-0.3036346733570099,0.055710166692733765,-0.007100582122802734,-0.046691685914993286
1.2187105424754545,0.5133445192747078,-0.8781643869706143,0.35151705145835876,-0.037131719291210175,0.4076250493526459,0.16935673356056213,-0.938655436038971,-0.3004068434238434,0.07138119637966156,-0.010990560054779053,-0.04766121506690979
1.223871145403182,0.5058787697193176,-0.8714340021083332,0.3272830843925476,-0.19009624421596527,0.48951593041419983,0.16475993394851685,-0.9404225945472717,-0.2974218428134918,0.06670066714286804,-0.009788036346435547,-0.03244251012802124
1.2289839827049396,0.4947814518820064,-0.862391233461447,0.2715041935443878,-0.3164195418357849,0.5274283289909363,0.1591639220714569,-0.942148745059967,-0.2949962019920349,0.05380302667617798,-0.0006613731384277344,-0.003023087978363037
1.2336276588317883,0.48128857598347646,-0.8517891689916486,0.21974751353263855,-0.36786726117134094,0.525959849357605,0.15314219892024994,-0.9436951279640198,-0.29323554039001465,0.03480033576488495,0.008605897426605225,0.029304444789886475
1.2378419779695635,0.4670197005818695,-0.8403071891742285,0.18509696424007416,-0.2972552180290222,0.5289427638053894,0.1471508890390396,-0.9450808763504028,-0.2918373644351959,0.00748172402381897,0.002057015895843506,0.0582558810710907
1.2418582848978106,0.45293791093624514,-0.8278812073589235,0.17392952740192413,-0.16443297266960144,0.5473377704620361,0.14136463403701782,-0.94638592004776,-0.2904651165008545,0.0033345073461532593,-0.009897828102111816,0.07102856040000916
1.2457222525110014,0.4393170697082934,-0.8145406690286022,0.15219168365001678,-0.03688523545861244,0.5545992255210876,0.13583876192569733,-0.947627067565918,-0.2890515625476837,0.005472913384437561,-0.005543768405914307,0.08122694492340088
1.2492751259627826,0.42602274715945,-0.8004836416904156,0.11668002605438232,0.0366547629237175,0.5509802103042603,0.13059209287166595,-0.9487558007240295,-0.28776443004608154,0.0005877465009689331,0.0009559988975524902,0.0972433090209961
1.2523876783698518,0.4123078812025358,-0.7856463811347506,0.06752078980207443,0.03255163133144379,0.5518412590026855,0.1254492849111557,-0.9497348070144653,-0.2868213355541229,0.007607385516166687,0.008313238620758057,0.09720051288604736
1.254870388455495,0.39732399391341844,-0.7698177979057615,0.001531383953988552,-0.02213318645954132,0.544627845287323,0.12022488564252853,-0.9505090713500977,-0.2864936590194702,0.013335317373275757,0.01676267385482788,0.08921289443969727
1.2565132463056459,0.38123767340823433,-0.7533175116166766,-0.08910483121871948,-0.05684349685907364,0.5197767615318298,0.11501967906951904,-0.9510182738304138,-0.28694048523902893,0.004670299589633942,0.019881129264831543,0.0951833724975586
1.25707106655367,0.3643482818875608,-0.736396908797259,-0.18851423263549805,-0.10377638041973114,0.49347594380378723,0.10996829718351364,-0.9511905312538147,-0.28834661841392517,-0.015852056443691254,0.016650676727294922,0.10920852422714233
1.256519416668619,0.34612019110648967,-0.7187155014171066,-0.2940917909145355,-0.18336230516433716,0.49315449595451355,0.1048722043633461,-0.9510201811790466,-0.2907963991165161,-0.016294904053211212,0.010804057121276855,0.11696833372116089
1.2549346608765113,0.3255858748737906,-0.6994418016939822,-0.3960735499858856,-0.25642746686935425,0.5273465514183044,0.09936118870973587,-0.9505290389060974,-0.2943160831928253,0.00706888735294342,0.020872056484222412,0.12216654419898987
1.252452208903967,0.3027780626559281,-0.6782984790585286,-0.480012983083725,-0.27936071157455444,0.5696097612380981,0.09332660585641861,-0.9497550129890442,-0.2987572252750397,0.019237525761127472,0.017381727695465088,0.12880513072013855
1.2492197977153119,0.27834638320647115,-0.6557877812440439,-0.5390946865081787,-0.3072488009929657,0.5922878980636597,0.08684344589710236,-0.9487383365631104,-0.30389830470085144,0.01925095170736313,0.01374053955078125,0.12309703230857849
1.245301427187667,0.2535729476294392,-0.6330904425976438,-0.5923565626144409,-0.34074831008911133,0.5828207731246948,0.08022089302539825,-0.9474925994873047,-0.3095523416996002,0.01320870965719223,0.02848607301712036,0.11053207516670227
1.2406333922025643,0.22947953621500464,-0.6114705090560864,-0.6408559679985046,-0.38018545508384705,0.5408453345298767,0.07374537736177444,-0.9459895491600037,-0.3156983554363251,-0.008971795439720154,0.04372203350067139,0.0958651602268219
1.2351950835095162,0.20703421637711242,-0.5917596449049904,-0.695969820022583,-0.36556077003479004,0.4754272401332855,0.06769800931215286,-0.9442124962806702,-0.3223041296005249,-0.035395123064517975,0.048124730587005615,0.09351396560668945
1.2289293364997371,0.1870733558768676,-0.5744695903297783,-0.7535087466239929,-0.37032651901245117,0.402881920337677,0.06235062703490257,-0.9421303868293762,-0.32939791679382324,-0.050769176334142685,0.042624592781066895,0.1011875569820404
1.2219167221624168,0.1693787878619345,-0.5597423327932635,-0.7981350421905518,-0.39565789699554443,0.3273853063583374,0.05762491002678871,-0.9397563338279724,-0.3369535207748413,-0.057594362646341324,0.04998570680618286,0.09525442123413086
1.2143696448732553,0.15420550269895728,-0.5478388701713207,-0.8137965798377991,-0.39539745450019836,0.235812246799469,0.05359363183379173,-0.9371496438980103,-0.3447876274585724,-0.06665512919425964,0.0610814094543457,0.06689465045928955
1.2066538416890202,0.14237642342816234,-0.5392036486201615,-0.7948511242866516,-0.34623050689697266,0.13732804358005524,0.05053601413965225,-0.9344295263290405,-0.3525448739528656,-0.08483774214982986,0.05558419227600098,0.033483684062957764
1.199045245157523,0.13368002640117663,-0.5333964685879391,-0.7629821300506592,-0.31466805934906006,0.07271097600460052,0.04841446876525879,-0.9316927194595337,-0.3600068688392639,-0.0878126323223114,0.04527902603149414,0.005346953868865967
1.1916871714741972,0.12672131149476937,-0.5293312167198807,-0.7315758466720581,-0.317514568567276,0.033752650022506714,0.0467732734978199,-0.9289947152137756,-0.36712560057640076,-0.06927996128797531,0.04425954818725586,-0.00822526216506958
1.1845907367954014,0.12090251130432944,-0.5264149104605229,-0.7001572251319885,-0.30116862058639526,0.009697649627923965,0.04543023183941841,-0.9263449907302856,-0.3739265501499176,-0.05284597724676132,0.04638582468032837,-0.016057461500167847
1.1777932293131403,0.11588428835063941,-0.5241570505138808,-0.665072500705719,-0.2858221232891083,0.0020553618669509888,0.0442802794277668,-0.9237631559371948,-0.38039571046829224,-0.05323716253042221,0.02959805727005005,-0.018148452043533325
1.1713692676590508,0.11135412539763141,-0.5221570731955565,-0.6231788396835327,-0.24773305654525757,0.002254300285130739,0.043215151876211166,-0.9212839603424072,-0.3864821791648865,-0.04228433966636658,0.016330838203430176,-0.020927369594573975
1.1653217323778373,0.1075998307073836,-0.5204665990866242,-0.5908457040786743,-0.19462016224861145,-0.007084481418132782,0.04236145690083504,-0.9189152717590332,-0.3921739161014557,-0.03778379410505295,0.014419972896575928,-0.02240729331970215
1.159526137370222,0.10476705148891047,-0.5192680687427333,-0.5708083510398865,-0.15191636979579926,-0.024061068892478943,0.041806574910879135,-0.916613757610321,-0.39758211374282837,-0.044064849615097046,0.0031310319900512695,-0.01735001802444458
1.1538106050952546,0.10289018996814886,-0.5186091873281853,-0.5663267374038696,-0.10748190432786942,-0.041378699243068695,0.04159767925739288,-0.9143139123916626,-0.4028643071651459,-0.045748043805360794,-0.0021747350692749023,-0.006940782070159912
1.1480066231905854,0.10157528424892678,-0.5182651693585126,-0.5864781141281128,-0.10184372961521149,-0.04972584545612335,0.04160534590482712,-0.9119478464126587,-0.40819141268730164,-0.04520639032125473,-0.011727750301361084,0.00040036439895629883
1.1419863680715587,0.10000303304731523,-0.5179716236924774,-0.6086750030517578,-0.15803326666355133,-0.04380107671022415,0.04151086509227753,-0.9094612002372742,-0.41371139883995056,-0.032843854278326035,-0.01163560152053833,0.0015411078929901123
1.135844475370521,0.09764705863948768,-0.5173467334600736,-0.6144527196884155,-0.19311641156673431,-0.02368488907814026,0.04107987880706787,-0.906890332698822,-0.41935959458351135,-0.021090839058160782,-0.015900254249572754,-0.008145779371261597
1.1296501265533336,0.09486062351060474,-0.5163900138760512,-0.6199479699134827,-0.18428096175193787,-0.016057223081588745,0.04044253006577492,-0.9042628407478333,-0.4250567555427551,-0.014105834066867828,-0.022510290145874023,-0.020347177982330322
1.1236032797791293,0.0918843961541123,-0.5153667847355451,-0.582501232624054,-0.23721635341644287,-0.008257622830569744,0.03967825695872307,-0.9016644954681396,-0.43061205744743347,-0.015126843005418777,-0.02637505531311035,-0.04060971736907959
1.118143813696348,0.08812438612393415,-0.5141671067313262,-0.505011796951294,-0.29318535327911377,0.0194227397441864,0.038491539657115936,-0.8992902040481567,-0.4356552064418793,-0.008340146392583847,-0.02098262310028076,-0.08045792579650879
1.113782662775816,0.08366129884619865,-0.5125294181154008,-0.36946985125541687,-0.2993229031562805,0.05091337114572525,0.036874186247587204,-0.8973742723464966,-0.4397267997264862,0.004187237471342087,-0.020289361476898193,-0.11247333884239197
1.110912820184354,0.07885579822926779,-0.5103525601049096,-0.22145195305347443,-0.26315778493881226,0.09510137885808945,0.034963395446538925,-0.8961042165756226,-0.44246456027030945,0.009638074785470963,-0.030684173107147217,-0.1475163996219635
1.1093314176363298,0.0741100310035398,-0.5076697332235722,-0.11776736378669739,-0.20637893676757812,0.10939616709947586,0.03296805918216705,-0.8954011797904968,-0.44403815269470215,0.016302600502967834,-0.02418506145477295,-0.1311570405960083
1.1084771154827573,0.07023368342171747,-0.5052929149308627,-0.07347925752401352,-0.1422915756702423,0.08639448881149292,0.031300242990255356,-0.8950204849243164,-0.44492554664611816,-0.0018660128116607666,-0.022811055183410645,-0.08920824527740479
1.1078271326989244,0.06743353865652225,-0.5035538539570189,-0.07323291897773743,-0.11094537377357483,0.060443583875894547,0.03009345941245556,-0.8947303891181946,-0.4455918073654175,-0.01967167854309082,-0.03024226427078247,-0.05404186248779297
1.1070160385381633,0.06517225929977995,-0.5022430267289547,-0.09838993847370148,-0.10973694920539856,0.0464831218123436,0.029133029282093048,-0.8943678736686707,-0.4463827311992645,-0.01015106588602066,-0.030742108821868896,-0.02497643232345581
1.1059540109375066,0.06315114500540957,-0.50117965792804,-0.11507543921470642,-0.10366494208574295,0.03511941432952881,0.02829071134328842,-0.8938922882080078,-0.4473884403705597,0.004393644630908966,-0.02993595600128174,-0.0062400102615356445
1.104885232891737,0.06146505660775577,-0.5003622490160956,-0.10075312107801437,-0.08818604797124863,0.027533438056707382,0.027594998478889465,-0.8934126496315002,-0.4483887255191803,0.006569460034370422,-0.03273493051528931,-0.01962876319885254
1.1040356847445183,0.05997623838008483,-0.4996240110581275,-0.07132172584533691,-0.08236038684844971,0.026824768632650375,0.02697288990020752,-0.8930306434631348,-0.44918689131736755,0.012852579355239868,-0.03195720911026001,-0.03621035814285278
1.1034837442534842,0.05847257818196094,-0.4989039937532234,-0.044305235147476196,-0.08894986659288406,0.02957216650247574,0.026326237246394157,-0.8927821516990662,-0.4497189521789551,0.02399728074669838,-0.028589487075805664,-0.040728986263275146
1.103171957534129,0.0571077524780377,-0.49827006817238373,-0.02030695602297783,-0.0690842866897583,0.019854560494422913,0.025728298351168633,-0.8926416635513306,-0.450032114982605,0.026700928807258606,-0.02259582281112671,-0.03837108612060547
1.1030828324349868,0.056390983712286194,-0.49807022740302404,0.0013110889121890068,-0.035928480327129364,-0.004555050283670425,0.02541021630167961,-0.892601490020752,-0.45013004541397095,0.012935146689414978,-0.023475289344787598,-0.0335124135017395
1.1031583286380158,0.056447782661802635,-0.4983935570734744,0.015964332967996597,-0.013291078619658947,-0.02486138790845871,0.025431973859667778,-0.8926355242729187,-0.45006120204925537,0.0025679301470518112,-0.025318026542663574,-0.03233000636100769
1.1033824305125894,0.05691108912403668,-0.49905272246082655,0.0370870940387249,-0.017403515055775642,-0.028849061578512192,0.025629105046391487,-0.8927364945411682,-0.44984957575798035,0.0111446063965559,-0.020395219326019287,-0.0354255735874176
1.1039039495251781,0.057162924155858975,-0.49961060954811853,0.06765645742416382,-0.031089235097169876,-0.012401912361383438,0.025715788826346397,-0.892971396446228,-0.44937822222709656,0.025050228461623192,-0.016940772533416748,-0.04610505700111389
1.104753708733042,0.05707485056165092,-0.49982481660175804,0.10269326716661453,-0.0214279443025589,0.004208880010992289,0.02563292905688286,-0.8933535218238831,-0.44862300157546997,0.03125186264514923,-0.02048015594482422,-0.046845078468322754
1.1059297344970358,0.05687057181882445,-0.49980225722539134,0.13112224638462067,-0.018573302775621414,0.017703115940093994,0.025481542572379112,-0.8938813805580139,-0.4475788474082947,0.027100272476673126,-0.02344655990600586,-0.04106849431991577
1.1073849441779466,0.05634670190795777,-0.49949313369520704,0.16030552983283997,-0.03646326810121536,0.034140169620513916,0.02517377957701683,-0.8945327997207642,-0.4462928771972656,0.02574482560157776,-0.023481786251068115,-0.043880343437194824
1.109099035062184,0.05508283767284666,-0.49855893364742015,0.181650772690773,-0.052917346358299255,0.06913863122463226,0.024525262415409088,-0.8952977061271667,-0.44479286670684814,0.0393938347697258,-0.018230855464935303,-0.04829484224319458
1.1110701495902582,0.05298118128143279,-0.49692887668635743,0.20763160288333893,-0.08108311891555786,0.09626348316669464,0.023496897891163826,-0.8961740136146545,-0.4430801272392273,0.047258131206035614,-0.02242034673690796,-0.04918357729911804
1.1133248719704703,0.05003021032898197,-0.4947395841758936,0.23661158978939056,-0.113631471991539,0.1189861074090004,0.022088181227445602,-0.8971721529960632,-0.4411284327507019,0.046332262456417084,-0.021513819694519043,-0.053012073040008545
1.1159753323455777,0.04635833770472622,-0.4921816807661006,0.28801268339157104,-0.16609174013137817,0.13149863481521606,0.020358003675937653,-0.8983396887779236,-0.4388297498226166,0.044888608157634735,-0.01570761203765869,-0.06658703088760376
1.1191073528108368,0.04214319924735532,-0.48955049886942653,0.33426138758659363,-0.20134319365024567,0.1286170929670334,0.018389467149972916,-0.8997111916542053,-0.4360983371734619,0.036084435880184174,-0.0060659050941467285,-0.08488237857818604
1.1226998934622747,0.03786122491649793,-0.4870441814528721,0.3815748989582062,-0.19191746413707733,0.12429430335760117,0.01639948971569538,-0.9012734293937683,-0.43294039368629456,0.025440141558647156,-0.0019248723983764648,-0.0842713713645935
1.1266253524680967,0.03421568287981977,-0.4847954018294772,0.39731499552726746,-0.1242782324552536,0.10139697045087814,0.014699937775731087,-0.9029672145843506,-0.42945805191993713,0.012384443543851376,-0.0014060139656066895,-0.06253096461296082
1.130406895204981,0.03205643397637292,-0.48319133261254216,0.3559595048427582,-0.025365104898810387,0.06748755276203156,0.013663060963153839,-0.9045857191085815,-0.42607298493385315,-0.008612379431724548,-0.009309053421020508,-0.019605576992034912
1.1335182239528472,0.0313033688911984,-0.4822782556207388,0.2710619270801544,0.0266131404787302,0.04295531287789345,0.013254038989543915,-0.9059076905250549,-0.42326784133911133,-0.017190776765346527,-0.019293785095214844,0.02776011824607849
1.135687930537556,0.031286172163854015,-0.4818239026848816,0.17569296061992645,0.04067760705947876,0.024829959496855736,0.013185243122279644,-0.9068243503570557,-0.4213024377822876,-0.007844634354114532,-0.01636296510696411,0.05493903160095215
1.1370191092291564,0.03167085219110399,-0.48185169612093287,0.10697568207979202,0.029321083799004555,-0.008196965791285038,0.013309074565768242,-0.9073846340179443,-0.4200904965400696,-0.004825159907341003,-0.01003485918045044,0.05189603567123413
1.1378776636846246,0.03252969601031219,-0.4824263975302463,0.08801158517599106,0.03944322466850281,-0.023445960134267807,0.013644520193338394,-0.9077451825141907,-0.4193001687526703,-0.009661942720413208,-0.013366937637329102,0.02655428647994995
1.1387654774833202,0.03348055855290313,-0.4829596798939308,0.11563441902399063,0.04745215177536011,-0.007072579115629196,0.014016223140060902,-0.9081172943115234,-0.4184812605381012,0.0011968156322836876,-0.016260206699371338,-0.006491154432296753
1.140113920727971,0.033876049819339324,-0.4828599684380192,0.17486406862735748,0.04626087471842766,0.03155811131000519,0.014140244573354721,-0.9086810350418091,-0.4172515571117401,0.018803507089614868,-0.018198907375335693,-0.034301698207855225
1.1422003952635167,0.03330630279456275,-0.4816565319761111,0.2502818703651428,0.06606414169073105,0.0821661576628685,0.013839347288012505,-0.9095501899719238,-0.41536372900009155,0.037079259753227234,-0.016063272953033447,-0.050517529249191284
1.1449664362213723,0.03194868919554034,-0.47911442527176423,0.2948473393917084,0.1250767707824707,0.14454878866672516,0.013195023871958256,-0.9106962084770203,-0.4128662049770355,0.04115681350231171,-0.02250087261199951,-0.041830360889434814
1.1480072884313388,0.029769640622433632,-0.4749866990089152,0.29126882553100586,0.19237618148326874,0.21092940866947174,0.012212845496833324,-0.9119481444358826,-0.4101237654685974,0.03896515816450119,-0.03897964954376221,-0.00882139801979065
1.1507654614774632,0.026986313435840376,-0.4694324988427238,0.23805594444274902,0.2611008286476135,0.2545435428619385,0.011003379710018635,-0.9130763411521912,-0.407640278339386,0.03533758968114853,-0.04630482196807861,0.03659242391586304
1.1527868050439338,0.023974593269552535,-0.46306147618122406,0.14805227518081665,0.2943858206272125,0.27104395627975464,0.009731369093060493,-0.913898766040802,-0.4058256447315216,0.026584573090076447,-0.04713034629821777,0.07245177030563354
1.1538686669316736,0.020867051877234317,-0.45641772648112305,0.0562310665845871,0.292877197265625,0.2647855281829834,0.008449574932456017,-0.9143373966217041,-0.40486544370651245,0.013507851399481297,-0.045196473598480225,0.09198403358459473
1.1540671060529886,0.01807596715616051,-0.4502017431820697,-0.02389306202530861,0.2775355279445648,0.23362334072589874,0.007316241972148418,-0.9144177436828613,-0.40470558404922485,-0.007117853034287691,-0.03882932662963867,0.08907768130302429
1.1536286898687385,0.01566113958061841,-0.444832149244353,-0.06640174984931946,0.21513213217258453,0.1984127014875412,0.006345205940306187,-0.9142401814460754,-0.40512293577194214,-0.015332610346376896,-0.03111809492111206,0.06640845537185669
1.1529784231838773,0.013165987715881653,-0.44023827351746886,-0.06457961350679398,0.12709735333919525,0.16962286829948425,0.005342168267816305,-0.9139765501022339,-0.40573176741600037,-0.011003151535987854,-0.015131115913391113,0.030808210372924805
1.1525350342439324,0.010722185547144531,-0.43646215829997786,-0.025963403284549713,0.07721667736768723,0.13920588791370392,0.00435497285798192,-0.9137965440750122,-0.40614908933639526,-0.017492763698101044,-0.0015478134155273438,-0.0038086771965026855
1.152628987808784,0.008456898151508723,-0.43327277061343195,0.037212103605270386,0.05373851954936981,0.12358617782592773,0.0034341916907578707,-0.9138346910476685,-0.40607205033302307,-0.014191612601280212,0.0007944703102111816,-0.030710697174072266
1.1532838787952728,0.006101273699304017,-0.4302823235851899,0.08921074867248535,0.020180344581604004,0.11857128888368607,0.0024739764630794525,-0.9141004681587219,-0.40548020601272583,-0.008287549018859863,-0.0019151568412780762,-0.04129701852798462
1.1544536866061152,0.003612683164023156,-0.4275276834195954,0.12419403344392776,-0.014930770732462406,0.11399278044700623,0.0014610314974561334,-0.914574146270752,-0.4044155478477478,-0.00027082127053290606,0.002434253692626953,-0.031695812940597534
1.1559109826148348,0.0009459492498915689,-0.42478325088074875,0.14189712703227997,-0.013001702725887299,0.11010149121284485,0.0003812979848589748,-0.9151625633239746,-0.4030849039554596,-0.003570355474948883,0.003358304500579834,-0.011313170194625854
1.157303576081275,-0.001540210336121511,-0.4220445188992613,0.13312813639640808,0.019826814532279968,0.10778720676898956,-0.0006188719416968524,-0.9157229661941528,-0.4018096923828125,-0.013587035238742828,-0.006304621696472168,0.008606106042861938
1.158490804653333,-0.00355321631145989,-0.4195019839980671,0.10011356323957443,0.03556153550744057,0.09422706812620163,-0.0014238526346161962,-0.9161993861198425,-0.4007205069065094,-0.022181473672389984,-0.010573863983154297,0.026895463466644287
1.1593057224265308,-0.005288513846561694,-0.4173267818286182,0.06375768780708313,0.01614682376384735,0.07983427494764328,-0.0021152677945792675,-0.916525661945343,-0.39997023344039917,-0.027837708592414856,-0.008050143718719482,0.042334914207458496
1.1598381083306875,-0.0070197898744201155,-0.41529505939158295,0.04780258610844612,0.012525222264230251,0.07941924780607224,-0.002804298885166645,-0.9167384505271912,-0.39947816729545593,-0.02299828827381134,-0.004160046577453613,0.04010334610939026
