attitudeX,attitudeY,attitudeZ,gyroX,gyroY,gyroZ,gravityX,gravityY,gravityZ,accX,accY,accZ
1.25878943750312,-0.27167612586767886,0.08350074585163947,0.18595527112483978,1.0889015197753906,0.13191287219524384,-0.08237413316965103,-0.9517194628715515,-0.2957104444503784,0.17523913085460663,-0.06929194927215576,-0.10481736063957214
1.259806207938293,-0.2677819677243599,0.09080724633774907,0.13194289803504944,1.0579582452774048,0.2382984310388565,-0.08096595108509064,-0.9520310759544373,-0.29509589076042175,0.21919532120227814,-0.1142074465751648,-0.08088052272796631
1.2603316008992416,-0.2670765444390674,0.10064114167604381,0.13741764426231384,0.9359122514724731,0.3148064911365509,-0.08062577247619629,-0.9521917104721069,-0.2946705222129822,0.2824232578277588,-0.15594744682312012,-0.06035560369491577
1.261022822593462,-0.2708701690170858,0.11357869325094626,0.215560644865036,0.764230489730835,0.40949440002441406,-0.08156684041023254,-0.952402651309967,-0.29372796416282654,0.31780341267585754,-0.15620946884155273,-0.09849908947944641
1.2624422483319375,-0.2804782832060115,0.13077916416647636,0.3376414179801941,0.5824280977249146,0.5140307545661926,-0.08401087671518326,-0.9528343677520752,-0.2916313111782074,0.32708340883255005,-0.1401526927947998,-0.13271549344062805
1.264637533839484,-0.2956548401382738,0.1516388372377808,0.43176499009132385,0.36078569293022156,0.5574655532836914,-0.08781738579273224,-0.953498363494873,-0.288321316242218,0.30568236112594604,-0.130470871925354,-0.15212351083755493
1.2673572158268667,-0.31394071779935767,0.17378147060885404,0.4752298891544342,0.2163906842470169,0.5430430769920349,-0.09227342903614044,-0.9543145298957825,-0.2841997444629669,0.30623215436935425,-0.11616593599319458,-0.13386040925979614
1.2702398364737053,-0.3336082503927848,0.19632998168070828,0.49021416902542114,0.16281560063362122,0.5491584539413452,-0.09694360941648483,-0.9551718831062317,-0.2797299325466156,0.30112147331237793,-0.10728245973587036,-0.10691243410110474
1.272963835532101,-0.35492249238305895,0.22015911755154308,0.49260976910591125,0.12553444504737854,0.586186945438385,-0.1019786074757576,-0.9559747576713562,-0.2751590311527252,0.3060649037361145,-0.11323904991149902,-0.09913894534111023
1.2754632942057176,-0.3779683702282942,0.24550681797254084,0.5080252289772034,0.122742660343647,0.6153402924537659,-0.10741020739078522,-0.9567052721977234,-0.2705145478248596,0.3283269703388214,-0.10158336162567139,-0.10746076703071594
1.278147684332767,-0.4029717138381422,0.27319741032293565,0.6095020174980164,0.1776229590177536,0.6621007323265076,-0.11313219368457794,-0.9574831128120422,-0.2653813064098358,0.35043686628341675,-0.08731675148010254,-0.15489143133163452
1.2818079580072845,-0.43191370074085433,0.30536355919536,0.8130314350128174,0.19077284634113312,0.7193549871444702,-0.11929657310247421,-0.9585326910018921,-0.25881192088127136,0.3807406723499298,-0.07070326805114746,-0.23656457662582397
1.2871490932411482,-0.4663453020607312,0.3432772383968893,1.073972225189209,0.20170360803604126,0.7355118989944458,-0.12583178281784058,-0.9600411057472229,-0.24997539818286896,0.4012071490287781,-0.021343231201171875,-0.3011261820793152
1.2942651840558717,-0.5054637627189317,0.386418005046556,1.2777570486068726,0.26817557215690613,0.7033060193061829,-0.13220010697841644,-0.9620082974433899,-0.2388792335987091,0.39419353008270264,0.029589414596557617,-0.31089484691619873
1.3023649224265668,-0.5479064904557202,0.4336545955860257,1.3791133165359497,0.33525165915489197,0.6781828999519348,-0.1381532996892929,-0.9641880989074707,-0.22639603912830353,0.3768617808818817,0.06022673845291138,-0.2505020201206207
1.3103450369067693,-0.5930787584253955,0.48415376932410287,1.365716576576233,0.37191087007522583,0.679368793964386,-0.14393040537834167,-0.966273844242096,-0.21353904902935028,0.35201454162597656,0.08108097314834595,-0.16843406856060028
1.3171465830283888,-0.6398141813837037,0.5365610647677678,1.2663662433624268,0.4233967661857605,0.7071037888526917,-0.14982189238071442,-0.9680030345916748,-0.20130451023578644,0.3168903589248657,0.0812232494354248,-0.08766631782054901
1.322113658485774,-0.6865243857219472,0.5896409825411719,1.130086064338684,0.5154904723167419,0.768058717250824,-0.15600888431072235,-0.9692375063896179,-0.19036857783794403,0.31595152616500854,0.08732515573501587,-0.026626527309417725
1.3248337928074385,-0.7341336631554548,0.6443163044938687,1.0323760509490967,0.5483056902885437,0.9088026881217957,-0.16312485933303833,-0.9699034094810486,-0.1807699203491211,0.38608628511428833,0.09679543972015381,-0.01869279146194458
1.325517568964078,-0.7863165498854796,0.7036068984927656,1.0615544319152832,0.5092019438743591,1.0846335887908936,-0.17186222970485687,-0.9700696468353271,-0.1715468466281891,0.4707055985927582,0.10457581281661987,-0.04927825927734375
1.3246104987722587,-0.8455449243753903,0.7700916090505485,1.1659696102142334,0.5474898219108582,1.250850796699524,-0.1823735386133194,-0.9698489904403687,-0.16165627539157867,0.4582676887512207,0.12869304418563843,-0.09636972844600677
1.322331278526957,-0.9102127820123703,0.8427268168076711,1.268122673034668,0.6035480499267578,1.3507091999053955,-0.1941840499639511,-0.9692910313606262,-0.1508888453245163,0.4199225902557373,0.20398646593093872,-0.13243620097637177
1.318973808372655,-0.9766054882625838,0.9179803064238041,1.3404297828674316,0.7021152377128601,1.3629798889160156,-0.20646250247955322,-0.9684599041938782,-0.13949482142925262,0.3721119165420532,0.2767484188079834,-0.13028043508529663
1.3148890149727923,-1.0415644054662476,0.9929418440048114,1.4003021717071533,0.813913106918335,1.322601079940796,-0.21849514544010162,-0.9674340486526489,-0.12779468297958374,0.31435084342956543,0.3149223327636719,-0.10993707180023193
1.3102781871220566,-1.103557915973189,1.0662053864331196,1.4329904317855835,0.9624180197715759,1.2645809650421143,-0.2299729585647583,-0.9662566184997559,-0.1160205751657486,0.2592850923538208,0.3337644934654236,-0.09032392501831055
1.3051081667646722,-1.1603040814756973,1.1362179442664821,1.408226490020752,1.2127761840820312,1.2095164060592651,-0.24076054990291595,-0.9649120569229126,-0.10478298366069794,0.20641297101974487,0.34795325994491577,-0.04348655045032501
1.2993680076698508,-1.208915187005601,1.2008706645099416,1.322269082069397,1.5290601253509521,1.140467643737793,-0.25074324011802673,-0.9633889198303223,-0.0949193611741066,0.14300090074539185,0.349726140499115,0.01485663652420044
1.293381207537397,-1.247206057691783,1.2583951098896293,1.2118051052093506,1.875044345855713,1.0332458019256592,-0.25965654850006104,-0.9617666006088257,-0.08708328008651733,0.08495867252349854,0.3440755605697632,0.06350857764482498
1.2876437397000182,-1.2757039622628739,1.3094210270703388,1.1241436004638672,2.216439962387085,0.9126354455947876,-0.26730796694755554,-0.9601794481277466,-0.08125282824039459,0.04578089714050293,0.3465319275856018,0.052963145077228546
1.2823853656374262,-1.2954694509219589,1.3546652323902137,1.02335786819458,2.4817798137664795,0.8153717517852783,-0.2737169563770294,-0.9586970806121826,-0.07732546329498291,0.028462380170822144,0.3558374047279358,0.027246229350566864
1.277308430490984,-1.3082052216114857,1.3946780118345292,0.9079877138137817,2.6011273860931396,0.777180016040802,-0.2793762683868408,-0.9572407007217407,-0.0750957652926445,0.03172609210014343,0.36904478073120117,0.01738715171813965
1.2718233081941106,-1.315137609733424,1.4289846667381887,0.7337666749954224,2.538543462753296,0.7970359921455383,-0.28496599197387695,-0.9556394815444946,-0.0744839459657669,0.042198628187179565,0.35786110162734985,0.0028440356254577637
1.2654736064897858,-1.3163612199776424,1.4561744797038163,0.5006217360496521,2.397120952606201,0.8344739079475403,-0.2909235954284668,-0.9537500143051147,-0.07566095888614655,0.015258252620697021,0.3317253589630127,0.03186839818954468
1.2582706230536218,-1.3110297223295522,1.4751026814569614,0.24417667090892792,2.257277250289917,0.8311756253242493,-0.29714760184288025,-0.9515600204467773,-0.07897340506315231,-0.04496970772743225,0.29671382904052734,0.06171584874391556
1.250828064548487,-1.2996552740770813,1.485896643148881,0.01486287359148264,2.044236660003662,0.778149425983429,-0.3030453026294708,-0.9492453932762146,-0.08424264192581177,-0.14597511291503906,0.2493399977684021,0.059538789093494415
1.2432238394540351,-1.2845879374098772,1.490038169108586,-0.1748761683702469,1.7397968769073486,0.753484308719635,-0.30865755677223206,-0.946826159954071,-0.09083426743745804,-0.3109256327152252,0.1857481598854065,0.03788643330335617
1.2352933643626638,-1.2680725372608646,1.4892884053344972,-0.3268163800239563,1.4113645553588867,0.7448800206184387,-0.31427285075187683,-0.9442448019981384,-0.0981547012925148,-0.5004397034645081,0.10006755590438843,0.0062664225697517395
1.2273794304625043,-1.2510894152727348,1.4849641225227632,-0.41972023248672485,1.1625442504882812,0.6661058664321899,-0.31964483857154846,-0.9416096806526184,-0.10582295060157776,-0.6923485994338989,0.009968996047973633,-0.012081563472747803
1.219931183403307,-1.235888688924513,1.479255836482523,-0.4022912085056305,0.7612062692642212,0.6232911348342896,-0.32461416721343994,-0.9390757083892822,-0.11297143250703812,-0.9201062917709351,-0.06150412559509277,-0.04134058207273483
1.212877637810791,-1.2261418213603847,1.4743072841725184,-0.39286839962005615,0.26057007908821106,0.5889863967895508,-0.3297237157821655,-0.936627984046936,-0.11836503446102142,-1.151248574256897,-0.21921002864837646,-0.10885345190763474
1.2064611488344965,-1.2218385090017794,1.4697149054920873,-0.3316018879413605,-0.2601495385169983,0.49780774116516113,-0.33485206961631775,-0.9343608617782593,-0.12183522433042526,-1.3319875001907349,-0.2936817407608032,-0.10933529585599899
1.201553401751175,-1.223662630499837,1.466690177164381,-0.20105504989624023,-0.6479273438453674,0.3396926820278168,-0.33938226103782654,-0.9326008558273315,-0.12278295308351517,-1.4956245422363281,-0.322617769241333,-0.1034284234046936
1.1989412919342166,-1.2300801422822092,1.4652917209911887,-0.07143320143222809,-0.8609104156494141,0.10876988619565964,-0.34245800971984863,-0.9316549301147461,-0.12141605466604233,-1.6215159893035889,-0.3699045777320862,-0.08820909261703491
1.1991674593363824,-1.2372129518177413,1.4639792337557664,-0.0074361092410981655,-0.7735525965690613,-0.19732853770256042,-0.3431161344051361,-0.9317370653152466,-0.11890126764774323,-1.728325605392456,-0.3659009337425232,-0.014002680778503418
1.2028564656793803,-1.241062297142281,1.4609445972111388,0.041402362287044525,-0.5475826859474182,-0.5686256289482117,-0.3403169810771942,-0.9330703616142273,-0.11646590381860733,-1.776016116142273,-0.33128821849823,0.04421567916870117
1.2101713454281737,-1.240915405347175,1.4561340293612133,0.10973720997571945,-0.33340248465538025,-0.9127052426338196,-0.3338331878185272,-0.9356764554977417,-0.11430175602436066,-1.755293369293213,-0.313301146030426,0.029432490468025208
1.2206001079796214,-1.237830276888938,1.4495397435407864,0.13478508591651917,-0.29646530747413635,-1.19723641872406,-0.32423898577690125,-0.9393054246902466,-0.11213555186986923,-1.6451671123504639,-0.26568108797073364,-0.027375437319278717
1.233880822623078,-1.233964416360762,1.4424045530642762,0.2944573163986206,-0.2780569791793823,-1.4626390933990479,-0.31200113892555237,-0.9437788128852844,-0.10925541818141937,-1.50483238697052,-0.1876145601272583,-0.10332994163036346
1.2502560076111793,-1.2325102060646758,1.4376688961379676,0.5029504895210266,-0.3329598307609558,-1.7118488550186157,-0.29722240567207336,-0.9490653276443481,-0.10456572473049164,-1.381091833114624,-0.10121244192123413,-0.2165248990058899
1.2694425123319726,-1.236239917810771,1.436472903933145,0.6827495098114014,-0.6674792170524597,-1.9165188074111938,-0.2803570032119751,-0.9549355506896973,-0.09745877981185913,-1.246208667755127,-0.02536541223526001,-0.3177632689476013
1.2910257002916052,-1.2477098472633104,1.4398117851552692,0.8890126347541809,-1.0062005519866943,-2.0986404418945312,-0.2618480920791626,-0.9611188173294067,-0.08767154812812805,-1.0852130651474,0.05505186319351196,-0.4113975167274475
1.3149889986269108,-1.268907465784545,1.449526584926969,1.057854175567627,-1.332444429397583,-2.2837109565734863,-0.2415839284658432,-0.9674593210220337,-0.07523094117641449,-0.9938133955001831,0.1519380807876587,-0.43116235733032227
1.3409644029943735,-1.2994147345328395,1.4658096380149552,1.1419706344604492,-1.594943881034851,-2.4679579734802246,-0.21947632730007172,-0.9737046957015991,-0.06106843799352646,-0.9060119390487671,0.23562180995941162,-0.4067201614379883
1.3687281487838707,-1.3377536891569883,1.4873906514071307,1.119286298751831,-1.8392242193222046,-2.657195568084717,-0.19527098536491394,-0.9796535968780518,-0.04634856432676315,-0.8212847709655762,0.281075656414032,-0.3615339994430542
1.3977624284656716,-1.381838905635621,1.5126555352669335,1.0052567720413208,-1.98276948928833,-2.797075033187866,-0.16910766065120697,-0.9850669503211975,-0.03233996778726578,-0.7489526271820068,0.33719396591186523,-0.28342533111572266
1.4275977572714031,-1.4296923756826951,1.5406352185841534,0.8342543244361877,-2.04121994972229,-2.924747943878174,-0.14129216969013214,-0.9897645711898804,-0.020070262253284454,-0.6456952095031738,0.3935120105743408,-0.2035014033317566
1.4582666519500032,-1.4798796609722602,1.5704961709633454,0.6246878504753113,-2.0438756942749023,-3.059126853942871,-0.1118297427892685,-0.9936752319335938,-0.01019529439508915,-0.5714588165283203,0.448844850063324,-0.15496569871902466
1.4899047375097179,-1.5343542665310748,1.6053266705793883,0.4554274380207062,-1.8848274946212769,-3.1912431716918945,-0.08075066655874252,-0.9967300295829773,-0.002944024046882987,-0.5366352200508118,0.4992782473564148,-0.13188248872756958
1.5226191749135571,-1.6266496925434306,1.6802193112111936,0.46857523918151855,-1.604288935661316,-3.3397512435913086,-0.048084475100040436,-0.9988396763801575,0.0026884758844971657,-0.47523096203804016,0.563277542591095,-0.17018401622772217
1.5547027597524534,-2.136198285762468,2.175257258843453,0.6339527368545532,-1.3380581140518188,-3.530456781387329,-0.013600311242043972,-0.9998704791069031,0.00862940400838852,-0.38558489084243774,0.6558151841163635,-0.2880939245223999
1.5425715835714535,2.1784020918597737,-2.1517990837075605,0.8726732134819031,-1.1991403102874756,-3.7628157138824463,0.02317257598042488,-0.9996017217636108,0.01611330732703209,-0.2850134074687958,0.7505171895027161,-0.39431750774383545
1.503966674724018,1.9618930770559584,-1.946735159055596,1.0838490724563599,-1.1232380867004395,-3.8730831146240234,0.06173818185925484,-0.9977677464485168,0.025456970557570457,-0.17984120547771454,0.8289597034454346,-0.4605001211166382
1.4634132921538758,1.9140555249947655,-1.9099099832873583,1.2103787660598755,-1.1060352325439453,-3.89211368560791,0.10092410445213318,-0.9942399859428406,0.03607109561562538,0.007001310586929321,0.8800585269927979,-0.47784340381622314
1.422701970151609,1.8945479202723543,-1.9015906755064467,1.2312464714050293,-1.1475908756256104,-3.836012601852417,0.1398874819278717,-0.9890540838241577,0.0469403900206089,0.1549122929573059,0.8511146903038025,-0.46966981887817383
1.383185777958711,1.8792397347648027,-1.8982891447502048,1.0962380170822144,-1.2698984146118164,-3.684443712234497,0.17771032452583313,-0.9824526906013489,0.05662064999341965,0.28543972969055176,0.7929384708404541,-0.41987133026123047
1.3461851378615488,1.85844504188272,-1.8911486276354939,0.7795552015304565,-1.4893131256103516,-3.4795584678649902,0.21357718110084534,-0.9748807549476624,0.06318764388561249,0.45268261432647705,0.7469600439071655,-0.3230447769165039
1.311997364587026,1.82900051225818,-1.8772030888757243,0.4274865388870239,-1.6626168489456177,-3.272676944732666,0.2474363148212433,-0.9666980504989624,0.065347820520401,0.5806429386138916,0.6967242360115051,-0.22452735900878906
1.280110255987618,1.7956718252235024,-1.8597960929762636,0.20596905052661896,-1.6045780181884766,-3.139841318130493,0.27939358353614807,-0.9580474495887756,0.06390970200300217,0.6390177011489868,0.6579070091247559,-0.1940213441848755
1.2489777996726528,1.7664297036449637,-1.8447622471709864,0.24038246273994446,-1.3570895195007324,-3.1319706439971924,0.3102591037750244,-0.9486618041992188,0.061483416706323624,0.6580026149749756,0.6416397094726562,-0.25211143493652344
1.2173104059606354,1.7481954720859665,-1.8383761492790966,0.5436544418334961,-1.08004891872406,-3.1437137126922607,0.34073761105537415,-0.9381716847419739,0.06108873710036278,0.7048404216766357,0.6252749562263489,-0.35343170166015625
1.185398505052245,1.7438817764268153,-1.8441136208975295,0.9801773428916931,-0.8452783226966858,-3.0278854370117188,0.37031111121177673,-0.9266489744186401,0.06474330276250839,0.8346297144889832,0.6026437878608704,-0.41860973834991455
1.1546601311422353,1.7523835032490673,-1.8610403028964244,1.3828589916229248,-0.5483110547065735,-2.757641553878784,0.3975837528705597,-0.9146576523780823,0.07300025224685669,1.0288841724395752,0.5422362089157104,-0.38249409198760986
1.126399133124614,1.770596091021745,-1.8851396219450756,1.6326924562454224,-0.18185493350028992,-2.383610248565674,0.42136135697364807,-0.9028699994087219,0.08532634377479553,1.2193857431411743,0.43628668785095215,-0.2664632797241211
1.1015490226559552,1.7948872867218932,-1.9124055576111232,1.7249318361282349,0.13428731262683868,-1.9506336450576782,0.4409082233905792,-0.8919089436531067,0.10049132257699966,1.3508551120758057,0.2995474338531494,-0.13340437412261963
1.0807339401938472,1.8211376388227536,-1.9394089489693302,1.6429672241210938,0.3071631193161011,-1.4977927207946777,0.45600876212120056,-0.8823034763336182,0.11660396307706833,1.474746823310852,0.15755689144134521,0.021671399474143982
1.0645399869843675,1.845959295752119,-1.9637593004920466,1.4154350757598877,0.36214619874954224,-1.0122885704040527,0.46666470170021057,-0.8745659589767456,0.1317509114742279,1.5774025917053223,0.06099790334701538,0.17189906537532806
1.053818383112344,1.8669566422036852,-1.9839660140849937,1.0665154457092285,0.3004332482814789,-0.47949352860450745,0.47273746132850647,-0.869316816329956,0.1442483365535736,1.6534374952316284,-0.004309892654418945,0.29773783683776855
1.0491759273833217,1.8829963423029388,-1.999596692416385,0.6817989349365234,0.19627037644386292,0.056864961981773376,0.4741990268230438,-0.8670129179954529,0.15305009484291077,1.6928542852401733,-0.055075883865356445,0.40996885299682617
1.0506044078907826,1.8944164906469025,-2.011012296993399,0.3157755732536316,0.10684281587600708,0.5544043779373169,0.4712451696395874,-0.867723822593689,0.15806128084659576,1.668662667274475,-0.059232354164123535,0.4611252546310425
1.0572995657965094,1.902252299113776,-2.0192447547425507,0.029054084792733192,0.034051962196826935,0.9573712348937988,0.46448853611946106,-0.8710321187973022,0.15985487401485443,1.6109204292297363,-0.049088120460510254,0.4771233797073364
1.0684154941440367,1.9075764861741522,-2.025067810427118,-0.2194073647260666,0.027234498411417007,1.3219197988510132,0.4544641375541687,-0.8764386177062988,0.15911619365215302,1.539798617362976,-0.023250162601470947,0.4761378765106201
1.0837768243365957,1.9119173973797543,-2.0290733608806506,-0.435110867023468,0.15148454904556274,1.694779396057129,0.44102829694747925,-0.8837316632270813,0.15656448900699615,1.4771997928619385,0.008090794086456299,0.4814361333847046
1.103229311838552,1.9175905276807728,-2.0323173924576525,-0.5832421183586121,0.4238456189632416,2.0499823093414307,0.4238837659358978,-0.8926675319671631,0.1531914919614792,1.4072930812835693,0.03829723596572876,0.47746968269348145
1.1261466769645163,1.9273776036779002,-2.0363410293995234,-0.648252546787262,0.8188299536705017,2.3504185676574707,0.40308430790901184,-0.9027613997459412,0.1501508355140686,1.327003002166748,0.06987547874450684,0.4218097925186157
1.151692495115533,1.9437192565993717,-2.04319438424217,-0.6225919127464294,1.18479585647583,2.6114680767059326,0.37897151708602905,-0.913453996181488,0.14826489984989166,1.2585864067077637,0.10750001668930054,0.3237506151199341
1.1794516100081798,1.968870045929797,-2.0560606419865772,-0.5155805349349976,1.465590000152588,2.907829999923706,0.3516072928905487,-0.9243969917297363,0.14785946905612946,1.228623390197754,0.1578717827796936,0.2034132331609726
1.2096997233325022,2.0061813354094604,-2.0789038101640887,-0.39384710788726807,1.7339825630187988,3.2920444011688232,0.3203400671482086,-0.935509979724884,0.14900775253772736,1.2500791549682617,0.2112210988998413,0.10303696990013123
1.2426125809109776,2.059150461327465,-2.115349506229862,-0.3410012125968933,1.9815300703048706,3.6662914752960205,0.2846471071243286,-0.9466293454170227,0.15122614800930023,1.2517908811569214,0.2629286050796509,0.04654325544834137
1.2776368971122556,2.1306137026453977,-2.1681185008941637,-0.37548738718032837,2.25113844871521,3.978818893432617,0.2448669672012329,-0.9573356509208679,0.1534569412469864,1.1954864263534546,0.3291311264038086,0.02917565405368805
1.313908721326413,2.227093073377138,-2.243384070909675,-0.4060671329498291,2.5312936305999756,4.282852649688721,0.20129013061523438,-0.9671854376792908,0.1550312489271164,1.1350288391113281,0.38883155584335327,0.0018750280141830444
1.350051349627948,2.361825762180392,-2.355016254829991,-0.4131162464618683,2.682837963104248,4.5929436683654785,0.15395191311836243,-0.9757345914840698,0.15569564700126648,1.0869081020355225,0.4440419673919678,-0.08387242257595062
1.3834673843286058,2.5540899149268044,-2.5233486359114563,-0.45115789771080017,2.7761197090148926,4.857016086578369,0.10322815179824829,-0.982505202293396,0.15501005947589874,1.0247931480407715,0.5153418183326721,-0.13936957716941833
1.4099379589596932,2.823605597592064,-2.768173069507518,-0.5820215344429016,2.8791708946228027,5.002305507659912,0.05007655546069145,-0.9870901703834534,0.15213583409786224,0.9507779479026794,0.5857840776443481,-0.14584900438785553
1.4241743570235001,-3.114271529818456,-3.0875068077863754,-0.7918080687522888,3.0394818782806396,4.990688323974609,-0.003991070669144392,-0.9892702698707581,0.14604368805885315,0.8171929717063904,0.667935311794281,-0.1332871913909912
1.4227517864658048,-2.74184251019103,2.8512108000263843,-1.0601063966751099,3.2705252170562744,4.8647356033325195,-0.05740688741207123,-0.9890614151954651,0.1358747035264969,0.6735415458679199,0.7442799806594849,-0.12317921221256256
1.406764476279671,-2.408522630281821,2.548381859334748,-1.2776488065719604,3.5181214809417725,4.715332984924316,-0.10927143692970276,-0.9865769147872925,0.1213504746556282,0.5824922323226929,0.7987564206123352,-0.14968585968017578
1.3798033412697315,-2.147555870067167,2.319844107283186,-1.334661841392517,3.633927583694458,4.561128616333008,-0.15912553668022156,-0.9818162322044373,0.10351861268281937,0.5219795107841492,0.8573044538497925,-0.2587308883666992
1.345844674350906,-1.9573928474558189,2.162928239426381,-1.2404727935791016,3.6566624641418457,4.415563106536865,-0.206597238779068,-0.9748048782348633,0.08410199731588364,0.4731987714767456,0.9109468460083008,-0.40893101692199707
1.3081368579015376,-1.821260085922267,2.060737347340953,-1.077567219734192,3.708515167236328,4.272401332855225,-0.25154826045036316,-0.9657028913497925,0.06435509026050568,0.41603800654411316,0.9295547604560852,-0.5205774307250977
1.2687817496423812,-1.7210271757225637,1.9953554974114258,-0.9249457716941833,3.7396061420440674,4.1465277671813965,-0.29409414529800415,-0.9547392129898071,0.04451742768287659,0.33985522389411926,0.9429441094398499,-0.5830914974212646
1.2289198876149843,-1.6442611942808427,1.9535388015829522,-0.8146125674247742,3.6322031021118164,4.051426410675049,-0.33435148000717163,-0.9421272277832031,0.024607371538877487,0.26706019043922424,0.9454078078269958,-0.6092324256896973
1.1889168373033048,-1.583368526573782,1.926349986864974,-0.7726121544837952,3.432894468307495,4.001062393188477,-0.3726363182067871,-0.9279658794403076,0.004685105290263891,0.18292373418807983,0.912783145904541,-0.6127018928527832
1.1489494076404088,-1.5327331610872705,1.9075262943709885,-0.8029580116271973,3.2011427879333496,3.9427311420440674,-0.4091498851776123,-0.9123342633247375,-0.01558106578886509,0.07807990908622742,0.8855855464935303,-0.5899943709373474
1.109611640016524,-1.489341517318679,1.8935808986015743,-0.8545666337013245,2.936835765838623,3.79934024810791,-0.4435339570045471,-0.8955259323120117,-0.03620808944106102,-0.06989380717277527,0.8674802184104919,-0.5714425444602966
1.0718367986616963,-1.4513069743730886,1.882458088642827,-0.9214540123939514,2.6714584827423096,3.5810866355895996,-0.47510039806365967,-0.8780809044837952,-0.057041168212890625,-0.3151217997074127,0.8267045021057129,-0.5654104948043823
1.0362482965740676,-1.4175418268144342,1.8726898059918633,-1.003459095954895,2.3636882305145264,3.314387798309326,-0.5034813284873962,-0.8604989647865295,-0.07777059823274612,-0.565778374671936,0.779154360294342,-0.5504336357116699
1.0032195835699957,-1.387281004782844,1.8628081971791357,-1.1222914457321167,1.9721813201904297,2.995194911956787,-0.5285633206367493,-0.8432061672210693,-0.09810325503349304,-0.7848827242851257,0.7441460490226746,-0.52045738697052
0.9732162783706878,-1.360686198598651,1.8517180259380361,-1.2431838512420654,1.4769843816757202,2.629509925842285,-0.5502700209617615,-0.8266996145248413,-0.11734925210475922,-1.0871202945709229,0.684197723865509,-0.5065977573394775
0.9464106657089624,-1.3378391073701676,1.8388203085352195,-1.3736519813537598,0.9734342098236084,2.263767957687378,-0.5688077211380005,-0.8113223910331726,-0.13495808839797974,-1.4283541440963745,0.5834477543830872,-0.4815731644630432
0.9226337677575324,-1.3185519652559756,1.8238482749450142,-1.4806476831436157,0.477483332157135,1.9115134477615356,-0.5846176147460938,-0.7971944212913513,-0.15067583322525024,-1.6979293823242188,0.4800710678100586,-0.4324844479560852
0.9019877549785611,-1.3031203278364178,1.8075240413961864,-1.4899886846542358,0.0313163623213768,1.546419620513916,-0.597970724105835,-0.7845609784126282,-0.163998082280159,-1.928320288658142,0.38417017459869385,-0.39209312200546265
0.8851380478071152,-1.2914520637367117,1.7908448455344212,-1.4197393655776978,-0.2678455710411072,1.1136589050292969,-0.6086384057998657,-0.7740024328231812,-0.17458458244800568,-2.164646625518799,0.3153384327888489,-0.39755886793136597
0.8730439375216555,-1.2815729088209638,1.773987104734987,-1.3073480129241943,-0.3163953125476837,0.5875447988510132,-0.6158112287521362,-0.7662882208824158,-0.18324525654315948,-2.3854246139526367,0.29227399826049805,-0.38863879442214966
0.866502025374093,-1.2713136660852047,1.7572936271766815,-1.1121697425842285,-0.16043688356876373,0.04655267298221588,-0.618675708770752,-0.7620686888694763,-0.1910281777381897,-2.491462230682373,0.30131423473358154,-0.39193373918533325
0.8655821620532963,-1.2604043119497204,1.7420670994359628,-0.8102737665176392,0.015669647604227066,-0.4728078544139862,-0.6172223687171936,-0.761472761631012,-0.1979801207780838,-2.463191509246826,0.33793437480926514,-0.47690078616142273
0.8707684198267766,-1.2496432527574899,1.728648584746625,-0.5122199654579163,0.0657447949051857,-1.04742431640625,-0.611300528049469,-0.7648242115974426,-0.20336109399795532,-2.382290840148926,0.3696826100349426,-0.6023028492927551
0.8824417118647877,-1.2400057960378907,1.7162851227162081,-0.23738835752010345,-0.05586744099855423,-1.666003704071045,-0.6008269190788269,-0.7722923159599304,-0.20632900297641754,-2.25886869430542,0.4091483950614929,-0.6951601505279541
0.9008027823215586,-1.2327645536953311,1.7046263916417006,0.06630867719650269,-0.3248448669910431,-2.2675087451934814,-0.5858393311500549,-0.783825695514679,-0.2059365212917328,-2.069952964782715,0.4564635753631592,-0.789882481098175
0.9256484680493596,-1.229856586899195,1.6943962278557043,0.4136647880077362,-0.7165231704711914,-2.80593204498291,-0.5667055249214172,-0.7990108728408813,-0.20106403529644012,-1.84126877784729,0.4893031716346741,-0.9091195464134216
0.9563288619225749,-1.2329333155899636,1.686821902615526,0.7864567637443542,-1.1090859174728394,-3.2393524646759033,-0.543929934501648,-0.817080557346344,-0.19110125303268433,-1.589721918106079,0.5011473298072815,-0.9999081492424011
0.9916324496862096,-1.2429335915493462,1.6833159762520604,1.1405670642852783,-1.4583756923675537,-3.5172250270843506,-0.5181699991226196,-0.8369205594062805,-0.17624962329864502,-1.33430814743042,0.4925907254219055,-1.0397231578826904
1.0297756618929716,-1.2608465652306577,1.6851632833246737,1.4184197187423706,-1.7986406087875366,-3.6264212131500244,-0.4904703199863434,-0.8571834564208984,-0.15708397328853607,-1.081459641456604,0.46417808532714844,-1.0279134511947632
1.0692406181022036,-1.2869866882502718,1.6926507869917096,1.5803930759429932,-2.110624074935913,-3.680734872817993,-0.461556613445282,-0.8768356442451477,-0.13462845981121063,-0.8774021863937378,0.4419448971748352,-0.9729306101799011
1.1095041233865,-1.3204173756799225,1.7051081264492067,1.6374621391296387,-2.340059280395508,-3.7597815990448,-0.4312267601490021,-0.8954780697822571,-0.11028435826301575,-0.7373218536376953,0.4432380199432373,-0.8904479146003723
1.15036827035751,-1.3602158379206244,1.7221804483738703,1.6342639923095703,-2.5125513076782227,-3.8371105194091797,-0.39913517236709595,-0.9129143357276917,-0.08531489968299866,-0.6244702339172363,0.4498252868652344,-0.8195311427116394
1.191653997192448,-1.4074049761362442,1.7451122753913648,1.6486639976501465,-2.6858391761779785,-3.922744035720825,-0.365194708108902,-0.9289824366569519,-0.06020638346672058,-0.5093322992324829,0.4751400947570801,-0.7880143523216248
1.233619922349741,-1.4654558473080197,1.7774553422221007,1.7233399152755737,-2.834474563598633,-4.073791980743408,-0.3289903700351715,-0.9436925649642944,-0.03478476405143738,-0.40901628136634827,0.5444462299346924,-0.7978109121322632
1.2765635479505677,-1.540408696863232,1.8260611253301842,1.8580111265182495,-2.8859291076660156,-4.269786834716797,-0.2898723781108856,-0.9570249319076538,-0.00881124660372734,-0.35069164633750916,0.6319515109062195,-0.8321768045425415
1.3202932314370708,-1.6446124624986909,1.9036793064459567,2.129014253616333,-2.985835075378418,-4.525905132293701,-0.2472168207168579,-0.9687878489494324,0.018281806260347366,-0.274465948343277,0.7126537561416626,-0.8785111904144287
1.3623838980274854,-1.8023732161717192,2.0342875028851886,2.4408562183380127,-3.0992746353149414,-4.6365742683410645,-0.2013840526342392,-0.978360652923584,0.047487832605838776,-0.1683364063501358,0.8134893774986267,-0.959429144859314
1.397545792326489,-2.043778389171925,2.2477906763425968,2.7108688354492188,-3.224231243133545,-4.681919574737549,-0.15345948934555054,-0.9850296378135681,0.07852876931428909,-0.002927839756011963,0.8956284523010254,-0.9648659229278564
1.4184201756609078,-2.3881738890128306,2.563129775207141,2.9136857986450195,-3.3830208778381348,-4.702813148498535,-0.10384396463632584,-0.9884132146835327,0.11070753633975983,0.12723565101623535,0.9152776598930359,-0.9144793748855591
1.418100042650701,-2.7857245781414135,2.930015629509048,2.9442622661590576,-3.5644142627716064,-4.652835369110107,-0.05299360305070877,-0.988364577293396,0.14257365465164185,0.2722166180610657,0.9400705099105835,-0.8347580432891846
1.3975278499040609,-3.131837085547313,-3.039609185875028,2.866058588027954,-3.725921869277954,-4.540035247802734,-0.00168186379596591,-0.9850265383720398,0.17239491641521454,0.3837466835975647,0.9351913332939148,-0.7117319107055664
1.3643626981334671,2.898754209441569,-2.82096040802946,2.7035605907440186,-3.804152011871338,-4.392192840576172,0.04928697273135185,-0.9787681102752686,0.19895662367343903,0.46368297934532166,0.9176567196846008,-0.6076173782348633
1.3254764520930369,2.718651144900486,-2.6756888450218455,2.4895734786987305,-3.8751707077026367,-4.278231620788574,0.09968341886997223,-0.9700596928596497,0.22146686911582947,0.5251487493515015,0.9143955707550049,-0.5342565774917603
1.2840467669244175,2.5818589256690645,-2.5749168424520645,2.3091654777526855,-4.019039630889893,-4.294180393218994,0.15017499029636383,-0.9591682553291321,0.23967459797859192,0.5488454103469849,0.9489753842353821,-0.50102698802948
1.23997911510043,2.4696579802897203,-2.5001707447609993,2.2542662620544434,-4.129735469818115,-4.491980075836182,0.20219877362251282,-0.9457772374153137,0.2542076110839844,0.5367996692657471,1.0200568437576294,-0.5052603483200073
1.1922817160998405,2.3749426372863427,-2.443351207457209,2.322458028793335,-4.113066673278809,-4.730607509613037,0.2563604414463043,-0.929214596748352,0.2661578357219696,0.5581232309341431,1.0976104736328125,-0.5097336769104004
1.1408500395961212,2.297064803141483,-2.4026975237899832,2.485757827758789,-3.92691707611084,-4.850668430328369,0.31164029240608215,-0.9089881181716919,0.2768051028251648,0.6716055870056152,1.1095649003982544,-0.46665480732917786
1.0871823171291488,2.2365886206744903,-2.377198410657988,2.6355631351470947,-3.5333750247955322,-4.7696533203125,0.36567461490631104,-0.885320246219635,0.2872111201286316,0.8430503606796265,1.0460867881774902,-0.34275296330451965
1.0342096136193306,2.191647812818164,-2.363280382994942,2.5780467987060547,-2.993736982345581,-4.47201681137085,0.41580629348754883,-0.8594585657119751,0.2973826825618744,1.0301775932312012,0.9254985451698303,-0.14894509315490723
0.9851099388715446,2.1578316269622895,-2.355625973371877,2.290032386779785,-2.4582834243774414,-4.034060955047607,0.4602302610874176,-0.833332896232605,0.3061775267124176,1.1705070734024048,0.7579849362373352,0.08661437034606934
0.9417039541542663,2.1313835186481347,-2.3502648947727325,1.891150712966919,-1.94010591506958,-3.5750515460968018,0.4983506500720978,-0.8085619211196899,0.3128485083580017,1.2340102195739746,0.6073443293571472,0.28953811526298523
0.9036434235606498,2.110046891508513,-2.345114637425121,1.5625730752944946,-1.5114712715148926,-3.235441207885742,0.5309469699859619,-0.7855864763259888,0.31772470474243164,1.286344289779663,0.5323975086212158,0.363565057516098
0.8694940656187801,2.0927035888442527,-2.3401562502900326,1.3531272411346436,-1.1838867664337158,-2.945675849914551,0.5593160390853882,-0.7640026211738586,0.3216610550880432,1.3367258310317993,0.5037639737129211,0.3397008180618286
0.8390001150402884,2.0794767425420253,-2.336260852570823,1.1987804174423218,-0.8683611154556274,-2.5871572494506836,0.5836040377616882,-0.7439753413200378,0.3254336714744568,1.431257963180542,0.4447810649871826,0.32367536425590515
0.8127403587102014,2.070451997991997,-2.333721418391288,1.0254727602005005,-0.5625380873680115,-2.1563546657562256,0.6034612059593201,-0.7261739373207092,0.3294025957584381,1.5388269424438477,0.3798147439956665,0.34871336817741394
0.7917349059634947,2.0653537662139865,-2.332246681554642,0.7792166471481323,-0.2439100295305252,-1.6042553186416626,0.6184244155883789,-0.7115733027458191,0.33348938822746277,1.6451711654663086,0.2787882089614868,0.4013591408729553
0.7775587977507917,2.063700295155991,-2.3312618993862055,0.42385560274124146,0.04193823039531708,-0.9412968754768372,0.627798855304718,-0.7015418410301208,0.3372058868408203,1.7642147541046143,0.14033889770507812,0.4758741557598114
0.7714122288499029,2.064300484810726,-2.3300688190905223,-0.001581371296197176,0.23482611775398254,-0.21450918912887573,0.631382167339325,-0.6971483826637268,0.3396190106868744,1.8504599332809448,0.04652887582778931,0.5514181852340698
0.7738261211605209,2.0661273088223266,-2.328176950473673,-0.46334153413772583,0.3919054865837097,0.5024635791778564,0.6292779445648193,-0.6988769769668579,0.33997079730033875,1.8915655612945557,-0.024404823780059814,0.5964765548706055
0.7844510244440307,2.0687728954731774,-2.325193925915221,-0.9143863320350647,0.5528300404548645,1.1468552350997925,0.6218172907829285,-0.7064367532730103,0.338068425655365,1.8655483722686768,-0.041350603103637695,0.6066948175430298
0.8024944411266275,2.0719666483505237,-2.321062188343646,-1.3074190616607666,0.6598635315895081,1.7240941524505615,0.609455406665802,-0.7190917730331421,0.3338737189769745,1.8250997066497803,-0.025216758251190186,0.5733225345611572
0.8269700932575805,2.075244698762598,-2.3162487849477214,-1.6073631048202515,0.6891858577728271,2.2240817546844482,0.5927687883377075,-0.7358831763267517,0.3272632360458374,1.76439368724823,0.003522336483001709,0.49900028109550476
0.8567677253517036,2.079172671612662,-2.311632293138331,-1.7924002408981323,0.796787679195404,2.663422107696533,0.5720644593238831,-0.7557297348976135,0.3187709152698517,1.6744413375854492,0.059822142124176025,0.39914000034332275
0.8907991562785897,2.086144115322387,-2.308507303065708,-1.861412525177002,1.0928750038146973,3.053046464920044,0.5471245646476746,-0.7775744795799255,0.30989184975624084,1.5785773992538452,0.10220509767532349,0.2924032509326935
0.9280062805869606,2.099383264914436,-2.3086939723255,-1.8021612167358398,1.5220117568969727,3.3845794200897217,0.5176210403442383,-0.8004264235496521,0.3023012578487396,1.4787626266479492,0.12710189819335938,0.17151471972465515
0.967398022945676,2.121350160974478,-2.31432247620758,-1.6658140420913696,1.9424896240234375,3.6923584938049316,0.4835955500602722,-0.8234120011329651,0.2968635857105255,1.404282808303833,0.15559589862823486,0.04975518584251404
1.0086249952037396,2.15405757185146,-2.327444874803816,-1.5375580787658691,2.396242141723633,4.019719123840332,0.44490042328834534,-0.8460997343063354,0.2935628890991211,1.366394281387329,0.1711728572845459,-0.021910518407821655
1.051716724930142,2.199557444385319,-2.3498325066681827,-1.4730454683303833,2.8294570446014404,4.348122596740723,0.4012095034122467,-0.8682761192321777,0.2917671501636505,1.3315482139587402,0.1990254521369934,-0.06187790632247925
1.0964608210999753,2.2590662704141695,-2.383394234004614,-1.470656156539917,3.130930185317993,4.653314590454102,0.35276708006858826,-0.8895964026451111,0.29012683033943176,1.3101814985275269,0.24529409408569336,-0.09092321991920471
1.1423548387969509,2.334472043068392,-2.4309596118097527,-1.5149846076965332,3.3673508167266846,4.925962924957275,0.3000814914703369,-0.9096143245697021,0.28731968998908997,1.278287649154663,0.2997053861618042,-0.11689457297325134
1.1885714233631623,2.429871474539564,-2.4967138480560656,-1.6058021783828735,3.5897960662841797,5.1578874588012695,0.24361169338226318,-0.927837073802948,0.28243985772132874,1.2245737314224243,0.37760496139526367,-0.1604914367198944
1.23376923678465,2.5521306837840902,-2.5879839479382034,-1.6717512607574463,3.7459800243377686,5.390536308288574,0.18383170664310455,-0.9437419176101685,0.27487754821777344,1.1775422096252441,0.4667518734931946,-0.2192133069038391
1.2755702609283077,2.713445355925491,-2.717004287725438,-1.6948230266571045,3.9591188430786133,5.640404224395752,0.1208011731505394,-0.9567363858222961,0.264693945646286,1.1507441997528076,0.5463358759880066,-0.2900080382823944
1.310107893872825,2.9274342621791956,-2.8969907669631025,-1.7091684341430664,4.175929069519043,5.849234580993652,0.05477748438715935,-0.9662127494812012,0.2518578767776489,1.1093918085098267,0.6512866020202637,-0.38103869557380676
1.3320701998550868,-3.085383964583674,-3.1318395254589912,-1.7173465490341187,4.337230682373047,5.993958950042725,-0.013284427113831043,-0.9716399908065796,0.236092209815979,1.059640645980835,0.7599394917488098,-0.45089006423950195
1.3363978538111565,-2.779250414127383,2.882288376644101,-1.721513271331787,4.522851943969727,6.09114933013916,-0.08232724666595459,-0.9726542234420776,0.21717683970928192,0.9806731939315796,0.844663679599762,-0.5159133076667786
1.3210551547484355,-2.4805946973530903,2.6219057440526132,-1.705146074295044,4.576207637786865,6.221426963806152,-0.15172860026359558,-0.9689764380455017,0.19509781897068024,0.9177350401878357,0.9249853491783142,-0.603102445602417
1.2881921644347087,-2.227732702805252,2.406963316321111,-1.6672379970550537,4.449405670166016,6.324853420257568,-0.2208186537027359,-0.9603325128555298,0.1702970266342163,0.9041529893875122,0.993123471736908,-0.6753780841827393
1.2431856721632009,-2.0327068325221607,2.2482257837964843,-1.637045979499817,4.223808765411377,6.27599573135376,-0.2880599796772003,-0.9468138813972473,0.1434050351381302,0.8115890026092529,1.0883543491363525,-0.7446775436401367
1.1917905253838037,-1.8872937537811836,2.1371877563434905,-1.5581408739089966,3.984194278717041,6.086124420166016,-0.35162004828453064,-0.9290329217910767,0.11515791714191437,0.6306727528572083,1.1735550165176392,-0.7948452234268188
1.1378889519019393,-1.7789423261902682,2.0615054844891385,-1.399585247039795,3.7504680156707764,5.847670555114746,-0.41045716404914856,-0.9077498912811279,0.08669059723615646,0.4743914306163788,1.2123305797576904,-0.8497672080993652
1.0835646107828025,-1.6975374795535592,2.0115545220903863,-1.1412348747253418,3.5521581172943115,5.5647077560424805,-0.4644264876842499,-0.8836323022842407,0.0591791607439518,0.3048347532749176,1.2303272485733032,-0.9097039699554443
1.0307858235286174,-1.6363947331389603,1.9813993631432578,-0.7749481797218323,3.39939022064209,5.179618835449219,-0.5130391120910645,-0.8577032685279846,0.03370290622115135,0.08406883478164673,1.2511359453201294,-0.9659385681152344
0.9816301079061094,-1.5909515935136813,1.9669229712411909,-0.34044167399406433,3.202441930770874,4.670448303222656,-0.5555551052093506,-0.8314042687416077,0.011198877356946468,-0.1404440999031067,1.248121976852417,-1.0045764446258545
0.9377689461126172,-1.5581373381858639,1.9640091407882758,0.010231648571789265,2.8354268074035645,4.058532238006592,-0.5915408730506897,-0.8062402606010437,-0.007488708943128586,-0.3923458456993103,1.2182886600494385,-1.0019258260726929
0.9009029996389185,-1.5339919290255082,1.9663624596406788,0.03991636633872986,2.336921215057373,3.280977964401245,-0.6204820871353149,-0.7838879227638245,-0.022846786305308342,-0.6819624900817871,1.1546764373779297,-0.9058487415313721
0.8719667432394635,-1.5136591492814302,1.9669223530679791,-0.25129497051239014,1.8238471746444702,2.505152463912964,-0.642272412776947,-0.7655956745147705,-0.03673762083053589,-0.9664465188980103,1.0291454792022705,-0.6793267130851746
0.8494183782477668,-1.4941791064486196,1.9638289608050667,-0.4091761112213135,1.642122507095337,1.983001708984375,-0.6584826707839966,-0.7508963942527771,-0.05055006593465805,-1.2092084884643555,0.9173545241355896,-0.4800131320953369
0.8311037882208551,-1.4747757450564494,1.960473365837346,-0.32951194047927856,1.7384113073349,1.6295043230056763,-0.6709558367729187,-0.7386758327484131,-0.06462430208921432,-1.386142611503601,0.8245828747749329,-0.4979976415634155
0.8160541859002125,-1.4558233154955489,1.9591897687240856,-0.15805624425411224,1.8445078134536743,1.357203722000122,-0.6805778741836548,-0.728448212146759,-0.07859470695257187,-1.5772957801818848,0.6975796818733215,-0.5413545370101929
0.8031961798636846,-1.437860107617783,1.9602145458869151,-0.03804249316453934,1.8703111410140991,1.2114959955215454,-0.6882835626602173,-0.7195792198181152,-0.09204063564538956,-1.7717385292053223,0.61038738489151,-0.5273592472076416
0.7921936575646,-1.421184160129484,1.9618023909975773,-0.09342842549085617,1.6293437480926514,0.9649564623832703,-0.6944400072097778,-0.7118955850601196,-0.10467887669801712,-1.9613217115402222,0.5909391641616821,-0.5055047273635864
0.7843013193301842,-1.4072261507158155,1.9609761104440482,-0.26924607157707214,1.0139074325561523,0.5617701411247253,-0.6984333395957947,-0.7063307762145996,-0.11527275294065475,-2.144233226776123,0.5882430076599121,-0.4586406946182251
0.7803664704341571,-1.3975707625184923,1.9566792794113637,-0.45557743310928345,0.30700692534446716,0.10382501780986786,-0.7000201344490051,-0.7035399079322815,-0.12248902022838593,-2.256507635116577,0.6360045075416565,-0.45682603120803833
0.7806950960258423,-1.392671751406561,1.9489487556601395,-0.6027980446815491,-0.4117554724216461,-0.3576696217060089,-0.699184000492096,-0.7037733793258667,-0.12587594985961914,-2.300205707550049,0.6778334975242615,-0.4976133108139038
0.7853223094171475,-1.3923614258996992,1.9383496258571586,-0.7005841135978699,-0.9846147298812866,-0.8208639025688171,-0.6959328055381775,-0.7070531249046326,-0.12551361322402954,-2.300924062728882,0.6892002820968628,-0.5179188847541809
0.7945561221078876,-1.3948325589481778,1.9257312136633193,-0.6980016231536865,-1.255753993988037,-1.3128983974456787,-0.6897831559181213,-0.713552713394165,-0.1226452961564064,-2.274251937866211,0.7140714526176453,-0.48224353790283203
0.8094212782004041,-1.397748065641959,1.9119366727522618,-0.6674743294715881,-1.285991907119751,-1.9394177198410034,-0.679613471031189,-0.7238880395889282,-0.11879409104585648,-2.2173593044281006,0.7289538383483887,-0.44475865364074707
0.8302326568460884,-1.3999807162302846,1.897378514402907,-0.5620232224464417,-1.2838096618652344,-2.4662256240844727,-0.6648848652839661,-0.7380883693695068,-0.11469036340713501,-2.103685140609741,0.7161920070648193,-0.40674811601638794
0.8558518716815876,-1.4027274796633606,1.8836182746073111,-0.36228451132774353,-1.315039038658142,-2.8611793518066406,-0.6463382840156555,-0.7551296353340149,-0.10966383665800095,-1.8398067951202393,0.7220180630683899,-0.4323129653930664
0.8852440697841529,-1.4075944849560462,1.8722944251569573,-0.10878245532512665,-1.3853886127471924,-3.1474311351776123,-0.6246882081031799,-0.7740695476531982,-0.10286515951156616,-1.5631780624389648,0.684332549571991,-0.4938449263572693
0.9175980718829417,-1.4152347979118745,1.8637055786915764,0.06983444839715958,-1.4848905801773071,-3.3830933570861816,-0.6003907918930054,-0.7941442131996155,-0.09415847063064575,-1.3313260078430176,0.654511034488678,-0.5145145058631897
0.9522265333237911,-1.4248879949603916,1.8564231579317616,0.09819205105304718,-1.6087132692337036,-3.5624771118164062,-0.5737090706825256,-0.8147086501121521,-0.08430806547403336,-1.1450257301330566,0.6339071989059448,-0.4680599570274353
0.9881119782322129,-1.4350005382711009,1.848342578004175,-0.010710503906011581,-1.731436014175415,-3.636037826538086,-0.5452016592025757,-0.834988534450531,-0.07449456304311752,-0.9615885615348816,0.5931825041770935,-0.4011523127555847
1.0240331594444303,-1.4437396481662585,1.8375923122437698,-0.1917780339717865,-1.8232295513153076,-3.6105294227600098,-0.5157341957092285,-0.8542119264602661,-0.0658823773264885,-0.7738471627235413,0.5329380631446838,-0.34625738859176636
1.0593194073204848,-1.4500075558759769,1.8233034334376557,-0.3584439158439636,-1.882675051689148,-3.543107032775879,-0.4858996868133545,-0.8720225691795349,-0.058978334069252014,-0.6134655475616455,0.49175822734832764,-0.33193647861480713
1.0935930201562913,-1.4538339341705833,1.805868997096293,-0.4558602273464203,-1.9384983777999878,-3.4348268508911133,-0.4561590254306793,-0.8882828950881958,-0.053598083555698395,-0.47206375002861023,0.4796828627586365,-0.37694376707077026
1.126769483695529,-1.4553795600563726,1.7860710806917044,-0.5135490894317627,-1.8839443922042847,-3.3501079082489014,-0.4267215132713318,-0.9030291438102722,-0.049470677971839905,-0.3630276918411255,0.47233450412750244,-0.43127256631851196
1.15985206279611,-1.4533650766003268,1.763952379048798,-0.5306169986724854,-1.7176650762557983,-3.4391446113586426,-0.3967239558696747,-0.9167439937591553,-0.046803127974271774,-0.3224990963935852,0.504176914691925,-0.46137547492980957
1.1945705932962973,-1.4466432123518407,1.7391871992220405,-0.5092080235481262,-1.5002933740615845,-3.6704485416412354,-0.36458489298820496,-0.930057942867279,-0.04549835994839668,-0.31517893075942993,0.5687145590782166,-0.49341142177581787
1.231772161779619,-1.436412061926684,1.71288386750043,-0.33380502462387085,-1.3925219774246216,-3.9074249267578125,-0.329568475484848,-0.9430796504020691,-0.0445573627948761,-0.259756475687027,0.6461589336395264,-0.5620556473731995
1.2710893764802214,-1.428389453210958,1.6894075080219946,-0.009375319816172123,-1.4831147193908691,-4.066025733947754,-0.2922516167163849,-0.9554230570793152,-0.04190227761864662,-0.11297604441642761,0.7092682719230652,-0.7035657167434692
1.3122606111845463,-1.4313635137393086,1.6759510924279786,0.41900667548179626,-1.6801867485046387,-4.140646457672119,-0.2531844675540924,-0.9667654037475586,-0.03553279489278793,0.05860435962677002,0.7346639037132263,-0.817173957824707
1.3539920616596417,-1.4509060458047862,1.6779013167222814,0.7326027154922485,-1.833554983139038,-4.098970890045166,-0.21356680989265442,-0.9765898585319519,-0.025727970525622368,0.19897934794425964,0.7808346748352051,-0.8488751649856567
1.3956501909332135,-1.4914644031221578,1.6994756902976882,0.9063947796821594,-2.039396286010742,-4.086525917053223,-0.17370373010635376,-0.9847010970115662,-0.013809232972562313,0.31290966272354126,0.7666988372802734,-0.757583498954773
1.4370057364771152,-1.5591594178925774,1.7464152435427087,0.8778184056282043,-2.1884708404541016,-4.080019950866699,-0.13338300585746765,-0.9910633563995361,-0.001552236033603549,0.39520856738090515,0.7392323017120361,-0.6250192523002625
1.4775234089969096,-1.6647983271681124,1.830639447026038,0.6803380846977234,-2.1579935550689697,-4.072105884552002,-0.0927276685833931,-0.9956532120704651,0.00874235201627016,0.467315673828125,0.7205677628517151,-0.42729079723358154
1.5166256032616943,-1.8765510008367745,2.021846488614036,0.5538277626037598,-2.0400447845458984,-4.114994049072266,-0.051634956151247025,-0.9985331296920776,0.016298722475767136,0.49758830666542053,0.6916483044624329,-0.2893087863922119
1.5462504294658206,-2.754546400430806,2.8800428185558196,0.640927791595459,-2.0115275382995605,-4.303671836853027,-0.009265291504561901,-0.9996987581253052,0.022730983793735504,0.5406831502914429,0.7186928391456604,-0.31463146209716797
1.5237858410533123,2.278134640009829,-2.1720608320903865,0.9916113018989563,-1.9544854164123535,-4.582220077514648,0.035719048231840134,-0.9988952279090881,0.030536610633134842,0.5628222227096558,0.7816406488418579,-0.407214879989624
1.4775410413525456,2.033654815722486,-1.9462180774806814,1.4523084163665771,-1.8548400402069092,-4.761319637298584,0.0833229348063469,-0.9956548810005188,0.04157930985093117,0.65176922082901,0.7894322872161865,-0.503050684928894
1.4274827135194166,1.9783669797323518,-1.9087702719636455,1.9448543787002563,-1.7317520380020142,-4.621599197387695,0.13112467527389526,-0.9897481799125671,0.05661255121231079,0.8992555737495422,0.7233601808547974,-0.4915947914123535
1.3780867981006013,1.97364460539715,-1.920137076336588,2.247483730316162,-1.4065958261489868,-4.262329578399658,0.17618747055530548,-0.9814888834953308,0.07508311420679092,1.195455551147461,0.6143624782562256,-0.3409825563430786
1.3320011278915387,1.9840413430883501,-1.9424584522399968,2.2289140224456787,-0.8539780378341675,-3.7817957401275635,0.21662160754203796,-0.9716236591339111,0.0949874222278595,1.3730542659759521,0.41666150093078613,-0.059647925198078156
1.291092365568565,1.9965753805436552,-1.9613813405260208,1.95219886302948,-0.31104791164398193,-3.282026767730713,0.25142285227775574,-0.9611372351646423,0.11402581632137299,1.4526481628417969,0.25265640020370483,0.24742448329925537
1.2557989485669954,2.0053133823536187,-1.972027897683856,1.5338913202285767,-0.020305510610342026,-2.862541675567627,0.28102412819862366,-0.9507972002029419,0.1304231733083725,1.4375426769256592,0.1527320146560669,0.44730520248413086
1.2259952166203238,2.0068046995002247,-1.9739789350975088,1.0994341373443604,-0.0938982367515564,-2.47603178024292,0.30638715624809265,-0.9411426782608032,0.1427498608827591,1.4166200160980225,0.08681833744049072,0.5038108825683594
1.2010347269575028,2.00189167396977,-1.971204575864834,0.8427339196205139,-0.3688614070415497,-2.124933958053589,0.32832905650138855,-0.9324135184288025,0.15101410448551178,1.4362430572509766,0.06453931331634521,0.45566022396087646
1.179793980764804,1.9947521222616356,-1.9688176066340097,0.7684357166290283,-0.5978525280952454,-1.8031270503997803,0.3473750650882721,-0.9245275259017944,0.15677927434444427,1.4729374647140503,0.06818884611129761,0.3464404344558716
1.1618045897737017,1.9888372662413667,-1.9693578317727145,0.7305881381034851,-0.6597818732261658,-1.4401342868804932,0.3634386360645294,-0.9175222516059875,0.16144846379756927,1.5142011642456055,0.03820383548736572,0.2977038621902466
1.1479607895967845,1.9853211767347705,-1.9724675112669718,0.6013090014457703,-0.597079873085022,-0.9760861992835999,0.37559446692466736,-0.9119290709495544,0.1652696132659912,1.5959173440933228,-0.027401864528656006,0.34260401129722595
1.139363503643494,1.9834519848973313,-1.97636951734079,0.3720201849937439,-0.47660380601882935,-0.46575072407722473,0.3830713629722595,-0.9083675146102905,0.16770564019680023,1.6415563821792603,-0.09503531455993652,0.4320718050003052
1.1364760918079084,1.9823345977169602,-1.9795122026981162,0.10498102009296417,-0.3080768585205078,0.0328497439622879,0.3856603801250458,-0.9071562886238098,0.16832582652568817,1.6216943264007568,-0.13105171918869019,0.4957672357559204
1.1390052827896697,1.9821286570380052,-1.9816860327390522,-0.12623198330402374,-0.12780983746051788,0.492119699716568,0.3835912048816681,-0.9082176685333252,0.16732867062091827,1.5808711051940918,-0.13122648000717163,0.5084680318832397
1.1461206893582887,1.9837422225395742,-1.9840873944124255,-0.24560818076133728,0.008497931063175201,0.8746071457862854,0.3773917853832245,-0.9111724495887756,0.16534972190856934,1.5302619934082031,-0.09429025650024414,0.4624580144882202
1.1566005262775634,1.987717996792136,-1.9878533735446764,-0.31405553221702576,0.09322066605091095,1.1470675468444824,0.3679801821708679,-0.9154402613639832,0.1629730463027954,1.4384773969650269,-0.03823423385620117,0.37860727310180664
1.1698194232496637,1.993092696251203,-1.992487496954622,-0.44027045369148254,0.12541881203651428,1.4206492900848389,0.3560289740562439,-0.9206801056861877,0.15997439622879028,1.3599896430969238,0.01954174041748047,0.33108413219451904
1.1863707731317885,1.9979000827619995,-1.9963499408889411,-0.6508229970932007,0.11967979371547699,1.699729561805725,0.3413379490375519,-0.9270139932632446,0.15534980595111847,1.323380708694458,0.040646135807037354,0.3477020263671875
1.2060919652552462,2.001159527188905,-1.9983210102058044,-0.846476137638092,0.176839217543602,1.9357445240020752,0.3241499364376068,-0.9342292547225952,0.14880448579788208,1.2634813785552979,0.04731208086013794,0.3671562671661377
1.2287040171869381,2.0051924815511444,-1.9998139457099389,-0.927489697933197,0.3559822738170624,2.205564022064209,0.3043033182621002,-0.9420548677444458,0.1411823183298111,1.2181576490402222,0.09490209817886353,0.31140875816345215
1.2537891629431828,2.0152088880612182,-2.005634721707896,-0.8437926173210144,0.5325019359588623,2.4767143726348877,0.28144508600234985,-0.9501726031303406,0.1340191662311554,1.2193331718444824,0.12589263916015625,0.18754471838474274
1.2806705745822458,2.035435999003721,-2.020635104897809,-0.7093173861503601,0.6388105750083923,2.725926399230957,0.25574439764022827,-0.958207905292511,0.12818950414657593,1.187782883644104,0.1679551601409912,0.04765284061431885
1.3089838181061455,2.06785656606274,-2.0471805557984775,-0.6304103136062622,0.736490786075592,2.9428153038024902,0.2275104820728302,-0.9659224152565002,0.12342249602079391,1.1418590545654297,0.23383617401123047,-0.008813619613647461
1.3387106727880904,2.1151610258390865,-2.087660908005119,-0.6102339029312134,0.8643157482147217,3.179616928100586,0.19676198065280914,-0.9731888175010681,0.1191154196858406,1.1076661348342896,0.28425443172454834,-0.006398558616638184
1.3699960733923353,2.183091013968326,-2.1477921991467728,-0.6476545333862305,0.962624192237854,3.450993537902832,0.16321919858455658,-0.9799072742462158,0.11463537067174911,1.0858805179595947,0.3147461414337158,-0.01116538792848587
1.402634230877941,2.2823257556876637,-2.238589902755894,-0.7323503494262695,1.0272201299667358,3.707427740097046,0.12676078081130981,-0.9858940243721008,0.10929206758737564,1.073800802230835,0.33884507417678833,-0.010292887687683105
1.4352397585931331,2.4334474974180837,-2.380466346818478,-0.8479624390602112,1.146823763847351,3.8927488327026367,0.08790040761232376,-0.9908262491226196,0.10265038162469864,1.0186059474945068,0.39324623346328735,-0.012226700782775879
1.4650014749670521,2.680614951388526,-2.616985869239947,-0.927933931350708,1.303952932357788,4.082430362701416,0.046973083168268204,-0.9944089651107788,0.09457660466432571,0.9522639513015747,0.4633724093437195,-0.023989304900169373
1.4849754868307568,3.0958098114047248,-3.020133669780677,-0.9201899766921997,1.4565904140472412,4.297041893005371,0.003923011012375355,-0.9963196516036987,0.0856274887919426,0.9206222295761108,0.522991955280304,-0.09560668468475342
1.483595670929713,-2.643858271651899,2.7332374337036254,-0.8359068036079407,1.6529139280319214,4.559291362762451,-0.04158051311969757,-0.996200442314148,0.07652418315410614,0.9248355031013489,0.5827177166938782,-0.178879976272583
1.4581700368029544,-2.2149830803539334,2.3200640781887336,-0.748299241065979,1.8705545663833618,4.863319396972656,-0.08986521512269974,-0.9936643838882446,0.06749523431062698,0.9078583717346191,0.6294522881507874,-0.25501036643981934
1.4180099136017839,-1.9607432425938838,2.083801037333646,-0.7347557544708252,2.114732265472412,5.110073089599609,-0.14076729118824005,-0.9883508682250977,0.05785435438156128,0.8577014803886414,0.6611566543579102,-0.27811479568481445
1.3709285291433786,-1.8077026311260627,1.9512334018718311,-0.790812611579895,2.364622116088867,5.209590911865234,-0.1929953545331955,-0.9800928235054016,0.04659683629870415,0.7403585910797119,0.7236992120742798,-0.274791955947876
1.3213649959509324,-1.7047422637539613,1.87110673513677,-0.8892509937286377,2.578212022781372,5.136785507202148,-0.24464194476604462,-0.9690529704093933,0.03296618536114693,0.5843483209609985,0.8152748346328735,-0.28040266036987305
1.271920773498195,-1.628000050819655,1.819273756842034,-0.9446215629577637,2.768087387084961,4.956576347351074,-0.2939646244049072,-0.9556682109832764,0.016834236681461334,0.42320650815963745,0.9043680429458618,-0.3060034513473511
1.223413610561494,-1.5682645186559954,1.7860252258774163,-0.8725077509880066,2.8349921703338623,4.775583744049072,-0.34043723344802856,-0.9402669668197632,-0.0008619235595688224,0.2970412075519562,0.9810383915901184,-0.398658812046051
1.176081183638466,-1.5224003622145592,1.7674676599705406,-0.7001256346702576,2.861739158630371,4.626798152923584,-0.3840952515602112,-0.9231061339378357,-0.018603185191750526,0.2080545425415039,1.032664179801941,-0.5138368606567383
1.130094641337155,-1.4866352238206788,1.7601938828348114,-0.49644726514816284,2.947314500808716,4.485239505767822,-0.4250643253326416,-0.9044525623321533,-0.03585858643054962,0.10411098599433899,1.0600159168243408,-0.5809320211410522
1.0857007911186272,-1.457239111451535,1.760954011308814,-0.31357356905937195,3.0430030822753906,4.323946475982666,-0.46328964829444885,-0.8846303820610046,-0.05283719673752785,-0.030622094869613647,1.0682241916656494,-0.6003761887550354
1.0435390634706452,-1.4314906799675478,1.7667871495135272,-0.20190735161304474,3.1006555557250977,4.070982933044434,-0.4982909560203552,-0.8641903400421143,-0.06986728310585022,-0.19636547565460205,1.0593349933624268,-0.5789210200309753
1.0045108735426223,-1.4062204388965844,1.7735349055544436,-0.31505200266838074,3.0624496936798096,3.7242331504821777,-0.5292519330978394,-0.843899667263031,-0.08789711445569992,-0.36746132373809814,1.0174225568771362,-0.5187311768531799
0.9684252649730866,-1.3790642971066884,1.7761222951333866,-0.7195682525634766,2.7460312843322754,3.4090425968170166,-0.5562154650688171,-0.823994517326355,-0.10797061026096344,-0.5548075437545776,0.9283035397529602,-0.4164433479309082
0.9341903900483601,-1.3501250293520013,1.7712122800432832,-1.2058676481246948,2.2203192710876465,3.1763408184051514,-0.5800543427467346,-0.8041180372238159,-0.13012033700942993,-0.7042017579078674,0.8365887403488159,-0.296408474445343
0.9006231247492233,-1.3231115402573046,1.7624607953621516,-1.3270152807235718,1.8109652996063232,3.0997254848480225,-0.6021668314933777,-0.7837141156196594,-0.1522742658853531,-0.7968658804893494,0.7880628705024719,-0.31545329093933105
0.8676710871711631,-1.3007015155018078,1.7557480045325269,-1.148844838142395,1.6493386030197144,3.018970012664795,-0.6231626868247986,-0.7628251314163208,-0.1725289523601532,-0.9475923776626587,0.732307493686676,-0.5166341662406921
0.8367948130310653,-1.2823886757515086,1.7534031092752416,-0.8367066383361816,1.6654077768325806,2.7931206226348877,-0.6421804428100586,-0.7424999475479126,-0.1905217468738556,-1.205186128616333,0.655128002166748,-0.6238397359848022
0.809653372203944,-1.2668371004720118,1.7551370489907774,-0.5193398594856262,1.6651558876037598,2.4387574195861816,-0.6581307649612427,-0.7240481376647949,-0.2064422369003296,-1.4638938903808594,0.6242556571960449,-0.6361479759216309
0.7872089126389069,-1.2544812796214286,1.7596085340344378,-0.2675308287143707,1.4053304195404053,1.9994807243347168,-0.6708080172538757,-0.7083860039710999,-0.21955865621566772,-1.689268946647644,0.5927395820617676,-0.6279143691062927
0.7699843032532735,-1.2459675960729406,1.764813582452489,-0.11653703451156616,1.0177509784698486,1.4819365739822388,-0.6803781986236572,-0.6961239576339722,-0.22912216186523438,-1.9004323482513428,0.5349148511886597,-0.5835760831832886
0.758396840233117,-1.24100386030382,1.7695787033465844,0.02239345945417881,0.6290762424468994,0.9322742819786072,-0.6868184804916382,-0.6877585053443909,-0.2350931465625763,-2.0892741680145264,0.47668367624282837,-0.519774317741394
0.7522999861291062,-1.2396766686421297,1.7739011745332616,0.18096499145030975,0.22767102718353271,0.425911009311676,-0.690458357334137,-0.6833198070526123,-0.23736326396465302,-2.2162036895751953,0.4056556820869446,-0.494631290435791
0.7513892934106345,-1.2421210552464041,1.7781305972844748,0.34978288412094116,-0.12836655974388123,-0.039115890860557556,-0.6916252374649048,-0.682654619216919,-0.23587559163570404,-2.2527413368225098,0.37528157234191895,-0.4695839285850525
0.7553534835148504,-1.247541162211528,1.7818722520371735,0.3833978474140167,-0.44196709990501404,-0.5493019223213196,-0.6903220415115356,-0.6855460405349731,-0.23126201331615448,-2.2192087173461914,0.37446510791778564,-0.4426422715187073
0.7639485241487459,-1.2542949563159183,1.7827727947000576,0.2783330976963043,-0.7828153967857361,-1.023168683052063,-0.6862432360649109,-0.6917781233787537,-0.22475223243236542,-2.1753597259521484,0.3474787473678589,-0.34313398599624634
0.7765165177783127,-1.2622431697023997,1.7807710670413714,0.22666671872138977,-1.0681382417678833,-1.4488840103149414,-0.6796700954437256,-0.7007986903190613,-0.21663326025009155,-2.0260186195373535,0.3858877420425415,-0.2822374999523163
0.7930937657511684,-1.271267267653681,1.7768824730110222,0.24772563576698303,-1.2679532766342163,-1.8699699640274048,-0.6704041361808777,-0.7125273942947388,-0.2070344239473343,-1.8563599586486816,0.4062376618385315,-0.31876811385154724
0.8138979985518127,-1.281266025099104,1.7719708909542016,0.31114959716796875,-1.4255330562591553,-2.2985692024230957,-0.6580894589424133,-0.726969301700592,-0.19604572653770447,-1.699622392654419,0.4213358163833618,-0.35352998971939087
0.8390824293849872,-1.2921350354772685,1.7666625450702254,0.4172661602497101,-1.5061999559402466,-2.718472957611084,-0.6423719525337219,-0.7440303564071655,-0.18378612399101257,-1.5250170230865479,0.45904189348220825,-0.37029093503952026
0.8685805154433993,-1.3036960209646622,1.7619518087168702,0.5777820944786072,-1.4925168752670288,-3.1006553173065186,-0.62300705909729,-0.7634128332138062,-0.1704789251089096,-1.35093092918396,0.48281896114349365,-0.39308905601501465
0.9018330380818703,-1.316108363902337,1.7588121852999448,0.746870756149292,-1.4746252298355103,-3.393216133117676,-0.6001675128936768,-0.7844650149345398,-0.1562485545873642,-1.1769626140594482,0.5004379153251648,-0.43010085821151733
0.9378340257645736,-1.3302043552391623,1.7575818162488084,0.8531016111373901,-1.5433260202407837,-3.5897862911224365,-0.5744980573654175,-0.8062787652015686,-0.1409497857093811,-0.9871932864189148,0.5154767036437988,-0.44076091051101685
0.9754390548015971,-1.346418053340345,1.7574755930312846,0.8501073718070984,-1.7172296047210693,-3.701669454574585,-0.5467470288276672,-0.8279482126235962,-0.12477924674749374,-0.8061125874519348,0.5100006461143494,-0.4236062169075012
1.0138269115252434,-1.3648377112023407,1.7574780042252869,0.7787788510322571,-1.9559695720672607,-3.7722272872924805,-0.5174440741539001,-0.848861038684845,-0.10810496658086777,-0.6404997110366821,0.5095208287239075,-0.3985019326210022
1.0525649668737305,-1.3850094567811306,1.7568527492924813,0.6531934142112732,-2.1695122718811035,-3.8098902702331543,-0.4868204593658447,-0.8686966300010681,-0.09150003641843796,-0.5061452984809875,0.5258315801620483,-0.3784857988357544
1.0912523802726581,-1.40581056665845,1.754633121736008,0.48174867033958435,-2.3651123046875,-3.8189454078674316,-0.4551098346710205,-0.8872054219245911,-0.07577543705701828,-0.40273934602737427,0.5495436191558838,-0.3600459694862366
1.1295362363940564,-1.426588813183944,1.750423819248998,0.3334742784500122,-2.5192952156066895,-3.7694785594940186,-0.42264634370803833,-0.9042142033576965,-0.06137481704354286,-0.27947163581848145,0.5731441974639893,-0.341716468334198
1.1669072787889345,-1.4471671452614348,1.744986851986084,0.22183269262313843,-2.557462215423584,-3.6726558208465576,-0.3899977505207062,-0.9195395708084106,-0.04846225678920746,-0.13376018404960632,0.5690147876739502,-0.3400111198425293
1.203075594751758,-1.4662516869193152,1.7377618505563475,0.04688667878508568,-2.5927045345306396,-3.5494134426116943,-0.3575269281864166,-0.9331491589546204,-0.03751429542899132,-0.03869807720184326,0.5573098659515381,-0.32782673835754395
1.2377074459417523,-1.4810035026206843,1.7248072231487492,-0.27686554193496704,-2.8108303546905518,-3.4005842208862305,-0.3256464898586273,-0.9450368881225586,-0.029319558292627335,0.06482797861099243,0.5527334809303284,-0.2679672837257385
1.2700857531662733,-1.487009522595724,1.6999732175214415,-0.7050237059593201,-3.1119658946990967,-3.137070417404175,-0.2951600253582001,-0.9551262855529785,-0.024788549169898033,0.21624153852462769,0.5396293997764587,-0.15413588285446167
1.2988663634646382,-1.4790474697337095,1.6583171199691646,-1.1058169603347778,-3.2660248279571533,-2.7977054119110107,-0.26746103167533875,-0.9632543325424194,-0.02460833080112934,0.41072580218315125,0.5068488121032715,-0.07390230149030685
1.324270920786454,-1.4569019521491233,1.6007181576547398,-1.291623592376709,-3.3982486724853516,-2.5325748920440674,-0.24245451390743256,-0.9697661995887756,-0.02773423120379448,0.46067047119140625,0.4317871332168579,-0.10274356603622437
1.3463213007482355,-1.4204272229788304,1.5282518934599594,-1.4664363861083984,-3.3716859817504883,-2.2803611755371094,-0.22008298337459564,-0.974911093711853,-0.033345382660627365,0.39888545870780945,0.38016921281814575,-0.1642557978630066
1.3653497657685898,-1.3666122105114558,1.4386268752186353,-1.6058684587478638,-3.3708229064941406,-2.1351184844970703,-0.1997668296098709,-0.9789699912071228,-0.04136567935347557,0.4478136897087097,0.3919795751571655,-0.1570441722869873
1.3818989506067145,-1.2952483342774512,1.331137800945852,-1.6768611669540405,-3.4066765308380127,-2.072807788848877,-0.18069325387477875,-0.9822118878364563,-0.051089271903038025,0.46667343378067017,0.414188027381897,-0.16022956371307373
1.3964404940871549,-1.206304827830484,1.2061193447343326,-1.6742194890975952,-3.364581823348999,-2.0992329120635986,-0.16207771003246307,-0.9848384857177734,-0.061839036643505096,0.500807523727417,0.40714067220687866,-0.20383161306381226
1.4093085978177584,-1.1003366664066117,1.065138877216708,-1.5604158639907837,-3.196423053741455,-2.1439647674560547,-0.14331980049610138,-0.9869891405105591,-0.0728844702243805,0.5139557719230652,0.3634691834449768,-0.24825185537338257
1.4205478563074747,-0.981770739358315,0.9146081281527214,-1.3160957098007202,-2.7845418453216553,-2.134932518005371,-0.12446003407239914,-0.9887338876724243,-0.08315739035606384,0.5033205151557922,0.32758575677871704,-0.2751035690307617
1.4304557519298784,-0.8559144892520482,0.7620925101134225,-0.9835902452468872,-2.1963255405426025,-2.1144299507141113,-0.10563387721776962,-0.9901683926582336,-0.09169580787420273,0.5056124925613403,0.30431628227233887,-0.2932528257369995
1.4397148330440275,-0.7227761407320951,0.6085155385341274,-0.6716583967208862,-1.6037496328353882,-2.1302788257598877,-0.08645835518836975,-0.991421103477478,-0.09802628308534622,0.49116721749305725,0.272304892539978,-0.3020132780075073
1.4482277027471173,-0.5766608522820115,0.4472426121413981,-0.45470160245895386,-1.180570363998413,-2.1566314697265625,-0.06666066497564316,-0.9924978613853455,-0.10249079018831253,0.46491506695747375,0.23521941900253296,-0.286257266998291
1.455037018950685,-0.41399458491504615,0.27291387295634134,-0.32410728931427,-0.9105088710784912,-2.1261188983917236,-0.046462588012218475,-0.99330735206604,-0.10574371367692947,0.4927821755409241,0.20091843605041504,-0.24983173608779907
1.4591186035028354,-0.24201184976184628,0.0917352561332662,-0.23130010068416595,-0.6927741169929504,-2.010873556137085,-0.02670878916978836,-0.9937705397605896,-0.10819841921329498,0.5638791918754578,0.17077243328094482,-0.23085176944732666
1.4601751864370311,-0.07393691586515411,-0.08363353313045405,-0.17385420203208923,-0.5595821738243103,-1.850887417793274,-0.00815489236265421,-0.993887722492218,-0.11009421199560165,0.6114721298217773,0.12700533866882324,-0.24720549583435059
1.458601604358895,0.07848845467499856,-0.2425628823576069,-0.13339173793792725,-0.5569587349891663,-1.684624433517456,0.008778639137744904,-0.9937127828598022,-0.11161648482084274,0.6341199278831482,0.08445662260055542,-0.2693343162536621
1.4547798222050836,0.21166198631132863,-0.3827449142452176,-0.16050396859645844,-0.6704043745994568,-1.5750889778137207,0.02431902475655079,-0.9932776093482971,-0.11317461729049683,0.6333958506584167,0.07309615612030029,-0.2814480662345886
1.4491867479120737,0.3227512835494333,-0.5023886643440817,-0.16302864253520966,-0.8713630437850952,-1.4451231956481934,0.03847690299153328,-0.9926146864891052,-0.11504680663347244,0.6077938675880432,0.07075488567352295,-0.28413838148117065
1.442669189260886,0.4117630113987791,-0.6019750437823419,-0.15746623277664185,-1.076371192932129,-1.3418681621551514,0.05113968998193741,-0.9918029308319092,-0.11709711700677872,0.6172410845756531,0.07684016227722168,-0.3021380305290222
1.4357750930896334,0.48467816341996606,-0.6868896161360226,-0.11249183118343353,-1.142188549041748,-1.2545257806777954,0.06271882355213165,-0.9908984899520874,-0.11910788714885712,0.5823312401771545,0.05837279558181763,-0.29867762327194214
1.4292991418680399,0.5456475611159394,-0.7594260116681627,-0.021310310810804367,-1.0064809322357178,-1.1099621057510376,0.07318875193595886,-0.9900059700012207,-0.12054821103811264,0.546821653842926,0.03761321306228638,-0.2837027311325073
1.4241453621477949,0.597810281602172,-0.8212246260956575,0.11963189393281937,-0.7698500752449036,-0.935721218585968,0.08224513381719589,-0.9892659783363342,-0.12078407406806946,0.5300290584564209,0.006386280059814453,-0.2673993706703186
1.4206079318269027,0.6460821413448413,-0.8764555120420422,0.2535172700881958,-0.5130329132080078,-0.8086056113243103,0.09008298069238663,-0.9887428879737854,-0.11946700513362885,0.49448123574256897,-0.02009183168411255,-0.250650018453598
1.4181511563883133,0.6933752218480213,-0.9289185520805028,0.3296796977519989,-0.41459453105926514,-0.738754391670227,0.09718285501003265,-0.9883723258972168,-0.11694317311048508,0.47357216477394104,-0.010788440704345703,-0.22402960062026978
1.415944114746645,0.7386997653169206,-0.9788474371986398,0.3229886591434479,-0.39183634519577026,-0.7156895995140076,0.10385050624608994,-0.9880343079566956,-0.11403270810842514,0.44319236278533936,0.0031404495239257812,-0.1550254225730896
1.4132645792837775,0.779879437615268,-1.0246806465122373,0.27165302634239197,-0.4327150881290436,-0.6818469166755676,0.11031857132911682,-0.9876174926757812,-0.11154297739267349,0.39549505710601807,-0.0014421343803405762,-0.10447557270526886
1.410391185628814,0.8143568684137861,-1.0645606550620355,0.23291535675525665,-0.5495923161506653,-0.6035990118980408,0.11616082489490509,-0.9871626496315002,-0.10962066054344177,0.3868451714515686,-0.006932258605957031,-0.07906937599182129
1.407865550277493,0.8411510862598691,-1.0981215223119563,0.23052676022052765,-0.7115780115127563,-0.4961181581020355,0.12091445922851562,-0.9867561459541321,-0.10813124477863312,0.39532092213630676,-0.00945979356765747,-0.07337194681167603
1.4061727683323402,0.863862070608746,-1.1288752602729513,0.3059840500354767,-0.7936809659004211,-0.4345681965351105,0.12460837513208389,-0.9864801168441772,-0.10644195973873138,0.3760477900505066,0.004409134387969971,-0.08085960149765015
1.4052272448791299,0.8873818911496828,-1.1605413726930562,0.36539945006370544,-0.7273445725440979,-0.3762553632259369,0.12780055403709412,-0.9863247275352478,-0.10407109558582306,0.30284827947616577,0.011532068252563477,-0.082452192902565
1.4046546687698616,0.9119691166045036,-1.191883253658113,0.3689107894897461,-0.5220428109169006,-0.37512293457984924,0.13076646625995636,-0.986230194568634,-0.10124298185110092,0.23874038457870483,-0.007361114025115967,-0.009642474353313446
1.4036949057988668,0.9385787894437092,-1.2234552358780695,0.3418554663658142,-0.39927956461906433,-0.4068944454193115,0.13417764008045197,-0.986070990562439,-0.09828735142946243,0.18999533355236053,-0.014264702796936035,0.03467363864183426
1.4021566046789915,0.9626578154245405,-1.2515901289171354,0.2377840131521225,-0.3480374813079834,-0.3887055814266205,0.13774968683719635,-0.9858139753341675,-0.09589467942714691,0.18486689031124115,-0.011729300022125244,0.07543279230594635
1.4000509322333001,0.9799647517738903,-1.2725417463161983,0.1163467988371849,-0.3362029194831848,-0.35865074396133423,0.14111238718032837,-0.9854583740234375,-0.09465264528989792,0.19822785258293152,-0.0241241455078125,0.12306463718414307
1.3977793466787392,0.9903443523969451,-1.2868017628078592,0.04833504557609558,-0.4009875953197479,-0.29285991191864014,0.14395950734615326,-0.9850698709487915,-0.09441075474023819,0.22153429687023163,-0.03678089380264282,0.11208055913448334
1.395757643117608,0.9957083950216639,-1.296836960875168,0.033078063279390335,-0.4949289858341217,-0.2451443374156952,0.14613430202007294,-0.9847198128700256,-0.09471992403268814,0.21908482909202576,-0.03287363052368164,0.06902426481246948
1.3941662655994245,0.9998506785122441,-1.3063568029193149,0.08564368635416031,-0.5354033708572388,-0.20673400163650513,0.14784373342990875,-0.9844413995742798,-0.09496054798364639,0.20352043211460114,-0.03431171178817749,0.027760982513427734
1.3933608666092179,1.0065995544240574,-1.318556904528715,0.1907288283109665,-0.5001787543296814,-0.16353194415569305,0.14915131032466888,-0.9842996001243591,-0.09438464045524597,0.1951480507850647,-0.03164595365524292,-0.00711667537689209
1.3932688305475056,1.0170542595724241,-1.3336161990939428,0.24258793890476227,-0.355951726436615,-0.13637675344944,0.1502067744731903,-0.9842833280563354,-0.09286770969629288,0.18867570161819458,-0.038803279399871826,0.0014982223510742188
1.3934050095775583,1.0297026245411476,-1.3491652814240802,0.23782087862491608,-0.18222680687904358,-0.1278620958328247,0.15125449001789093,-0.9843073487281799,-0.09089143574237823,0.17020246386528015,-0.05286318063735962,0.062601737678051
1.393585879093428,1.0427794801902288,-1.363664509747788,0.2246728092432022,-0.05955757573246956,-0.10036183893680573,0.15227630734443665,-0.9843392968177795,-0.0888160914182663,0.14989352226257324,-0.062108516693115234,0.09993988275527954
1.3939846129190319,1.0561506620943573,-1.377296464502697,0.23123617470264435,0.045942217111587524,-0.07297655194997787,0.153108611702919,-0.984409511089325,-0.08657892048358917,0.14146234095096588,-0.061550021171569824,0.0980994701385498
1.3945160152565823,1.0698328825138703,-1.3905019332696533,0.21760238707065582,0.08029966056346893,-0.06533940136432648,0.15382003784179688,-0.9845027923583984,-0.08422479778528214,0.1190681904554367,-0.06340986490249634,0.07218575477600098
1.3948890434459205,1.0818955598649524,-1.4020920845536533,0.1718258410692215,0.04302259534597397,-0.0611068420112133,0.15450014173984528,-0.984568178653717,-0.08219052106142044,0.10457885265350342,-0.07364410161972046,0.05589974671602249
1.3951523043985072,1.0906999229825511,-1.4109495339400324,0.12779510021209717,-0.02388862520456314,-0.033822860568761826,0.15498794615268707,-0.9846141934394836,-0.08070739358663559,0.11434496939182281,-0.07430005073547363,0.05437082052230835
1.39557763267704,1.0959571468639697,-1.4167675059036589,0.09223630279302597,-0.06356439739465714,0.014879697933793068,0.15503732860088348,-0.9846884608268738,-0.07969985157251358,0.1275554597377777,-0.07759791612625122,0.04909081012010574
1.3963068743924243,1.0986335185600673,-1.4202855409063124,0.08648882806301117,-0.09175785630941391,0.061265408992767334,0.15461091697216034,-0.9848152995109558,-0.07895821332931519,0.13016386330127716,-0.07672339677810669,0.03847677260637283
1.3974747576792534,1.0997719028440724,-1.4225037370343578,0.08796075731515884,-0.11074566096067429,0.11367455124855042,0.1536751687526703,-0.9850173592567444,-0.0782599002122879,0.1277121752500534,-0.07057034969329834,0.027768738567829132
1.3992665350478934,1.099616857623852,-1.423509616776266,0.10360930114984512,-0.11821189522743225,0.19172126054763794,0.15209095180034637,-0.9853248000144958,-0.07748282700777054,0.136513814330101,-0.056240200996398926,0.024183988571166992
1.4018012946277503,1.0979930003825908,-1.4230410278094932,0.11046347767114639,-0.11046982556581497,0.2640010416507721,0.14974084496498108,-0.9857543110847473,-0.0765920877456665,0.13454566895961761,-0.054498493671417236,0.028038740158081055
1.404903079402108,1.0951084468496466,-1.4210868082745147,0.11212527006864548,-0.07738801091909409,0.3141552805900574,0.14680081605911255,-0.9862712621688843,-0.0756232962012291,0.10651037096977234,-0.06020712852478027,0.033707499504089355
1.4083818768679341,1.0915243078245798,-1.417962414263815,0.11524196714162827,-0.02416500449180603,0.34420478343963623,0.14348314702510834,-0.9868397116661072,-0.07456616312265396,0.08707720041275024,-0.0509868860244751,0.0382809042930603
1.412003186203902,1.0880444933851938,-1.4143861199542183,0.11626438796520233,0.030874237418174744,0.3458308279514313,0.1400565654039383,-0.9874188303947449,-0.07340554147958755,0.061176374554634094,-0.030998587608337402,0.044810712337493896
1.4155010610933862,1.085166337470218,-1.4109332062396396,0.11669155955314636,0.0712972953915596,0.3178737461566925,0.13678951561450958,-0.9879658818244934,-0.07219585031270981,0.035634830594062805,-0.012491941452026367,0.040701866149902344
1.418783607503089,1.084008663721683,-1.4090211845004954,0.135990172624588,0.0731244683265686,0.2899235188961029,0.13383832573890686,-0.9884682893753052,-0.07083646953105927,0.022945746779441833,0.0019265413284301758,0.027745790779590607
1.421927130757056,1.085166877302053,-1.4093857832911425,0.16344842314720154,0.0854724869132042,0.2735951542854309,0.13117201626300812,-0.9889394044876099,-0.06923090666532516,0.01828785240650177,0.013399183750152588,0.017122268676757812
1.4251619040483292,1.0887034427845885,-1.4120214460546618,0.2026233971118927,0.09266528487205505,0.2798686623573303,0.12858034670352936,-0.9894140362739563,-0.06728273630142212,0.020787939429283142,0.0187261700630188,0.005881495773792267
1.4287757921116409,1.0932851044076795,-1.4157724626020298,0.22093874216079712,0.08155271410942078,0.31376057863235474,0.12571090459823608,-0.9899320006370544,-0.06504931300878525,0.033545076847076416,0.018908441066741943,-0.0024249479174613953
1.4328230330047216,1.0965056951415548,-1.4182579806900695,0.20473910868167877,0.07145631313323975,0.3756433129310608,0.12235439568758011,-0.9904967546463013,-0.06281374394893646,0.054006703197956085,0.01358330249786377,0.006035931408405304
1.4374161883512337,1.095143281741344,-1.4161841753366973,0.16618026793003082,0.06593557447195053,0.4703882038593292,0.11822360754013062,-0.9911180734634399,-0.06089676171541214,0.07173309475183487,0.009153783321380615,0.025145582854747772
1.4427270396804306,1.0878571292548558,-1.4083040998097864,0.1354764848947525,0.037948913872241974,0.5545099377632141,0.11311402916908264,-0.9918103218078613,-0.05931161344051361,0.09211672842502594,0.007786095142364502,0.03447043150663376
1.448271359034508,1.073600530351729,-1.3937357141535502,0.05958918109536171,0.0025331350043416023,0.5837072730064392,0.10742250829935074,-0.9925032258033752,-0.058294642716646194,0.050612807273864746,0.017908930778503418,0.044287197291851044
1.453494158630783,1.0503600481758184,-1.3704219941497258,-0.03624079003930092,-0.01961391046643257,0.5986933708190918,0.10153910517692566,-0.9931280016899109,-0.05819625034928322,0.007576517760753632,0.018274426460266113,0.07109010219573975
1.4583353337417762,1.015794877887635,-1.3359866876260356,-0.14968745410442352,-0.0308654997497797,0.6321290731430054,0.09537867456674576,-0.9936829209327698,-0.05913553386926651,0.007190920412540436,0.01460278034210205,0.08528918772935867
1.4627399488360013,0.967302485337584,-1.2875038715771214,-0.2625163793563843,-0.02879958041012287,0.6826122999191284,0.08879619836807251,-0.9941675662994385,-0.06120528653264046,0.010034993290901184,0.015423059463500977,0.10421991348266602
1.466452049777069,0.9046865130738762,-1.2248697359922647,-0.35975825786590576,-0.04011215642094612,0.6878209114074707,0.0818907842040062,-0.9945610761642456,-0.06436137855052948,0.010546982288360596,0.02750474214553833,0.11964410543441772
1.469073888004309,0.8333751097701281,-1.1537206696991131,-0.4120538532733917,-0.06413715332746506,0.6488266587257385,0.0751657634973526,-0.9948307275772095,-0.06827846169471741,-0.013596534729003906,0.04587137699127197,0.10091716796159744
1.470664422895105,0.7598353031946236,-1.080439952187953,-0.4141415059566498,-0.058043040335178375,0.6066352725028992,0.0688556432723999,-0.9949910044670105,-0.07246909290552139,-0.02994571626186371,0.04636740684509277,0.06599951535463333
1.471506736659014,0.6882779829340107,-1.0089935155831025,-0.396205335855484,-0.034546807408332825,0.5667672753334045,0.06296642124652863,-0.9950748085975647,-0.07656002789735794,-0.033104948699474335,0.04257535934448242,0.03478163480758667
1.471831855530349,0.6209944530240028,-0.9418073784286282,-0.3603980839252472,-0.052903708070516586,0.5234227180480957,0.05748903751373291,-0.9951069951057434,-0.08035801351070404,-0.03292235732078552,0.04034912586212158,0.009282700717449188
1.4718009908830207,0.5581444394191244,-0.8793339340954623,-0.3332330584526062,-0.08971414715051651,0.5043501257896423,0.052344247698783875,-0.9951039552688599,-0.08383562415838242,-0.032675646245479584,0.03140455484390259,-0.003200352191925049
1.471533389671635,0.4962635416788844,-0.818365575149361,-0.32153141498565674,-0.15323586761951447,0.5086055994033813,0.04718570411205292,-0.9950774908065796,-0.08714519441127777,-0.016530778259038925,0.02507627010345459,-0.0007605478167533875
1.4707989779779544,0.43384822697419534,-0.7575062104340023,-0.355623334646225,-0.2175312340259552,0.5043677091598511,0.04196586832404137,-0.995004415512085,-0.09058289229869843,-0.009876608848571777,0.015237510204315186,0.01152724027633667
1.4691733812235108,0.3702981341613294,-0.6961874473304575,-0.42826372385025024,-0.28341275453567505,0.5008395910263062,0.036713607609272,-0.9948408603668213,-0.09457244724035263,-0.008637413382530212,0.011701703071594238,0.032347261905670166
1.466374209404068,0.3066635273343339,-0.635164048721263,-0.5163348913192749,-0.2997699975967407,0.49088937044143677,0.031466055661439896,-0.9945529699325562,-0.09937091171741486,-0.015306975692510605,0.009750604629516602,0.05522733926773071
1.462258197867763,0.24640023972242164,-0.5776224363406977,-0.6029813885688782,-0.30372825264930725,0.4524109661579132,0.026422567665576935,-0.9941155314445496,-0.1050553247332573,-0.031976740807294846,0.004643917083740234,0.05959956347942352
1.4569240060597857,0.1929559623723769,-0.5270417050138217,-0.6749597191810608,-0.3398742377758026,0.40785619616508484,0.021789327263832092,-0.9935235381126404,-0.11151888221502304,-0.0406644307076931,-0.00014412403106689453,0.045555293560028076
1.4506121330059178,0.14666957307220957,-0.48423975158195276,-0.7272458672523499,-0.4112464189529419,0.3564278781414032,0.017522064968943596,-0.9927865862846375,-0.11860837042331696,-0.036839667707681656,0.006229519844055176,0.03166389465332031
1.4437355585432767,0.10853988868876217,-0.45012325566111866,-0.7345075011253357,-0.4341264069080353,0.2990794777870178,0.013727141544222832,-0.9919386506080627,-0.1259738951921463,-0.04450409859418869,0.013392448425292969,0.007977843284606934
1.4367739393916326,0.07783189013666997,-0.423373528505832,-0.709219753742218,-0.395817369222641,0.26913702487945557,0.010389630682766438,-0.9910324215888977,-0.1332184374332428,-0.04537801817059517,0.008732438087463379,-0.017736628651618958
1.4300829624752849,0.05156978488514716,-0.40052343598887574,-0.6618373394012451,-0.3274657428264618,0.26846590638160706,0.007229420822113752,-0.9901161789894104,-0.1400628536939621,-0.03222329914569855,-0.0006674528121948242,-0.029584214091300964
1.423834198524481,0.02807394953883285,-0.3798350759702895,-0.6049380898475647,-0.2752153277397156,0.2692706882953644,0.00411044480279088,-0.9892204999923706,-0.14637644588947296,-0.0170498788356781,0.0008781552314758301,-0.03849892318248749
1.4180350682480423,0.0070230355179474995,-0.36115439809079397,-0.5623745918273926,-0.24012206494808197,0.2613281011581421,0.0010686753084883094,-0.9883546829223633,-0.15216463804244995,-0.02214103937149048,0.0045288801193237305,-0.039653480052948
1.4126000653447228,-0.01138397797626126,-0.3448965203236683,-0.522003173828125,-0.22553139925003052,0.2414843738079071,-0.0017933676717802882,-0.9875130653381348,-0.15752755105495453,-0.03475140780210495,0.0014899969100952148,-0.04132485389709473
1.407550188091751,-0.02735324356411482,-0.33110604540205385,-0.47931399941444397,-0.24792546033859253,0.21460586786270142,-0.004444958176463842,-0.9867048859596252,-0.162461519241333,-0.03776083141565323,0.0017653107643127441,-0.04846058785915375
1.4029155945250678,-0.04078856957091926,-0.3201724299526329,-0.43602192401885986,-0.27414214611053467,0.17541399598121643,-0.006813616491854191,-0.9859411120414734,-0.16695454716682434,-0.03905428200960159,0.007166028022766113,-0.05205470323562622
1.3986937017401646,-0.05120588025395869,-0.312327986457008,-0.3907150626182556,-0.257164865732193,0.12770335376262665,-0.008765400387346745,-0.9852268695831299,-0.1710299253463745,-0.04192427545785904,0.009518802165985107,-0.05393028259277344
1.3950167257682091,-0.058685904622071086,-0.3071347227413287,-0.3309875428676605,-0.21155104041099548,0.0901903435587883,-0.01025686226785183,-0.9845905303955078,-0.17457488179206848,-0.04388129711151123,0.005266129970550537,-0.055664822459220886
1.3919130810492655,-0.06325432547035398,-0.304405712527106,-0.28161272406578064,-0.16012737154960632,0.043219905346632004,-0.011247420683503151,-0.9840430021286011,-0.17757545411586761,-0.04585094749927521,0.004993259906768799,-0.05782175064086914
1.38916148870019,-0.06505185172757405,-0.30402339650216864,-0.2684876024723053,-0.11843238025903702,0.006531132850795984,-0.011742522940039635,-0.9835497140884399,-0.18025550246238708,-0.049872443079948425,0.0013262033462524414,-0.04725293815135956
1.3865181951420589,-0.06533261483613055,-0.30476180915979495,-0.2583095133304596,-0.08426964282989502,0.003845612984150648,-0.011962862685322762,-0.9830687642097473,-0.18284645676612854,-0.0391235426068306,-0.008065938949584961,-0.02712959051132202
1.3840085239805402,-0.06553049053931914,-0.3051885410559679,-0.2405472844839096,-0.03978872299194336,0.014717701822519302,-0.012160593643784523,-0.9826058149337769,-0.18530581891536713,-0.023682283237576485,-0.01528865098953247,-0.020840302109718323
1.3816655069546684,-0.06652728690784648,-0.3044906702736202,-0.22272782027721405,-0.030497204512357712,0.04139324277639389,-0.012498263269662857,-0.9821680188179016,-0.18758948147296906,-0.011473268270492554,-0.016901254653930664,-0.024751663208007812
1.3794780630469257,-0.06940190643234428,-0.30198300472165185,-0.20297355949878693,-0.05353674292564392,0.08196943253278732,-0.013186457566916943,-0.9817544221878052,-0.18969622254371643,0.00010969489812850952,-0.021755218505859375,-0.02472013235092163
1.377522763205028,-0.07453374906851298,-0.2975348715352922,-0.17191097140312195,-0.10188695788383484,0.11539903283119202,-0.014302698895335197,-0.9813807606697083,-0.19154012203216553,0.01294468343257904,-0.0220831036567688,-0.03438138961791992
1.375797075123268,-0.08154413307283677,-0.2917903524839648,-0.15571975708007812,-0.17570047080516815,0.13285285234451294,-0.015783026814460754,-0.9810478091239929,-0.1931227594614029,0.010961262509226799,-0.018784523010253906,-0.03514865040779114
1.3741448784371346,-0.08993072498204409,-0.28537018860436153,-0.1509382128715515,-0.23735728859901428,0.1420489251613617,-0.01754765398800373,-0.9807263612747192,-0.19459782540798187,-0.0008696857839822769,-0.016420483589172363,-0.02114608883857727
1.3725490416689354,-0.09916927673766247,-0.2786341982260066,-0.14029595255851746,-0.2856963276863098,0.14841759204864502,-0.01949956826865673,-0.9804132580757141,-0.1959841251373291,-0.004426188766956329,-0.016046762466430664,-0.016128182411193848
1.3710258600904064,-0.10875191545248855,-0.27195381666855767,-0.1346461921930313,-0.3115568161010742,0.14180569350719452,-0.021538687869906425,-0.9801121354103088,-0.19727200269699097,-0.0005407612770795822,-0.011022508144378662,-0.01571004092693329
1.3694768818225018,-0.1172648681858088,-0.2661789209464919,-0.14999611675739288,-0.24464116990566254,0.11841275542974472,-0.02339482493698597,-0.9798035621643066,-0.19858883321285248,-0.00825187936425209,-0.009560942649841309,0.002498239278793335
1.3677537591698141,-0.12318891034528841,-0.2618247376760871,-0.1623605489730835,-0.08526652306318283,0.0949508547782898,-0.02477836422622204,-0.9794575572013855,-0.2001226842403412,-0.02124211937189102,-0.017109274864196777,0.043216705322265625
1.3660372595945223,-0.12677988630293932,-0.25871966547141767,-0.16501092910766602,-0.03465607762336731,0.08006112277507782,-0.025709332898259163,-0.9791100025177002,-0.20169951021671295,-0.026597773656249046,-0.02276688814163208,0.020547285676002502
1.3642000451681429,-0.13067783495752897,-0.25494067936767784,-0.17430554330348969,-0.01064269058406353,0.12348021566867828,-0.026729745790362358,-0.9787347912788391,-0.2033812403678894,0.002895534038543701,-0.01496344804763794,0.015454113483428955
1.3622937477106714,-0.13717748523836154,-0.24856641377105282,-0.16580739617347717,-0.04920286685228348,0.18391798436641693,-0.028306160122156143,-0.9783419966697693,-0.20505103468894958,0.03846853971481323,-0.018331706523895264,0.002185523509979248
1.3603210122719414,-0.14676736247320502,-0.23964346350190754,-0.16968515515327454,-0.12189605832099915,0.23321321606636047,-0.030553391203284264,-0.9779317378997803,-0.20667876303195953,0.04329449683427811,-0.021457970142364502,-0.02043294906616211
1.3582479337439517,-0.15838440937011627,-0.22940083459469832,-0.17389854788780212,-0.1948925107717514,0.2476467490196228,-0.03327198699116707,-0.9774965047836304,-0.2083115577697754,0.03778860718011856,-0.010357558727264404,-0.02124154567718506
1.3561621174952938,-0.17026321299393887,-0.2194793827903121,-0.1669146716594696,-0.23543724417686462,0.2313242107629776,-0.03608938306570053,-0.9770543575286865,-0.20991010963916779,0.020494919270277023,-0.002559840679168701,-0.02989688515663147
1.3541869055160272,-0.18097607590117498,-0.21088137266028747,-0.15598958730697632,-0.21639645099639893,0.196327343583107,-0.03868328034877777,-0.976631760597229,-0.211409330368042,0.0034049823880195618,-0.0012734532356262207,-0.031342580914497375
1.3523974837369728,-0.1892866540768387,-0.2042621331995235,-0.1391434222459793,-0.14489783346652985,0.14835235476493835,-0.04076766595244408,-0.976245641708374,-0.21279685199260712,-0.007953625172376633,0.00032395124435424805,-0.02612517774105072
1.3509105999082631,-0.19469486437280495,-0.19963040333800836,-0.11369745433330536,-0.02774990350008011,0.10640063881874084,-0.04219881072640419,-0.9759224057197571,-0.2139977514743805,-0.01674586907029152,0.006287217140197754,-0.01821044087409973
1.3497335257180667,-0.1975485251396289,-0.19642743570487659,-0.08561770617961884,0.08114045858383179,0.0792853981256485,-0.043034616857767105,-0.9756649732589722,-0.21500205993652344,-0.015009794384241104,-0.001248478889465332,-0.006143420934677124
1.348914429182354,-0.19886755427108338,-0.19384410422838455,-0.05110234022140503,0.15627703070640564,0.06392374634742737,-0.04347607493400574,-0.9754850268363953,-0.21572862565517426,-0.010112769901752472,-0.004754900932312012,-0.01251220703125
1.3484083448558284,-0.1992855253645438,-0.19165357381476478,-0.028338424861431122,0.18332672119140625,0.04959063231945038,-0.043664079159498215,-0.9753735661506653,-0.21619486808776855,-0.006781462579965591,0.004624485969543457,-0.022803455591201782
1.3481151886763119,-0.1992896458033606,-0.18966897650152656,-0.01280500739812851,0.20157656073570251,0.04979809373617172,-0.04372148588299751,-0.9753088355064392,-0.2164745181798935,-0.004648856818675995,0.006101012229919434,-0.02322566509246826
1.3478651187303308,-0.19863613630504523,-0.18817810564979248,-0.0013453438878059387,0.2091316133737564,0.051176801323890686,-0.04362809285521507,-0.9752535820007324,-0.2167419195175171,0.0034212060272693634,-0.002346515655517578,-0.024438366293907166
1.3476407943108084,-0.19812129437846573,-0.18653076669787655,-0.00568496435880661,0.20862162113189697,0.03561621531844139,-0.04355968162417412,-0.9752039313316345,-0.21697944402694702,0.0027271807193756104,-0.003235459327697754,-0.025085866451263428
1.3473061866535272,-0.19712908489407815,-0.18545483064159332,-0.026137404143810272,0.2000136822462082,0.019258176907896996,-0.04340818524360657,-0.9751298427581787,-0.2173420786857605,-0.005618281662464142,-0.0026229023933410645,-0.01753634214401245
1.3467552442827444,-0.19593551674238913,-0.18475395053905316,-0.05694804713129997,0.17219802737236023,0.014750510454177856,-0.043253377079963684,-0.9750075936317444,-0.2179209142923355,-0.002019427716732025,-0.006254673004150391,-0.009465456008911133
1.3460331606214075,-0.19483382882579692,-0.18441683730588906,-0.07475969195365906,0.11568105220794678,0.012762225233018398,-0.04314948990941048,-0.9748468995094299,-0.2186587154865265,0.003598734736442566,-0.010977685451507568,-0.011886224150657654
1.345216634641584,-0.19447374380702093,-0.18395142401080475,-0.06498987972736359,0.0480482243001461,0.022802341729402542,-0.04322461038827896,-0.9746646285057068,-0.21945540606975555,0.019024189561605453,-0.006536602973937988,-0.0308038592338562
1.34454937792263,-0.19501419633823636,-0.1832526823346492,-0.0262365210801363,-0.016125794500112534,0.019482340663671494,-0.04346926882863045,-0.9745151400566101,-0.22007019817829132,0.02683720737695694,0.001187443733215332,-0.05141407251358032
1.3443217756039783,-0.19627336949458132,-0.18231951819993655,0.021807437762618065,-0.0474616140127182,0.02438974939286709,-0.0437895730137825,-0.9744640588760376,-0.22023271024227142,0.027340617030858994,-0.0036091208457946777,-0.05750763416290283
1.3445700436108843,-0.1982390001042764,-0.18064893501002988,0.07312138378620148,-0.01587270200252533,0.042676184326410294,-0.04417474567890167,-0.9745197892189026,-0.21990907192230225,0.032089803367853165,-0.013044476509094238,-0.04805043339729309
1.3453637832093348,-0.20084411292155088,-0.1779100773287601,0.13887695968151093,0.029644981026649475,0.05089017003774643,-0.044593147933483124,-0.9746975302696228,-0.21903517842292786,0.024207424372434616,-0.017535805702209473,-0.04138648509979248
1.3468101575247655,-0.20437049815091005,-0.17369808871702402,0.19916297495365143,0.08567015081644058,0.06824509799480438,-0.04507908597588539,-0.9750198125839233,-0.21749578416347504,0.015034548938274384,-0.023454368114471436,-0.045504629611968994
1.3487573799698744,-0.20905459916112473,-0.1679381347770683,0.2339949905872345,0.09037329256534576,0.10328005254268646,-0.04570316523313522,-0.9754504561424255,-0.21542419493198395,0.018634095788002014,-0.020582258701324463,-0.04385301470756531
1.3505865854414867,-0.21583843772557834,-0.16024693960664046,0.19595812261104584,0.04929642751812935,0.15336957573890686,-0.046781253069639206,-0.9758516550064087,-0.21336576342582703,0.031171534210443497,-0.02356851100921631,-0.02259598672389984
1.3516012377536477,-0.22395000615332938,-0.15174821653358928,0.11271435767412186,-0.018599530681967735,0.1814025491476059,-0.04829058796167374,-0.9760727882385254,-0.2120140939950943,0.03619038686156273,-0.030442774295806885,0.016549184918403625
1.3516389956885415,-0.23245229543846044,-0.14341385586366093,0.031122468411922455,-0.05958974361419678,0.18862982094287872,-0.05008312687277794,-0.9760810136795044,-0.21156081557273865,0.024341560900211334,-0.030846714973449707,0.03873983025550842
1.3510400923543207,-0.24058217826590317,-0.1357696232265751,-0.021701065823435783,-0.07655301690101624,0.17521680891513824,-0.051940590143203735,-0.9759505987167358,-0.21171392500400543,0.006698302924633026,-0.017671287059783936,0.03645157814025879
1.3502311103497597,-0.24733909024269998,-0.12957829367667978,-0.038488175719976425,-0.06985796242952347,0.14768710732460022,-0.053563062101602554,-0.9757739305496216,-0.21212302148342133,-0.015421900898218155,-0.016993403434753418,0.022670045495033264
1.3495231285467904,-0.25293584468290914,-0.12443549844597884,-0.016337331384420395,-0.04832737147808075,0.12224593013525009,-0.05492229759693146,-0.9756187796592712,-0.21248877048492432,-0.01687028259038925,-0.01466137170791626,0.010691419243812561
1.349179429603197,-0.25748302293953673,-0.1199818890027918,0.02188924141228199,0.007401043549180031,0.09671580046415329,-0.05597337335348129,-0.9755433201789856,-0.2125612199306488,-0.018169060349464417,-0.007946670055389404,0.0007998496294021606
1.349353073712867,-0.260775567968021,-0.11615933679962967,0.07446882873773575,0.07176059484481812,0.07131484150886536,-0.056629281491041183,-0.9755814671516418,-0.2122121900320053,-0.026653170585632324,-0.01178431510925293,-0.010520219802856445
1.3501213183138157,-0.2633535548505284,-0.11251200493116742,0.12112465500831604,0.11348017305135727,0.06237407401204109,-0.05698097124695778,-0.9757499098777771,-0.2113414853811264,-0.025828450918197632,-0.0150337815284729,-0.015754923224449158
1.3513342840537044,-0.2662588481744115,-0.10827856487895705,0.14418363571166992,0.12428434938192368,0.07867768406867981,-0.0572834350168705,-0.9760147333145142,-0.21003364026546478,-0.019803952425718307,-0.012480318546295166,-0.013202399015426636
1.352611848807912,-0.27043176724233275,-0.10280007241793461,0.13438159227371216,0.10415646433830261,0.10231881588697433,-0.0578262135386467,-0.9762920141220093,-0.20859095454216003,-0.008946236222982407,-0.013866186141967773,-0.004635244607925415
1.3535889715477605,-0.27598930934796934,-0.09625017630054458,0.10539042204618454,0.05932454764842987,0.12484036386013031,-0.05872461944818497,-0.9765030741691589,-0.2073485106229782,-0.0008456781506538391,-0.017195165157318115,0.00982356071472168
1.3542269635085924,-0.28265539515935095,-0.08908848021041839,0.08576495945453644,0.00728432834148407,0.1295156627893448,-0.05993177741765976,-0.9766403436660767,-0.2063542604446411,-0.008946385234594345,-0.017332613468170166,0.009256571531295776
1.354726796631171,-0.2896982374173059,-0.08206123839647801,0.09032535552978516,-0.040045104920864105,0.12198317795991898,-0.06124389171600342,-0.9767476320266724,-0.2054583728313446,-0.012715429067611694,-0.011579334735870361,-0.00810346007347107
1.3553381619423652,-0.29678132631109483,-0.07537516349453839,0.11858207732439041,-0.06490468978881836,0.10304924845695496,-0.06252305209636688,-0.9768785238265991,-0.20444859564304352,-0.017967037856578827,0.0005906820297241211,-0.025607988238334656
1.35625904924653,-0.3032791857294473,-0.069333028390575,0.14669546484947205,-0.04836326837539673,0.0676577016711235,-0.06358148157596588,-0.9770749807357788,-0.20317929983139038,-0.03561587631702423,0.004952788352966309,-0.027533456683158875
1.3574514189710005,-0.3083158563652893,-0.06451928815400766,0.16131287813186646,-0.01586637832224369,0.03477410227060318,-0.06425058841705322,-0.9773281812667847,-0.20174670219421387,-0.042087897658348083,0.006792783737182617,-0.019078373908996582
1.358766210850705,-0.3118657427888083,-0.06084073404251274,0.15758951008319855,0.02909070998430252,0.01966172456741333,-0.06457206606864929,-0.9776057004928589,-0.20029430091381073,-0.03938605636358261,0.0046288371086120605,0.002586275339126587
1.3601408753581987,-0.3142165412460219,-0.05780006846281024,0.15459072589874268,0.0946846604347229,0.01632918044924736,-0.06462706625461578,-0.9778940677642822,-0.19886289536952972,-0.035180650651454926,-0.0030171871185302734,0.019648566842079163
1.361655968814306,-0.31584813444549403,-0.054798592603978874,0.16684551537036896,0.16342857480049133,0.015352066606283188,-0.06449136883020401,-0.9782097339630127,-0.19734932482242584,-0.0273054838180542,-0.00643998384475708,0.0195692777633667
1.3633160272461171,-0.3174700788035278,-0.05117631263679883,0.19011251628398895,0.21250583231449127,0.01772085204720497,-0.0643041580915451,-0.978553056716919,-0.19570082426071167,-0.022167369723320007,-0.0025259852409362793,0.011267989873886108
1.3650066587534202,-0.3191437512845785,-0.047247255957664,0.19955235719680786,0.21554715931415558,0.013130095787346363,-0.064112588763237,-0.9788999557495117,-0.19402223825454712,-0.02464776486158371,3.325939178466797e-05,0.0008003115653991699
1.3665250257179313,-0.32063333651577147,-0.04376524755568793,0.18337419629096985,0.16217099130153656,0.0014462866820394993,-0.0639331266283989,-0.9792090654373169,-0.19251605868339539,-0.02224849909543991,0.0030583739280700684,0.0031240880489349365
1.367836857873284,-0.3226884458911207,-0.04031392577423622,0.1664668470621109,0.10622677206993103,-0.0034014652483165264,-0.06392128765583038,-0.9794743061065674,-0.19116602838039398,-0.02909628301858902,0.006741583347320557,0.013218134641647339
1.369047191908367,-0.32554992201861394,-0.03670220655706829,0.15602721273899078,0.041146621108055115,0.007380947005003691,-0.06408876925706863,-0.9797175526618958,-0.18985877931118011,-0.024244338274002075,0.008846521377563477,0.01278066635131836
