attitudeX,attitudeY,attitudeZ,gyroX,gyroY,gyroZ,gravityX,gravityY,gravityZ,accX,accY,accZ
1.4699960381639086,0.14986758489634797,-2.15118427416984,0.2956525981426239,0.3787500560283661,-0.32848796248435974,0.015024666674435139,-0.9949239492416382,-0.09950125217437744,-0.007029117085039616,-0.05362945795059204,-0.07209908217191696
1.4719042318895899,0.18926341328339222,-2.1882059791710686,0.18917249143123627,0.11155431717634201,-0.31336653232574463,0.018574917688965797,-0.9951141476631165,-0.09696853905916214,0.013437971472740173,-0.048525989055633545,0.03703200817108154
1.472346604480581,0.21565756050393875,-2.215597362520583,-0.013395633548498154,-0.27065083384513855,-0.19549667835235596,0.02103324420750141,-0.9951577186584473,-0.09601405262947083,0.048073768615722656,-0.001897275447845459,0.1400814652442932
1.4705993918132645,0.22193586422906186,-2.2261607589620898,-0.273519366979599,-0.5629875659942627,-0.09830968081951141,0.02201814204454422,-0.99498450756073,-0.09757523238658905,0.0658419132232666,-0.031794607639312744,0.19842059910297394
1.4667994655929686,0.2133427386132752,-2.224599307199507,-0.4680345356464386,-0.8949254155158997,-0.011608105152845383,0.02197912149131298,-0.9945971965789795,-0.10145480185747147,0.05742757022380829,-0.09741318225860596,0.17694003880023956
1.4613748879344997,0.18683480251550408,-2.20982872030863,-0.6561967134475708,-1.454540729522705,0.10104893893003464,0.020284589380025864,-0.9940194487571716,-0.10730341076850891,0.08535195887088776,-0.01280122995376587,0.1657598614692688
1.4545203262537703,0.14469502619216737,-2.184436556031096,-0.7590447664260864,-1.8886314630508423,0.24090057611465454,0.01672816090285778,-0.9932475686073303,-0.11480183899402618,0.131297305226326,0.03597217798233032,0.1499122977256775
1.4479235942293285,0.09367434321559048,-2.152636489079276,-0.6096542477607727,-1.9289213418960571,0.34184449911117554,0.011464307084679604,-0.9924606680870056,-0.12202652543783188,0.13028979301452637,-0.018464624881744385,-0.017652392387390137
1.4433646346238003,0.045297811991742105,-2.122695263612205,-0.3377252221107483,-1.800344705581665,0.3240624964237213,0.00575479120016098,-0.9918915629386902,-0.12695655226707458,0.02172623574733734,0.029519736766815186,-0.16291457414627075
1.441450816461606,0.006614804008658085,-2.101092618750594,-0.06318581104278564,-1.6341913938522339,0.20505782961845398,0.0008532077190466225,-0.9916465282440186,-0.12898270785808563,-0.10378904640674591,0.13082194328308105,-0.1752774715423584
1.4417107572644572,-0.017787503800313447,-2.091894083145841,0.09611506760120392,-1.4074599742889404,0.02497817948460579,-0.0022896132431924343,-0.9916800260543823,-0.12870673835277557,-0.1675102263689041,0.1993827223777771,-0.08113209903240204
1.4429162991267437,-0.02468341422381706,-2.0980880850562156,0.13343101739883423,-1.20858895778656,-0.18990856409072876,-0.0031475999858230352,-0.9918344616889954,-0.12749291956424713,-0.16688114404678345,0.20216166973114014,0.01683618128299713
1.4444121806301609,-0.013689079138834636,-2.120972488141343,0.13882333040237427,-1.072702169418335,-0.3828483819961548,-0.0017254300182685256,-0.9920241236686707,-0.1260363906621933,-0.12045174837112427,0.18320149183273315,0.04264712333679199
1.443503848191759,0.014483135267124341,-2.151040652440597,-0.27672114968299866,0.766750693321228,-0.3510172367095947,0.001838548225350678,-0.9919092655181885,-0.1269351989030838,-0.03858175873756409,0.18900710344314575,-0.06292985379695892
1.4414688695690385,0.05376116148829883,-2.1803103870147966,-0.08460861444473267,1.179832100868225,-0.4249287545681,0.006930113770067692,-0.9916488528251648,-0.12878136336803436,-0.0351131409406662,0.2208053469657898,-0.21882909536361694
1.4404040601445858,0.09842720087464113,-2.210933866825085,-0.09893828630447388,1.6748000383377075,-0.3458121120929718,0.012777142226696014,-0.9915109872817993,-0.12939365208148956,-0.006811007857322693,0.3032175302505493,-0.09135526418685913
1.4382589298728523,0.13513909935836227,-2.2290523355868745,-0.21785075962543488,1.9859062433242798,-0.20280319452285767,0.017804279923439026,-0.991229772567749,-0.13094481825828552,0.10084801912307739,0.2893255352973938,-0.046224936842918396
1.436500040321775,0.1679731282503709,-2.241210113575228,-0.06660985201597214,2.15744948387146,-0.15769298374652863,0.022384988144040108,-0.9909958243370056,-0.1320095658302307,0.23989827930927277,0.25047141313552856,-0.030008211731910706
1.4364258350442918,0.19536936168450797,-2.246306147363878,0.05095379799604416,2.3000597953796387,0.03874377906322479,0.026006916537880898,-0.9909858703613281,-0.13141867518424988,0.3029572665691376,0.2906225919723511,-0.09804297983646393
1.437280529710188,0.21091374781219932,-2.2384063715271094,0.07513555884361267,2.309870958328247,0.1817893534898758,0.02786909230053425,-0.991100013256073,-0.13016986846923828,0.2650080621242523,0.3228718638420105,-0.10020732879638672
1.4393052694711304,0.21651965948031365,-2.22304071945274,0.2556043267250061,1.8398866653442383,0.3162500560283661,0.02816709317266941,-0.991367518901825,-0.12805093824863434,0.13490353524684906,0.40720003843307495,0.0034019500017166138
1.444270532850786,0.20739477726409597,-2.1981704562108098,0.5979544520378113,1.2379099130630493,0.5147663950920105,0.025983765721321106,-0.9920063018798828,-0.1234850287437439,0.03445624187588692,0.45596492290496826,0.013896390795707703
1.4529666078000343,0.1881686343899919,-2.168180801315646,0.9606080055236816,0.913475751876831,0.48286956548690796,0.02199038490653038,-0.993066132068634,-0.11548274010419846,-0.04913582652807236,0.41324734687805176,-0.05932188034057617
1.465070932742787,0.18601905405180294,-2.158590780050322,1.3848559856414795,0.5373790860176086,0.17353355884552002,0.019517309963703156,-0.9944162964820862,-0.10370802879333496,-0.12257522344589233,0.4156656861305237,-0.09049052000045776
1.4809889280988293,0.21566524418876157,-2.1857972899501195,1.8271045684814453,-0.0538388155400753,-0.037090498954057693,0.019192369654774666,-0.9959700107574463,-0.0876074731349945,-0.1583983600139618,0.4992508292198181,-0.03923880308866501
1.5003988494102316,0.281714855275839,-2.2561806142682954,2.1815736293792725,-0.7650468945503235,-0.08173786103725433,0.019554495811462402,-0.9975231289863586,-0.06756631284952164,-0.14087718725204468,0.5329082608222961,0.024155080318450928
1.5216926669681008,0.4157300688851047,-2.401294127283049,2.35941743850708,-1.3806538581848145,-0.09921780228614807,0.01982257142663002,-0.998794674873352,-0.04490222409367561,-0.1126265823841095,0.5306245684623718,0.1067003607749939
1.540799034472206,0.7623677134599829,-2.7644525132916296,2.313554048538208,-1.8349534273147583,-0.20038515329360962,0.020713480189442635,-0.9995501041412354,-0.021690228953957558,-0.12047548592090607,0.5391314625740051,0.19280236959457397
1.5472754771636787,1.5802819909670403,2.6809968059867906,2.125779867172241,-2.0319559574127197,-0.4056966304779053,0.023517392575740814,-0.9997233748435974,0.00022308477491606027,-0.1301306039094925,0.5580883026123047,0.2444363832473755
1.5359754204993679,2.1639354241012,2.0766575954862727,1.802633285522461,-2.0240559577941895,-0.6133387684822083,0.02886827662587166,-0.9993938207626343,0.019460439682006836,-0.14361442625522614,0.5830119848251343,0.23366761207580566
1.5204568762911657,2.3360877403256883,1.88486620421028,1.388346552848816,-1.837695598602295,-0.7499650120735168,0.036290448158979416,-0.9987332224845886,0.034859661012887955,-0.1381581723690033,0.6352077126502991,0.2304297685623169
1.5067231238093561,2.369733513887822,1.834447708573369,0.9491473436355591,-1.4626498222351074,-0.7717015147209167,0.044659681618213654,-0.9979479908943176,0.04588565230369568,-0.08793364465236664,0.6992112994194031,0.22059381008148193
1.4963205293610038,2.3580208497487485,1.8341914616947512,0.5341520309448242,-0.9051968455314636,-0.6719179749488831,0.052518367767333984,-0.9972279667854309,0.052710555493831635,-0.04447702318429947,0.7414752840995789,0.18949222564697266
1.4895975096110476,2.329974466823329,1.8561878845077437,0.1656176745891571,-0.33675041794776917,-0.5232195854187012,0.05883830040693283,-0.996705174446106,0.055830977857112885,-0.019775845110416412,0.7739878296852112,0.1598825454711914
1.4860674978512813,2.2911773958874018,1.8932556289340947,-0.13189814984798431,-0.07962536811828613,-0.41591817140579224,0.0636032223701477,-0.9964126348495483,0.05582723766565323,-0.02315220981836319,0.8057082295417786,0.14450538158416748
1.484690328437853,2.241897017567743,1.9417876097168658,-0.3109549582004547,-0.1367941051721573,-0.31967365741729736,0.06734922528266907,-0.996295154094696,0.05347846820950508,-0.01856692135334015,0.7948181629180908,0.10968375205993652
1.484893378202258,2.1874813609232864,1.9937918319760497,-0.42336711287498474,-0.4051878750324249,-0.17290711402893066,0.0699947401881218,-0.9963126182556152,0.04962041229009628,-0.006533481180667877,0.7479146718978882,0.0716564729809761
1.4868930975316401,2.130199502196303,2.045418208459281,-0.5233008861541748,-0.7494248747825623,0.027367115020751953,0.07102981954813004,-0.9964821934700012,0.0444730781018734,0.00842263549566269,0.717307448387146,0.05724203214049339
1.4911993535001515,2.0700815795085825,2.096851102766003,-0.638651430606842,-1.0144858360290527,0.3005777597427368,0.06980648636817932,-0.996833860874176,0.03807069733738899,0.0533166378736496,0.7122421860694885,0.0303192138671875
1.498527749353916,2.0039028049801537,2.1517918256814834,-0.7551213502883911,-1.254531979560852,0.6243225336074829,0.06553798168897629,-0.9973897337913513,0.030303863808512688,0.08587493747472763,0.7099905610084534,0.0073548536747694016
1.5084142011200006,1.9222443950484962,2.2200813849237138,-0.8448139429092407,-1.4255542755126953,0.8268544673919678,0.05853048712015152,-0.9980548620223999,0.021461395546793938,0.023882191628217697,0.6688007712364197,-0.0330122709274292
1.5196843293290068,1.7957913317369067,2.3316567175304397,-1.0202901363372803,-1.5761892795562744,0.9690805673599243,0.0498017854988575,-0.9986940622329712,0.011398140341043472,-0.03455829620361328,0.6368166208267212,-0.0349423885345459
1.5317527772536197,1.5464321524334166,2.564806732602851,-1.3064930438995361,-1.690929889678955,1.2209045886993408,0.039023589342832565,-0.9992378950119019,-0.0009509657393209636,0.013039350509643555,0.6242073774337769,0.015736758708953857
1.5412258659906755,0.9934236301751364,3.1011645567158506,-1.6105014085769653,-1.6679543256759644,1.598299503326416,0.0247704666107893,-0.9995627999305725,-0.01613597385585308,0.08982299268245697,0.5907495021820068,0.015388311818242073
1.5362492474223945,0.19325435718756212,-2.3974938388516165,-1.8720492124557495,-1.5174758434295654,1.920038104057312,0.006633009295910597,-0.9994032979011536,-0.033894337713718414,0.06468652188777924,0.5606827139854431,-0.054637130349874496
1.515261164743028,-0.253024979694883,-1.965401578165459,-2.0930895805358887,-1.3922092914581299,2.013434886932373,-0.013894456438720226,-0.9984583258628845,-0.05373646318912506,-0.09242881834506989,0.5119930505752563,-0.15567515790462494
1.4879971024607586,-0.42865956434550556,-1.8022420304821554,-2.254596471786499,-1.1493903398513794,1.9018868207931519,-0.03437589854001999,-0.9965741038322449,-0.07522083818912506,-0.2843039631843567,0.3764875531196594,-0.28183484077453613
1.4589990923297194,-0.4984006312124606,-1.7423073119725156,-2.3978822231292725,-0.860704243183136,1.716507911682129,-0.05333033576607704,-0.9937571883201599,-0.09799270331859589,-0.40605080127716064,0.2504557967185974,-0.39636147022247314
1.42931449570257,-0.5221663670028992,-1.7255810594977314,-2.5689613819122314,-0.5660969018936157,1.5608190298080444,-0.07033026963472366,-0.9900081157684326,-0.12221956253051758,-0.4172796308994293,0.1378505825996399,-0.44314903020858765
1.398243487088819,-0.527122057590772,-1.7247570841303688,-2.7730154991149902,-0.2568085789680481,1.5829781293869019,-0.08637229353189468,-0.9851496815681458,-0.14839132130146027,-0.2936173677444458,0.027706444263458252,-0.4351353049278259
1.365246316806329,-0.5272301569778539,-1.7260378151072107,-2.9281718730926514,-0.04004572331905365,1.6908032894134521,-0.10269386321306229,-0.9789488911628723,-0.17638862133026123,-0.1553322970867157,-0.05509340763092041,-0.4094725251197815
1.3306317978112434,-0.5289573074258899,-1.7245240172079952,-2.9825706481933594,-0.0234433114528656,1.8482780456542969,-0.12003354728221893,-0.97129887342453,-0.20535501837730408,-0.05287909507751465,-0.13886970281600952,-0.3817574083805084
1.2952219768221707,-0.535420818182744,-1.7186329198725834,-2.9417002201080322,-0.14268027245998383,1.9773657321929932,-0.13882595300674438,-0.9622690677642822,-0.23402021825313568,-0.017866596579551697,-0.2333027720451355,-0.38454049825668335
1.2599874176535304,-0.5442545122293332,-1.7117400396368674,-2.8851945400238037,-0.30156153440475464,1.9555068016052246,-0.15835212171077728,-0.9520865082740784,-0.2616405785083771,-0.09816339612007141,-0.36695945262908936,-0.38762083649635315
1.2256089246964075,-0.5515044196024974,-1.7079146858828802,-2.835501194000244,-0.40429386496543884,1.8193844556808472,-0.17729704082012177,-0.9410120844841003,-0.2882049083709717,-0.19622288644313812,-0.5033391118049622,-0.37405699491500854
1.1923318699182088,-0.5558612459486372,-1.7074349796892834,-2.7948591709136963,-0.3542293608188629,1.700600504875183,-0.19497285783290863,-0.9292331337928772,-0.31386545300483704,-0.23167817294597626,-0.6338620185852051,-0.4022294878959656
1.159976701791701,-0.5565924362672835,-1.7097883437678287,-2.7802677154541016,-0.22458714246749878,1.5416170358657837,-0.21098075807094574,-0.9167938232421875,-0.33908143639564514,-0.24403637647628784,-0.7725830078125,-0.42460572719573975
1.1287071115575622,-0.5533663038695856,-1.7156520033287455,-2.764096260070801,-0.21684560179710388,1.3313034772872925,-0.22484718263149261,-0.9038597941398621,-0.363979697227478,-0.25131863355636597,-0.9307348728179932,-0.3938174843788147
1.0988887735832835,-0.5483513257246528,-1.7240213954628736,-2.675593137741089,-0.2725055515766144,1.1632742881774902,-0.23696717619895935,-0.8907027840614319,-0.38793712854385376,-0.21924015879631042,-1.093153476715088,-0.38133466243743896
1.070914585984515,-0.5433650758333713,-1.7327216157980008,-2.5046184062957764,-0.2648575007915497,1.041571021080017,-0.24781863391399384,-0.8776392340660095,-0.41028687357902527,-0.16596923768520355,-1.2273259162902832,-0.42972469329833984
1.045324420904452,-0.5393160723488657,-1.7406266623479874,-2.259877920150757,-0.3037322759628296,0.9279773831367493,-0.25760722160339355,-0.8650873303413391,-0.4304211735725403,-0.15837791562080383,-1.3354742527008057,-0.45666369795799255
1.0225911298047454,-0.5370896098978901,-1.7471154423337323,-1.9695123434066772,-0.358574241399765,0.8276864290237427,-0.26664304733276367,-0.8534612655639648,-0.4477780759334564,-0.15370610356330872,-1.4629449844360352,-0.4717622697353363
1.0029508813014327,-0.5361189664206523,-1.7523069782073308,-1.682963490486145,-0.3078264892101288,0.7008744478225708,-0.27471858263015747,-0.8430616855621338,-0.462359756231308,-0.16648930311203003,-1.5832231044769287,-0.47782573103904724
0.9863298706722359,-0.5347058373229022,-1.7569169066851527,-1.4272654056549072,-0.1771925985813141,0.556207537651062,-0.2811674177646637,-0.8340066075325012,-0.47473976016044617,-0.1972261369228363,-1.677559494972229,-0.46337053179740906
0.9725900125760973,-0.5317096568618228,-1.7617166629812973,-1.203498363494873,-0.012208973057568073,0.36718884110450745,-0.2855270802974701,-0.8263470530509949,-0.485412061214447,-0.2239944338798523,-1.7836687564849854,-0.4450078010559082
0.962024743676737,-0.5260015296124145,-1.767598383800161,-0.9348602294921875,0.1806448996067047,0.11767380684614182,-0.28711920976638794,-0.8203511238098145,-0.4945569932460785,-0.26088500022888184,-1.886664867401123,-0.4454301595687866
0.9554613148847251,-0.5178618734321763,-1.7744079948234408,-0.5843186378479004,0.3168870508670807,-0.13507214188575745,-0.28574347496032715,-0.8165801167488098,-0.5015451908111572,-0.27755001187324524,-1.9355409145355225,-0.4804188013076782
0.9532774083011952,-0.5086771297409761,-1.781333143567379,-0.18493714928627014,0.3790050148963928,-0.3374031186103821,-0.28199276328086853,-0.8153175711631775,-0.5057048201560974,-0.24310797452926636,-1.9589896202087402,-0.49443238973617554
0.9554964445100074,-0.5000117704456002,-1.7871096961089519,0.25604432821273804,0.4083670377731323,-0.44181475043296814,-0.2767319679260254,-0.8166003823280334,-0.5065402984619141,-0.17930743098258972,-1.9452251195907593,-0.4898127317428589
0.9620693753796309,-0.49346277493724644,-1.7897779749664844,0.7596986889839172,0.4692058861255646,-0.44267627596855164,-0.2708604037761688,-0.8203766345977783,-0.5036037564277649,-0.10847309231758118,-1.8741576671600342,-0.5051547288894653
0.9733333241554205,-0.4899761835425636,-1.7878456829312654,1.3314582109451294,0.5382886528968811,-0.4272391200065613,-0.26473718881607056,-0.8267654776573181,-0.4963596761226654,-0.10014626383781433,-1.762132167816162,-0.5497828722000122
0.9896959855421271,-0.4903917043842502,-1.7806220897789151,1.918997049331665,0.5744298696517944,-0.39829665422439575,-0.2585369050502777,-0.8358591198921204,-0.484250009059906,-0.1363147795200348,-1.6435414552688599,-0.5809202194213867
1.0107261091786308,-0.49590964027870643,-1.7673686804284447,2.440220355987549,0.5464683175086975,-0.3312675952911377,-0.2527836561203003,-0.8472177982330322,-0.4672498404979706,-0.1392909586429596,-1.5347859859466553,-0.5706071853637695
1.0356235635634066,-0.5065612330997015,-1.7487238441935125,2.819427251815796,0.5108572840690613,-0.3744698762893677,-0.24743326008319855,-0.8601805567741394,-0.44594407081604004,-0.20529502630233765,-1.4409363269805908,-0.5267578363418579
1.0634707259670435,-0.5194475705055569,-1.727800029987712,3.0161263942718506,0.5401005744934082,-0.5574125647544861,-0.2411719113588333,-0.8740469813346863,-0.42175567150115967,-0.3401879668235779,-1.340216875076294,-0.44181543588638306
1.0933729857061456,-0.5313873396380495,-1.7079999196712286,3.057522773742676,0.5549793839454651,-0.8284072875976562,-0.2328384518623352,-0.8881818056106567,-0.3961305320262909,-0.44173741340637207,-1.2322100400924683,-0.3497037887573242
1.1243209110957038,-0.5399482111546365,-1.6922260286254132,2.944535255432129,0.5488256216049194,-1.1088979244232178,-0.22197920083999634,-0.9019745588302612,-0.3703608512878418,-0.47910115122795105,-1.1254149675369263,-0.2531895041465759
1.1549041516414806,-0.5438425247350269,-1.6819887681700236,2.704460382461548,0.5348171591758728,-1.286344051361084,-0.20904409885406494,-0.9147562384605408,-0.3457189202308655,-0.42357009649276733,-1.002190113067627,-0.14717048406600952
1.1835312057790357,-0.5436751749005546,-1.6763190214248151,2.4082298278808594,0.5321696400642395,-1.260197639465332,-0.19535647332668304,-0.9259453415870667,-0.3232043385505676,-0.27964967489242554,-0.8582037687301636,-0.07916992902755737
1.2091565447920756,-0.5434477741261586,-1.6711594730561845,2.1707334518432617,0.4654332399368286,-1.033626914024353,-0.18295079469680786,-0.9353179335594177,-0.30283549427986145,-0.11479401588439941,-0.6959992051124573,-0.09267228841781616
1.231795152388987,-0.5493094180416966,-1.6603843970262169,2.0974528789520264,0.3920028507709503,-0.6826491355895996,-0.1736212968826294,-0.9430872797966003,-0.2836228907108307,-0.017144113779067993,-0.5577061176300049,-0.23070505261421204
1.2534265073468107,-0.5650407186622088,-1.6397517901554461,2.296341896057129,0.35830774903297424,-0.5083265900611877,-0.1670973151922226,-0.9500594735145569,-0.26356297731399536,-0.08218556642532349,-0.45492398738861084,-0.49818629026412964
1.2772393593915445,-0.5910912926301948,-1.6097255854892254,2.675187587738037,0.16042715311050415,-0.6138508915901184,-0.16125020384788513,-0.9572206735610962,-0.24026408791542053,-0.30307477712631226,-0.29854708909988403,-0.7358406186103821
1.3052962994095723,-0.6258163355656852,-1.5722947548939668,3.0873985290527344,0.08668689429759979,-0.8993688821792603,-0.15369823575019836,-0.9649614095687866,-0.21266447007656097,-0.459247350692749,-0.13956117630004883,-0.8451358079910278
1.3375547320540238,-0.6707192591207808,-1.5259332113099062,3.3999717235565186,-0.09520230442285538,-1.1595420837402344,-0.14366036653518677,-0.9729222655296326,-0.1810634434223175,-0.5000011920928955,-0.05156809091567993,-0.8455325961112976
1.372641295048944,-0.7312880613020725,-1.4656453240176615,3.5800280570983887,-0.20950518548488617,-1.3780667781829834,-0.13146929442882538,-0.9804314374923706,-0.14652636647224426,-0.4355015456676483,0.07671445608139038,-0.6946448683738708
1.4084551941974977,-0.8131851751542822,-1.384821670497499,3.509052038192749,-0.28483617305755615,-1.51393723487854,-0.11742044985294342,-0.9868515729904175,-0.11106975376605988,-0.31959131360054016,0.14774024486541748,-0.510130763053894
1.4417906752128467,-0.9278906758074328,-1.2732359404537452,3.223501682281494,-0.5860167145729065,-1.4475358724594116,-0.10296495258808136,-0.9916902780532837,-0.07712795585393906,-0.14485308527946472,0.1628633737564087,-0.32297277450561523
1.4694449120687296,-1.1037151848340552,-1.1034490989683472,2.9967498779296875,-0.8093584179878235,-1.1533671617507935,-0.09034135937690735,-0.9948683381080627,-0.04555908590555191,0.059961073100566864,0.1847638487815857,-0.3380010724067688
1.488541403766257,-1.3820896480560587,-0.832461259933167,2.909184217453003,-0.855276882648468,-0.8415801525115967,-0.08070210367441177,-0.9966189861297607,-0.015412408858537674,0.08962848037481308,0.2745732069015503,-0.5211323499679565
1.4961613360547454,-1.7663472137238445,-0.45512334785736847,2.9601094722747803,-0.7425434589385986,-0.6970719695091248,-0.07314378768205643,-0.9972161054611206,0.014488485641777515,-0.02741166204214096,0.3832482695579529,-0.6754076480865479
1.4908248549886018,-2.17024730082724,-0.057047606144751455,3.049846649169922,-0.6511033177375793,-0.7151236534118652,-0.06595682352781296,-0.9968039989471436,0.0450703501701355,-0.15311366319656372,0.4773033857345581,-0.7212482690811157
1.4749637001854137,-2.4901413175513456,0.2580905395693426,3.070565700531006,-0.521759569644928,-0.8031628727912903,-0.05801784247159958,-0.9954115748405457,0.0760892704129219,-0.2313803732395172,0.5679519772529602,-0.6713956594467163
1.4531655554361063,-2.708182497898658,0.4733212588640531,2.9679903984069824,-0.2585681676864624,-0.8693383932113647,-0.04928712919354439,-0.993089497089386,0.1065080538392067,-0.2487933486700058,0.6430681943893433,-0.5646684169769287
1.4295106696611235,-2.852298998467023,0.6174841459571747,2.72863507270813,0.01970698870718479,-0.9365093111991882,-0.04017162322998047,-0.9900357723236084,0.1349654644727707,-0.22789481282234192,0.7053676843643188,-0.4220290184020996
1.4066386025986697,-2.9526041977604254,0.71993868928025,2.4300873279571533,0.1512085497379303,-0.9960418939590454,-0.030701208859682083,-0.986556351184845,0.16051150858402252,-0.1894221156835556,0.7171624898910522,-0.28928041458129883
1.3854054943655452,-3.026951905312764,0.7969490121078178,2.165985345840454,0.12798628211021423,-0.9947031736373901,-0.021085569635033607,-0.982864260673523,0.18312090635299683,-0.12341521680355072,0.680892825126648,-0.23527538776397705
1.3655962793698113,-3.084651001240771,0.8566505675941021,1.9731276035308838,0.050681646913290024,-0.9717385172843933,-0.011596333235502243,-0.9790202379226685,0.20343275368213654,-0.06689490377902985,0.6894847750663757,-0.22476446628570557
1.3467643515545078,-3.1326992340134345,0.9060255573973077,1.8576278686523438,-0.013252701610326767,-1.0106136798858643,-0.00197576149366796,-0.9750096201896667,0.22215406596660614,-0.08614379167556763,0.7109410166740417,-0.24733102321624756
1.3283060055471287,3.105998422064039,0.9512139144771993,1.7997602224349976,-0.09064736217260361,-1.1308718919754028,0.008545130491256714,-0.9707430005073547,0.23996926844120026,-0.1491396576166153,0.7421814799308777,-0.2742404639720917
1.3096825517381658,3.0614117031814487,0.9959481910178244,1.7780643701553345,-0.15886518359184265,-1.302404761314392,0.020677100867033005,-0.9661030769348145,0.2573275864124298,-0.2083144634962082,0.788048267364502,-0.2852206230163574
1.2906055700116952,3.0163645308157307,1.04076764798892,1.759874939918518,-0.21182002127170563,-1.4570902585983276,0.03453996032476425,-0.9610027074813843,0.27437302470207214,-0.23487263917922974,0.8346295952796936,-0.28818216919898987
1.271016810159308,2.9727569753263685,1.0838852727927386,1.7412410974502563,-0.23973515629768372,-1.5325373411178589,0.04962221533060074,-0.955401599407196,0.2911103665828705,-0.22270271182060242,0.8726227879524231,-0.2976715862751007
1.250986193611146,2.9337521712623067,1.122494823566253,1.743198037147522,-0.194605752825737,-1.5105698108673096,0.06487274169921875,-0.9492951035499573,0.30762016773223877,-0.18898776173591614,0.9054566621780396,-0.32269585132598877
1.2307036478026967,2.902278702673621,1.1543296210770106,1.7425122261047363,-0.061104100197553635,-1.3814905881881714,0.07906930893659592,-0.9427237510681152,0.32406824827194214,-0.1462385356426239,0.9398854970932007,-0.3361378610134125
1.2106607872136381,2.8799719055196884,1.1783909051063315,1.7173904180526733,0.11919111013412476,-1.2003027200698853,0.09114740788936615,-0.9358490705490112,0.3404099643230438,-0.10878659039735794,0.9695861339569092,-0.3305833041667938
1.1913544692880633,2.8658650295566415,1.1954732697607593,1.6643731594085693,0.2297554612159729,-1.010866403579712,0.10084093362092972,-0.9288715124130249,0.3564110994338989,-0.0782732367515564,0.9760364294052124,-0.3058586120605469
1.1730914120433593,2.857386489783245,1.2071443946969886,1.5930246114730835,0.22172096371650696,-0.8447768092155457,0.10859820246696472,-0.9219523072242737,0.37176674604415894,-0.0596938282251358,0.9558725953102112,-0.2769639492034912
1.1559480615279825,2.852303839952083,1.2146713460433172,1.5184226036071777,0.14246609807014465,-0.6938574314117432,0.1149786040186882,-0.9151774644851685,0.3863029479980469,-0.054782718420028687,0.9373790621757507,-0.2547264099121094
1.1398643655132568,2.8494913793378234,1.2189030677006862,1.4558497667312622,0.06957779079675674,-0.561917781829834,0.12028808891773224,-0.9085768461227417,0.4000234007835388,-0.05972599238157272,0.9393081068992615,-0.24471953511238098
1.1246476752041594,2.848285152776317,1.2207020099538872,1.4082614183425903,0.014505951665341854,-0.46444690227508545,0.12475354224443436,-0.9021156430244446,0.4130660593509674,-0.07420124858617783,0.9476480484008789,-0.2546798586845398
1.1100476674088517,2.8477848768581167,1.2210466581649027,1.370349407196045,-0.056454241275787354,-0.4130931794643402,0.1287611424922943,-0.8957198858261108,0.4255661070346832,-0.0946577787399292,0.9532150030136108,-0.27224576473236084
1.0959028728639835,2.8468769072678164,1.2209624145923028,1.3299756050109863,-0.1364498734474182,-0.4014117419719696,0.13281455636024475,-0.8893414735794067,0.43752938508987427,-0.10717985033988953,0.9486066699028015,-0.2802112400531769
1.082293742529707,2.845341940777375,1.2208529888204442,1.2656586170196533,-0.17588889598846436,-0.3757420778274536,0.13700681924819946,-0.8830366134643555,0.44885990023612976,-0.11408817768096924,0.94245445728302,-0.2736433148384094
1.0696359108526257,2.844238716252122,1.2204316818718832,1.1560516357421875,-0.10383585095405579,-0.3221638798713684,0.14076560735702515,-0.8770256638526917,0.4593587815761566,-0.12009003758430481,0.9506037831306458,-0.26862406730651855
1.058284661660462,2.8446156153602202,1.2196913581194497,1.0273312330245972,0.05902816727757454,-0.27590212225914,0.14349664747714996,-0.8715156316757202,0.46890172362327576,-0.11934205889701843,0.963907778263092,-0.2822715938091278
1.0483295103317267,2.846575613554263,1.2191836536835279,0.8901587128639221,0.24362166225910187,-0.25998052954673767,0.14509284496307373,-0.8665908575057983,0.47745996713638306,-0.1198853850364685,0.9643540978431702,-0.30114468932151794
1.0395869656283396,2.8500328050448416,1.2191983536228514,0.7930777072906494,0.45206624269485474,-0.2533588409423828,0.14561370015144348,-0.8621950745582581,0.4851973056793213,-0.12754733860492706,0.9604921936988831,-0.32894718647003174
1.031612539332775,2.8553321203025006,1.219684408103055,0.7238404154777527,0.681852400302887,-0.24725157022476196,0.14497724175453186,-0.858128011226654,0.4925421476364136,-0.12739917635917664,0.9726148247718811,-0.33894720673561096
1.0242815199688378,2.862603301053354,1.220288322928838,0.6641259789466858,0.8596271872520447,-0.22000743448734283,0.143120676279068,-0.8543410301208496,0.4996176064014435,-0.10880370438098907,0.9902511239051819,-0.3330831825733185
1.0176126501588003,2.87161700686237,1.2206182328221746,0.6071913838386536,0.9897780418395996,-0.17114350199699402,0.1401279866695404,-0.8508561253547668,0.5063672661781311,-0.09645737707614899,0.9935564994812012,-0.3146863579750061
1.011698719399837,2.882160252735184,1.2204399378637432,0.5311978459358215,1.069716215133667,-0.11853247880935669,0.13607002794742584,-0.8477340936660767,0.5126711130142212,-0.10562878847122192,0.9808824062347412,-0.28519314527511597
1.0069051358065244,2.8930605553819317,1.220013622453263,0.3919309973716736,1.0092368125915527,-0.07727951556444168,0.1314718872308731,-0.8451817631721497,0.5180568099021912,-0.09556801617145538,0.9570440053939819,-0.23274797201156616
1.0039700252986432,2.9022974114311344,1.219819382227264,0.17234882712364197,0.7842940092086792,-0.0430309996008873,0.12726852297782898,-0.8436093330383301,0.5216567516326904,-0.06449393928050995,0.9158445596694946,-0.1720169186592102
1.0036261958438668,2.9086555784494936,1.2198515999039818,-0.1099662333726883,0.4911445677280426,0.026321813464164734,0.12401612102985382,-0.8434246778488159,0.5227375030517578,-0.04964485019445419,0.8810378313064575,-0.1336536407470703
1.006316643082556,2.9128777780749058,1.2197563162851655,-0.4072743356227875,0.3722650706768036,0.1046171486377716,0.12129303067922592,-0.8448670506477356,0.5210446119308472,-0.0690317377448082,0.8677553534507751,-0.14523595571517944
1.012011510244513,2.9171826438203734,1.219725855690665,-0.6984920501708984,0.4983952045440674,0.15134915709495544,0.11797633767127991,-0.8478999733924866,0.5168629884719849,-0.1073409914970398,0.8701319694519043,-0.2061329483985901
1.0206227131495977,2.9228302884057236,1.2201963698985678,-0.9816622138023376,0.7172074317932129,0.17491574585437775,0.1134665384888649,-0.8524337410926819,0.5103743076324463,-0.13904033601284027,0.8729111552238464,-0.2667219042778015
1.0319158135944169,2.930630552479959,1.2212965806112295,-1.2409496307373047,1.0413709878921509,0.1947513073682785,0.10745938122272491,-0.8582836985588074,0.5017985105514526,-0.165366530418396,0.8568951487541199,-0.31707561016082764
1.0457490676625585,2.9418359624486508,1.2228381690433165,-1.4885197877883911,1.4650720357894897,0.21179765462875366,0.09946421533823013,-0.8653002381324768,0.4912862479686737,-0.1816328465938568,0.8442585468292236,-0.3392171561717987
1.0619072041703597,2.9560940259373782,1.2252658241908536,-1.7180227041244507,1.7596591711044312,0.15646043419837952,0.08985887467861176,-0.873286247253418,0.47884899377822876,-0.19586172699928284,0.8560743927955627,-0.30322039127349854
1.080214689339238,2.9689465534553685,1.2303573553056544,-1.962995171546936,1.6351265907287598,0.008463507518172264,0.08093680441379547,-0.8820589780807495,0.46413472294807434,-0.18129391968250275,0.8358401656150818,-0.216560959815979
1.1008811076762184,2.9750266343197427,1.2393384178249405,-2.2433104515075684,1.126379370689392,-0.1156601756811142,0.07507461309432983,-0.8916066884994507,0.4465438425540924,-0.11335895955562592,0.7814840078353882,-0.11773216724395752
1.1243481823977406,2.972616018746369,1.2509777456313924,-2.5434629917144775,0.4784447252750397,-0.1019345074892044,0.07261138409376144,-0.9019863605499268,0.4256148636341095,-0.02553807944059372,0.7395414113998413,-0.046784937381744385
1.1511040362839922,2.963413768813387,1.263153903360696,-2.897310972213745,-0.0883871465921402,0.027924666181206703,0.07222066819667816,-0.913214385509491,0.40102824568748474,0.04438695311546326,0.699225127696991,-0.03635847568511963
1.182058328803589,2.950367182897034,1.2743307176188463,-3.3427412509918213,-0.4315471649169922,0.26018744707107544,0.07203757017850876,-0.9253880977630615,0.37211230397224426,0.08979711681604385,0.6706120371818542,-0.05265423655509949
1.218367793121095,2.9381141094970395,1.2823158990717223,-3.872191905975342,-0.4940028190612793,0.6015440225601196,0.06975273787975311,-0.9385371804237366,0.338057279586792,0.08027162402868271,0.6730189323425293,-0.0840594470500946
1.2604486947160458,2.9316717206339273,1.2851727538013895,-4.364208221435547,-0.21125900745391846,0.9313296675682068,0.06363793462514877,-0.9522274732589722,0.29868581891059875,0.01965974271297455,0.6793087720870972,-0.17820239067077637
1.3070865656340855,2.9341671103051166,1.283019281713631,-4.6747260093688965,0.31618621945381165,1.0882055759429932,0.05368133634328842,-0.9654296040534973,0.2550757825374603,-0.1021433174610138,0.6806702613830566,-0.34652179479599
1.3557496686726969,2.944143450505597,1.2788777048156243,-4.768245697021484,0.8428202271461487,1.0406500101089478,0.04186110943555832,-0.9769664406776428,0.2092471867799759,-0.2477327436208725,0.6565929055213928,-0.5108828544616699
1.4044994242573858,2.9585045410112545,1.2744647089178938,-4.729982852935791,1.1165810823440552,0.976673424243927,0.030137769877910614,-0.9862045049667358,0.16276459395885468,-0.2843950390815735,0.6042923331260681,-0.5718679428100586
1.4524867721932888,2.982624066261313,1.2611177004396201,-4.6362128257751465,0.9923644661903381,1.0430735349655151,0.01868463307619095,-0.9930095672607422,0.11654487997293472,-0.17055541276931763,0.5091840028762817,-0.5384351015090942
1.4999224827786826,3.053556846965043,1.1972287893598346,-4.604528427124023,0.4179736375808716,1.3520666360855103,0.006226303521543741,-0.9974895119667053,0.0705418661236763,0.042571261525154114,0.35394996404647827,-0.4420323371887207
1.5443478482817106,-2.735914492731035,0.703362731291364,-4.631910800933838,-0.376750648021698,2.004195213317871,-0.010434444062411785,-0.999650239944458,0.024294253438711166,0.2719700336456299,0.24302810430526733,-0.32560956478118896
1.529835252871225,-0.9961376919189145,-1.0446615424143688,-4.683788299560547,-1.1538370847702026,2.7537739276885986,-0.03436945751309395,-0.9991611838340759,-0.022256314754486084,0.36391347646713257,0.14495909214019775,-0.2794099450111389
1.4759774355725053,-0.7621700033503463,-1.2936443836209444,-4.6940226554870605,-1.7059547901153564,3.2615816593170166,-0.06537283957004547,-0.995508074760437,-0.06848261505365372,0.22702443599700928,0.030969619750976562,-0.3369739055633545
1.4186439631403942,-0.724580444467083,-1.3502377550985283,-4.647480487823486,-1.9659583568572998,3.403069019317627,-0.10046070069074631,-0.9884471297264099,-0.11348868161439896,-0.06720289587974548,-0.10698115825653076,-0.4600891172885895
1.361868466944921,-0.7160815086218788,-1.3786140695165021,-4.52100133895874,-1.8538844585418701,3.280225992202759,-0.13615158200263977,-0.9782538414001465,-0.1564675122499466,-0.354021817445755,-0.29480212926864624,-0.6255911588668823
1.307474656597602,-0.7116231188892945,-1.4003449366158258,-4.3264923095703125,-1.4447492361068726,3.047121524810791,-0.16998548805713654,-0.9655306935310364,-0.19711779057979584,-0.5412420034408569,-0.46215784549713135,-0.7808331847190857
1.2564211031878427,-0.7060614530009207,-1.418695033425126,-4.070236682891846,-0.9677286744117737,2.7887115478515625,-0.20063641667366028,-0.9509897828102112,-0.23529447615146637,-0.6144270896911621,-0.6260518431663513,-0.858791172504425
1.2088159113733394,-0.7001376401591496,-1.4337155639585124,-3.813546657562256,-0.706231415271759,2.6088414192199707,-0.22817209362983704,-0.9351973533630371,-0.2708197832107544,-0.5825273990631104,-0.7737411856651306,-0.8100212812423706
1.1637035959607822,-0.6964725629442333,-1.4448639260429117,-3.62311053276062,-0.644140899181366,2.5370090007781982,-0.2540026605129242,-0.9182758331298828,-0.3037305772304535,-0.4709729552268982,-0.957883894443512,-0.7042802572250366
1.120303134623558,-0.6944663795512773,-1.4545568307266523,-3.5489683151245117,-0.7292883992195129,2.3653624057769775,-0.27865150570869446,-0.9002324938774109,-0.33456674218177795,-0.4335067570209503,-1.1985986232757568,-0.5727971196174622
1.0789254732653697,-0.6915911231473141,-1.4667175113787116,-3.494295358657837,-0.8368950486183167,2.0530123710632324,-0.301200270652771,-0.8814508318901062,-0.3637620210647583,-0.511269211769104,-1.429553747177124,-0.4719160497188568
1.0402204766094925,-0.6869314694869484,-1.4813750723806853,-3.3506007194519043,-0.7644630074501038,1.7526623010635376,-0.3209078013896942,-0.8625158071517944,-0.39126014709472656,-0.5709684491157532,-1.5792412757873535,-0.5067347288131714
1.005249053549445,-0.6806116319966996,-1.4966378008884709,-3.0329086780548096,-0.5599042773246765,1.4206688404083252,-0.33721107244491577,-0.8442954421043396,-0.41647785902023315,-0.5994649529457092,-1.6697883605957031,-0.6269333362579346
0.9753840415784939,-0.6729209424002505,-1.5109226742209503,-2.5687906742095947,-0.2815600037574768,1.0865437984466553,-0.3495626151561737,-0.8279173374176025,-0.4385872483253479,-0.6246195435523987,-1.7219178676605225,-0.7331198453903198
0.9515050719023285,-0.6644874813452024,-1.5231901126170877,-2.026397228240967,-0.058693915605545044,0.7748036980628967,-0.3579428195953369,-0.8142900466918945,-0.4569557309150696,-0.6109445095062256,-1.7582807540893555,-0.7694541215896606
0.9336820924779875,-0.6563068353920447,-1.5332220006482757,-1.5123175382614136,0.05898027494549751,0.4736560583114624,-0.3629917502403259,-0.8038157820701599,-0.4712929427623749,-0.5596767663955688,-1.7999591827392578,-0.7003989219665527
0.9213128915927208,-0.6482196131432308,-1.542289853048158,-1.1264702081680298,0.09926538169384003,0.1631714254617691,-0.36514386534690857,-0.7963963150978088,-0.4821024239063263,-0.5143269896507263,-1.8489129543304443,-0.538298487663269
0.9132966186189897,-0.63965440492558,-1.5519355678454523,-0.860065221786499,0.08354467898607254,-0.13816209137439728,-0.36480045318603516,-0.791522741317749,-0.4903186857700348,-0.4615088105201721,-1.889415979385376,-0.3565440773963928
0.9088886036991142,-0.6301695402970992,-1.5629035682952055,-0.6283808350563049,0.08473644405603409,-0.423362135887146,-0.3621859848499298,-0.7888211607933044,-0.4965707063674927,-0.4174618721008301,-1.9028749465942383,-0.24618130922317505
0.9080364847110343,-0.6199355698636717,-1.5748011880543196,-0.35415568947792053,0.07983347773551941,-0.6568272709846497,-0.3574755787849426,-0.7882971167564392,-0.5007981061935425,-0.3781659007072449,-1.8697686195373535,-0.20781999826431274
0.9109380922870972,-0.6100017581028355,-1.58661099670926,-0.0018088198266923428,0.03746657818555832,-0.8503652811050415,-0.35117146372795105,-0.7900791168212891,-0.5024476647377014,-0.33768659830093384,-1.821859359741211,-0.2162870168685913
0.9178317105584947,-0.6015151853725148,-1.5973855521726428,0.3874255120754242,-0.052252598106861115,-1.0087358951568604,-0.3438044488430023,-0.7942861318588257,-0.5009072422981262,-0.30219167470932007,-1.7617899179458618,-0.2212759256362915
0.9288495368516467,-0.594941650974096,-1.6067970141133405,0.7876416444778442,-0.12682802975177765,-1.1584151983261108,-0.33557891845703125,-0.8009316325187683,-0.4958782494068146,-0.28688815236091614,-1.6912100315093994,-0.21856871247291565
0.9437915552697315,-0.5898948742901773,-1.614549720643078,1.1657955646514893,-0.10142149776220322,-1.2579149007797241,-0.32637786865234375,-0.8097885251045227,-0.4875653088092804,-0.27741241455078125,-1.6028701066970825,-0.23295465111732483
0.9621172355369472,-0.5856848690296926,-1.6205536338508832,1.4804397821426392,-0.032213397324085236,-1.3417842388153076,-0.31606534123420715,-0.8204039931297302,-0.47648710012435913,-0.25764986872673035,-1.5347442626953125,-0.2382955253124237
0.9830309177416596,-0.5820178085198566,-1.62503296144006,1.7163910865783691,0.017439110204577446,-1.374178409576416,-0.3048161268234253,-0.8321818709373474,-0.46320682764053345,-0.2266780436038971,-1.4849262237548828,-0.21539723873138428
1.0058962280414077,-0.5795196017079476,-1.6279804004398477,1.9173247814178467,-0.031674109399318695,-1.399141550064087,-0.29315924644470215,-0.8446421027183533,-0.4479255676269531,-0.19350460171699524,-1.4509968757629395,-0.1934623122215271
1.0307546325398764,-0.5788622273347707,-1.6298195228293553,2.128387212753296,-0.13955529034137726,-1.4827769994735718,-0.28128886222839355,-0.85768723487854,-0.43040570616722107,-0.20850303769111633,-1.43912672996521,-0.22471508383750916
1.0580691972342742,-0.5791662187467129,-1.6313174189960506,2.3462586402893066,-0.17145437002182007,-1.625980257987976,-0.2684938311576843,-0.8714099526405334,-0.4105552136898041,-0.2704008221626282,-1.4012949466705322,-0.31210094690322876
1.0877674162766537,-0.5790437949928504,-1.633146123575818,2.5014851093292236,-0.11794304102659225,-1.7555197477340698,-0.25416556000709534,-0.8855921626091003,-0.3887496292591095,-0.31044018268585205,-1.3260624408721924,-0.3661483824253082
1.1189264163217663,-0.5771989431040838,-1.636174370222286,2.539820432662964,-0.06038839742541313,-1.8642081022262573,-0.23826994001865387,-0.8996321558952332,-0.3659091889858246,-0.3125571608543396,-1.2414048910140991,-0.3493770658969879
1.1504311239551872,-0.5727100314441753,-1.6417908879763838,2.464465379714966,-0.07345373183488846,-1.9438869953155518,-0.2211506962776184,-0.9129399657249451,-0.3429763913154602,-0.2944895625114441,-1.1572504043579102,-0.2855025827884674
1.1813378639935117,-0.5653473428473536,-1.6508164788628588,2.346407651901245,-0.10674857348203659,-1.962924599647522,-0.20340216159820557,-0.9251148104667664,-0.3206092417240143,-0.2732672095298767,-1.0543162822723389,-0.25402140617370605
1.2113864410305553,-0.5554500515631636,-1.662663626412835,2.278021812438965,-0.12147767096757889,-1.95504891872406,-0.18547213077545166,-0.9361045360565186,-0.2988453507423401,-0.2700638175010681,-0.931754469871521,-0.3216075003147125
1.2411201073306084,-0.543239874200264,-1.6772123935775742,2.2723593711853027,-0.17938224971294403,-1.9796181917190552,-0.16734331846237183,-0.9461472034454346,-0.2771308720111847,-0.29881271719932556,-0.8071180582046509,-0.4232933223247528
1.2710232020356598,-0.5283424222322882,-1.6950183693318348,2.2877933979034424,-0.2195776253938675,-2.007302761077881,-0.1488630175590515,-0.9554035067558289,-0.25503668189048767,-0.32054316997528076,-0.6870524287223816,-0.5031725168228149
1.3007623757790365,-0.5089807205298854,-1.717583490402277,2.219566583633423,-0.23899713158607483,-2.0254666805267334,-0.129990816116333,-0.9637618660926819,-0.23294956982135773,-0.3280932903289795,-0.5584091544151306,-0.5131288766860962
1.329445479840014,-0.4815506204042977,-1.7484452444180985,2.0709755420684814,-0.24038979411125183,-2.069474458694458,-0.11070038378238678,-0.971015989780426,-0.21183297038078308,-0.3352072238922119,-0.4540479779243469,-0.48714157938957214
1.3566981122948372,-0.439991408376163,-1.7933987943671206,1.8904366493225098,-0.20247304439544678,-2.160736560821533,-0.09049615263938904,-0.9771683812141418,-0.19223007559776306,-0.37106698751449585,-0.36308735609054565,-0.49551403522491455
1.3820637318559075,-0.3774932478012043,-1.8589715705625574,1.712199091911316,-0.14505144953727722,-2.246189594268799,-0.0691530779004097,-0.9822428226470947,-0.1744048297405243,-0.3899228870868683,-0.24225974082946777,-0.5076935291290283
1.4050992920944525,-0.28741912909435074,-1.9515742570919115,1.5713063478469849,-0.06511932611465454,-2.3276281356811523,-0.04675688222050667,-0.9863036274909973,-0.15817391872406006,-0.3845175504684448,-0.13601082563400269,-0.5306230783462524
1.425302696299565,-0.16245489507708388,-2.0783372143922745,1.4833842515945435,0.003274465911090374,-2.374037504196167,-0.023449352011084557,-0.9894344806671143,-0.143071711063385,-0.3791996240615845,-0.017920255661010742,-0.5701545476913452
1.4418985393895525,-0.00044673009055645833,-2.24186777454395,1.4445042610168457,-0.021974431350827217,-2.3194472789764404,-5.742332723457366e-05,-0.9917041659355164,-0.12854142487049103,-0.3314855694770813,0.12167847156524658,-0.5944657325744629
1.4542211917713308,0.19214251530329693,-2.436182746393255,1.4545252323150635,0.0009014196693897247,-2.147386074066162,0.022211043164134026,-0.9932128190994263,-0.11417064070701599,-0.26220130920410156,0.20704948902130127,-0.6340745687484741
1.4626673831093653,0.40454416726035686,-2.6486097297443933,1.5439746379852295,0.2897462546825409,-1.8779757022857666,0.042476870119571686,-0.9941597580909729,-0.09920793026685715,-0.21018627285957336,0.3145638108253479,-0.75700843334198
1.4682860710698749,0.6270939165460135,-2.867347106908711,1.688094139099121,0.7078208327293396,-1.5515955686569214,0.060047321021556854,-0.994750440120697,-0.08286125212907791,-0.16560767590999603,0.471343457698822,-0.8385864496231079
1.4718771707975729,0.8567242556298276,-3.0896020382372598,1.8434466123580933,0.9542180895805359,-1.2497528791427612,0.07463182508945465,-0.9951114654541016,-0.06467848271131516,-0.13505667448043823,0.5789585113525391,-0.8303257822990417
1.4734653336443566,1.0934995305957227,2.965557526356212,2.013929843902588,0.9912894368171692,-0.9900150895118713,0.08631763607263565,-0.9952670931816101,-0.04464173689484596,-0.12582269310951233,0.6437044739723206,-0.7558190226554871
1.4723570725445798,1.3373369590008273,2.7301046192205405,2.2003209590911865,0.8835650682449341,-0.8210785388946533,0.09561460465192795,-0.9951587915420532,-0.02273670770227909,-0.13627931475639343,0.7156940698623657,-0.645643949508667
1.466990711625972,1.5793016300458917,2.494520096786234,2.3812315464019775,0.6050592064857483,-0.7813278436660767,0.10361652821302414,-0.9946170449256897,0.0008813112508505583,-0.16971763968467712,0.7767367362976074,-0.5263634920120239
1.455939967524316,1.7995334015199318,2.2773004266042447,2.560781240463257,0.25167718529701233,-0.8385375738143921,0.11161785572767258,-0.9934112429618835,0.02598593197762966,-0.20971666276454926,0.8082002401351929,-0.4337923526763916
1.4391212112504674,1.982351604333417,2.0940906863051163,2.746358633041382,-0.04543345794081688,-0.9140424728393555,0.12033238261938095,-0.9913433790206909,0.05252286046743393,-0.22802896797657013,0.8383434414863586,-0.38948261737823486
1.4176740814215965,2.125494028008155,1.9479797386452662,2.88175106048584,-0.24313323199748993,-0.9329596757888794,0.12965534627437592,-0.9882996678352356,0.08033283054828644,-0.2133345752954483,0.8822968006134033,-0.36268150806427
1.3935000178477508,2.2348437744283975,1.8342395761215389,2.9179389476776123,-0.30327439308166504,-0.8664924502372742,0.13889120519161224,-0.9843241572380066,0.10869774967432022,-0.17786221206188202,0.9266306757926941,-0.32134413719177246
1.3686260851061824,2.3199756526029995,1.7447609018149877,2.8419651985168457,-0.232031911611557,-0.7077576518058777,0.14703232049942017,-0.979633092880249,0.13674956560134888,-0.13983020186424255,0.9570959210395813,-0.2738497257232666
1.3446412692307643,2.389192577853605,1.6724548603535587,2.699202299118042,-0.049512334167957306,-0.5141419768333435,0.15323898196220398,-0.9745357632637024,0.16370119154453278,-0.11185717582702637,0.9795863032341003,-0.2290087789297104
1.3221620393310836,2.44805988687679,1.6120931476998883,2.528738021850586,0.06808646023273468,-0.3342030644416809,0.15730921924114227,-0.969249427318573,0.18923445045948029,-0.09738796949386597,0.9953722953796387,-0.19469699263572693
1.3012119268756597,2.4980406172639786,1.5610977881757058,2.3631277084350586,0.05868687853217125,-0.22291456162929535,0.159808948636055,-0.9638816714286804,0.21305599808692932,-0.13032904267311096,0.9809869527816772,-0.16389217972755432
1.2812987247197016,2.5391031410877187,1.5187316625183311,2.224544048309326,0.00679572019726038,-0.2145804613828659,0.16177517175674438,-0.9583874344825745,0.2352074682712555,-0.17987214028835297,0.9650401473045349,-0.15311512351036072
1.2618204672665831,2.5710788432737552,1.4849190835882127,2.1148548126220703,-0.07909397780895233,-0.290351003408432,0.16422484815120697,-0.952645480632782,0.2559240460395813,-0.23551395535469055,0.9720850586891174,-0.15590259432792664
1.242375848338197,2.594087025682578,1.4591761343859428,2.02408504486084,-0.21451519429683685,-0.4007611572742462,0.1679052859544754,-0.9465529918670654,0.27539974451065063,-0.258634090423584,0.989033579826355,-0.14954522252082825
1.2230701809027436,2.6093608817808835,1.4397011896576448,1.9338337182998657,-0.4026655852794647,-0.46222469210624695,0.17292159795761108,-0.9401499629020691,0.29362550377845764,-0.22646473348140717,0.9942120313644409,-0.13162294030189514
1.2044802605756224,2.6190749885492175,1.4240242927735272,1.8110774755477905,-0.5803903341293335,-0.44858023524284363,0.17875362932682037,-0.9336531758308411,0.3103848397731781,-0.16415104269981384,0.9896835088729858,-0.10718360543251038
1.1872803660374092,2.625443608796782,1.4103799999165278,1.6554597616195679,-0.66591477394104,-0.3843678832054138,0.18467217683792114,-0.9273547530174255,0.32543665170669556,-0.10776792466640472,0.9762440919876099,-0.09966772794723511
1.1719914145378822,2.630456957977597,1.398004091778067,1.4549936056137085,-0.5972702503204346,-0.2921266257762909,0.18995223939418793,-0.9215257167816162,0.33868592977523804,-0.08692498505115509,0.973146378993988,-0.11090272665023804
1.1590511188565586,2.635603012491527,1.3868302572836084,1.2260948419570923,-0.41362035274505615,-0.20008501410484314,0.19397056102752686,-0.9164237976074219,0.3500608205795288,-0.09678742289543152,0.9828149080276489,-0.1271604597568512
1.1484848342415188,2.641289914097327,1.3772997958383444,0.9922122359275818,-0.18907460570335388,-0.14565612375736237,0.19661080837249756,-0.9121439456939697,0.3596348464488983,-0.11943194270133972,0.9849742650985718,-0.13528522849082947
1.1400014714130349,2.647186103570808,1.369848350923019,0.7948114275932312,0.007165546528995037,-0.12417779117822647,0.19815181195735931,-0.9086341261863708,0.36758649349212646,-0.1464550793170929,0.9788092970848083,-0.14810407161712646
1.133073174253831,2.6530952813279054,1.3642354536416381,0.650694727897644,0.14944705367088318,-0.11541333049535751,0.19892612099647522,-0.9057191014289856,0.3743015229701996,-0.1694461554288864,0.9758026003837585,-0.16710230708122253
1.1272342173543775,2.658826068386043,1.3601542850398385,0.5470982789993286,0.2538997530937195,-0.12748301029205322,0.19922930002212524,-0.9032287001609802,0.38011258840560913,-0.18200218677520752,0.9812774658203125,-0.18753138184547424
1.122027673359951,2.664042307411759,1.3575649375980767,0.4803837239742279,0.308520644903183,-0.1586257368326187,0.1994023621082306,-0.9009820222854614,0.38531768321990967,-0.18882811069488525,0.9818385243415833,-0.20003026723861694
1.1171936873052788,2.668326615573516,1.3561824466286512,0.43573427200317383,0.28819382190704346,-0.17281165719032288,0.19973252713680267,-0.8988742232322693,0.3900405168533325,-0.17740899324417114,0.9913732409477234,-0.2017928957939148
1.1127554162063464,2.6716707248506797,1.3553248873077608,0.38599416613578796,0.22529767453670502,-0.15936961770057678,0.20023177564144135,-0.8969205021858215,0.3942597210407257,-0.14662770926952362,0.9952177405357361,-0.1925843060016632
1.1090718722765662,2.6745116628563097,1.3545586316621674,0.3010603189468384,0.21404246985912323,-0.11815766245126724,0.20059707760810852,-0.8952856063842773,0.39777398109436035,-0.1138051450252533,0.9835731387138367,-0.17659789323806763
1.1065149418475335,2.6776685961553586,1.3539010962864082,0.17822706699371338,0.3058861196041107,-0.06341025978326797,0.20036423206329346,-0.8941435813903809,0.40045166015625,-0.09828294813632965,0.9857573509216309,-0.1573028564453125
1.105406050353473,2.6816055985628893,1.3535994415655912,0.02921510487794876,0.4254908263683319,-0.010312466882169247,0.19922620058059692,-0.8936464786529541,0.40212568640708923,-0.09215529263019562,1.0091553926467896,-0.13894206285476685
1.105972334622952,2.6862851970548602,1.3536412821818502,-0.13070106506347656,0.5082621574401855,0.06195640563964844,0.19711966812610626,-0.893900454044342,0.4025990068912506,-0.06914423406124115,1.0158028602600098,-0.12255436182022095
1.1084424893138156,2.691697761254759,1.3534869996836798,-0.3080301880836487,0.5375996232032776,0.17279838025569916,0.19397684931755066,-0.8950050473213196,0.40167036652565,-0.03713180124759674,1.0103919506072998,-0.10946452617645264
1.1131478080650283,2.698029299322021,1.3524231943791318,-0.49754634499549866,0.531651496887207,0.3166937828063965,0.18962018191814423,-0.8970939517021179,0.39908191561698914,-0.013549089431762695,1.0086205005645752,-0.0986517071723938
1.1202702311624373,2.705186345314672,1.3503423632548253,-0.7117427587509155,0.5206118226051331,0.448424756526947,0.18405388295650482,-0.90021812915802,0.3946285843849182,-0.02003718912601471,1.015009880065918,-0.10066789388656616
1.1299767926077613,2.712541728446019,1.3478772277077835,-0.9626626372337341,0.4982510805130005,0.5512579083442688,0.17750245332717896,-0.9044023156166077,0.3880065679550171,-0.045117273926734924,1.0227038860321045,-0.09978336095809937
1.1424533850503984,2.719163392837571,1.345967981983593,-1.234696865081787,0.4803612530231476,0.6195592880249023,0.17028991878032684,-0.9096552729606628,0.37885189056396484,-0.07351872324943542,1.0286891460418701,-0.09868526458740234
1.1576573766551064,2.724805741244377,1.3450219842094797,-1.4992427825927734,0.47164419293403625,0.6863183379173279,0.16253161430358887,-0.9158650636672974,0.3671170771121979,-0.09188343584537506,1.0385303497314453,-0.12302210927009583
1.1753775792730583,2.7297611642829986,1.3447823082204,-1.7242891788482666,0.4680282175540924,0.7542132139205933,0.15418888628482819,-0.9228353500366211,0.3529881238937378,-0.09837231040000916,1.0525808334350586,-0.16406908631324768
1.1952429861765117,2.7344685223864653,1.3447873232346195,-1.9053387641906738,0.4734661281108856,0.8152571320533752,0.14523668587207794,-0.9303048253059387,0.3368070125579834,-0.10928703844547272,1.0564188957214355,-0.2172239124774933
1.2168926083591376,2.7388336598856005,1.3452635017000838,-2.075047254562378,0.4898887574672699,0.8525364398956299,0.1358378827571869,-0.9380269646644592,0.3188314437866211,-0.12787286937236786,1.0520254373550415,-0.25573626160621643
1.2402067886323145,2.7424157305926995,1.3468097807172061,-2.2431693077087402,0.5143011808395386,0.8650317192077637,0.12615938484668732,-0.9458511471748352,0.29908108711242676,-0.1432492583990097,1.0455825328826904,-0.26970791816711426
1.2649947430821598,2.7445807335559254,1.3501040273848326,-2.3870203495025635,0.5436840653419495,0.8603230714797974,0.11640817672014236,-0.9536059498786926,0.27764129638671875,-0.15084731578826904,1.032219409942627,-0.2975081503391266
1.2910137952409968,2.7454980411730165,1.355021590210898,-2.5063021183013916,0.5758134722709656,0.8880433440208435,0.1065424457192421,-0.9611155390739441,0.25476598739624023,-0.14475049078464508,1.0198466777801514,-0.33862829208374023
1.3183716435568602,2.7463398194395556,1.3601580527568333,-2.6345036029815674,0.5732820630073547,0.9680404663085938,0.09616484493017197,-0.9683097004890442,0.23049582540988922,-0.12819311022758484,1.014406681060791,-0.3596767783164978
1.3473038997884301,2.747428224849453,1.3647316905572617,-2.769505739212036,0.5234084725379944,1.0522881746292114,0.08511671423912048,-0.9751293659210205,0.20464125275611877,-0.11226213723421097,0.980012059211731,-0.356130450963974
1.3777263108412612,2.747884045364758,1.3689065987043343,-2.899075508117676,0.3674623966217041,1.1126136779785156,0.07360551506280899,-0.9814198017120361,0.1771932691335678,-0.11176779866218567,0.9223835468292236,-0.33441972732543945
1.4095394594609159,2.7452928536680905,1.3742295880978381,-3.027672052383423,0.16401901841163635,1.156825304031372,0.06197692081332207,-0.9870262742042542,0.14811480045318604,-0.11460453271865845,0.8417320847511292,-0.32847368717193604
1.4428329584425414,2.7377941083174373,1.3826457741679101,-3.1870875358581543,0.00284738652408123,1.2006521224975586,0.05014161765575409,-0.9918238520622253,0.11735127866268158,-0.14090093970298767,0.7733637690544128,-0.3353841304779053
1.477969504052175,2.7173055454452673,1.4024250958201514,-3.4067721366882324,-0.1699315756559372,1.2131245136260986,0.03815944865345955,-0.9956946969032288,0.08447504043579102,-0.18246185779571533,0.6956000924110413,-0.3182549476623535
1.5151271563289967,2.651387071685626,1.4661214011120853,-3.65297794342041,-0.2877386212348938,1.214786410331726,0.026196641847491264,-0.9984508752822876,0.049089349806308746,-0.19416543841362,0.5826029777526855,-0.31936824321746826
1.5530615265714232,2.2381460414839047,1.8764913317752798,-3.9432432651519775,-0.31413719058036804,1.261274814605713,0.013923351652920246,-0.9998427629470825,0.010970897041261196,-0.19452641904354095,0.49183207750320435,-0.3405911922454834
1.5404686879646448,0.020417738166367598,-2.191966780855672,-4.289349555969238,-0.3363170027732849,1.4003971815109253,0.0006189587293192744,-0.9995401501655579,-0.03031054325401783,-0.16410166025161743,0.3982372283935547,-0.34162241220474243
1.4944699539308932,-0.19506425667302715,-1.9799104238109326,-4.581437110900879,-0.39580243825912476,1.6405102014541626,-0.014779817312955856,-0.9970885515213013,-0.07480551302433014,-0.08908680081367493,0.26352232694625854,-0.3679892420768738
1.4449950020677131,-0.2644072225608933,-1.9146431385350329,-4.695167541503906,-0.4987821578979492,1.8844022750854492,-0.03278975188732147,-0.9920974373817444,-0.12110880762338638,-0.07214497029781342,0.14769142866134644,-0.4758302569389343
1.394317934725869,-0.3115698058937042,-1.8732939509424673,-4.613037109375,-0.7751516699790955,2.1854724884033203,-0.053819410502910614,-0.9844680428504944,-0.16711026430130005,-0.09254293888807297,0.08830428123474121,-0.5940438508987427
1.3438123112967861,-0.35898890221760466,-1.8348706224938696,-4.374913215637207,-1.180164098739624,2.5784318447113037,-0.07906289398670197,-0.9743495583534241,-0.21069452166557312,-0.07749234139919281,0.0021968483924865723,-0.7059009075164795
1.29408952236506,-0.41104446398156047,-1.7955663288893564,-4.075283527374268,-1.6142231225967407,2.9402153491973877,-0.10915730893611908,-0.9619603157043457,-0.25043344497680664,-0.08932904154062271,-0.13890022039413452,-0.7849059104919434
1.2453614706456264,-0.4655128345606003,-1.7575735679080833,-3.76855206489563,-1.9923912286758423,3.1976470947265625,-0.14351660013198853,-0.9475117921829224,-0.285699725151062,-0.16553492844104767,-0.30526524782180786,-0.8152217864990234
1.1975556202294744,-0.5185337607352783,-1.7235238863730122,-3.5487937927246094,-2.1698262691497803,3.3374345302581787,-0.1807156354188919,-0.9311505556106567,-0.3167024254798889,-0.2804202437400818,-0.5102861523628235,-0.8376706838607788
1.150234097847141,-0.5659033746238746,-1.6954873848781997,-3.4268798828125,-2.079340934753418,3.370661973953247,-0.2189076989889145,-0.9128595590591431,-0.3446258306503296,-0.3994242548942566,-0.6922582387924194,-0.8320098519325256
1.1033633506550458,-0.604344210919845,-1.6743253172037416,-3.361416816711426,-1.7488049268722534,3.286029100418091,-0.25603899359703064,-0.8927279114723206,-0.37078437209129333,-0.5212438106536865,-0.8635435104370117,-0.8367046117782593
1.0576011296732197,-0.6320217826431941,-1.6600701642268176,-3.28818941116333,-1.2475742101669312,3.0794708728790283,-0.29004988074302673,-0.8711802363395691,-0.3961261808872223,-0.6366316080093384,-1.0312244892120361,-0.869361400604248
1.0141257390143346,-0.6491659015431467,-1.6517090667860923,-3.1402156352996826,-0.7367501854896545,2.773066520690918,-0.3194067180156708,-0.849018931388855,-0.4208872318267822,-0.7267053127288818,-1.1673688888549805,-0.9108082056045532
0.9741219465063883,-0.6581431524522978,-1.647428981069348,-2.898761749267578,-0.3626210391521454,2.4516608715057373,-0.3436821699142456,-0.8272088170051575,-0.44453123211860657,-0.7467108964920044,-1.2853399515151978,-0.9183837175369263
0.9378748049065234,-0.6627552023955682,-1.645023534407348,-2.6365814208984375,-0.18523505330085754,2.213545322418213,-0.36394640803337097,-0.8063028454780579,-0.46628162264823914,-0.6679596900939941,-1.4132099151611328,-0.8699914813041687
0.9049302103931589,-0.665906089440272,-1.6430108805258858,-2.3834681510925293,-0.13369347155094147,2.027322769165039,-0.3816227614879608,-0.7863820195198059,-0.48576483130455017,-0.5524746179580688,-1.5396066904067993,-0.7762590646743774
0.8750710327833374,-0.668963992888765,-1.6411731178931124,-2.1503653526306152,-0.21426233649253845,1.8355109691619873,-0.3974955379962921,-0.7675890326499939,-0.5027965903282166,-0.4992024898529053,-1.6256451606750488,-0.6628069877624512
0.8484122258620664,-0.6725934301063351,-1.6401288551951296,-1.9253093004226685,-0.3357005715370178,1.5560530424118042,-0.41192322969436646,-0.7502315640449524,-0.5171769261360168,-0.5102570056915283,-1.7422611713409424,-0.5834699869155884
0.8256385990428445,-0.6751258862460926,-1.640962548057456,-1.6932753324508667,-0.2622029185295105,1.1843396425247192,-0.42380186915397644,-0.7349809408187866,-0.5293344855308533,-0.5790363550186157,-1.8308912515640259,-0.566582202911377
0.8070842904989933,-0.6741822764387446,-1.644181403022241,-1.472149133682251,0.004204954952001572,0.7808411121368408,-0.4317418932914734,-0.7222737073898315,-0.5402958989143372,-0.6308038830757141,-1.8782663345336914,-0.5753656625747681
0.7927879879157717,-0.6680472817094902,-1.6499141617017128,-1.2491376399993896,0.40752899646759033,0.36393845081329346,-0.43477150797843933,-0.7123128175735474,-0.5509848594665527,-0.6449862122535706,-1.9087198972702026,-0.569147527217865
0.7829465104440206,-0.656024385899615,-1.6580955894747111,-0.9949767589569092,0.8250623345375061,-0.06253831833600998,-0.43237102031707764,-0.705371081829071,-0.5617001056671143,-0.6470815539360046,-1.9022796154022217,-0.5573947429656982
0.7775621074422087,-0.6390801609010055,-1.668039983631582,-0.7045182585716248,1.1422157287597656,-0.39907610416412354,-0.4250510334968567,-0.7015442252159119,-0.5719855427742004,-0.5877664089202881,-1.8626494407653809,-0.5239922404289246
0.7761148883603817,-0.6194272909265031,-1.6782991268363239,-0.38107386231422424,1.3203307390213013,-0.5943281054496765,-0.4143175482749939,-0.7005121111869812,-0.5810540318489075,-0.4617506265640259,-1.807544469833374,-0.46496641635894775
0.7782280579007751,-0.599612618663382,-1.6874055579610827,-0.004429401829838753,1.3441336154937744,-0.700086772441864,-0.4018872380256653,-0.7020186185836792,-0.5879255533218384,-0.3463885188102722,-1.7356644868850708,-0.40702372789382935
0.783949555019306,-0.5816049834294507,-1.6942239763566829,0.4199724793434143,1.2768827676773071,-0.7258231043815613,-0.389022558927536,-0.706081748008728,-0.5917009711265564,-0.2689059376716614,-1.634326696395874,-0.37537050247192383
0.7931821636732943,-0.5671233931304263,-1.697839495269561,0.8471757769584656,1.0859559774398804,-0.6992303729057312,-0.37689509987831116,-0.71258944272995,-0.5917486548423767,-0.21766364574432373,-1.5227773189544678,-0.3387628197669983
0.8057162773530246,-0.5569834133948498,-1.6982805840462973,1.225826382637024,0.8791418075561523,-0.6898374557495117,-0.3661249279975891,-0.7213269472122192,-0.5879114866256714,-0.20600339770317078,-1.4499833583831787,-0.30405616760253906
0.8211782573474778,-0.5502103270837184,-1.6965862537231624,1.5061397552490234,0.7221537828445435,-0.744207501411438,-0.35625994205474854,-0.7319491505622864,-0.5808005332946777,-0.24370044469833374,-1.370483160018921,-0.26845782995224
0.8391177866554858,-0.5448632820059773,-1.6946440616487304,1.6660256385803223,0.6450799107551575,-0.906227707862854,-0.34628716111183167,-0.7440539598464966,-0.5713745951652527,-0.3191792368888855,-1.307932734489441,-0.23520499467849731
0.8589230726541056,-0.5381802335458343,-1.6946414853404268,1.7077044248580933,0.7108027338981628,-1.1321675777435303,-0.3348408639431,-0.7571395039558411,-0.5609112977981567,-0.3985728621482849,-1.2388627529144287,-0.21193110942840576
0.8799056832869815,-0.5276370858722859,-1.697882247318745,1.6774736642837524,0.9055869579315186,-1.3481953144073486,-0.3208378553390503,-0.7706787586212158,-0.5505608916282654,-0.4447719156742096,-1.1473052501678467,-0.22269344329833984
0.9013169991920259,-0.5122981373030538,-1.7045872751420226,1.604446291923523,1.1103591918945312,-1.492129921913147,-0.3041958510875702,-0.7841448783874512,-0.5409082174301147,-0.4312167763710022,-1.0448956489562988,-0.24639952182769775
0.9222670838047425,-0.49271338034575524,-1.7141020510164646,1.4905296564102173,1.2876685857772827,-1.5269025564193726,-0.28571009635925293,-0.7969729900360107,-0.532168984413147,-0.36001139879226685,-0.9372341632843018,-0.2528804540634155
0.9417967440000553,-0.4700047505604956,-1.7254438059821842,1.3297713994979858,1.421035885810852,-1.4582215547561646,-0.2664518654346466,-0.8086165189743042,-0.5245405435562134,-0.2660493850708008,-0.8240586519241333,-0.24062663316726685
0.9591752887641116,-0.44549378668516376,-1.737496434164507,1.163094401359558,1.4994503259658813,-1.3213878870010376,-0.24742282927036285,-0.8187183141708374,-0.5181528329849243,-0.18258515000343323,-0.7072216272354126,-0.23531091213226318
0.9743419845948817,-0.42069154877840476,-1.749437457534705,1.015753149986267,1.4713540077209473,-1.1753838062286377,-0.22939884662628174,-0.8273324370384216,-0.5127350687980652,-0.13443177938461304,-0.6142569184303284,-0.26213669776916504
0.9875094155154716,-0.39684951517466377,-1.7610347679723557,0.8839074969291687,1.353558897972107,-1.0539202690124512,-0.21288084983825684,-0.834656834602356,-0.5079663991928101,-0.11940988898277283,-0.5335073471069336,-0.30860769748687744
0.9989645932849072,-0.37427442636582936,-1.7724715178077277,0.7670086026191711,1.2442172765731812,-0.9576916098594666,-0.1978515237569809,-0.8409110903739929,-0.5037096738815308,-0.11918038129806519,-0.4474952816963196,-0.36341679096221924
1.0089140825561254,-0.35257694143105733,-1.7834415683890454,0.6726858615875244,1.2522995471954346,-0.8400564193725586,-0.18397822976112366,-0.8462538123130798,-0.5000066757202148,-0.10548105835914612,-0.3341051936149597,-0.42888742685317993
1.017450403336813,-0.33126291181195056,-1.7931164908819963,0.5920706391334534,1.3884379863739014,-0.689770519733429,-0.1709243208169937,-0.850770890712738,-0.496964693069458,-0.08647623658180237,-0.18734556436538696,-0.4707934856414795
1.0251048957505904,-0.30729368283653685,-1.8006027044711777,0.5961135625839233,2.1001667976379395,-0.531222939491272,-0.15698999166488647,-0.8547686338424683,-0.4946964979171753,-0.0884324163198471,-0.027158796787261963,-0.4573603570461273
1.03098898066569,-0.28126365795660724,-1.8064659606707592,0.339633047580719,2.007051706314087,-0.3844633102416992,-0.14266282320022583,-0.8578076958656311,-0.49377456307411194,-0.05646441876888275,0.1034436821937561,-0.3770292401313782
1.0341852060110108,-0.25890690424307045,-1.8108943254215202,0.18320195376873016,1.7083821296691895,-0.2244795709848404,-0.13088621199131012,-0.859446108341217,-0.49418729543685913,0.001842588186264038,0.14074188470840454,-0.3232107162475586
1.0363316720848963,-0.24114130448635288,-1.813309885362701,0.17900028824806213,1.402173399925232,-0.1378466784954071,-0.12164564430713654,-0.8605414628982544,-0.49464187026023865,-0.007367454469203949,0.17215651273727417,-0.3345511853694916
1.0386942220321354,-0.22783663291980266,-1.8152287099914954,0.25037580728530884,0.89780193567276,-0.1750887781381607,-0.11459450423717499,-0.8617424964904785,-0.4942346513271332,-0.06046963483095169,0.23079156875610352,-0.32629144191741943
1.0425848268765905,-0.21886421406640463,-1.818205223196105,0.45834285020828247,0.39993226528167725,-0.3002312481403351,-0.10942670702934265,-0.8637098073959351,-0.49196651577949524,-0.12742026150226593,0.31143325567245483,-0.3402630388736725
1.049387919083804,-0.21257111065852982,-1.8231007981809606,0.7702120542526245,0.019829675555229187,-0.46654897928237915,-0.10508647561073303,-0.8671185374259949,-0.4868904948234558,-0.15374842286109924,0.4008709788322449,-0.3829672336578369
1.0597889075776057,-0.20841599121263463,-1.8294998920281806,1.1318498849868774,-0.2921375632286072,-0.5678484439849854,-0.10119084268808365,-0.8722522854804993,-0.478473037481308,-0.14377380907535553,0.48264962434768677,-0.42979109287261963
1.0740333880966901,-0.20739902000931673,-1.8353015544523692,1.5363377332687378,-0.5045231580734253,-0.5515846610069275,-0.09813561290502548,-0.8791298866271973,-0.46636903285980225,-0.1015867218375206,0.5661721229553223,-0.45677244663238525
1.0922858190450426,-0.21039362207190881,-1.8382346219068784,1.969811201095581,-0.5938122868537903,-0.46882742643356323,-0.09616420418024063,-0.887681782245636,-0.45030394196510315,-0.058743081986904144,0.6399552226066589,-0.46037107706069946
1.1145692010876966,-0.21681686807687475,-1.837515790351138,2.381805419921875,-0.5385626554489136,-0.41746532917022705,-0.09477509558200836,-0.8977210521697998,-0.43024930357933044,-0.04136385768651962,0.6902473568916321,-0.4362667500972748
1.1405776657409976,-0.22435953337209133,-1.8342298979102662,2.7276341915130615,-0.36520203948020935,-0.4579581618309021,-0.09279045462608337,-0.9088745713233948,-0.4066163897514343,-0.06962413340806961,0.7023316621780396,-0.3873594105243683
1.1696415343201947,-0.22996021625692958,-1.8308291112163202,2.9629383087158203,-0.12636426091194153,-0.5925865769386292,-0.08900588750839233,-0.9206106662750244,-0.3802022933959961,-0.12644827365875244,0.6906760334968567,-0.30532923340797424
1.200581651569382,-0.23054164824481688,-1.8305012780167038,3.0234885215759277,0.053691525012254715,-0.8014388680458069,-0.08267660439014435,-0.9322496652603149,-0.3522428572177887,-0.15948042273521423,0.6795946955680847,-0.17532971501350403
1.2317331531685514,-0.22362900232483063,-1.8371925731807195,2.90640926361084,0.05872953683137894,-1.0464509725570679,-0.0737614780664444,-0.9430666565895081,-0.32432180643081665,-0.16439774632453918,0.6852083206176758,-0.012317627668380737
1.2617848928372228,-0.20800244995533937,-1.8533981592756144,2.7241153717041016,-0.01105060987174511,-1.2247141599655151,-0.06280193477869034,-0.9526346921920776,-0.2975618839263916,-0.15158410370349884,0.6781748533248901,0.1069033145904541
1.2900650292358176,-0.18514189475619067,-1.8779270720080392,2.522946834564209,-0.11865368485450745,-1.249366044998169,-0.05100252106785774,-0.960853099822998,-0.27232322096824646,-0.06288912892341614,0.6153483986854553,0.16380277276039124
1.3160024170607876,-0.15887204357199908,-1.9072210368161981,2.30654239654541,-0.2712748944759369,-1.141071081161499,-0.039874788373708725,-0.9677152633666992,-0.2488716095685959,0.05678148940205574,0.5547972321510315,0.20048601925373077
1.3394055109012803,-0.13256654937155835,-1.9379137948695762,2.1026597023010254,-0.4166269302368164,-0.997482180595398,-0.030312689021229744,-0.9733483791351318,-0.22731910645961761,0.128792867064476,0.5229242444038391,0.209283247590065
1.360543819597622,-0.10742947083120297,-1.9683947038824539,1.9189379215240479,-0.4824855625629425,-0.8301331400871277,-0.02237817831337452,-0.9779782295227051,-0.2075037956237793,0.10579793155193329,0.5258908271789551,0.16290241479873657
1.3794697846831498,-0.08502167853358279,-1.995458852265506,1.7417479753494263,-0.3108733892440796,-0.5961992144584656,-0.016148345544934273,-0.9817528128623962,-0.1894742101430893,0.13602134585380554,0.6241326928138733,0.11137977242469788
1.3966553161871078,-0.06796952844114816,-2.014991696406607,1.626102089881897,-0.13112014532089233,-0.38331323862075806,-0.011767479591071606,-0.9848757386207581,-0.17286205291748047,0.1376371830701828,0.6481905579566956,0.041422903537750244
1.4128728814597413,-0.0562867563617891,-2.0276131120402643,1.5826653242111206,-0.030172638595104218,-0.23765532672405243,-0.008847424760460854,-0.987555980682373,-0.15701881051063538,0.05180087685585022,0.610145092010498,0.008001446723937988
1.4288736549330716,-0.05024220254483587,-2.0339249917919338,1.5958539247512817,-0.01575055718421936,-0.12243739515542984,-0.0071035949513316154,-0.9899458885192871,-0.1412680298089981,0.05677090585231781,0.6050276756286621,-0.00913780927658081
1.4450085445424683,-0.05171133982126933,-2.0327371691951828,1.6190999746322632,-0.045829515904188156,-0.012902576476335526,-0.0064846426248550415,-0.9920991659164429,-0.12528899312019348,0.05369529128074646,0.5941346287727356,-0.00819486379623413
1.4613121299293137,-0.06361981226158124,-2.021661822781035,1.6412007808685303,-0.15005898475646973,0.07716739922761917,-0.006946840789169073,-0.9940125942230225,-0.10904567688703537,0.05199073255062103,0.5749450922012329,0.005026504397392273
1.477712785535635,-0.08749095343494849,-2.0000605769346937,1.648034930229187,-0.3354714512825012,0.10342580825090408,-0.008121897466480732,-0.9956708550453186,-0.09259429574012756,0.04150809347629547,0.5362286567687988,0.029865436255931854
1.4939596925871257,-0.12290934817888384,-1.9690097176930421,1.618051290512085,-0.5581876039505005,0.07138611376285553,-0.009410933591425419,-0.9970495104789734,-0.07618213444948196,0.013698607683181763,0.4749395251274109,0.04839593172073364
1.5094949824541528,-0.1684309089959217,-1.929828509884442,1.5178730487823486,-0.7083272933959961,0.01267265249043703,-0.010269852355122566,-0.9981216788291931,-0.060395997017621994,-0.016890838742256165,0.4304642081260681,0.059053242206573486
1.52375329920369,-0.2222191227203209,-1.883103674988358,1.3633935451507568,-0.6952797174453735,-0.07061585038900375,-0.01036423072218895,-0.998893678188324,-0.04586943984031677,-0.046917304396629333,0.412406861782074,0.06811678409576416
1.5363581498210555,-0.278450136709767,-1.8331227644214154,1.1641992330551147,-0.5446757078170776,-0.15725177526474,-0.009463519789278507,-0.9994070529937744,-0.03310346230864525,-0.07128603756427765,0.4060538411140442,0.06516218185424805
1.5469647966985691,-0.32892812290209944,-1.7868218140181398,0.9313880801200867,-0.2769910395145416,-0.2158362716436386,-0.007696524262428284,-0.99971604347229,-0.02254878543317318,-0.0839020311832428,0.4213622808456421,0.0553552508354187
1.5554648407490574,-0.35754134754751243,-1.7593215720474171,0.6982870101928711,0.05863919109106064,-0.25029629468917847,-0.005367720499634743,-0.9998824596405029,-0.014367620460689068,-0.06848485767841339,0.42789149284362793,0.04583132266998291
1.561843744407508,-0.31693165557105457,-1.7979691788236105,0.4797256588935852,0.316922664642334,-0.25717973709106445,-0.002789201680570841,-0.9999599456787109,-0.008503986522555351,-0.04010330140590668,0.41173362731933594,0.04178345203399658
1.5661806416508708,-0.07056246556059262,-2.040353850774194,0.309937447309494,0.4623057544231415,-0.22516347467899323,-0.00032480419031344354,-0.9999893307685852,-0.004595430567860603,-0.004878491163253784,0.3925522565841675,0.03772228956222534
1.5680368141895964,0.6787486143997972,-2.7849459567510118,0.18177975714206696,0.4637358784675598,-0.1831505000591278,0.0017363906372338533,-0.9999961853027344,-0.0021527449134737253,0.02804870903491974,0.3729515075683594,0.03459298610687256
1.5672649951736577,1.352528774573036,2.8286668093266445,0.10491234064102173,0.3810722827911377,-0.14810389280319214,0.0033956614788621664,-0.9999937415122986,-0.0007531612645834684,0.03998503088951111,0.3423554301261902,0.039113759994506836
1.5660267731913264,1.5939949038927177,2.590419746419326,0.07266518473625183,0.23337098956108093,-0.1272425651550293,0.004786994308233261,-0.9999886155128479,0.00011107138561783358,0.02884332835674286,0.3145790100097656,0.03763926029205322
1.5647755033159616,1.7050185093442614,2.4807426436788185,0.06407037377357483,0.04270676150918007,-0.1072310283780098,0.005970061756670475,-0.9999818801879883,0.000806161726359278,0.030528917908668518,0.3022584915161133,0.03657793998718262
1.5637314493818897,1.7591763613341054,2.4262584035874326,0.03663821518421173,-0.0939759835600853,-0.08309267461299896,0.006933281198143959,-0.9999750256538391,0.001321764080785215,0.04596889019012451,0.27406877279281616,0.04117405414581299
1.5630086680007522,1.7572462602877337,2.4268791657703517,-0.013557087630033493,-0.1563580185174942,-0.058388322591781616,0.007642034441232681,-0.9999696612358093,0.0014416007325053215,0.05349987745285034,0.24057036638259888,0.0506519079208374
1.5626190715008772,1.6768125700926242,2.505696283068082,-0.10003658384084702,-0.16598747670650482,-0.044242944568395615,0.008145743049681187,-0.999966561794281,0.0008668310474604368,0.04345943033695221,0.23653870820999146,0.05881035327911377
1.562187166567041,1.4982911199895232,2.6828707018796067,-0.19444483518600464,-0.09256149083375931,-0.048534490168094635,0.008590425364673138,-0.9999629259109497,-0.0006239443318918347,0.027954325079917908,0.2337275743484497,0.06977677345275879
1.5611769125854784,1.2425981113218274,2.9382179059161215,-0.2973933219909668,0.022445254027843475,-0.05338437110185623,0.009111348539590836,-0.9999537467956543,-0.0031025318894535303,0.01894952356815338,0.2203974723815918,0.07254528999328613
1.559106434675747,0.9787198368533366,-3.08035921183719,-0.37972933053970337,0.11896251887083054,-0.06134501472115517,0.009688413701951504,-0.9999316930770874,-0.006516109686344862,0.018311424180865288,0.21219688653945923,0.06985539197921753
1.5560620215470962,0.7821264817070106,-2.882251900305731,-0.4053928852081299,0.16821396350860596,-0.07428371161222458,0.010383917950093746,-0.999891459941864,-0.0104520870372653,0.024802803993225098,0.201246440410614,0.056976139545440674
1.5525586917682401,0.6558210571006106,-2.7543642696185855,-0.3924441933631897,0.1365075558423996,-0.06231735646724701,0.011118922382593155,-0.9998337030410767,-0.01445084810256958,0.04770366847515106,0.18408364057540894,0.039765238761901855
1.5492436377944565,0.5641644565750625,-2.6617073120308263,-0.3601440191268921,0.053563933819532394,-0.014296034350991249,0.011521491222083569,-0.9997677206993103,-0.018208134919404984,0.07343940436840057,0.16590553522109985,0.024037064984440804
1.5463129556811541,0.4889274616043789,-2.5864169905416414,-0.31839174032211304,-0.048313774168491364,0.012723125517368317,0.01149805448949337,-0.9997003078460693,-0.02161242626607418,0.071738600730896,0.15283751487731934,0.020025551319122314
1.5435927163278171,0.43496721136191685,-2.533318811053249,-0.28862637281417847,-0.12411799281835556,-0.011345458216965199,0.011460799723863602,-0.9996300339698792,-0.02466561645269394,0.043486058712005615,0.14426815509796143,0.028083624318242073
1.5408995125238254,0.40589959249930585,-2.505784392014249,-0.2671581208705902,-0.18193668127059937,-0.06931930780410767,0.011801484040915966,-0.9995531439781189,-0.027460327371954918,0.015786347910761833,0.13253360986709595,0.03450990095734596
1.538042258288909,0.39789093908858997,-2.499935837309049,-0.2747574746608734,-0.24537503719329834,-0.12189915776252747,0.012689861468970776,-0.9994636178016663,-0.03019171766936779,0.003881128504872322,0.11985540390014648,0.04816656932234764
1.5347925238856417,0.4003395159397608,-2.5048804859546006,-0.31120434403419495,-0.2447914332151413,-0.1593896895647049,0.01402958482503891,-0.9993519186973572,-0.03315170481801033,-0.00018991529941558838,0.10176891088485718,0.06496626138687134
1.5310150134260876,0.40372619575350827,-2.510345278474657,-0.3660617172718048,-0.16577251255512238,-0.16627396643161774,0.01562461070716381,-0.9992088079452515,-0.036575108766555786,0.0038302987813949585,0.10788190364837646,0.07374554872512817
1.5267231700018435,0.3985747915832241,-2.506334055445305,-0.43586891889572144,-0.06609605997800827,-0.12941868603229523,0.017098868265748024,-0.9990289211273193,-0.040603868663311005,0.02918100170791149,0.11375987529754639,0.07466155290603638
1.521971819705436,0.3785503656931829,-2.4865283950392163,-0.5058581233024597,0.013969209976494312,-0.05699535459280014,0.01803647167980671,-0.9988083243370056,-0.045348215848207474,0.06133970618247986,0.10661172866821289,0.07421785593032837
1.5169443662825397,0.34513851043717647,-2.452768637887591,-0.5485467314720154,0.03829699009656906,0.02515227720141411,0.018210403621196747,-0.9985503554344177,-0.05065073072910309,0.09011168777942657,0.0897064208984375,0.05902779474854469
1.511890576428331,0.30380788791057317,-2.4110212566491973,-0.5500404834747314,0.032598625868558884,0.09362374246120453,0.01761188730597496,-0.9982655644416809,-0.05617586150765419,0.09042029082775116,0.07198077440261841,0.026055041700601578
1.507095342264447,0.26290758372124223,-2.3696443025976963,-0.5054911971092224,0.047576360404491425,0.11826742440462112,0.016543906182050705,-0.997971773147583,-0.06147013604640961,0.057140737771987915,0.06416445970535278,-0.006797667592763901
1.5027887108063118,0.2290649805882912,-2.335021174232695,-0.4326167404651642,0.09678731858730316,0.10622008144855499,0.01543001551181078,-0.997688353061676,-0.0661785677075386,0.009304432198405266,0.059517085552215576,-0.03294246643781662
1.49908973876167,0.20573366627127376,-2.3103219258075067,-0.3733079731464386,0.16955088078975677,0.0666259154677391,0.014635701663792133,-0.9974302053451538,-0.0701325386762619,-0.02517956681549549,0.05783987045288086,-0.03971546143293381
1.4952499650918827,0.18940124131592176,-2.292880141028575,-0.4311201572418213,0.01909160055220127,0.04691585153341293,0.014209751039743423,-0.9971477389335632,-0.07412532716989517,-0.0168800950050354,0.04194754362106323,0.06155210733413696
1.4912775543545551,0.16928284675505922,-2.2724850915911494,-0.39606159925460815,0.047607243061065674,0.125825434923172,0.013382905162870884,-0.9968400597572327,-0.0782998576760292,0.03187461197376251,0.022398531436920166,0.023185133934020996
1.48765393097819,0.1457813794180416,-2.248469132945889,-0.3773699402809143,0.031977951526641846,0.1313789188861847,0.012063968926668167,-0.996545672416687,-0.08216677606105804,0.0237483698874712,0.02202773094177246,-0.026719875633716583
1.4843073454099258,0.12703630925178958,-2.2290443661527912,-0.32064321637153625,0.10691051930189133,0.10200367867946625,0.010944122448563576,-0.9962621331214905,-0.0856856256723404,-0.026325032114982605,0.021332383155822754,-0.0377274751663208
1.4816076893948833,0.11517196727073238,-2.215296527110413,-0.2363368570804596,0.2627464532852173,0.07269079983234406,0.010235855355858803,-0.9960253238677979,-0.08848122507333755,-0.04311859607696533,0.009666681289672852,-0.09244221448898315
1.4799361199492471,0.1106853755093305,-2.20719857858471,-0.10068652778863907,0.455190509557724,0.03383060544729233,0.010022550821304321,-0.9958750605583191,-0.09017983078956604,-0.0622229278087616,0.012369871139526367,-0.14622455835342407
1.4797313899376094,0.11412155491226056,-2.205117767402624,0.051375966519117355,0.6348692178726196,0.0011205975897610188,0.010355568490922451,-0.9958564639091492,-0.0903472974896431,-0.0732828676700592,0.011283159255981445,-0.18302911520004272
1.4807741264704986,0.1224886729641697,-2.206750684549984,0.15194587409496307,0.6921115517616272,-0.0008220646996051073,0.010984383523464203,-0.9959507584571838,-0.08922778815031052,-0.07240106165409088,0.011743605136871338,-0.1475732922554016
1.4826367589122889,0.1288905912150118,-2.2065194881065673,0.2139219045639038,0.615160346031189,0.05454611778259277,0.011316930875182152,-0.9961164593696594,-0.0873158648610115,-0.04009506106376648,-0.00014513731002807617,-0.08909100294113159
1.4851070396516535,0.12643851990615185,-2.1987417994355107,0.2537025511264801,0.4273836314678192,0.1428985595703125,0.01079247985035181,-0.9963309168815613,-0.08490218222141266,-0.0023696711286902428,-0.012091994285583496,-0.03870929032564163
1.4878874588376936,0.11155393945066928,-2.1808290208674346,0.2569931447505951,0.16253970563411713,0.2181784063577652,0.00921911932528019,-0.996565043926239,-0.0822996124625206,0.013775825500488281,-0.023454487323760986,0.014871060848236084
1.4906011095599894,0.08487300766386681,-2.153732547758479,0.23279514908790588,-0.08959369361400604,0.2664743959903717,0.0067909699864685535,-0.9967860579490662,-0.07982109487056732,0.009902089834213257,-0.04747962951660156,0.05041748285293579
1.4928853427819615,0.05065210055369722,-2.1211830677489383,0.18489393591880798,-0.25460875034332275,0.26938870549201965,0.003940697759389877,-0.9969664812088013,-0.07773274928331375,-0.014713451266288757,-0.06913459300994873,0.06314539909362793
1.4945216869981752,0.014780343513017836,-2.0881154684883287,0.1258758306503296,-0.30819183588027954,0.24791184067726135,0.0011262327898293734,-0.9970924854278564,-0.0761924609541893,-0.04823017120361328,-0.07517313957214355,0.053258538246154785
1.4955296872393493,-0.0188824073171605,-2.0572338507054875,0.07841963320970535,-0.25729086995124817,0.21489982306957245,-0.0014197769341990352,-0.997168779373169,-0.07518152892589569,-0.07247857749462128,-0.0660635232925415,0.03177029639482498
1.4960564670838075,-0.047170899145828,-2.0309633389525406,0.04260024055838585,-0.15327075123786926,0.17343831062316895,-0.003520875470712781,-0.997208297252655,-0.07458546757698059,-0.08462919294834137,-0.05459517240524292,0.009583070874214172
1.496279930946832,-0.06946955840712019,-2.0096104823545495,0.024207383394241333,-0.047934480011463165,0.14476965367794037,-0.0051676444709300995,-0.9972249269485474,-0.07426747679710388,-0.07799279689788818,-0.05119115114212036,-0.0061310455203056335
1.4963511028838683,-0.0886953408263264,-1.9902801534632983,0.015696074813604355,0.055850666016340256,0.1453343629837036,-0.006588198710232973,-0.9972302317619324,-0.0740840882062912,-0.0588262677192688,-0.05388671159744263,-0.016888737678527832
1.4963648387009674,-0.1095868251141601,-1.96830662125029,0.019665250554680824,0.14566123485565186,0.18281196057796478,-0.008133047260344028,-0.9972312450408936,-0.07391822338104248,-0.032180726528167725,-0.043921828269958496,-0.016490109264850616
1.4963063993513315,-0.13595548344495964,-1.9400439213027418,0.01962980069220066,0.21127094328403473,0.23560334742069244,-0.010086859576404095,-0.997226893901825,-0.07373468577861786,-0.009978488087654114,-0.03420621156692505,-0.008052408695220947
1.4960012163934484,-0.1680134273036993,-1.9057132698690242,-0.0033040116541087627,0.2148566097021103,0.26965051889419556,-0.012496130540966988,-0.9972041249275208,-0.07367461919784546,-0.009079845622181892,-0.03378653526306152,0.005711965262889862
1.4953790930119983,-0.19884292487391658,-1.8728075864350886,-0.0257495678961277,0.17848359048366547,0.2246890515089035,-0.01488321740180254,-0.9971574544906616,-0.0738600343465805,-0.05166040360927582,-0.04858827590942383,0.018165476620197296
1.4946928442508285,-0.21822566356505754,-1.851814975513591,-0.04236635938286781,0.13246309757232666,0.10597892105579376,-0.016460377722978592,-0.9971055388450623,-0.07422706484794617,-0.10264977812767029,-0.055216848850250244,0.021767377853393555
1.4940814070556765,-0.22019245905065465,-1.8486584441904124,-0.06531274318695068,0.11129230260848999,-0.03265189006924629,-0.016739070415496826,-0.9970588684082031,-0.07478758692741394,-0.13006578385829926,-0.045711398124694824,0.024906642735004425
1.4934404158243,-0.20499292367750319,-1.862649068906387,-0.10826766490936279,0.14247898757457733,-0.14636646211147308,-0.015731265768408775,-0.9970095157623291,-0.07566257566213608,-0.12612974643707275,-0.03990161418914795,0.027734749019145966
1.4924092747175373,-0.17665904135535743,-1.8893371262790222,-0.17223599553108215,0.2016182243824005,-0.21622717380523682,-0.01376173086464405,-0.9969292879104614,-0.0770878791809082,-0.09984001517295837,-0.0442236065864563,0.025558948516845703
1.4907459391719664,-0.14180706191529271,-1.921941772394008,-0.23510204255580902,0.26481080055236816,-0.23218271136283875,-0.011301507242023945,-0.9967976808547974,-0.07916143536567688,-0.06433635950088501,-0.04157811403274536,0.02117813378572464
1.4884249638465745,-0.10737752772055656,-1.9536041224539902,-0.2858789265155792,0.3013087511062622,-0.21389459073543549,-0.008817816153168678,-0.9966093897819519,-0.08180389553308487,-0.03004637360572815,-0.02411198616027832,0.019715912640094757
1.4856280696736162,-0.0783067497383242,-1.9797645807209532,-0.304650217294693,0.29070669412612915,-0.1658937782049179,-0.006654396653175354,-0.9963753819465637,-0.08480481803417206,-0.0010055601596832275,-0.00992649793624878,0.017101585865020752
1.4826311093126627,-0.05796056791635779,-1.9975841477364968,-0.3131030797958374,0.2231529951095581,-0.10166805237531662,-0.005100625101476908,-0.9961159825325012,-0.08790307492017746,0.02328905463218689,-0.00867527723312378,0.012585759162902832
1.4794790889413552,-0.045159348016583,-2.0085192875978213,-0.32292455434799194,0.16278284788131714,-0.06737904995679855,-0.004116768483072519,-0.9958334565162659,-0.09109895676374435,0.019436553120613098,-0.02395731210708618,0.00865577906370163
1.4761485011129476,-0.03464984773847634,-2.017502611678218,-0.3475300967693329,0.15346390008926392,-0.0757521539926529,-0.003273964626714587,-0.9955242276191711,-0.09444931149482727,-0.007010504603385925,-0.029042363166809082,0.013974495232105255
1.4725230478964653,-0.023237671638673008,-2.0273022907989913,-0.37986433506011963,0.1807871311903,-0.09449867904186249,-0.002279747975990176,-0.9951750636100769,-0.09808804094791412,-0.028909265995025635,-0.01739811897277832,0.024678058922290802
1.4686158193222987,-0.010366125854320375,-2.038285143403558,-0.39952927827835083,0.20011647045612335,-0.10979105532169342,-0.001057351240888238,-0.9947841167449951,-0.10199696570634842,-0.03275616466999054,-0.009625613689422607,0.02597767859697342
1.464561835812879,0.002583651153257661,-2.0494497788959007,-0.4041232466697693,0.1614103615283966,-0.11835178732872009,0.0002739563933573663,-0.9943624138832092,-0.10603435337543488,-0.02282649278640747,-0.004371047019958496,0.019425518810749054
1.4605746604534964,0.01507460291347399,-2.0607883167963084,-0.3855937719345093,0.07691145688295364,-0.13540613651275635,0.0016581055242568254,-0.9939317107200623,-0.10998498648405075,-0.015116408467292786,-0.005808711051940918,0.009643219411373138
1.456808710588691,0.027668871945030708,-2.073034569679192,-0.35765373706817627,0.013695466332137585,-0.1559942364692688,0.0031466707587242126,-0.9935104250907898,-0.11369699984788895,-0.017154276371002197,-0.00641322135925293,0.003467567265033722
1.4533437684679953,0.04076637600301338,-2.086255374071207,-0.31967437267303467,-0.02005731873214245,-0.17059242725372314,0.004775783512741327,-0.9931103587150574,-0.11708515882492065,-0.023177921772003174,0.008445501327514648,0.0005996227264404297
1.4503393753543623,0.053501312860113726,-2.099585465613968,-0.26368433237075806,-0.08233480900526047,-0.1710480898618698,0.006425921339541674,-0.992753803730011,-0.11999311298131943,-0.016115307807922363,0.025651872158050537,-0.008562140166759491
1.447834981581372,0.0645804314379356,-2.1121186892052317,-0.21567635238170624,-0.18900854885578156,-0.16299153864383698,0.0079153748229146,-0.9924497604370117,-0.12239570915699005,-0.0019797692075371742,0.024035513401031494,-0.01790880411863327
1.445802136276981,0.07532898577542056,-2.125217194133872,-0.16258889436721802,-0.24344249069690704,-0.1869993954896927,0.009382360614836216,-0.9921984076499939,-0.12431611865758896,-0.007429285906255245,0.009593307971954346,-0.02836330235004425
1.444293563007392,0.08747366864702383,-2.1398345292612233,-0.11004948616027832,-0.22098669409751892,-0.1970851570367813,0.011022067628800869,-0.992009162902832,-0.12568286061286926,-0.011586681939661503,0.021687626838684082,-0.049289628863334656
1.4432181667671804,0.09882999996144316,-2.1532337627860967,-0.07405899465084076,-0.15816298127174377,-0.15672282874584198,0.012553956359624863,-0.9918729662895203,-0.12661191821098328,-0.007366001605987549,0.043478190898895264,-0.055989980697631836
1.4424968932488649,0.10713934834781287,-2.1628426389260125,-0.04216610640287399,-0.09145716577768326,-0.10055844485759735,0.013682037591934204,-0.9917809367179871,-0.1272141933441162,0.006963059306144714,0.03958672285079956,-0.05019974708557129
1.4421596383818749,0.11154725016400234,-2.168125575060524,-0.007900813594460487,-0.07806359976530075,-0.04167035594582558,0.014279811643064022,-0.9917377233505249,-0.12748441100120544,0.021532505750656128,0.03348582983016968,-0.040499553084373474
1.4423227025172922,0.11143268493717026,-2.1689354490865926,0.04340159893035889,-0.10640569031238556,0.0212196484208107,0.014247243292629719,-0.9917585849761963,-0.12732551991939545,0.03334486484527588,0.037184059619903564,-0.03586721420288086
1.4430388311240692,0.10745244306567922,-2.166327558429499,0.09382029622793198,-0.18288928270339966,0.048150066286325455,0.013664250262081623,-0.9918500781059265,-0.1266757696866989,0.024604737758636475,0.034300029277801514,-0.03648644685745239
1.4442514085384557,0.1038888147460713,-2.165100334329599,0.13998641073703766,-0.28223514556884766,-0.0034775077365338802,0.013087996281683445,-0.992003858089447,-0.1255272477865219,-0.02370816469192505,0.01855415105819702,-0.033988118171691895
1.4457334497915517,0.1065418977311995,-2.1709430940994587,0.16407443583011627,-0.33831122517585754,-0.11665918678045273,0.01326459739357233,-0.9921898245811462,-0.12402980029582977,-0.07118700444698334,0.00400012731552124,-0.027200043201446533
1.4471464439446624,0.1185399657767928,-2.1864693106952733,0.15642064809799194,-0.33319082856178284,-0.2345077395439148,0.014585750177502632,-0.9923650622367859,-0.12246812880039215,-0.09225304424762726,0.0027107596397399902,-0.014403194189071655
1.448145024497208,0.13982850187038642,-2.2110749651473562,0.1180250495672226,-0.2893480062484741,-0.3344825506210327,0.017051441594958305,-0.9924877285957336,-0.12114959210157394,-0.08675363659858704,0.002711176872253418,-0.000539243221282959
1.4484599941800784,0.16725937471516367,-2.241334790032633,0.05741870030760765,-0.223286971449852,-0.3769940733909607,0.020315853878855705,-0.9925262331962585,-0.1203283816576004,-0.058432355523109436,0.003314197063446045,0.011807918548583984
1.4480220209825778,0.1953684816168834,-2.271443151788552,-0.009143549017608166,-0.12836897373199463,-0.3545808792114258,0.023774152621626854,-0.9924727082252502,-0.12013658881187439,-0.01840311288833618,0.009898245334625244,0.012745261192321777
1.4470050637458423,0.21951817049138678,-2.2965874024628663,-0.057721883058547974,-0.03346379101276398,-0.28844285011291504,0.02688811533153057,-0.9923476576805115,-0.12051314115524292,0.021604273468255997,0.024940311908721924,0.007872745394706726
1.4458442076002538,0.23750663864812604,-2.3147586198991763,-0.05775544047355652,0.018702741712331772,-0.2045481950044632,0.029322220012545586,-0.9922036528587341,-0.12112834304571152,0.042180418968200684,0.02938932180404663,-0.008891761302947998
1.4451030346362312,0.2501768863854707,-2.327421735675659,-0.00012719538062810898,-0.008241662755608559,-0.14127786457538605,0.031036773696541786,-0.9921109676361084,-0.12146022915840149,0.044585734605789185,0.031371891498565674,-0.03294342756271362
1.4453007560130027,0.26024972166590377,-2.3380255702843096,0.11457861959934235,-0.0904795452952385,-0.10883070528507233,0.03220823407173157,-0.992135763168335,-0.12095220386981964,0.03473203256726265,0.02823793888092041,-0.05701102316379547
1.4468682112517863,0.27072875133046115,-2.3501950064754404,0.27112260460853577,-0.235589399933815,-0.1041073128581047,0.0330580435693264,-0.9923307299613953,-0.11910968273878098,0.010719377547502518,0.02345860004425049,-0.07742352783679962
1.449915959343865,0.2844958901429497,-2.3674098539764383,0.4254418909549713,-0.4250551760196686,-0.13684608042240143,0.0338456891477108,-0.992702841758728,-0.11574012786149979,-0.013826202601194382,0.023372888565063477,-0.08094562590122223
1.454190338936232,0.30414943845387293,-2.392080315233677,0.553699791431427,-0.5232973694801331,-0.17279152572155,0.03484237194061279,-0.9932092428207397,-0.11100234091281891,-0.026129648089408875,0.021392226219177246,-0.06892925500869751
1.4592961809557867,0.33021258447927526,-2.4236151197987215,0.6284776329994202,-0.5176455974578857,-0.18792040646076202,0.03607828915119171,-0.9937902688980103,-0.10525742173194885,-0.01952255144715309,0.02749699354171753,-0.06057506054639816
1.4645308120761145,0.3606577641953409,-2.459004855718537,0.5900036692619324,-0.38147029280662537,-0.17313215136528015,0.03742915391921997,-0.9943591356277466,-0.09924104064702988,-0.0020898468792438507,0.03357434272766113,-0.034441158175468445
1.4683254167882176,0.3869955160244398,-2.4883313114998313,0.3139430284500122,-0.23870225250720978,-0.11296629160642624,0.038605235517024994,-0.994754433631897,-0.0947258248925209,0.03404180333018303,0.03581595420837402,0.09149099886417389
1.4697170689824823,0.39535676695416727,-2.4986835771159313,0.039103180170059204,-0.10609203577041626,0.033498965203762054,0.03886329010128975,-0.9948958158493042,-0.09312348812818527,0.08976826071739197,0.0358046293258667,0.14678865671157837
1.4695817641766964,0.3829656754824766,-2.4861882028209434,-0.15806980431079865,0.09147137403488159,0.17412051558494568,0.03775717690587044,-0.9948821663856506,-0.0937238484621048,0.12046115100383759,0.034158170223236084,0.08299695700407028
1.4682504334150774,0.35689811756716805,-2.4584976438772235,-0.28039616346359253,0.20391905307769775,0.24666720628738403,0.035763416439294815,-0.9947468042373657,-0.09591502696275711,0.08293464779853821,0.0531269907951355,0.051237352192401886
1.4663176404590539,0.32525984169711947,-2.4241840706506905,-0.3092525601387024,0.282385915517807,0.2828076481819153,0.033325862139463425,-0.9945470690727234,-0.098820261657238,0.0481560193002224,0.045709848403930664,-0.00043814629316329956
1.464413378735909,0.29441736527038315,-2.390281041866295,-0.2570200562477112,0.27948281168937683,0.2719229459762573,0.030812103301286697,-0.9943466782569885,-0.10161301493644714,0.016245942562818527,0.0338670015335083,-0.044856056571006775
1.46319294143648,0.2683114715997328,-2.361647407924349,-0.13860070705413818,0.18192671239376068,0.24529772996902466,0.028471140190958977,-0.9942163228988647,-0.10355359315872192,-0.004148688167333603,0.02842646837234497,-0.0773240476846695
1.4631135796268997,0.24685311416067626,-2.3389578407173315,-0.00031290994957089424,0.04205036535859108,0.221812441945076,0.026261793449521065,-0.9942077994346619,-0.1042165532708168,-0.010560542345046997,0.01769113540649414,-0.10182279348373413
1.464124410630547,0.22834718253313058,-2.32047176169136,0.090069979429245,-0.0720016360282898,0.20988202095031738,0.024101287126541138,-0.9943159222602844,-0.10370578616857529,-0.01757057011127472,0.0081709623336792,-0.08605247735977173
1.4656653874478478,0.21050195864603471,-2.30388484533716,0.1270475536584854,-0.19609671831130981,0.19798679649829865,0.021926498040556908,-0.9944788217544556,-0.10261983424425125,-0.026839885860681534,0.005648434162139893,-0.03419046103954315
1.4673638651677507,0.19215120162188382,-2.287935585994987,0.13588231801986694,-0.2953149080276489,0.19734124839305878,0.01971713826060295,-0.9946556091308594,-0.10134661197662354,-0.02284524217247963,0.0016595721244812012,-0.002535209059715271
1.468986933747665,0.17159168256717114,-2.2706417123623703,0.11789658665657043,-0.36731618642807007,0.21024440228939056,0.017353730276226997,-0.9948219060897827,-0.1001393273472786,-0.006840471178293228,-0.007985532283782959,0.010722838342189789
1.4703709707993569,0.14756194163676856,-2.250266844411697,0.0874641090631485,-0.3748113811016083,0.2441760003566742,0.014740320853888988,-0.9949616193771362,-0.09916634112596512,0.01559410896152258,-0.017718374729156494,0.013869769871234894
1.4714330780072484,0.11772622206534086,-2.2239437014672516,0.05303909629583359,-0.3460327684879303,0.2999984622001648,0.011651476845145226,-0.9950675368309021,-0.09851330518722534,0.030508503317832947,-0.0186348557472229,0.010561704635620117
1.4721086510606776,0.0821431684687446,-2.19138846306836,0.01844729483127594,-0.2879905104637146,0.3537096381187439,0.008084314875304699,-0.9951342940330505,-0.09819591790437698,0.03340429067611694,-0.020444929599761963,0.004476428031921387
1.4723591791911363,0.041287515783957444,-2.152928700195803,-0.012897057458758354,-0.22956283390522003,0.4023216664791107,0.004056504461914301,-0.9951589703559875,-0.09819430857896805,0.02966536581516266,-0.026981472969055176,0.0029184892773628235
1.4721470590728476,-0.003601845012373679,-2.1098852406861264,-0.044267766177654266,-0.18370746076107025,0.43911588191986084,-0.0003547410306055099,-0.9951381087303162,-0.09848827868700027,0.026370927691459656,-0.03299903869628906,0.00222063809633255
1.4714455431619935,-0.05018114517758033,-2.0648342197329552,-0.07107015699148178,-0.16501030325889587,0.44648924469947815,-0.004975285846740007,-0.9950687885284424,-0.09906328469514847,0.011811181902885437,-0.04185748100280762,0.002215743064880371
1.4703158351896228,-0.09466232715667904,-2.02172927557644,-0.0883450135588646,-0.1471082717180252,0.4179476201534271,-0.0094815818592906,-0.9949560761451721,-0.09986278414726257,-0.01481045875698328,-0.051918983459472656,0.003625616431236267
1.468978783127388,-0.1331974973418641,-1.9843388519006295,-0.08919811248779297,-0.11922474205493927,0.35628917813301086,-0.013498339802026749,-0.9948210716247559,-0.10074076801538467,-0.04173852503299713,-0.057379186153411865,9.382516145706177e-05
1.467651389791622,-0.164232695545811,-1.9542462092216524,-0.08055535703897476,-0.10182710736989975,0.29167982935905457,-0.016833800822496414,-0.9946852922439575,-0.10157647728919983,-0.053982287645339966,-0.05606544017791748,-0.003068268299102783
1.4664699817684024,-0.18923118170203374,-1.9301030928603078,-0.06313523650169373,-0.09555887430906296,0.24177931249141693,-0.01958858035504818,-0.9945629239082336,-0.10227811336517334,-0.047779008746147156,-0.05399054288864136,-0.007585108280181885
1.4654674136062171,-0.21000862645573184,-1.9101824607270586,-0.04869583994150162,-0.10055949538946152,0.20598164200782776,-0.021917004138231277,-0.994458019733429,-0.10282361507415771,-0.0359443724155426,-0.058276236057281494,-0.011479958891868591
1.464665429437723,-0.2280370484313544,-1.893071711889066,-0.027148935943841934,-0.10207568109035492,0.178404301404953,-0.02394751086831093,-0.9943733811378479,-0.10318922996520996,-0.030465377494692802,-0.06481540203094482,-0.012579135596752167
1.4641744790073374,-0.24329827506164162,-1.8788059033304974,0.005326450802385807,-0.11691774427890778,0.1353021115064621,-0.025637196376919746,-0.9943212866783142,-0.10328610986471176,-0.03498600423336029,-0.06410461664199829,-0.017181992530822754
1.4641662901763235,-0.255226227062177,-1.8681507468301335,0.05069456994533539,-0.14790748059749603,0.0833694189786911,-0.026869382709264755,-0.9943203926086426,-0.10298081487417221,-0.04754777252674103,-0.06341886520385742,-0.021408796310424805
1.4647336477644652,-0.2633407499920587,-1.8615443521326254,0.09546762704849243,-0.15326257050037384,0.020193379372358322,-0.027557052671909332,-0.9943806529045105,-0.10221386700868607,-0.05761755630373955,-0.05963540077209473,-0.030705437064170837
1.4658695078016737,-0.26669888019331917,-1.8595557691544369,0.13029196858406067,-0.11707497388124466,-0.04044324904680252,-0.027602510526776314,-0.9945002198219299,-0.1010313406586647,-0.06201240420341492,-0.05402266979217529,-0.03812878578901291
1.4674165962662529,-0.2650512842524138,-1.8621716177500747,0.15051068365573883,-0.07596055418252945,-0.09554751217365265,-0.027033096179366112,-0.9946610927581787,-0.09959229826927185,-0.06325320899486542,-0.05065751075744629,-0.03418147563934326
1.4692172692795415,-0.25854062146635093,-1.8693735239430374,0.15945541858673096,-0.059856608510017395,-0.13881194591522217,-0.025926396250724792,-0.9948452711105347,-0.09803541749715805,-0.05706620588898659,-0.04543799161911011,-0.01896895468235016
1.471128050351158,-0.24888214777719422,-1.8797780230711711,0.15529076755046844,-0.08284580707550049,-0.1580229252576828,-0.024509653449058533,-0.9950371980667114,-0.09643717110157013,-0.03532009944319725,-0.04054617881774902,0.0011308342218399048
1.4729483624773987,-0.23817091847893726,-1.891514876427443,0.13821114599704742,-0.11264213919639587,-0.15044325590133667,-0.023048125207424164,-0.9952167272567749,-0.0949346050620079,-0.006904929876327515,-0.0375744104385376,0.01673334836959839
1.4744823148017123,-0.22882976979445566,-1.9022149397004615,0.11163360625505447,-0.148721843957901,-0.12230056524276733,-0.02181381918489933,-0.9953653812408447,-0.09365800023078918,0.014993088319897652,-0.033641517162323,0.02648884803056717
1.4756016731444892,-0.22279950105064622,-1.9099106256574019,0.08402342349290848,-0.17160579562187195,-0.09328454732894897,-0.021002771332859993,-0.9954724311828613,-0.09270259737968445,0.022665930911898613,-0.024867653846740723,0.03529905527830124
1.4764003588995562,-0.2187523086043865,-1.9158168893732472,0.06395997107028961,-0.19355371594429016,-0.08407693356275558,-0.020454667508602142,-0.9955480098724365,-0.0920097827911377,0.019081324338912964,-0.016933679580688477,0.03344660997390747
1.477008431934332,-0.21450632766513755,-1.9222222727320117,0.05098986625671387,-0.22947490215301514,-0.09622490406036377,-0.019935142248868942,-0.9956051111221313,-0.09150518476963043,0.006156414747238159,-0.012009024620056152,0.028318583965301514
1.477499610585137,-0.2085995414450287,-1.930732545219056,0.03571956604719162,-0.2761649191379547,-0.12309779971837997,-0.019293008372187614,-0.9956510066986084,-0.09114284813404083,-0.009164676070213318,-0.010788202285766602,0.021044015884399414
1.4779443092499174,-0.1987936232800272,-1.9435084119932033,0.018489843234419823,-0.2990127503871918,-0.17157793045043945,-0.0183106642216444,-0.9956923723220825,-0.09089235216379166,-0.02586357295513153,-0.01466834545135498,0.015986979007720947
1.4784111790872219,-0.18176112239410888,-1.9635799241066674,0.002983854152262211,-0.2799954116344452,-0.23799291253089905,-0.01667596399784088,-0.9957355260848999,-0.09073401987552643,-0.0432911217212677,-0.016151070594787598,0.00993877649307251
1.478833235553204,-0.1561762047614192,-1.9917471500728412,-0.0209317859262228,-0.20238789916038513,-0.29357147216796875,-0.014283984899520874,-0.9957743883132935,-0.09071587771177292,-0.05360241234302521,-0.010100245475769043,0.003618776798248291
1.4789851943639607,-0.12308214098482799,-2.0264439656834123,-0.06440708786249161,-0.08625756949186325,-0.32980087399482727,-0.011255905032157898,-0.9957883358001709,-0.09098808467388153,-0.048146605491638184,-0.00027489662170410156,0.001983642578125
1.4787082752456102,-0.08550199348240492,-2.064419926235677,-0.1088997945189476,0.03614642471075058,-0.33701854944229126,-0.007852987386286259,-0.9957628846168518,-0.09162174165248871,-0.0333610475063324,0.008061528205871582,0.006157346069812775
1.4776796586793917,-0.048255710582081196,-2.1009607311419836,-0.13929152488708496,0.132716104388237,-0.31824591755867004,-0.004485160578042269,-0.9956677556037903,-0.09287353605031967,-0.0112772136926651,0.012910246849060059,0.007256515324115753
1.4763018708164346,-0.014629936556689508,-2.1331418516772294,-0.15104898810386658,0.17759296298027039,-0.2709105610847473,-0.0013803462497889996,-0.9955387115478516,-0.09434407204389572,0.011161193251609802,0.019815444946289062,0.004836022853851318
1.474859956029168,0.012190559048327084,-2.1583214968956446,-0.1341557502746582,0.16209790110588074,-0.20415310561656952,0.0011676873546093702,-0.9954016208648682,-0.09578145295381546,0.02919726073741913,0.02572089433670044,-0.0028970763087272644
1.473676805633554,0.030527019159741244,-2.1754982871459827,-0.09272788465023041,0.08081584423780441,-0.13163083791732788,0.0029596779495477676,-0.9952875971794128,-0.0969226136803627,0.0443272590637207,0.02971130609512329,-0.008836045861244202
1.4729417629716157,0.04119701606984367,-2.1860107317725643,-0.04387885332107544,-0.040175825357437134,-0.08236607909202576,0.004023760091513395,-0.9952160716056824,-0.09761589765548706,0.044041380286216736,0.025993049144744873,-0.011301279067993164
1.4726485334687092,0.047975342399084846,-2.1937915002675323,-0.0074801635928452015,-0.1482628583908081,-0.08081435412168503,0.00469929538667202,-0.9951873421669006,-0.0978771448135376,0.026199713349342346,0.01532900333404541,-0.012138664722442627
1.4725818321545487,0.057031727402772445,-2.204694913506175,0.0017471564933657646,-0.20060116052627563,-0.1386163979768753,0.005589268170297146,-0.9951808452606201,-0.0978965014219284,-0.0161178857088089,0.006350338459014893,-0.008777610957622528
1.472403918807935,0.07382050021720085,-2.223451579403845,-0.018685903400182724,-0.16399160027503967,-0.2324494868516922,0.007245007436722517,-0.9951633810997009,-0.09796522557735443,-0.05476093292236328,0.0071263909339904785,0.0008126050233840942
1.471699477637714,0.1000368754603746,-2.250986589379976,-0.07779689133167267,-0.06687410175800323,-0.31499922275543213,0.009880589321255684,-0.9950939416885376,-0.0984397754073143,-0.06543788313865662,0.010154366493225098,0.012105584144592285
1.4700428032585722,0.13241965816147583,-2.2835967399484627,-0.1781029999256134,0.05350015312433243,-0.3635333776473999,0.013280370272696018,-0.9949286580085754,-0.09970314055681229,-0.05461648106575012,0.008356332778930664,0.026796698570251465
