attitudeX,attitudeY,attitudeZ,gyroX,gyroY,gyroZ,gravityX,gravityY,gravityZ,accX,accY,accZ
0.19615688244150978,0.006698261584280744,-0.42620499630549985,-0.05861547589302063,-0.2649310827255249,0.21026846766471863,0.006569758988916874,-0.19490136206150055,-0.9808008670806885,0.020056817680597305,0.019364267587661743,0.06080269813537598
0.1650833005024206,-0.02120512939680906,-0.4146357553527348,-0.44218289852142334,-0.13102176785469055,-0.06368173658847809,-0.02091527171432972,-0.1643345057964325,-0.9861829280853271,-0.04042506963014603,0.002011522650718689,0.08388495445251465
0.10511983789944294,-0.04556106177755845,-0.4343398589187169,-1.0338603258132935,-0.4822843670845032,-0.36667531728744507,-0.045293889939785004,-0.10492634773254395,-0.99344801902771,-0.1528415083885193,-0.024315573275089264,0.20469069480895996
0.02304558117554248,-0.1283364139202835,-0.49420152316659505,-0.7084337472915649,-1.097281575202942,-1.6270891427993774,-0.12795042991638184,-0.023043541237711906,-0.9915128350257874,-0.5706274509429932,-0.6231356263160706,-0.45381492376327515
0.13066282145009697,-0.17237131209859896,-0.6337041578082913,1.8723853826522827,-0.33157533407211304,-1.9072914123535156,-0.17005692422389984,-0.13029134273529053,-0.9767828583717346,-0.37280502915382385,-0.8418766260147095,-1.133644938468933
0.4828552109707091,-0.21376071211613953,-0.7421178643900852,4.250721454620361,-0.9503390192985535,-1.6295334100723267,-0.18788354098796844,-0.46430984139442444,-0.8655149936676025,-0.31805214285850525,-0.09936508536338806,-1.3996217250823975
0.9363376330250839,-0.2218306801669875,-0.8948507240506391,3.8412468433380127,-1.2796274423599243,-2.5098917484283447,-0.13041256368160248,-0.8053926825523376,-0.5782173871994019,-0.4648633599281311,0.9073060750961304,-1.0749198198318481
1.3661649686290656,0.4285936246016325,-1.6443800553389425,4.934300422668457,-0.7854593396186829,-1.4845530986785889,0.08445069193840027,-0.9791359901428223,-0.18482603132724762,0.12346552312374115,1.9679818153381348,0.2474175989627838
1.3835784662477255,1.3596357814336577,-2.6535987796718996,-1.4664982557296753,-0.17197582125663757,0.7251133918762207,0.18199247121810913,-0.9825258851051331,-0.03901118040084839,0.7463522553443909,2.382870674133301,0.8920996189117432
1.4165959624643654,-0.6438922547362085,-0.7033939299112107,-2.018592357635498,-0.07249797135591507,3.7661945819854736,-0.09220224618911743,-0.9881346821784973,-0.12283620238304138,0.30533698201179504,1.922659158706665,0.5201140642166138
0.8982137754122556,-0.6426309411519833,-0.6039495628729554,-5.32676362991333,1.9868900775909424,3.050347089767456,-0.37337106466293335,-0.7822152972221375,-0.4987316429615021,-0.37994012236595154,1.8916971683502197,-0.25471681356430054
0.24514782311084723,-0.5018968927282804,-0.7101575526571219,-5.300540924072266,-0.7915394306182861,2.2859673500061035,-0.4667055010795593,-0.2426997274160385,-0.8504603505134583,-1.116256594657898,0.9835749864578247,-1.6411930322647095
-0.24476882109144527,-0.569608218507007,-0.718389236668957,-2.6595380306243896,-0.17898529767990112,2.194171190261841,-0.5232273936271667,0.24233204126358032,-0.817011833190918,-1.1646236181259155,-0.6997599601745605,-2.412877082824707
-0.3590672086683459,-0.5447838751247512,-0.628515192984689,1.7286068201065063,-0.16260208189487457,-0.8160682916641235,-0.4851829707622528,0.35140109062194824,-0.8006964921951294,-1.6062935590744019,-2.4269778728485107,-2.38057804107666
0.05386854431406058,-0.4641307234266495,-0.7507872421869465,4.292349815368652,0.6529754400253296,-3.798381805419922,-0.4469963312149048,-0.05384249612689018,-0.8929139375686646,-1.1781562566757202,0.09058568626642227,-1.894805669784546
0.6520939888958297,-0.30215085126445573,-0.9167879196514696,5.267033576965332,1.017177939414978,-3.4479291439056396,-0.23651646077632904,-0.6068520545959473,-0.7588086128234863,-0.9149423241615295,1.9028573036193848,-1.0619311332702637
1.2328559456645256,-0.02547170494898032,-1.1901402200190727,5.369129657745361,0.5542271733283997,-1.6603693962097168,-0.008444099687039852,-0.9434395432472229,-0.3314373195171356,-0.20392775535583496,2.1167335510253906,0.1327221393585205
1.4377593633277903,0.8005160479067924,-1.9837069219426302,-0.1864166259765625,0.5189711451530457,-0.644740641117096,0.09520138055086136,-0.9911636114120483,-0.09236554801464081,0.14416322112083435,1.6493057012557983,0.8340648412704468
1.3584407802419045,0.3886403024236464,-1.5419839487914002,-1.9185065031051636,-0.2290860265493393,1.0816632509231567,0.0798647329211235,-0.9775371551513672,-0.19504588842391968,0.2224576473236084,1.6019268035888672,0.6220325827598572
1.0474887097774037,-0.14437329221273237,-1.0112756222465376,-4.4166131019592285,-0.39333462715148926,2.0811104774475098,-0.07189985364675522,-0.8661709427833557,-0.49454858899116516,0.005539365112781525,1.763540267944336,0.29053863883018494
0.47060973786760574,-0.2938265274642367,-0.8872480223416656,-6.485927104949951,-0.5550748109817505,1.8338985443115234,-0.258133202791214,-0.45342981815338135,-0.8530936241149902,-0.3902127742767334,1.2522274255752563,-0.5041451454162598
-0.10753320172358205,-0.4802966777590512,-0.8790229273102685,-3.9208905696868896,-1.4928333759307861,2.449985980987549,-0.45937350392341614,0.10732608288526535,-0.8817352652549744,-0.9090194702148438,0.28374147415161133,-2.303323268890381
-0.37157053307465604,-0.5274259977124343,-0.7945928011409099,0.534136176109314,-0.6096782088279724,1.3781808614730835,-0.46896401047706604,0.3630792498588562,-0.8051373958587646,-1.2277828454971313,-2.433635711669922,-2.5035479068756104
-0.0836550251668098,-0.4424144806450046,-0.827579520999761,3.505953311920166,1.8124849796295166,-3.7839133739471436,-0.4266255795955658,0.08355748653411865,-0.9005602598190308,-1.4023692607879639,-0.6033938527107239,-2.0702037811279297
0.4765758602382104,-0.26232377955086184,-0.9888168967878928,4.837271213531494,2.260471820831299,-3.236598253250122,-0.23042912781238556,-0.4587392807006836,-0.8581728935241699,-0.9805237054824829,1.5424184799194336,-1.0540432929992676
0.9811541678716978,0.07115503760727339,-1.2978131176957046,4.543858051300049,1.2141590118408203,-2.172855854034424,0.039533358067274094,-0.8311397433280945,-0.5546566247940063,-0.4857308864593506,1.9131709337234497,-0.25997960567474365
1.3529003893769884,0.8675016551498291,-2.042958958070196,2.792670249938965,0.4304455816745758,-0.039771609008312225,0.16488073766231537,-0.9763544797897339,-0.13980832695960999,0.014455780386924744,1.6132409572601318,0.9420239329338074
1.3543958446222333,1.0177348151641123,-2.167735689729689,-1.025333046913147,0.25125613808631897,-0.0804591178894043,0.1827058494091034,-0.9766766428947449,-0.11278896778821945,0.12153913080692291,1.4355084896087646,0.6701315641403198
1.2058773719390308,0.3247615054513094,-1.4585517350591595,-3.3602423667907715,-1.0884233713150024,1.5173258781433105,0.11387229710817337,-0.9341526627540588,-0.33821892738342285,0.04047034680843353,1.590311050415039,0.5415575504302979
0.7666292827510562,-0.2549948028909978,-0.9964121617975031,-5.005090713500977,-2.3207144737243652,3.108633279800415,-0.18167690932750702,-0.6937114000320435,-0.6969634294509888,-0.42504310607910156,1.6191569566726685,-0.20307624340057373
0.18515483242839897,-0.5164326352222736,-0.900806515704742,-4.231181621551514,-2.2572994232177734,2.46392560005188,-0.485341340303421,-0.1840987205505371,-0.8547230362892151,-1.0112864971160889,0.6672530174255371,-1.5146160125732422
-0.2132700095756726,-0.5969474021483231,-0.9126959761767275,-1.4374321699142456,-0.027467889711260796,2.5937340259552,-0.5493850708007812,0.21165694296360016,-0.8083176612854004,-0.40958404541015625,-0.658342719078064,-2.2029433250427246
-0.3021678438468801,-0.4614543615517619,-0.7944883994654588,1.3622699975967407,0.5765153169631958,1.3252147436141968,-0.4250781238079071,0.2975905239582062,-0.8548383116722107,-0.3142865300178528,-0.7767164707183838,-1.080265998840332
-0.18554264586641117,-0.30812326580126537,-0.6797165327156327,1.580666184425354,1.2132939100265503,0.03547627478837967,-0.29806557297706604,0.18447989225387573,-0.9365490078926086,-0.16705286502838135,-0.021470218896865845,-0.13631165027618408
-0.04244837508919167,-0.19698617610374078,-0.616270652262448,1.3059682846069336,0.5933131575584412,0.30584144592285156,-0.19553838670253754,0.042435627430677414,-0.9797775149345398,-0.031161457300186157,0.22102266550064087,0.2055465579032898
0.045748185520996375,-0.15620953406569063,-0.5885704060822354,0.5563263297080994,0.38157808780670166,-0.007119389250874519,-0.1554122418165207,-0.04573222994804382,-0.9867905378341675,-0.010755971074104309,0.1250627040863037,0.13222211599349976
0.08613038410346127,-0.12483922810522569,-0.5873625211864996,0.1790042221546173,0.3738728165626526,-0.030988236889243126,-0.12405364215373993,-0.08602393418550491,-0.9885396361351013,-0.0019839778542518616,0.0748240053653717,0.05248922109603882
0.09743033858933302,-0.1042068953984489,-0.5749139893781999,-0.009502043016254902,-0.20697450637817383,0.2811413109302521,-0.1035250872373581,-0.09727626293897629,-0.9898585081100464,0.032052889466285706,0.005906656384468079,0.019628405570983887
0.1265504870458354,-0.07814059816545081,-0.5714509652748666,0.073703333735466,0.4183686375617981,0.04401570186018944,-0.07743685692548752,-0.1262129694223404,-0.9889761209487915,0.030226148664951324,-0.0009689927101135254,0.01590794324874878
0.14483060627876987,-0.04918409906912194,-0.547948310846054,0.20551161468029022,0.1655946671962738,0.42526745796203613,-0.048649538308382034,-0.14432480931282043,-0.9883337616920471,0.06190941110253334,0.005759790539741516,-0.006783425807952881
0.16223140810905412,-0.028918570058301903,-0.5247054321598342,0.13491636514663696,0.25104567408561707,0.13729716837406158,-0.028534872457385063,-0.16152071952819824,-0.9864566922187805,0.01507660560309887,-0.022271379828453064,0.005682766437530518
0.18336956271549193,-0.03042615257353713,-0.5027802234395624,0.2005755603313446,0.015440459363162518,0.2554911673069,-0.02991143800318241,-0.18234367668628693,-0.9827798008918762,-0.05019722133874893,0.04356500506401062,-0.00846165418624878
0.20807311058981895,-0.03718629492977687,-0.4855031902113652,0.012091105803847313,-0.01502035278826952,0.06894634664058685,-0.03637583181262016,-0.2065749615430832,-0.9777543544769287,-0.04463309794664383,0.008119165897369385,0.1420915126800537
0.2141868993792877,-0.04098957876006218,-0.4844172803448334,0.14258046448230743,0.13551104068756104,-0.051187120378017426,-0.040041733533144,-0.2125529795885086,-0.9763287901878357,-0.0451633557677269,0.0174998939037323,0.05361455678939819
0.20613477740297792,-0.08901214697353672,-0.46282738392477757,0.19190458953380585,0.007016366347670555,-0.014875713735818863,-0.08701269328594208,-0.20467804372310638,-0.9749541878700256,-0.10309657454490662,0.009975925087928772,-0.1580260992050171
0.2088134565177099,-0.08470639236817519,-0.4558273589469092,0.19367314875125885,-0.007068686652928591,0.012577882036566734,-0.0827673003077507,-0.20729927718639374,-0.9747700095176697,0.004504956305027008,-0.012701928615570068,-0.04317432641983032
0.20888071378925782,-0.08327997315113164,-0.4514857378635508,0.14555974304676056,-0.07573223859071732,0.15469694137573242,-0.08137562870979309,-0.20736506581306458,-0.9748731851577759,0.0385136753320694,0.04276852309703827,-0.04040086269378662
0.2095223847562678,-0.09519019745950887,-0.4280620313646774,0.03405117243528366,-0.07864335924386978,0.16880276799201965,-0.09296787530183792,-0.20799274742603302,-0.9737021923065186,-0.01758207380771637,0.016128748655319214,-0.038138628005981445
0.2010966934834828,-0.08875333545629259,-0.41546975346907955,0.014255437068641186,0.1814083606004715,0.03748562932014465,-0.08685065805912018,-0.19974404573440552,-0.975991427898407,-0.043474674224853516,-0.0029079169034957886,-0.07291299104690552
