attitudeX,attitudeY,attitudeZ,gyroX,gyroY,gyroZ,gravityX,gravityY,gravityZ,accX,accY,accZ
1.320602473548997,-3.1136108628421093,3.079714436863055,0.351044625043869,0.5600836873054504,-0.8808926343917847,-0.0069271717220544815,-0.9688644409179688,0.2474953681230545,-0.13655123114585876,0.1555708646774292,0.1321432888507843
1.3181759329815814,3.137831858513146,3.118339289948679,0.16215646266937256,0.5319697856903076,-1.01432466506958,0.0009399792179465294,-0.9682608246803284,0.24994045495986938,-0.0733582079410553,0.17236226797103882,0.16757050156593323
1.3172917427949318,3.1039608405264425,-3.1249467196871072,-0.04344183951616287,0.41529494524002075,-0.984810471534729,0.009435757994651794,-0.9680394530296326,0.2506205141544342,-0.012640118598937988,0.1577671766281128,0.15398144721984863
1.3179700316024845,3.0714155573135837,-3.0877590332390072,-0.1739649623632431,0.2398352175951004,-0.8260213732719421,0.017539773136377335,-0.9682093262672424,0.24952544271945953,0.12276476621627808,0.10810196399688721,0.13910053670406342
1.3195591321541387,3.0445275566369374,-3.058891161770231,-0.2533818483352661,-0.02803044021129608,-0.5786416530609131,0.024092691019177437,-0.9686055779457092,0.2474316656589508,0.19651886820793152,0.039498090744018555,0.10634322464466095
1.321605534636039,3.0235016689532306,-3.038788451720131,-0.24179016053676605,-0.28000861406326294,-0.37595057487487793,0.029055949300527573,-0.9691122770309448,0.2449023276567459,0.19839155673980713,-0.0026284456253051758,0.04257321357727051
1.3231730176037655,3.0059877446339023,-3.0248224472448486,-0.15119720995426178,-0.5027903914451599,-0.2765323221683502,0.03313508257269859,-0.9694976806640625,0.24285057187080383,0.1282876431941986,-0.012847900390625,0.0016257762908935547
1.3236665536683552,2.989170595207909,-3.0133755389503785,-0.022086098790168762,-0.6222217082977295,-0.2717881500720978,0.03714163973927498,-0.969618558883667,0.24178627133369446,0.06255924701690674,0.0015703439712524414,-0.008067339658737183
1.3226771248571947,2.97151771666614,-3.0018286959019442,0.1261654943227768,-0.6564472317695618,-0.32059168815612793,0.04156620800495148,-0.9693760275840759,0.24203836917877197,0.022734347730875015,0.023804068565368652,-0.006839483976364136
1.3201100740624612,2.9523659124310075,-2.988945139862882,0.264127641916275,-0.6706680059432983,-0.3949998617172241,0.04666173830628395,-0.9687424302101135,0.24364139139652252,0.0019832588732242584,0.0454787015914917,0.01150086522102356
1.316034458201427,2.9317554984967225,-2.974671204204593,0.38304421305656433,-0.6832802295684814,-0.45838460326194763,0.05249490216374397,-0.9677233099937439,0.2464871108531952,-0.0008439421653747559,0.058833539485931396,0.022693157196044922
1.310788573803824,2.910252933784934,-2.9596900402783617,0.4640754163265228,-0.7193189263343811,-0.5115551352500916,0.058945540338754654,-0.9663879871368408,0.2502390146255493,0.007445421069860458,0.062259018421173096,0.034672945737838745
1.3047401081852432,2.8879193311286553,-2.944161813257163,0.5087488889694214,-0.7415897250175476,-0.5572074055671692,0.06598491221666336,-0.9648153185844421,0.25451403856277466,0.008249074220657349,0.06567591428756714,0.04391741752624512
1.2982252322026246,2.865272556472073,-2.9284159284257125,0.5255094766616821,-0.7442811131477356,-0.5842605829238892,0.07344482094049454,-0.9630818963050842,0.25899672508239746,0.006679035723209381,0.07437944412231445,0.05420520901679993
1.2914877441971775,2.8431734486995137,-2.913061871390978,0.5262261629104614,-0.713139533996582,-0.5947524905204773,0.0810559019446373,-0.9612463116645813,0.2635064423084259,0.0040270984172821045,0.08118033409118652,0.06536614894866943
1.284655896929292,2.821541649493634,-2.8977562607141194,0.5096517205238342,-0.6674916744232178,-0.635346531867981,0.08880046755075455,-0.9593403935432434,0.26791834831237793,-0.007669515907764435,0.06737273931503296,0.07183381915092468
1.2777410504230793,2.7992983310634827,-2.88119440919129,0.4882892668247223,-0.5985414385795593,-0.7045678496360779,0.09696200489997864,-0.9573657512664795,0.27212029695510864,-0.032402053475379944,0.05677664279937744,0.06642642617225647
1.2706583503537916,2.776690122475012,-2.8635268187530634,0.482291042804718,-0.5404203534126282,-0.7402190566062927,0.10550576448440552,-0.9552956819534302,0.2761856019496918,-0.0389469712972641,0.06512856483459473,0.07081446051597595
1.2635786834612421,2.756045538582649,-2.847160213499649,0.47456541657447815,-0.45363250374794006,-0.6696817278862,0.11372514814138412,-0.9531786441802979,0.28020843863487244,-0.028748974204063416,0.1060718297958374,0.07568737864494324
1.256887769763361,2.740071295913854,-2.8346770909736776,0.465346097946167,-0.36641398072242737,-0.5347777009010315,0.1206764206290245,-0.9511339664459229,0.28422027826309204,0.0016074925661087036,0.1795581579208374,0.0831197202205658
1.2508861911967155,2.729251447358626,-2.826846445885707,0.43801963329315186,-0.30912911891937256,-0.384068101644516,0.12603028118610382,-0.9492636919021606,0.2881235182285309,0.00803343951702118,0.2244558334350586,0.08129170536994934
1.245926720620447,2.7231044493177325,-2.8233420380887746,0.3750952482223511,-0.2509438693523407,-0.21322257816791534,0.12971018254756927,-0.947692334651947,0.2916405498981476,0.0036058276891708374,0.24157679080963135,0.06010505557060242
1.242434492066267,2.7219180579828897,-2.824493441826897,0.28788822889328003,-0.20981483161449432,0.005549222230911255,0.13140402734279633,-0.9465718865394592,0.2945074737071991,0.02837073802947998,0.26900535821914673,0.053057193756103516
1.2409271078742317,2.725918930367549,-2.8309092288059614,0.15169364213943481,-0.20448638498783112,0.2597990930080414,0.1308007687330246,-0.94608473777771,0.29633596539497375,0.0670599490404129,0.3005920648574829,0.06337478756904602
1.2417576824335905,2.735170384252855,-2.8427100091135618,0.002010592259466648,-0.16543999314308167,0.5134068727493286,0.12774281203746796,-0.9463534355163574,0.2968111038208008,0.08703987300395966,0.3385196328163147,0.06549343466758728
1.2448058155022137,2.7498306467656115,-2.859765546223462,-0.13251739740371704,-0.12994804978370667,0.7291620373725891,0.12227583676576614,-0.9473339915275574,0.295984148979187,0.08597604930400848,0.3884962201118469,0.05238911509513855
1.2496083830242415,2.7685720811109364,-2.880814116316664,-0.25739890336990356,-0.11201298981904984,0.8605828881263733,0.11504834145307541,-0.9488610625267029,0.29398396611213684,0.044009268283843994,0.4298638701438904,0.04567670822143555
1.2557884232033838,2.789488361804876,-2.903993920899392,-0.38100260496139526,-0.11136157810688019,0.9205120205879211,0.10685016214847565,-0.9507939219474792,0.29081597924232483,-0.004143275320529938,0.46965378522872925,0.04351922869682312
1.26303386469842,2.810927400129919,-2.927762721655942,-0.49013885855674744,-0.12298843264579773,0.925411581993103,0.09835194796323776,-0.9530137777328491,0.2865162193775177,-0.05249927192926407,0.4994310736656189,0.0311717689037323
1.271077236707531,2.831587522038531,-2.9508302790293106,-0.6009223461151123,-0.14869806170463562,0.8760919570922852,0.09007060527801514,-0.9554194808006287,0.28117790818214417,-0.09306135773658752,0.5209101438522339,0.017543315887451172
1.2798387821391992,2.849747004387351,-2.9714775828841056,-0.7067595720291138,-0.16839122772216797,0.788046658039093,0.0825381949543953,-0.957969605922699,0.2747391164302826,-0.1021609976887703,0.5432662963867188,0.003275960683822632
1.2889677521537442,2.865338356007298,-2.989568931188888,-0.7452414631843567,-0.1835813671350479,0.7016427516937256,0.07585638761520386,-0.9605485200881958,0.2675679624080658,-0.07848092913627625,0.552803099155426,-0.012700438499450684
1.2979351370020773,2.878921908019366,-3.005725146773239,-0.7413321137428284,-0.20767857134342194,0.6253682374954224,0.06997527182102203,-0.9630037546157837,0.2602440118789673,-0.04969639331102371,0.5517337322235107,-0.023824483156204224
1.3065255817696808,2.890845931180179,-3.020490928547402,-0.7126224040985107,-0.2538444697856903,0.5713468194007874,0.0648123025894165,-0.965283215045929,0.2530371844768524,-0.030235908925533295,0.5576140880584717,-0.03839179873466492
1.3146278324277367,2.902330775785004,-3.035310829533126,-0.6694254279136658,-0.31461286544799805,0.5631830096244812,0.06004638224840164,-0.9673678874969482,0.24615779519081116,-0.010104391723871231,0.573386013507843,-0.056460633873939514
1.3224513829387703,2.9146148698500087,-3.0516730099170535,-0.6662744283676147,-0.3975572884082794,0.593092143535614,0.05531330406665802,-0.96932053565979,0.2394953817129135,0.0102841816842556,0.5897734761238098,-0.07055021822452545
1.330499156762525,2.928786705004767,-3.070758552657666,-0.7020078301429749,-0.4583256244659424,0.6620805859565735,0.050264518707990646,-0.9712672829627991,0.23262250423431396,0.021741684526205063,0.6097103357315063,-0.08540584146976471
1.338974112273377,2.946868242840116,-3.0942837530648664,-0.730241060256958,-0.5045876502990723,0.7572624683380127,0.04445597529411316,-0.9732493758201599,0.225409135222435,0.035988327115774155,0.6309642195701599,-0.09990574419498444
1.3478523882624136,2.969929582930883,-3.1236685991071935,-0.7756140232086182,-0.610551118850708,0.8651984930038452,0.037768878042697906,-0.975250780582428,0.21785207092761993,0.05576750263571739,0.633820116519928,-0.11879207193851471
1.357290517710162,2.9978214387504574,3.12428294723176,-0.8459076285362244,-0.6815062761306763,0.9228159785270691,0.03035852685570717,-0.9772940874099731,0.20970168709754944,0.05599093809723854,0.6141195297241211,-0.1270906627178192
1.367137244085681,3.0282765873905784,3.086084181209023,-0.8889513611793518,-0.6900161504745483,0.8781935572624207,0.022869614884257317,-0.9793330430984497,0.20095691084861755,0.020648447796702385,0.584969699382782,-0.14074577391147614
1.3767617205400227,3.057402586998652,3.0493542931124975,-0.8703028559684753,-0.6775802969932556,0.7413781881332397,0.01621425151824951,-0.9812342524528503,0.1921357959508896,-0.02083766646683216,0.5569179654121399,-0.19279195368289948
1.3857087232863232,3.0815225356449756,3.017995757674446,-0.8204910755157471,-0.652075469493866,0.56120765209198,0.011048217304050922,-0.9829201102256775,0.18370074033737183,-0.05476465821266174,0.523676335811615,-0.2431185245513916
1.3938666347136244,3.0983963393354914,2.994356503857073,-0.7609188556671143,-0.6161763072013855,0.37313443422317505,0.007600526791065931,-0.9843887090682983,0.17584367096424103,-0.07155013084411621,0.4943680167198181,-0.2770552635192871
1.4014790336747978,3.107107505221633,2.979399939301593,-0.7444222569465637,-0.5904019474983215,0.20264028012752533,0.005809916649013758,-0.9857000112533569,0.16840912401676178,-0.09409728646278381,0.4630102515220642,-0.2933328151702881
1.40932022868628,3.107548716988415,2.9726539562648804,-0.8245807886123657,-0.6575721502304077,0.07803123444318771,0.00547238253057003,-0.9869910478591919,0.16068260371685028,-0.11236023902893066,0.4354773759841919,-0.28847503662109375
1.418198601294015,3.1010839584586964,2.9724759374111542,-0.9354051351547241,-0.6441732048988342,8.592009544372559e-05,0.00615590950474143,-0.9883795380592346,0.15188200771808624,-0.10089775919914246,0.39156240224838257,-0.2777212858200073
1.4277125875663905,3.0916688724809025,2.97593336318007,-0.9511755704879761,-0.5617175102233887,-0.00778398709371686,0.007115961983799934,-0.9897809624671936,0.14241808652877808,-0.07524648308753967,0.3474928140640259,-0.27266716957092285
1.437135723512437,3.082899539895808,2.979258400469923,-0.9308094382286072,-0.5323367118835449,0.019500991329550743,0.00781706627458334,-0.9910807013511658,0.13303242623806,-0.0716446042060852,0.3429790139198303,-0.29091525077819824
1.4466095012989917,3.075222471078205,2.9820007099308383,-0.9647058844566345,-0.44763273000717163,0.02615596354007721,0.008215054869651794,-0.9922987222671509,0.1235944926738739,-0.08099949359893799,0.33052515983581543,-0.3148481845855713
1.4566990308006627,3.066141486752592,2.9873486738060064,-1.0574676990509033,-0.3062467575073242,-0.013255237601697445,0.008581889793276787,-0.9934979677200317,0.11352505534887314,-0.09418371319770813,0.2919752597808838,-0.2930295467376709
1.467924054031445,3.0499497218296723,3.0011264632158325,-1.1974495649337769,-0.20047426223754883,-0.09818637371063232,0.00939777959138155,-0.994713306427002,0.1022605448961258,-0.11126548051834106,0.25698137283325195,-0.2535972595214844
1.480552048313303,3.018173051416215,3.0312819848625523,-1.3731708526611328,-0.15461121499538422,-0.20904026925563812,0.011094640009105206,-0.9959307312965393,0.08943676948547363,-0.12542876601219177,0.22968018054962158,-0.23776745796203613
1.4948105640029896,2.957024492877301,3.091105124270192,-1.58990478515625,-0.1548365205526352,-0.33491697907447815,0.01393209584057331,-0.9971144795417786,0.07462573796510696,-0.12995997071266174,0.19283878803253174,-0.22840380668640137
1.5106321802109937,2.8399477650672016,-3.0766095918125727,-1.8435907363891602,-0.22644856572151184,-0.41949930787086487,0.01786312833428383,-0.998190701007843,0.05741196498274803,-0.10534179210662842,0.1555393934249878,-0.2113884687423706
1.5270013467414623,2.6083278868526127,-2.8475360476893368,-2.0706939697265625,-0.33682939410209656,-0.41873443126678467,0.022255277261137962,-0.9990411400794983,0.03770093619823456,-0.0597919225692749,0.13148748874664307,-0.20864522457122803
1.5400471993402036,2.1255237402666283,-2.3680096788376295,-2.1793317794799805,-0.3612510859966278,-0.32298216223716736,0.02613394893705845,-0.9995272755622864,0.016193341463804245,-0.0015978813171386719,0.09121739864349365,-0.2600593566894531
1.5416687696982507,1.37768605151746,-1.6234042790414542,-2.1291685104370117,-0.34647345542907715,-0.15656469762325287,0.028578903526067734,-0.9995757937431335,-0.005588521249592304,0.04614338278770447,0.022876083850860596,-0.3433953523635864
1.5312668754249181,0.8350441516720762,-1.084132707236498,-2.026737689971924,-0.39226242899894714,-0.002439900767058134,0.029293766245245934,-0.9992188215255737,-0.026520531624555588,0.07152103632688522,-0.05209630727767944,-0.3965752124786377
1.5161517344171977,0.5498527467246705,-0.8029510811416676,-1.9511587619781494,-0.47069305181503296,0.11492214351892471,0.02854112908244133,-0.9985073804855347,-0.046567153185606,0.05268135666847229,-0.10839569568634033,-0.40295684337615967
1.4996274610338605,0.38344135075453983,-0.6415105820287932,-1.8937510251998901,-0.5871995091438293,0.21220867335796356,0.026602888479828835,-0.9974685907363892,-0.06594526767730713,0.007500499486923218,-0.15615689754486084,-0.3878359794616699
1.4825818905470922,0.26974927208407656,-0.5338531554657641,-1.8692086935043335,-0.6686685681343079,0.3205130398273468,0.023477381095290184,-0.9961116313934326,-0.08491276949644089,-0.010629508644342422,-0.20123016834259033,-0.3600946068763733
1.4651690911961386,0.18191794190539684,-0.45228013251809146,-1.8689945936203003,-0.6465192437171936,0.4321366250514984,0.019074004143476486,-0.9944266080856323,-0.10369030386209488,-0.00029045529663562775,-0.24534988403320312,-0.3260735273361206
1.4472218629736975,0.11221642312888253,-0.3882617271378744,-1.8880714178085327,-0.5653295516967773,0.47758719325065613,0.013802720233798027,-0.9923743605613708,-0.12248416244983673,0.015097408555448055,-0.2795524001121521,-0.27900516986846924
1.4285672751300427,0.05887657401606877,-0.3397301968708832,-1.927472472190857,-0.47690561413764954,0.48255670070648193,0.008340945467352867,-0.9899024963378906,-0.14150458574295044,0.014409869909286499,-0.3102684020996094,-0.24036192893981934
1.4092457383848092,0.01703229566324372,-0.3017950448527013,-1.9597129821777344,-0.39780759811401367,0.521028995513916,0.002739495597779751,-0.986979067325592,-0.1608256846666336,0.026969343423843384,-0.35425323247909546,-0.23190510272979736
1.3895917041912904,-0.0186133873198578,-0.26946647374564725,-1.952918291091919,-0.363166481256485,0.5842486023902893,-0.0033542087767273188,-0.9836273193359375,-0.1801832914352417,0.05700409412384033,-0.4204100966453552,-0.23914353549480438
1.36994564828068,-0.05097923286404458,-0.2401106674481686,-1.9182190895080566,-0.33118298649787903,0.6618449091911316,-0.010166104882955551,-0.9798972010612488,-0.19924379885196686,0.07283392548561096,-0.48650288581848145,-0.23695926368236542
1.3506186431804457,-0.08065609153561523,-0.21273536998628054,-1.8488011360168457,-0.23942992091178894,0.7288652062416077,-0.017596419900655746,-0.9758586287498474,-0.21769274771213531,0.05615535378456116,-0.5404223799705505,-0.24240551888942719
1.331921787530843,-0.10728814609099932,-0.1873747352665365,-1.7533297538757324,-0.1486014872789383,0.7621060013771057,-0.025336667895317078,-0.9716048836708069,-0.23524852097034454,0.011405350640416145,-0.6041701436042786,-0.24673090875148773
1.3139978953250588,-0.13081356372425734,-0.16417473684676473,-1.6601496934890747,-0.05228683724999428,0.7880060076713562,-0.03313002362847328,-0.9672080874443054,-0.2518151104450226,-0.037228282541036606,-0.6567695140838623,-0.24267646670341492
1.2968325774711857,-0.1517750085303039,-0.14248079411987796,-1.5699164867401123,0.04817638546228409,0.8131986856460571,-0.040905218571424484,-0.9627060890197754,-0.2674395740032196,-0.05266168713569641,-0.6802687644958496,-0.21016061305999756
1.2803457807513086,-0.16987518906005483,-0.12261935879062513,-1.499918818473816,0.14271044731140137,0.7976373434066772,-0.04841583967208862,-0.9581149220466614,-0.282261461019516,-0.059875812381505966,-0.6786342263221741,-0.15031000971794128
1.2643898380532503,-0.1846095194465889,-0.10516036935261994,-1.453498363494873,0.24861770868301392,0.7685084939002991,-0.05536883696913719,-0.9534236788749695,-0.2965090870857239,-0.0631156861782074,-0.6848971843719482,-0.0983121395111084
1.2487770064463612,-0.1958298606591289,-0.0902630805196305,-1.431557297706604,0.3358159363269806,0.7217466831207275,-0.06158142164349556,-0.9485982656478882,-0.3104337751865387,-0.03222966194152832,-0.7150827646255493,-0.07395040988922119
1.2333985487429522,-0.20378637534146618,-0.07795377204748279,-1.4104912281036377,0.39787185192108154,0.6670352220535278,-0.06699400395154953,-0.9436192512512207,-0.32418277859687805,-8.364766836166382e-05,-0.751738965511322,-0.05037471652030945
1.2184551017744112,-0.2091835608129497,-0.06768416997698759,-1.3554493188858032,0.4465971291065216,0.6266732215881348,-0.07166308909654617,-0.9385673403739929,-0.3375731408596039,0.00011458992958068848,-0.7714087963104248,-0.036312997341156006
1.2043545457089355,-0.2135934582257133,-0.05803779176764029,-1.2475135326385498,0.47118261456489563,0.6276343464851379,-0.07594899833202362,-0.9336081743240356,-0.3501534163951874,-0.022332899272441864,-0.8002632260322571,-0.04710915684700012
1.1913991470216847,-0.21812500019263603,-0.04794236389677033,-1.1147640943527222,0.4966302216053009,0.6423220038414001,-0.08014585077762604,-0.9288880825042725,-0.36158499121665955,-0.041909247636795044,-0.8406126499176025,-0.05621600151062012
1.179810212427243,-0.22269121175417209,-0.03749834028421068,-0.9649556279182434,0.5188758373260498,0.6221163272857666,-0.0841679647564888,-0.9245337247848511,-0.3716896176338196,-0.057845622301101685,-0.8692284822463989,-0.041869401931762695
1.169780101774113,-0.22637950066316448,-0.027857815349935,-0.8178976774215698,0.5161727070808411,0.5363045930862427,-0.08761536329984665,-0.9206647872924805,-0.3803945779800415,-0.07206785678863525,-0.8867692947387695,-0.01758521795272827
1.1613525852057363,-0.22773211257729578,-0.020711184790625364,-0.6897698044776917,0.5273337364196777,0.3861318528652191,-0.08987834304571152,-0.9173424243927002,-0.3878205120563507,-0.09348654747009277,-0.9048163890838623,0.0014069080352783203
1.1545560238017214,-0.2259327506824281,-0.01682332738753278,-0.5589467287063599,0.5410637855529785,0.22558164596557617,-0.09057500958442688,-0.9146155118942261,-0.3940490782260895,-0.10498166084289551,-0.9196892380714417,0.01238095760345459
1.149322227977094,-0.221347253600431,-0.01580705104692302,-0.42575374245643616,0.5496170520782471,0.10021387785673141,-0.0898168757557869,-0.9124868512153625,-0.39912495017051697,-0.0840265154838562,-0.9173928499221802,0.01657181978225708
1.1457103095174532,-0.21553969189284639,-0.01621592518738977,-0.27986836433410645,0.5331341624259949,0.03501318395137787,-0.08820174634456635,-0.9110032916069031,-0.4028567671775818,-0.05295732617378235,-0.9013441205024719,0.01807582378387451
1.143642496233024,-0.21014628307961455,-0.01645365048096914,-0.12445268034934998,0.4966011643409729,0.04132594168186188,-0.08642049878835678,-0.910148561000824,-0.40516817569732666,-0.029088564217090607,-0.8945695161819458,0.005357265472412109
1.1431129681397765,-0.20649861566644112,-0.015288803632649704,0.03980929031968117,0.4426805078983307,0.07712197303771973,-0.08504081517457962,-0.9099290370941162,-0.4059523642063141,-0.0022852495312690735,-0.8920271992683411,-0.007454097270965576
1.1440465493026717,-0.20462482072183114,-0.012739375132658371,0.1833275705575943,0.39212626218795776,0.08714451640844345,-0.08410733193159103,-0.9103158712387085,-0.4052790105342865,0.002289682626724243,-0.871315598487854,-0.009271860122680664
1.1462808394038608,-0.20388016567741246,-0.009532800134538074,0.3029648959636688,0.33917373418807983,0.0752081573009491,-0.08339350670576096,-0.9112383723258972,-0.40334880352020264,-0.014094918966293335,-0.8313915729522705,-0.004137217998504639
1.1497175760211842,-0.20343483710726804,-0.006515676649854138,0.4173727035522461,0.29795041680336,0.025000110268592834,-0.08258067071437836,-0.9126485586166382,-0.40031635761260986,-0.021148592233657837,-0.7980295419692993,-0.004133164882659912
1.1544015800251834,-0.20243411807738995,-0.004497353503704899,0.5286843776702881,0.2654104232788086,-0.05497163534164429,-0.081319659948349,-0.9145531058311462,-0.39620691537857056,-0.02222651243209839,-0.7852149605751038,-0.02002239227294922
1.160252035722011,-0.20071548466684155,-0.0037274623793493006,0.6224303245544434,0.21603861451148987,-0.11196701228618622,-0.0795704573392868,-0.9169037342071533,-0.3910960555076599,-0.014881454408168793,-0.7606016993522644,-0.033632367849349976
1.1670623801510525,-0.1991940847761488,-0.0033221858504487796,0.7177402377128601,0.1646856963634491,-0.12007787823677063,-0.07773785293102264,-0.9196004867553711,-0.3850865364074707,0.010828055441379547,-0.7175606489181519,-0.040069133043289185
1.1748300476720634,-0.19910873994151285,-0.0019342904714053203,0.8185771107673645,0.10538028925657272,-0.07537778466939926,-0.0762898251414299,-0.9226242899894714,-0.3780798316001892,0.04021802544593811,-0.6763441562652588,-0.054690003395080566
1.1834657407985325,-0.20157136526248307,0.001552800379217472,0.9223607778549194,0.04601482301950455,-0.004108772147446871,-0.07562264055013657,-0.9259206652641296,-0.3700706660747528,0.04393007606267929,-0.6425455808639526,-0.07623377442359924
1.192925472191987,-0.2072565494716792,0.00788400485865359,1.0178388357162476,-0.004791902378201485,0.07827318459749222,-0.07591943442821503,-0.9294523000717163,-0.36104655265808105,0.029258020222187042,-0.6091828942298889,-0.08876731991767883
1.203094871092519,-0.2161003022185561,0.01716577897182876,1.103715419769287,-0.028282050043344498,0.1501615345478058,-0.07707864791154861,-0.9331560730934143,-0.3511103689670563,0.0071018412709236145,-0.5798442959785461,-0.095682293176651
1.2138144211164132,-0.2274498152401631,0.029012468476062307,1.1604365110397339,-0.027112122625112534,0.1903901845216751,-0.07879838347434998,-0.9369557499885559,-0.3404479920864105,-0.0019053816795349121,-0.5494791269302368,-0.10005807876586914
1.2248851720184613,-0.24073675681076617,0.04280899610766083,1.205385684967041,-0.04225552827119827,0.2133372724056244,-0.08083665370941162,-0.9407669305801392,-0.32927659153938293,0.0008195638656616211,-0.5158370733261108,-0.09529924392700195
1.2363674351591547,-0.25599779971182096,0.058385420081459666,1.267122507095337,-0.07710378617048264,0.2261476069688797,-0.08311128616333008,-0.9445978999137878,-0.3175329566001892,0.009609706699848175,-0.4911319613456726,-0.11393985152244568
1.2484024068730826,-0.27352735099994213,0.07585390710119196,1.3406972885131836,-0.12585388123989105,0.23088091611862183,-0.08558725565671921,-0.9484796524047852,-0.3050593137741089,0.013519980013370514,-0.47681325674057007,-0.14840146899223328
1.261083936969576,-0.2935952524459411,0.0953759220230175,1.4222017526626587,-0.1801147162914276,0.22470158338546753,-0.08820326626300812,-0.952421247959137,-0.2917426824569702,0.0050734058022499084,-0.455705463886261,-0.16888967156410217
1.2743051218174972,-0.3164619475597554,0.11719321779992817,1.4767783880233765,-0.22888492047786713,0.22364023327827454,-0.09092401713132858,-0.956367552280426,-0.27765822410583496,-0.0014374256134033203,-0.4308242201805115,-0.17482596635818481
1.2876158761608718,-0.34239465158395477,0.14157665853224083,1.4762042760849,-0.2769317924976349,0.23531366884708405,-0.09381047636270523,-0.960171639919281,-0.2631921172142029,-0.012039780616760254,-0.393221914768219,-0.1611396074295044
1.3004803247561867,-0.37143311143613533,0.16879747120985886,1.4432919025421143,-0.2858310043811798,0.2602172791957855,-0.09692119061946869,-0.9636865854263306,-0.24882672727108002,-0.0159328430891037,-0.355771541595459,-0.14047083258628845
1.3127357167498594,-0.40354378363327015,0.199146171405184,1.4174816608428955,-0.27394264936447144,0.27481138706207275,-0.10021421313285828,-0.9668867588043213,-0.23470647633075714,0.000452190637588501,-0.3400132656097412,-0.13567018508911133
1.324615125275377,-0.438521534686925,0.23244230762452747,1.4226148128509521,-0.2726534307003021,0.2643216848373413,-0.10347610712051392,-0.9698501229286194,-0.2206428200006485,-0.0005278512835502625,-0.33512717485427856,-0.16075067222118378
1.3364441472749133,-0.47615062061229474,0.2683332937199831,1.4442492723464966,-0.2810637056827545,0.22012227773666382,-0.1064373105764389,-0.9726649522781372,-0.20638267695903778,-0.022499464452266693,-0.32251620292663574,-0.1939927190542221
1.3483219204942452,-0.5161646796298073,0.3064366891171884,1.4557386636734009,-0.2981259524822235,0.16265778243541718,-0.10889843106269836,-0.9753544926643372,-0.1918981671333313,-0.04008841514587402,-0.30684155225753784,-0.20621895790100098
1.3601833639413246,-0.5583428439096266,0.34643081015131183,1.4508002996444702,-0.3214528560638428,0.09780288487672806,-0.11075595021247864,-0.9779029488563538,-0.17731067538261414,-0.06784823536872864,-0.30095142126083374,-0.20339620113372803
1.372023175379981,-0.602572841674171,0.38831747402342426,1.459708333015442,-0.3116399943828583,0.025761589407920837,-0.1119171679019928,-0.9803096055984497,-0.16268908977508545,-0.0999053418636322,-0.2914646863937378,-0.19992077350616455
1.3841103503871592,-0.6494153976197706,0.4331424130334322,1.4960235357284546,-0.25137585401535034,-0.052057839930057526,-0.11223834753036499,-0.9826247096061707,-0.14782162010669708,-0.1302238404750824,-0.27338719367980957,-0.2229975312948227
1.3965885211863565,-0.6996314682851966,0.48208948022654674,1.5408828258514404,-0.15646448731422424,-0.13134828209877014,-0.11161179095506668,-0.9848641753196716,-0.13260935246944427,-0.13555008172988892,-0.2477712631225586,-0.2711840867996216
1.4094273797731265,-0.7548935710942043,0.5369553370311106,1.583210825920105,-0.0727408304810524,-0.2046472579240799,-0.11009256541728973,-0.987008273601532,-0.11702278256416321,-0.11959803104400635,-0.21864968538284302,-0.3108642101287842
1.422423859828453,-0.816845250874946,0.5992904890149439,1.5996782779693604,-0.0041655246168375015,-0.27272096276283264,-0.10776544362306595,-0.9890129566192627,-0.1011921688914299,-0.10454537719488144,-0.18177855014801025,-0.3281291723251343
1.4353089224866367,-0.886336571200472,0.6696843982186346,1.5766218900680542,0.044002268463373184,-0.3543492555618286,-0.10464989393949509,-0.9908356070518494,-0.0854010358452797,-0.09894813597202301,-0.1262603998184204,-0.3187585473060608
1.4479168248687475,-0.962319105529553,0.7469691970645098,1.5193383693695068,0.08947069197893143,-0.45509904623031616,-0.10057246685028076,-0.9924598336219788,-0.07006427645683289,-0.09782232344150543,-0.07521301507949829,-0.2949565052986145
1.4602745649842663,-1.0461362464503439,0.8325916925045718,1.482097864151001,0.15857438743114471,-0.5541326403617859,-0.09546202421188354,-0.9938986897468567,-0.05525019392371178,-0.09124453365802765,-0.03642064332962036,-0.2810382843017578
1.4723816692883014,-1.1438806689599783,0.9329317987398977,1.4822336435317993,0.24924342334270477,-0.6313357353210449,-0.0894370898604393,-0.9951611757278442,-0.04068432375788689,-0.0866645872592926,-0.007997393608093262,-0.2896837592124939
1.4839616055958238,-1.2653150687854318,1.057897731428941,1.4928394556045532,0.35255300998687744,-0.6893784999847412,-0.08271055668592453,-0.9962322115898132,-0.0260829608887434,-0.08481571078300476,0.015000581741333008,-0.2941991090774536
1.4942517218071107,-1.42042998836066,1.2176641826995829,1.497276782989502,0.46253085136413574,-0.7132361531257629,-0.0756063163280487,-0.9970718622207642,-0.011455109342932701,-0.07823281735181808,0.03189253807067871,-0.27130556106567383
1.502119906949571,-1.616756334593232,1.4193222282109959,1.487845778465271,0.4840199053287506,-0.6874538064002991,-0.06854792684316635,-0.9976426959037781,0.00315268337726593,-0.06690435111522675,0.0561755895614624,-0.265924334526062
1.5062824874928893,-1.8472332036491907,1.6550243363189057,1.4592708349227905,0.4548666477203369,-0.6237446069717407,-0.06202055513858795,-0.9979196786880493,0.017595263198018074,-0.045325033366680145,0.07454943656921387,-0.2836170196533203
1.5060965319725204,-2.084072091418268,1.896796572679056,1.4216523170471191,0.43469905853271484,-0.5356994867324829,-0.05632498487830162,-0.9979076981544495,0.03174855560064316,-0.030650116503238678,0.09762382507324219,-0.2915447950363159
1.5019562665694395,-2.2954363968755285,2.1130670421000723,1.3930290937423706,0.4531039595603943,-0.4662066400051117,-0.0515027679502964,-0.9976314306259155,0.045595962554216385,-0.021907299757003784,0.15160787105560303,-0.27527129650115967
1.4949954072193103,-2.4658877972207263,2.2886970238811606,1.3503865003585815,0.48700281977653503,-0.41250213980674744,-0.04736492782831192,-0.9971284866333008,0.059089306741952896,-0.023100174963474274,0.22068488597869873,-0.2450786828994751
1.48635928889334,-2.594502166366533,2.4226541599904605,1.2755683660507202,0.48517197370529175,-0.3457971513271332,-0.04387284070253372,-0.9964373111724854,0.07202787697315216,-0.025020629167556763,0.27536797523498535,-0.20538973808288574
1.477158772334353,-2.684920772246805,2.5180477121465117,1.1380730867385864,0.42295682430267334,-0.25268664956092834,-0.041230201721191406,-0.9956191778182983,0.08391882479190826,-0.0024251900613307953,0.3037858009338379,-0.17118382453918457
1.4683701344061928,-2.7441370324699235,2.5814068448124026,0.9664468169212341,0.3411831855773926,-0.14728856086730957,-0.03957683593034744,-0.9947590231895447,0.0942760705947876,0.020289752632379532,0.31743669509887695,-0.13681769371032715
1.4604798546607891,-2.7821472726634124,2.6227425658545833,0.8264047503471375,0.28073450922966003,-0.0952349379658699,-0.038725946098566055,-0.9939212799072266,0.10305763781070709,0.01614290475845337,0.32608985900878906,-0.1074521541595459
1.453399687091549,-2.8125233588112377,2.656020902531661,0.7683401107788086,0.26294073462486267,-0.1452474445104599,-0.03785102069377899,-0.9931169152259827,0.11084231734275818,-0.02306210622191429,0.33318960666656494,-0.10614264756441116
1.4466710477634552,-2.844862594657474,2.6912832963118043,0.7734482884407043,0.2693861126899719,-0.2492196410894394,-0.036200374364852905,-0.9923063516616821,0.11839589476585388,-0.059350159019231796,0.3416106104850769,-0.11609185487031937
1.4399549098837177,-2.8813305529281843,2.7308287432696514,0.785790741443634,0.28561925888061523,-0.3409360349178314,-0.03357362747192383,-0.9914524555206299,0.12607342004776,-0.07029294222593307,0.3610357642173767,-0.12010732293128967
1.43318724017108,-2.9187156737687627,2.771592732879332,0.7843268513679504,0.31971386075019836,-0.3870108425617218,-0.030320804566144943,-0.9905468225479126,0.13378268480300903,-0.06251367926597595,0.3751293420791626,-0.11419045925140381
1.426297621194415,-2.9539437216111772,2.8104868825853013,0.7813124656677246,0.3307284116744995,-0.39329880475997925,-0.02686242014169693,-0.9895781874656677,0.141468346118927,-0.05585548281669617,0.3814849853515625,-0.10490846633911133
1.4193324373461318,-2.9846948861491946,2.844970742952694,0.7560542225837708,0.34232887625694275,-0.3643374443054199,-0.02357664704322815,-0.9885512590408325,0.14903251826763153,-0.04484376311302185,0.4047194719314575,-0.0907135009765625
1.412597303833166,-3.0101352293927524,2.874151731796529,0.6962569355964661,0.3267159163951874,-0.33367472887039185,-0.020650241523981094,-0.9875125885009766,0.1561809927225113,-0.027552276849746704,0.43358802795410156,-0.07274603843688965
1.4064432112672147,-3.0318341167798484,2.899272184511934,0.6162166595458984,0.29109615087509155,-0.3228790760040283,-0.01792200095951557,-0.9865244030952454,0.16262950003147125,-0.014914900064468384,0.44311314821243286,-0.06108236312866211
1.4009239204890975,-3.052301761045856,2.9230197085095697,0.557560384273529,0.30124425888061523,-0.3565438389778137,-0.015075188130140305,-0.9856063723564148,0.1683833748102188,-0.003815203905105591,0.4367629289627075,-0.07046771049499512
1.395764878277624,-3.0740523986508377,2.948267868035033,0.5403779149055481,0.3233144283294678,-0.42775651812553406,-0.011752505786716938,-0.9847210645675659,0.17374275624752045,0.003695843741297722,0.42142748832702637,-0.08925484120845795
1.3905443021284245,-3.0981535259036272,2.9761921867401977,0.5574537515640259,0.3533531427383423,-0.49235495924949646,-0.007785243913531303,-0.9837985634803772,0.17910917103290558,0.009982495568692684,0.41827714443206787,-0.10859833657741547
1.3849221416557154,-3.1229870954259424,3.005294739209834,0.6002198457717896,0.4026951193809509,-0.525138795375824,-0.003438212675973773,-0.982775092124939,0.18477360904216766,0.012669771909713745,0.42412030696868896,-0.11084485054016113
1.3787721241442596,3.135951946284885,3.034368748213448,0.6286693215370178,0.4541108012199402,-0.5562742352485657,0.0010765042388811707,-0.9816199541091919,0.1908435821533203,0.00980299711227417,0.4310370683670044,-0.09532356262207031
1.3723900160609073,3.1117466676162633,3.0638257571057483,0.6194023489952087,0.47975999116897583,-0.60295170545578,0.005881979130208492,-0.980381965637207,0.19701920449733734,-0.0023419559001922607,0.45386219024658203,-0.07903838157653809
1.3660640162018975,3.0873502986945836,3.093785378452918,0.5942805409431458,0.5116936564445496,-0.639001190662384,0.01102231815457344,-0.9791154265403748,0.20300568640232086,-0.016088247299194336,0.46466541290283203,-0.07068157196044922
1.3597952162178526,3.0639447520767944,3.1229759863508457,0.5748341083526611,0.5083228945732117,-0.6363987326622009,0.0162461269646883,-0.9778217077255249,0.20880748331546783,-0.007319750264286995,0.45848894119262695,-0.06134667992591858
1.3536466964482663,3.042370188836642,-3.133184842767241,0.5432122945785522,0.4560912549495697,-0.6072782278060913,0.02134213037788868,-0.976515531539917,0.21438740193843842,0.01091495156288147,0.4495837688446045,-0.05990743637084961
1.3478005943555358,3.022929004926564,-3.108974648282388,0.49605491757392883,0.3783399760723114,-0.5649070739746094,0.026181193068623543,-0.9752393364906311,0.21959708631038666,0.03389263153076172,0.44150209426879883,-0.06287407875061035
1.3425075834377278,3.0053754727823976,-3.0875626095433986,0.42825403809547424,0.2869085967540741,-0.5197688937187195,0.030732164159417152,-0.9740551114082336,0.2242143750190735,0.05529686436057091,0.4420269727706909,-0.05090513825416565
1.3378568230421044,2.988868235152929,-3.0679679726457674,0.3640894293785095,0.22862853109836578,-0.49891313910484314,0.035117801278829575,-0.9729920625686646,0.22815170884132385,0.05768612027168274,0.4489441514015198,-0.033312320709228516
1.3336104695827398,2.9724563881345043,-3.0489473434558576,0.33344897627830505,0.18822848796844482,-0.5106921792030334,0.03955242410302162,-0.9720030426979065,0.23161529004573822,0.04371476173400879,0.45279228687286377,-0.022615671157836914
1.329426897336222,2.9552694956825434,-3.0295347700018773,0.3289003074169159,0.15033410489559174,-0.5415304899215698,0.04427996277809143,-0.9710115194320679,0.23489490151405334,0.012269102036952972,0.4616122841835022,-0.02342347800731659
1.32514622821057,2.937251603337267,-3.0094854787072327,0.31965571641921997,0.14358718693256378,-0.5649827718734741,0.049348026514053345,-0.9699794054031372,0.2381276786327362,-0.016648441553115845,0.4778071641921997,-0.023375511169433594
1.3209414288762844,2.9191990811366195,-2.9891967187052035,0.2880304157733917,0.18252259492874146,-0.5816738605499268,0.05453774705529213,-0.9689483046531677,0.24117441475391388,-0.037768326699733734,0.4855192303657532,-0.005273550748825073
1.317034975436701,2.9013571062900807,-2.9686109923156634,0.23538868129253387,0.23584674298763275,-0.5941552519798279,0.05973190441727638,-0.9679750204086304,0.2438371628522873,-0.05530688166618347,0.48491227626800537,0.010160565376281738
1.3135425230153397,2.883657417830378,-2.9476008615529965,0.1784963756799698,0.2939806282520294,-0.6021530032157898,0.06489996612071991,-0.9670923352241516,0.2460085153579712,-0.0549207404255867,0.48843950033187866,0.00745508074760437
1.3104637760097901,2.8664815226233085,-2.9263694506363978,0.12923449277877808,0.3740442395210266,-0.6025316715240479,0.06992428004741669,-0.9663044214248657,0.24772249162197113,-0.042290620505809784,0.48961973190307617,0.0034523308277130127
1.307631640156969,2.85017209594619,-2.9053057318631965,0.11940396577119827,0.4276488423347473,-0.595048725605011,0.074740931391716,-0.9655715823173523,0.2491692453622818,-0.0359836220741272,0.4918472170829773,-0.014580726623535156
1.3046633333875246,2.8354107300210236,-2.885397967580192,0.139175683259964,0.4550441801548004,-0.5698925852775574,0.0792744979262352,-0.9647951126098633,0.2507712244987488,-0.0245259627699852,0.49793708324432373,-0.04712745547294617
1.3015520653235149,2.822282247939346,-2.8671623049438564,0.1529437005519867,0.42904132604599,-0.5349627733230591,0.08350148797035217,-0.9639722108840942,0.25255703926086426,-0.008260399103164673,0.5078412294387817,-0.05608499050140381
1.298604452355045,2.8104601174114583,-2.8507975028871897,0.12134511768817902,0.3559606671333313,-0.4734034240245819,0.0874047577381134,-0.9631839394569397,0.2542382478713989,0.007504902780056,0.5234866738319397,-0.034389764070510864
1.2963490266255993,2.800039830546178,-2.836851724435235,0.049791574478149414,0.24035683274269104,-0.3774625062942505,0.09077662974596024,-0.9625751376152039,0.255359947681427,0.03506261110305786,0.5382128953933716,-0.012974262237548828
1.2953004480955561,2.791016808062189,-2.825785777755788,-0.05805586278438568,0.08689621090888977,-0.2503722906112671,0.09342359006404877,-0.9622904062271118,0.25547823309898376,0.07045578956604004,0.5379587411880493,0.0005030632019042969
1.2958315517418058,2.78310518137013,-2.8174372917949078,-0.1896468997001648,-0.056727007031440735,-0.1271664798259735,0.09526249766349792,-0.9624347686767578,0.2542523145675659,0.08840750902891159,0.5226765275001526,0.0051622092723846436
1.2979423384083457,2.7756981817138233,-2.8109266692315944,-0.32373708486557007,-0.1649441421031952,-0.05344581604003906,0.09641607850790024,-0.9630057215690613,0.2516421973705292,0.06296196579933167,0.507591962814331,0.014654159545898438
1.3013133491315676,2.7674295630796646,-2.8044157483792205,-0.425584077835083,-0.22944669425487518,-0.02995913103222847,0.0973062738776207,-0.9639086723327637,0.24781286716461182,0.021407052874565125,0.5096699595451355,0.02391548454761505
1.3055274236864824,2.757591261739,-2.796792602217419,-0.5016334652900696,-0.2554554343223572,-0.035553500056266785,0.09821712970733643,-0.9650220274925232,0.2430756688117981,-0.01812378317117691,0.5266828536987305,0.026394471526145935
1.310363883484547,2.7463529897029604,-2.787565868500417,-0.5699220299720764,-0.20095649361610413,-0.03999911621212959,0.09914444386959076,-0.9662787318229675,0.23764637112617493,-0.04044393450021744,0.541763961315155,0.04255078732967377
1.3157508010605814,2.7344293122645253,-2.7769534354129877,-0.628282368183136,-0.13883619010448456,-0.03427206724882126,0.09990812838077545,-0.9676517844200134,0.23166412115097046,-0.038308389484882355,0.5521397590637207,0.06203697621822357
1.3216497279865895,2.7220830321956413,-2.765648510133038,-0.6758866906166077,-0.14712634682655334,-0.0048665073700249195,0.1004338264465332,-0.9691231846809387,0.2251957803964615,-0.02613881230354309,0.564689040184021,0.062035560607910156
1.328109029387331,2.709389238377659,-2.75449828211202,-0.7187061905860901,-0.23668621480464935,0.046696845442056656,0.10066015273332596,-0.9706956744194031,0.21821419894695282,-0.007520556449890137,0.5656816363334656,0.03856062889099121
1.3351823030510224,2.69617294980444,-2.7441548033770866,-0.7649498581886292,-0.4040059745311737,0.11021563410758972,0.10057471692562103,-0.9723711609840393,0.21066366136074066,0.008037328720092773,0.5500078797340393,-0.0004891157150268555
1.3429132424808101,2.6817128917497723,-2.734406292832691,-0.8139448165893555,-0.5841572880744934,0.16045531630516052,0.10027088224887848,-0.974146842956543,0.2024451494216919,0.009516134858131409,0.5268200635910034,-0.03737553954124451
1.3511567569509793,2.6653264146332862,-2.7242245368995506,-0.8516027927398682,-0.6933913826942444,0.17545343935489655,0.09988894313573837,-0.9759760499000549,0.1936303973197937,-0.0017749518156051636,0.4981624484062195,-0.059261590242385864
1.3595668104834895,2.6466069435781074,-2.7122730485656663,-0.8636642098426819,-0.6940465569496155,0.15027140080928802,0.09959326684474945,-0.9777738451957703,0.18449708819389343,-0.015166416764259338,0.4779266119003296,-0.07786871492862701
1.3676826185772148,2.625175271696966,-2.6970100238626222,-0.8514477610588074,-0.5890695452690125,0.08234960585832596,0.0996028408408165,-0.9794432520866394,0.17541442811489105,-0.05117148905992508,0.4752776026725769,-0.08526553213596344
1.3750850308931197,2.6009711509007425,-2.6775462515820276,-0.8081960082054138,-0.4301129877567291,0.0013290164060890675,0.10008496046066284,-0.9809095859527588,0.16673192381858826,-0.09242504835128784,0.4859907627105713,-0.08593666553497314
1.38159651757259,2.576275930394556,-2.6557948094073622,-0.7253352403640747,-0.23869749903678894,-0.016802316531538963,0.10074744373559952,-0.9821550250053406,0.15881220996379852,-0.11182534694671631,0.49874138832092285,-0.10536074638366699
1.3873012680647077,2.5550992066273253,-2.6360313159503783,-0.628750741481781,-0.13463565707206726,0.03276224061846733,0.10098511725664139,-0.9832119941711426,0.15197411179542542,-0.09221138060092926,0.5073819756507874,-0.14542819559574127
1.392766477771064,2.5389346522505902,-2.6212519716305955,-0.5791839957237244,-0.20167939364910126,0.14538758993148804,0.10038077086210251,-0.9841945171356201,0.14589253067970276,-0.06739132106304169,0.49315154552459717,-0.14732696115970612
1.398830126064084,2.5272377873980356,-2.61207175716717,-0.6017307043075562,-0.32559850811958313,0.2825549840927124,0.0986386314034462,-0.9852502346038818,0.13982947170734406,-0.029134854674339294,0.4598444104194641,-0.13368023931980133
1.406014229833175,2.5180453554273465,-2.6065770610211834,-0.6759974956512451,-0.42482122778892517,0.3944453001022339,0.0957840234041214,-0.9864541292190552,0.13316692411899567,-0.004399165511131287,0.4312174320220947,-0.14503838121891022
1.414478473904709,2.507984410884363,-2.6009551338493133,-0.8048359751701355,-0.466919481754303,0.44317367672920227,0.09217219054698944,-0.9878072142601013,0.1254630982875824,-0.025765933096408844,0.41146761178970337,-0.15457703173160553
1.4243204975491945,2.4909159503929836,-2.588356920677881,-1.005316138267517,-0.44734257459640503,0.41992029547691345,0.08840654790401459,-0.9892916083335876,0.11612992733716965,-0.07355977594852448,0.4017367959022522,-0.12322535365819931
1.4356464460011114,2.4575835258234346,-2.5588421007545303,-1.2794069051742554,-0.3537343144416809,0.32490259408950806,0.08514166623353958,-0.9908811450004578,0.10442809015512466,-0.10761792212724686,0.3997862935066223,-0.048123255372047424
1.4481201594624247,2.399173067446723,-2.502682163178322,-1.5328437089920044,-0.18673281371593475,0.21787334978580475,0.08273062855005264,-0.9924846887588501,0.09016606211662292,-0.12035882472991943,0.3994365930557251,0.014402389526367188
1.4610015095396138,2.310788206366154,-2.414715713952553,-1.702630877494812,-0.014952190220355988,0.16992370784282684,0.08091805875301361,-0.9939786195755005,0.07388422638177872,-0.1078040599822998,0.386572003364563,0.012938261032104492
1.473183179629627,2.1919186292681165,-2.294606276433472,-1.7325589656829834,0.12636658549308777,0.1576891392469406,0.07925617694854736,-0.9952396154403687,0.05671608820557594,-0.09492698311805725,0.34919774532318115,-0.055541276931762695
1.4834745323073375,2.046844975409783,-2.147467469384544,-1.629233956336975,0.14550314843654633,0.18458664417266846,0.07751332223415375,-0.9961898922920227,0.03996577858924866,-0.10948050767183304,0.2877243757247925,-0.17319035530090332
1.491631977024512,1.8861591159216002,-1.985088964778633,-1.4769514799118042,0.07677069306373596,0.2809230387210846,0.07518293708562851,-0.9968681335449219,0.024528494104743004,-0.10328962653875351,0.21635043621063232,-0.27399444580078125
1.4982382562310061,1.7149952082964115,-1.812953819915989,-1.355660319328308,0.03186734765768051,0.4075230062007904,0.07174289226531982,-0.9973688125610352,0.010417550802230835,-0.06293860077857971,0.14844608306884766,-0.3080250024795532
1.5036008343739915,1.5310531552101356,-1.6278193254312983,-1.2730671167373657,0.13616979122161865,0.5127836465835571,0.067093126475811,-0.9977432489395142,-0.0026678983122110367,-0.0376284122467041,0.11103975772857666,-0.2893090844154358
1.507132649563825,1.3330785304375636,-1.4271398114316276,-1.2257648706436157,0.3206072151660919,0.525574803352356,0.0618307925760746,-0.997974157333374,-0.01498155016452074,-0.0458548404276371,0.1069982647895813,-0.2562892436981201
1.507577288128724,1.1281930053401963,-1.2176957013557264,-1.2412625551223755,0.4993399381637573,0.43325769901275635,0.05708754062652588,-0.9980023503303528,-0.027057481929659843,-0.09186232835054398,0.09878677129745483,-0.21871590614318848
1.5043069579524595,0.9358196873351552,-1.019302225303655,-1.2846059799194336,0.6037476658821106,0.3237701952457428,0.05349084362387657,-0.9977903962135315,-0.039410170167684555,-0.11832544207572937,0.06279277801513672,-0.18413114547729492
1.497827124424222,0.774798102410902,-0.851629758118135,-1.3131769895553589,0.6380688548088074,0.23682545125484467,0.05100090801715851,-0.9973389506340027,-0.052093759179115295,-0.11357719451189041,0.016885578632354736,-0.1667325496673584
1.489109102852971,0.6500093173497218,-0.7198518784527279,-1.3207544088363647,0.6793546676635742,0.16518855094909668,0.04938182979822159,-0.9966654777526855,-0.06495736539363861,-0.10568675398826599,-0.025108814239501953,-0.16838014125823975
1.47905196752564,0.5582284044540291,-0.6208145244927136,-1.2935752868652344,0.6863049864768982,0.10300880670547485,0.04852768033742905,-0.995794415473938,-0.077708400785923,-0.08580493927001953,-0.05439174175262451,-0.18309485912322998
1.4682904388400748,0.4951646218187112,-0.5503589048693197,-1.2460001707077026,0.7264538407325745,-0.012325890362262726,0.048623353242874146,-0.9947508573532104,-0.09003649652004242,-0.07122161984443665,-0.07417309284210205,-0.19856834411621094
1.4568475483262526,0.4588289588430198,-0.5062540107742841,-1.2204819917678833,0.7672300338745117,-0.1995847374200821,0.0503586046397686,-0.9935148358345032,-0.10194232314825058,-0.10829624533653259,-0.10290539264678955,-0.1791398525238037
1.4443496886345983,0.44523228513442875,-0.4846652241908083,-1.2518259286880493,0.7876695990562439,-0.42558902502059937,0.054311733692884445,-0.9920162558555603,-0.11381614208221436,-0.14255335927009583,-0.1140323281288147,-0.14303511381149292
1.4305825295987247,0.44720408077745855,-0.478844276901613,-1.2872116565704346,0.7422688007354736,-0.6121588945388794,0.06043672934174538,-0.9901861548423767,-0.12601187825202942,-0.14204072952270508,-0.12164556980133057,-0.11498552560806274
1.4159809637017446,0.4562899866586035,-0.48118704788496813,-1.2929294109344482,0.6002545356750488,-0.7119104862213135,0.0679425597190857,-0.988040030002594,-0.13842198252677917,-0.08686349540948868,-0.14848029613494873,-0.1353665441274643
1.4011453953467232,0.4657746202443736,-0.4856019478929822,-1.2957748174667358,0.4158298671245575,-0.7201479077339172,0.07582787424325943,-0.985643744468689,-0.1508527249097824,-0.001609116792678833,-0.15995562076568604,-0.14973026514053345
1.3861985670339976,0.47060145321564556,-0.4873495123708234,-1.337543249130249,0.19675448536872864,-0.6741145253181458,0.0832262709736824,-0.9830101728439331,-0.16359847784042358,0.0724438726902008,-0.1671363115310669,-0.11566793918609619
1.371115841480544,0.46925899611511923,-0.48515058890843815,-1.3760524988174438,-0.027548659592866898,-0.6169020533561707,0.089701808989048,-0.9801300168037415,-0.1769147664308548,0.09296116232872009,-0.19057005643844604,-0.09203672409057617
1.3561760392332385,0.46396955992371425,-0.48088715544847344,-1.3543866872787476,-0.18838262557983398,-0.5726065635681152,0.09530744701623917,-0.9770573377609253,-0.19046157598495483,0.06100356578826904,-0.2344142198562622,-0.12801992893218994
1.3417990955352714,0.4574100396404808,-0.4767357579457011,-1.29071044921875,-0.3110491633415222,-0.5421202778816223,0.10024973005056381,-0.9738945364952087,-0.2036655694246292,0.03845268487930298,-0.28730547428131104,-0.19414639472961426
1.3281392489270365,0.450883622572504,-0.47378607054591376,-1.2178181409835815,-0.40887388586997986,-0.5303806066513062,0.10470583289861679,-0.9707029461860657,-0.21626941859722137,0.018676690757274628,-0.31173717975616455,-0.2358943074941635
1.3150526829181506,0.44471863980866755,-0.47195153625424485,-1.177956223487854,-0.464862585067749,-0.5128517150878906,0.10882655531167984,-0.9674754738807678,-0.22835958003997803,0.01652437448501587,-0.3189014792442322,-0.23018234968185425
1.3022740432349937,0.43726435833299077,-0.4693860060615075,-1.1893118619918823,-0.5257754921913147,-0.4459875524044037,0.11234747618436813,-0.9641640186309814,-0.24034483730793,0.054003819823265076,-0.3127371072769165,-0.1957819163799286
1.2895370822042624,0.4258523252891302,-0.4633188548785594,-1.2558168172836304,-0.5854907631874084,-0.31260553002357483,0.1146615594625473,-0.9607066512107849,-0.2527753710746765,0.1108938455581665,-0.2976856231689453,-0.14920222759246826
1.2767366656575032,0.4093689542831126,-0.4525349691617321,-1.3198436498641968,-0.6298415660858154,-0.1695551872253418,0.11536508798599243,-0.9570751190185547,-0.2658909857273102,0.15030568838119507,-0.30894654989242554,-0.10308179259300232
1.2638841967779915,0.3899378067269149,-0.43875771583187523,-1.3509496450424194,-0.6158714294433594,-0.09645114839076996,0.11484372615814209,-0.9532710313796997,-0.27943721413612366,0.1507812738418579,-0.354056179523468,-0.09663090109825134
1.2510304452564995,0.37141019768169875,-0.42566219956808854,-1.3176782131195068,-0.5925018787384033,-0.12006831169128418,0.11408483237028122,-0.9493090510368347,-0.29291096329689026,0.11279807984828949,-0.41713064908981323,-0.12888774275779724
1.2385440534156198,0.35627550299652305,-0.4157171839169378,-1.2279629707336426,-0.5377365946769714,-0.17097382247447968,0.11376459151506424,-0.945310115814209,-0.30569010972976685,0.08418765664100647,-0.4857048988342285,-0.15720057487487793
1.2269156481828067,0.3450185682524182,-0.408956286934986,-1.1015053987503052,-0.43323779106140137,-0.20157738029956818,0.11402659118175507,-0.9414533972740173,-0.3172750473022461,0.07966843247413635,-0.5453019142150879,-0.17640787363052368
1.2164224809415236,0.33655946613643756,-0.4039930594962842,-0.9883288145065308,-0.3225989043712616,-0.16760477423667908,0.11459493637084961,-0.9378639459609985,-0.3275352716445923,0.08277751505374908,-0.5644249320030212,-0.1828865110874176
1.2070703011152686,0.3282511069036743,-0.39808022638379414,-0.9195878505706787,-0.23063437640666962,-0.03790757432579994,0.11469242721796036,-0.9345777630805969,-0.3367641568183899,0.09185048937797546,-0.5618364214897156,-0.15940594673156738
1.1984889382757558,0.31732638071010927,-0.3883501700794118,-0.9275954365730286,-0.13880832493305206,0.16235147416591644,0.11350483447313309,-0.9314904808998108,-0.34560373425483704,0.11841347068548203,-0.5572941899299622,-0.09931203722953796
1.1903354268750512,0.30263691146966554,-0.37362553039816226,-0.9448093771934509,-0.05698676407337189,0.3687417507171631,0.11067607253789902,-0.9284935593605042,-0.3544721305370331,0.14158222079277039,-0.5555151700973511,-0.05309021472930908
1.1825986733527,0.28511701622774316,-0.3548639281104624,-0.933967649936676,0.029860250651836395,0.5230754017829895,0.10646646469831467,-0.9255927801132202,-0.36323949694633484,0.16367512941360474,-0.561040461063385,-0.048412203788757324
1.175296943067495,0.2665057398978257,-0.333972056612292,-0.8942297697067261,0.1080695390701294,0.6009305715560913,0.10146528482437134,-0.9228042960166931,-0.37166792154312134,0.18242445588111877,-0.5964522361755371,-0.05917927622795105
1.1685451592120095,0.24858342500046293,-0.3130960692940378,-0.8116129040718079,0.1470760554075241,0.6135196089744568,0.09631895273923874,-0.9201819896697998,-0.37945717573165894,0.18056699633598328,-0.6441184878349304,-0.08213648200035095
1.1627161861786077,0.23214567007670253,-0.29350581331679076,-0.6800280809402466,0.16742652654647827,0.6061530709266663,0.09130123257637024,-0.9178844094276428,-0.38620227575302124,0.17493411898612976,-0.6926501393318176,-0.11298903822898865
1.158254536288491,0.21704364084635147,-0.27500303759732864,-0.5133419036865234,0.20610521733760834,0.637568473815918,0.08633963763713837,-0.9161046743392944,-0.391532301902771,0.18862375617027283,-0.727968692779541,-0.1316152811050415
1.155451285815055,0.20213138271650172,-0.2563070759071606,-0.3487491309642792,0.22696635127067566,0.7167535424232483,0.08100689202547073,-0.9149771332740784,-0.3952906131744385,0.19850358366966248,-0.7414864301681519,-0.1329687237739563
1.154126526704777,0.18612954786248379,-0.23640151713640722,-0.21934321522712708,0.21176530420780182,0.8034175634384155,0.07489565759897232,-0.9144418239593506,-0.39772701263427734,0.1804448962211609,-0.7584401965141296,-0.11325934529304504
1.1537211364049198,0.16901619019900196,-0.21550111667295785,-0.14912837743759155,0.1810903400182724,0.8491970300674438,0.0681409016251564,-0.9142776727676392,-0.3993156850337982,0.1501055359840393,-0.7799665927886963,-0.06177443265914917
1.153749520132159,0.15137156789799963,-0.19441687442751185,-0.11121109127998352,0.14208462834358215,0.8295775055885315,0.06108099967241287,-0.9142891764640808,-0.400430291891098,0.10549920797348022,-0.7950918674468994,-0.01195383071899414
1.1540356573340793,0.13460146744189852,-0.17466530252531764,-0.05188252404332161,0.10886844247579575,0.7513483762741089,0.05432235077023506,-0.9144050478935242,-0.40113893151283264,0.059019919484853745,-0.805687665939331,-0.004988998174667358
1.1548971989018184,0.11958645500802279,-0.1574224256887435,0.053022321313619614,0.037030208855867386,0.6507503986358643,0.04819933697581291,-0.9147534370422363,-0.4011269509792328,0.02385263890028,-0.8318132162094116,-0.032985568046569824
1.1568832253269472,0.10622266660161529,-0.1428045232832018,0.21464447677135468,-0.034144483506679535,0.5652070641517639,0.04264191538095474,-0.9155539870262146,-0.3999279737472534,0.02107876166701317,-0.8623084425926208,-0.07504764199256897
1.1604484490133995,0.09420933417012843,-0.13045353030715703,0.3949918746948242,-0.10589563101530075,0.48738527297973633,0.03752720355987549,-0.916982114315033,-0.3971593379974365,0.02980983257293701,-0.8737282752990723,-0.09865981340408325
1.1656305122429935,0.08314294178767975,-0.11990596326692063,0.5542736649513245,-0.17029805481433868,0.4411647617816925,0.032734792679548264,-0.9190370440483093,-0.3928093910217285,0.04012593254446983,-0.8559719920158386,-0.0901007354259491
1.1721062863576697,0.07196321044097943,-0.10991991067108078,0.6644483804702759,-0.2275855839252472,0.44275468587875366,0.02791285514831543,-0.9215703010559082,-0.38720694184303284,0.06556248664855957,-0.8220821022987366,-0.0584566593170166
1.179333180971849,0.05947853974323406,-0.09914703421292179,0.7170895338058472,-0.28076720237731934,0.48137548565864563,0.02268015407025814,-0.9243518114089966,-0.3808668255805969,0.09139454364776611,-0.7932842969894409,-0.03542351722717285
1.1869850503133363,0.04492051799680865,-0.08680658301408409,0.7556260228157043,-0.3439626693725586,0.5267890095710754,0.016815148293972015,-0.9272441864013672,-0.37407931685447693,0.1052398681640625,-0.7787036299705505,-0.03058379888534546
1.1949115212695247,0.028237685141037618,-0.07287142896338515,0.7836824655532837,-0.4021458625793457,0.5595033168792725,0.010364559479057789,-0.9301831722259521,-0.36694949865341187,0.09098431468009949,-0.7777635455131531,-0.03359377384185791
1.2029632410251703,0.009464438344270396,-0.0572986146768639,0.8010396361351013,-0.4483295977115631,0.6006308197975159,0.003403306705877185,-0.9331087470054626,-0.35957813262939453,0.07011350989341736,-0.7820858955383301,-0.04639717936515808
1.21115869126209,-0.011838708573263508,-0.03962865898228546,0.8386871218681335,-0.5055229663848877,0.6452860832214355,-0.0041663614101707935,-0.9360244274139404,-0.3519105911254883,0.0776069164276123,-0.7823135852813721,-0.07124626636505127
1.219729428942352,-0.03533107123945533,-0.020127963673272197,0.9036974906921387,-0.5283244252204895,0.6654765605926514,-0.012147828936576843,-0.9390063285827637,-0.34368541836738586,0.08714479207992554,-0.7714582085609436,-0.11124017834663391
1.2288657607873537,-0.06047121358873637,0.0009731488051266959,0.9835212230682373,-0.5271514058113098,0.6748821139335632,-0.020264042541384697,-0.9421091079711914,-0.3346937298774719,0.07449376583099365,-0.7537679672241211,-0.14936089515686035
1.2386330142190962,-0.08689570687537455,0.023410100275161706,1.0653483867645264,-0.5206887125968933,0.6529560685157776,-0.02830008789896965,-0.9453391432762146,-0.3248586356639862,0.051951199769973755,-0.7375374436378479,-0.17646896839141846
1.2490242756409442,-0.1135647025458218,0.04620450412858302,1.1343214511871338,-0.4821467399597168,0.5828299522399902,-0.03583749383687973,-0.9486765265464783,-0.3142111301422119,0.02060920000076294,-0.7243886590003967,-0.20060521364212036
1.2597794089039305,-0.13856516373918001,0.06771287251063882,1.1555473804473877,-0.4306691586971283,0.46269577741622925,-0.04226912185549736,-0.9520228505134583,-0.3030938506126404,-0.015576958656311035,-0.714542031288147,-0.2123023271560669
1.2707880141311707,-0.16065614561105404,0.08645358458834984,1.1850528717041016,-0.4047130346298218,0.3177729547023773,-0.04727443680167198,-0.9553340077400208,-0.29172250628471375,-0.04398840665817261,-0.691623330116272,-0.21410644054412842
1.2823948712720086,-0.1794672307420914,0.1018282774853198,1.2461262941360474,-0.41912713646888733,0.16818639636039734,-0.05077049136161804,-0.9586997628211975,-0.27985185384750366,-0.039775192737579346,-0.6514381170272827,-0.2340489625930786
1.2948587660680253,-0.19588686932230634,0.11398497848702706,1.3215324878692627,-0.5314475893974304,0.03904084116220474,-0.05302850902080536,-0.9621701836585999,-0.26723846793174744,-0.036647405475378036,-0.6176484823226929,-0.23950597643852234
1.3082694461993734,-0.21178772027181392,0.12458029087514964,1.408698558807373,-0.5992285013198853,-0.01607860065996647,-0.05455350503325462,-0.9657372832298279,-0.2537229657173157,-0.04493379220366478,-0.5833806991577148,-0.2265016734600067
1.3223606241094985,-0.22979147469188246,0.1365707083712499,1.4576677083969116,-0.6735450625419617,-0.0029734517447650433,-0.05600690096616745,-0.969298243522644,-0.23942407965660095,-0.047279857099056244,-0.5325021147727966,-0.24804851412773132
1.336495832239954,-0.251886621239129,0.15221740483950155,1.449272871017456,-0.6963081359863281,0.0559559091925621,-0.057862289249897,-0.9726769924163818,-0.22483669221401215,-0.05294707417488098,-0.48075318336486816,-0.2560441493988037
1.3501044076130428,-0.27879839056672995,0.17275254201939075,1.410465121269226,-0.686173677444458,0.12199540436267853,-0.06024273857474327,-0.975746214389801,-0.21045218408107758,-0.05909624695777893,-0.423637330532074,-0.2495545744895935
1.3630505917457034,-0.31105296097391383,0.1986556802437804,1.3809551000595093,-0.7027180790901184,0.17813538014888763,-0.06312646716833115,-0.9784983396530151,-0.19635657966136932,-0.05808936804533005,-0.3620929718017578,-0.25972864031791687
1.3756293226902436,-0.34945152792188205,0.23072826150794448,1.4171053171157837,-0.6890904903411865,0.21436722576618195,-0.06639835238456726,-0.9810153245925903,-0.18220928311347961,-0.03609493374824524,-0.30931365489959717,-0.2942464351654053
1.3887541786170552,-0.39527235640123043,0.27048868988140556,1.5694173574447632,-0.6488011479377747,0.21344444155693054,-0.06971049308776855,-0.9834760427474976,-0.1670786589384079,-0.012793771922588348,-0.28127914667129517,-0.3436177968978882
1.4030471011780579,-0.4500063428097477,0.3199526291381764,1.7251447439193726,-0.5477662682533264,0.17848186194896698,-0.07262443006038666,-0.9859630465507507,-0.15034157037734985,-0.003898441791534424,-0.2215564250946045,-0.3670382499694824
1.4180828421578362,-0.5143578058491609,0.3802918300470531,1.808348298072815,-0.4046035408973694,0.13410374522209167,-0.07483995705842972,-0.9883619546890259,-0.132438063621521,-0.03369584679603577,-0.13291490077972412,-0.34427714347839355
1.4329149921620898,-0.5898172878301221,0.4534144982875411,1.8053053617477417,-0.2100774347782135,0.11436881870031357,-0.07644863426685333,-0.9905093908309937,-0.11422330886125565,-0.06216222792863846,-0.05293244123458862,-0.3069040775299072
1.446613400499045,-0.6774545590776522,0.5407928239729205,1.7252073287963867,0.008792332373559475,0.10225143283605576,-0.07763929665088654,-0.9922991991043091,-0.09651107341051102,-0.08456160873174667,0.016972720623016357,-0.27177512645721436
1.458379041509181,-0.7741692479249903,0.6393740224485757,1.5557485818862915,0.22482280433177948,0.07467570900917053,-0.07842797040939331,-0.9936878085136414,-0.08020936697721481,-0.10678327083587646,0.08101391792297363,-0.22704166173934937
1.4678482258329397,-0.8729427815310139,0.7421022371550813,1.3388195037841797,0.44628646969795227,0.0352899543941021,-0.07874126732349396,-0.9947054982185364,-0.06603445112705231,-0.10297565907239914,0.13554424047470093,-0.1841639280319214
1.4752432653729228,-0.9667361058829815,0.8416151675828223,1.1195048093795776,0.584893524646759,-0.013149644248187542,-0.0785246193408966,-0.995438277721405,-0.05419094115495682,-0.06147477775812149,0.16934263706207275,-0.17241740226745605
1.4810831984937551,-1.0521383208218522,0.9337580287393421,0.9458922147750854,0.6700009703636169,-0.0668802484869957,-0.07781046628952026,-0.9959784746170044,-0.044412754476070404,0.012167125940322876,0.1982642412185669,-0.17822831869125366
1.486057174860404,-1.133184825754448,1.021648822389872,0.8803021311759949,0.6145053505897522,-0.11518451571464539,-0.07666189223527908,-0.9964118003845215,-0.035867489874362946,0.0786302462220192,0.19276195764541626,-0.20633530616760254
1.4910747898581806,-1.2195424799119254,1.1141223736497872,0.9127466082572937,0.5512478351593018,-0.23239903151988983,-0.07477527856826782,-0.9968239068984985,-0.027401404455304146,0.052787333726882935,0.18720781803131104,-0.23154032230377197
1.4969385592563846,-1.3208351630256787,1.2215584833078112,1.0038623809814453,0.6245839595794678,-0.40201398730278015,-0.0714983195066452,-0.9972737431526184,-0.01825355924665928,-0.007633782923221588,0.22260022163391113,-0.23815524578094482
1.503571628171611,-1.4454627975204424,1.3532176129815325,1.0564372539520264,0.7083752751350403,-0.5435511469841003,-0.0666484609246254,-0.9977412819862366,-0.008397302590310574,-0.0621815100312233,0.301970899105072,-0.22172057628631592
1.5098359410466418,-1.5977124109992478,1.5132571101511456,1.0371406078338623,0.7796736359596252,-0.5889862775802612,-0.06089989095926285,-0.9981424808502197,0.00163958256598562,-0.08660686016082764,0.355915367603302,-0.17989277839660645
1.5143391746919075,-1.7709220898672635,1.694506937713081,0.9580767154693604,0.7485061287879944,-0.5297807455062866,-0.05530153959989548,-0.998406708240509,0.011217418126761913,-0.04400268942117691,0.39196133613586426,-0.12759625911712646
1.5163527672267758,-1.943786901440248,1.8743986738785343,0.8239778280258179,0.589975893497467,-0.4097783863544464,-0.05067409202456474,-0.9985182881355286,0.01982915960252285,0.00350913405418396,0.42407071590423584,-0.08789873123168945
1.516183869980366,-2.088687983601392,2.0244326879223937,0.6601952910423279,0.3859412372112274,-0.2574402689933777,-0.04742800071835518,-0.9985091090202332,0.027022847905755043,0.026111453771591187,0.42862385511398315,-0.0393366813659668
1.5143951610469968,-2.194925141095661,2.1333635342957744,0.5570957660675049,0.12304051965475082,-0.09913736581802368,-0.045744359493255615,-0.9984098672866821,0.03294328600168228,0.04061737656593323,0.42228376865386963,-0.016891121864318848
1.511066253281786,-2.272436046123444,2.210848710169696,0.5768726468086243,-0.14912815392017365,0.06299268454313278,-0.0455939918756485,-0.9982166886329651,0.038531266152858734,0.054581403732299805,0.4043751358985901,-0.05119609832763672
1.5058940187451388,-2.3402105189959777,2.276064878297985,0.7234260439872742,-0.3755840063095093,0.1414707750082016,-0.046588603407144547,-0.9978945851325989,0.04512256756424904,0.05517926439642906,0.3660738468170166,-0.13191461563110352
1.4991149947937268,-2.415958688705954,2.3476153091341327,0.9259783625602722,-0.4794541895389557,0.06971588730812073,-0.04752858728170395,-0.9974319934844971,0.053578365594148636,0.013547234237194061,0.3357497453689575,-0.20488452911376953
1.491240024330719,-2.508664666457207,2.4355141616230207,1.1227113008499146,-0.5250648856163025,-0.12441984564065933,-0.047009240835905075,-0.9968370795249939,0.06407943367958069,-0.030993707478046417,0.32833415269851685,-0.22090935707092285
1.4823593457946331,-2.6163562110416456,2.5381226182728875,1.2911617755889893,-0.5605573654174805,-0.3363558053970337,-0.04428642988204956,-0.9960920214653015,0.07641705870628357,-0.04868537187576294,0.35294926166534424,-0.205094575881958
1.4720807528117004,-2.72644216855589,2.6429014352557108,1.4101423025131226,-0.5849066972732544,-0.4593937397003174,-0.03975057229399681,-0.9951315522193909,0.09018471091985703,-0.02786112204194069,0.4015798568725586,-0.19202196598052979
1.460256332106471,-2.824065506934637,2.7350936230051626,1.4669225215911865,-0.5974158644676208,-0.4712546467781067,-0.03444259241223335,-0.9938966631889343,0.10480110347270966,0.0031468234956264496,0.45796215534210205,-0.17799757421016693
1.4474405288189989,-2.9002243986928917,2.8057847894300845,1.428387999534607,-0.590864360332489,-0.3964768350124359,-0.029411179944872856,-0.9924013018608093,0.11947634816169739,0.0301131010055542,0.4992067217826843,-0.13421642780303955
1.4346665983164817,-2.9540064704337943,2.8541462659447756,1.3185014724731445,-0.5638575553894043,-0.2803502380847931,-0.02530834823846817,-0.9907486438751221,0.1333296149969101,0.03760689124464989,0.523417592048645,-0.0692274421453476
1.4227535369242865,-2.989950594597318,2.8853857796457967,1.1721059083938599,-0.4249277412891388,-0.1957438439130783,-0.022281892597675323,-0.9890616536140442,0.14580939710140228,0.022342892363667488,0.5218529105186462,-0.02784372866153717
1.4119883798929431,-3.0158320425225953,2.9082772734898175,1.0543713569641113,-0.21607838571071625,-0.21202082931995392,-0.019835559651255608,-0.9874165058135986,0.15689235925674438,-0.002640634775161743,0.5179493427276611,-0.02739107608795166
1.4021647021015016,-3.040309895543,2.9321838294016,0.9919976592063904,0.04498433321714401,-0.3509986102581024,-0.01696953922510147,-0.9858153462409973,0.16697287559509277,-0.048460185527801514,0.5145477652549744,-0.05048729479312897
1.3926194724625707,-3.0693590765181376,2.96350280306977,1.008015751838684,0.30294129252433777,-0.558628261089325,-0.012791192159056664,-0.9841684699058533,0.17677287757396698,-0.08509394526481628,0.5065227150917053,-0.07969643175601959
1.3824589664826288,-3.103278162342389,3.0020798876501202,1.0979223251342773,0.4902445077896118,-0.7173283100128174,-0.007171704899519682,-0.9823169112205505,0.18708835542201996,-0.08746331930160522,0.5059069991111755,-0.1187901645898819
1.3711974467476562,-3.1373431599840487,3.0427510922827326,1.1687322854995728,0.6960994005203247,-0.7886579036712646,-0.0008425739943049848,-0.9801461696624756,0.1982751339673996,-0.04227876663208008,0.519116997718811,-0.14375552535057068
1.359414571887742,3.1159943941698813,3.0809302415561257,1.1639752388000488,0.7650971412658691,-0.800868570804596,0.005370205268263817,-0.9777419567108154,0.20974208414554596,-0.0013113915920257568,0.5208022594451904,-0.10697424411773682
1.3476826376905378,3.090310203610828,3.115259732882889,1.1022149324417114,0.8061601519584656,-0.7461025714874268,0.011342190206050873,-0.9752132296562195,0.2209770679473877,-0.006840853951871395,0.49404245615005493,-0.027358263731002808
1.336898059417019,3.07152302019496,-3.1402182941930934,0.9570046663284302,0.8227523565292358,-0.6310285925865173,0.016226842999458313,-0.9727702736854553,0.23120255768299103,0.015023142099380493,0.5205608606338501,0.04026651382446289
1.3278964081916893,3.0588771729032795,-3.1187137647038496,0.74966961145401,0.8255287408828735,-0.5190812945365906,0.019871879369020462,-0.9706445932388306,0.23969560861587524,-0.005162419751286507,0.5428187251091003,0.08084557950496674
1.3212078538972922,3.0504841675319017,-3.101466853705036,0.5078880190849304,0.8356154561042786,-0.43585607409477234,0.022473178803920746,-0.9690141677856445,0.24598108232021332,-0.03677067160606384,0.54881751537323,0.10547450184822083
1.3167884703063513,3.0451768111716047,-3.0873845750645073,0.3161201775074005,0.8188276886940002,-0.3344500958919525,0.024190356954932213,-0.9679130911827087,0.2501181662082672,-0.06258147954940796,0.5415825247764587,0.10599136352539062
1.3142628622549641,3.042139187717019,-3.0760077226264704,0.11963721364736557,0.7588354349136353,-0.2999008893966675,0.02519269846379757,-0.9672753214836121,0.25247567892074585,-0.05647322162985802,0.5030418634414673,0.06159594655036926
1.3133219791058621,3.0385321757716426,-3.06514707651602,0.03732263669371605,0.6100646257400513,-0.2541158199310303,0.02619677037000656,-0.9670361876487732,0.25328773260116577,-0.03382617235183716,0.48833751678466797,0.019249409437179565
1.3126031632558655,3.0367325140094223,-3.057725212009361,0.0730363130569458,0.4622785747051239,-0.13775010406970978,0.026725267991423607,-0.9668529033660889,0.2539310157299042,0.023521926254034042,0.4394634962081909,-0.02387431263923645
1.3114205119330464,3.0372405980921697,-3.054230355446304,0.1473211944103241,0.30905041098594666,-0.07338044047355652,0.02671535685658455,-0.9665502309799194,0.2550818622112274,0.05931368097662926,0.3843512535095215,-0.06669691205024719
1.30957008132028,3.0379832171163845,-3.052492697875763,0.20550300180912018,0.18212810158729553,-0.05505232512950897,0.026710890233516693,-0.9660739898681641,0.2568804919719696,0.03865775465965271,0.36879920959472656,-0.07963442802429199
1.3075250721522438,3.0382067109912647,-3.0512186038788456,0.18950672447681427,0.10847730189561844,-0.05309649929404259,0.026857271790504456,-0.965543806552887,0.2588506042957306,0.005567636340856552,0.368696391582489,-0.02710011601448059
1.305966179399522,3.037443073997642,-3.04957296489494,0.1012372151017189,0.06192441284656525,-0.06336697936058044,0.02721140906214714,-0.9651369452476501,0.260327011346817,-0.017766207456588745,0.3782382011413574,0.04210209846496582
1.3055532217494075,3.0354710390015507,-3.0468310220751436,-0.037155281752347946,0.08081075549125671,-0.0869109258055687,0.027766907587647438,-0.9650288224220276,0.2606688141822815,-0.04568072780966759,0.39456379413604736,0.08166173100471497
1.3066263818312558,3.03249318312274,-3.0425410590861106,-0.19926795363426208,0.15262962877750397,-0.11273640394210815,0.02843022346496582,-0.9653095602989197,0.2595551908016205,-0.06599736213684082,0.40280967950820923,0.10752531886100769
1.3092359093308297,3.0284353042350913,-3.036385351367425,-0.3476020097732544,0.22592274844646454,-0.14648185670375824,0.029198765754699707,-0.9659876227378845,0.2569345533847809,-0.06462967395782471,0.39199769496917725,0.12259724736213684
1.3130601120809562,3.0232987109401193,-3.0283838130807457,-0.45319637656211853,0.2930518388748169,-0.16648712754249573,0.03008189983665943,-0.9669694900512695,0.2531106173992157,-0.04456251859664917,0.3915300965309143,0.09652921557426453
1.3176886810705388,3.0175536721023137,-3.019185387064245,-0.5100961327552795,0.3307155966758728,-0.17844446003437042,0.030981527641415596,-0.9681388735771179,0.24849021434783936,-0.021032806485891342,0.38346773386001587,0.06405547261238098
1.3225832149256616,3.0108300850405136,-3.0087402475326654,-0.5112422704696655,0.34474191069602966,-0.20942728221416473,0.032033249735832214,-0.9693529605865479,0.24357476830482483,-0.0039723217487335205,0.36803460121154785,0.03651547431945801
1.327037300639113,3.002753464854776,-2.9967363050854643,-0.42948001623153687,0.3663736879825592,-0.2370421290397644,0.033401574939489365,-0.9704375863075256,0.23902961611747742,0.0036467574536800385,0.3620697259902954,-0.004868298768997192
1.3303060716480404,2.9942078733590596,-2.984032756181513,-0.3044835329055786,0.39394065737724304,-0.2650165557861328,0.034976888447999954,-0.9712213277816772,0.23559598624706268,0.007885035127401352,0.3505549430847168,-0.03454628586769104
1.3324957471702041,2.984521243042262,-2.969808187118985,-0.21311846375465393,0.4324134886264801,-0.3114418387413025,0.03692459687590599,-0.9717405438423157,0.23314513266086578,0.011079546064138412,0.3973998427391052,-0.03058484196662903
1.3334134459949787,2.976185349324795,-2.9567376633565607,-0.0675315409898758,0.43391433358192444,-0.251354843378067,0.03871997073292732,-0.971956729888916,0.23194988071918488,0.023825790733098984,0.4306207299232483,-0.004578724503517151
1.3334244654923348,2.9722899978739186,-2.948263941492478,-0.013034213334321976,0.4314138889312744,-0.1349206268787384,0.03962128981947899,-0.9719593524932861,0.2317861020565033,0.034963659942150116,0.45880645513534546,-0.008550092577934265
1.3336037061450783,2.9737724885905568,-2.945395600942273,-0.05265529453754425,0.4211292266845703,0.015860769897699356,0.039248570799827576,-0.9720014929771423,0.23167309165000916,0.043545596301555634,0.4852309823036194,0.0075388699769973755
1.3347233889556147,2.981394649455233,-2.9492063604952534,-0.13885143399238586,0.3506697118282318,0.19958852231502533,0.03730807825922966,-0.9722639322280884,0.2308916449546814,0.058623939752578735,0.4981123208999634,0.04507875442504883
1.3369711957183545,2.9952494006410406,-2.9604228374979735,-0.23789146542549133,0.2357126772403717,0.37106508016586304,0.0337868332862854,-0.9727872014045715,0.2292233407497406,0.0650443434715271,0.4934324026107788,0.03940749168395996
1.3408009321996124,3.012628251957419,-2.9764035483636193,-0.411489337682724,0.1285816729068756,0.45532670617103577,0.02931896038353443,-0.9736674427986145,0.22607973217964172,0.06295093894004822,0.5130046010017395,0.03952991962432861
1.3459805558205187,3.0325541085600984,-2.9961126002498712,-0.49977487325668335,0.01158639695495367,0.5453218817710876,0.02425941824913025,-0.974835216999054,0.22160235047340393,0.05452170595526695,0.5197724103927612,0.07502838969230652
1.351878514564389,3.0547177679205855,-3.0193519530931607,-0.5708597302436829,-0.10976559668779373,0.5774944424629211,0.01884313113987446,-0.9761330485343933,0.21635369956493378,0.0498214028775692,0.5203073620796204,0.05209405720233917
1.358329405427946,3.0773930863047347,-3.0441097811045092,-0.6241799592971802,-0.19071735441684723,0.5683306455612183,0.013528620824217796,-0.9775136709213257,0.21043799817562103,0.05858442187309265,0.5234273672103882,0.027950048446655273
1.3649696544027452,3.099914845969074,-3.0695070872468846,-0.6375256776809692,-0.27077728509902954,0.5524837970733643,0.008515485562384129,-0.9788923859596252,0.2041987031698227,0.06622204184532166,0.5257063508033752,0.014154419302940369
1.371535815766266,3.122786121548661,-3.0960430501657417,-0.6423453092575073,-0.3528536260128021,0.5570682883262634,0.003722430905327201,-0.9802132248878479,0.19790953397750854,0.061890363693237305,0.5269966721534729,0.0028808116912841797
1.3782399326803914,-3.1359931771905645,-3.1250951102412583,-0.6902164816856384,-0.47237497568130493,0.584683358669281,-0.0010715603129938245,-0.9815182089805603,0.19136595726013184,0.06500589847564697,0.528560996055603,0.019357949495315552
1.3854410149446232,-3.1087004312479816,3.1246914874061673,-0.7717574834823608,-0.6318890452384949,0.6416569352149963,-0.006060795392841101,-0.9828708171844482,0.18419580161571503,0.06296080350875854,0.532156765460968,0.04921780526638031
1.3932638962821444,-3.076957286335391,3.0849607900439504,-0.8553706407546997,-0.8367990851402283,0.7105444073677063,-0.01140680257230997,-0.9842824935913086,0.1762334406375885,0.072319895029068,0.5216205716133118,0.07768799364566803
1.401550297636201,-3.039875503227968,3.037797684192792,-0.9164644479751587,-1.024278998374939,0.7686390280723572,-0.017103707417845726,-0.9857120513916016,0.1675693690776825,0.08647015690803528,0.507806658744812,0.07570149004459381
1.409829306200642,-2.99802689196661,2.9842032499298936,-0.9294585585594177,-1.172135829925537,0.7649438977241516,-0.022930746898055077,-0.987072765827179,0.1586240828037262,0.08869612216949463,0.4921844005584717,0.03363656997680664
1.417728585669448,-2.9549907345136264,2.92818539289125,-0.9133396744728088,-1.2626354694366455,0.6949375867843628,-0.028286607936024666,-0.9883080124855042,0.14982442557811737,0.05566086992621422,0.4643363356590271,-0.028196677565574646
1.425254118162235,-2.913966078686693,2.8733622330088204,-0.8860262632369995,-1.3755428791046143,0.5762982964515686,-0.032728031277656555,-0.989427387714386,0.14128760993480682,0.011670861393213272,0.43835633993148804,-0.07297410070896149
1.432311073465487,-2.8788058659802567,2.8236376408208126,-0.8179531097412109,-1.4205100536346436,0.45610564947128296,-0.03585992380976677,-0.990426242351532,0.1333044171333313,-0.031629741191864014,0.3689509630203247,-0.11870181560516357
1.4386939328426838,-2.848048488268354,2.777979175003557,-0.7434461116790771,-1.4650039672851562,0.37891075015068054,-0.038112323731184006,-0.9912871718406677,0.12608423829078674,-0.03212389722466469,0.36451709270477295,-0.1507730334997177
1.4444990608715678,-2.819815067614583,2.734651621839024,-0.704204797744751,-1.4634685516357422,0.33957138657569885,-0.03983571007847786,-0.9920350909233093,0.11949636787176132,-0.051335569471120834,0.3454439640045166,-0.15956604480743408
1.4500855855573014,-2.7908965086396216,2.690922628164461,-0.7034497857093811,-1.415147304534912,0.3048783838748932,-0.04136969521641731,-0.992723286151886,0.11308831721544266,-0.04832151159644127,0.33571040630340576,-0.14652037620544434
1.45568785612732,-2.7585628475585087,2.6448996484349023,-0.7302348613739014,-1.2453291416168213,0.3084678649902344,-0.04292444884777069,-0.9933823347091675,0.10653074830770493,-0.04742282256484032,0.29205799102783203,-0.1463562399148941
1.461367500567462,-2.7183124931183436,2.5927495021562295,-0.7703428864479065,-1.061922550201416,0.31468766927719116,-0.04485835134983063,-0.9940186142921448,0.09957178682088852,-0.04693853482604027,0.2877504229545593,-0.1705862283706665
1.467266421072271,-2.6696571869840575,2.5341248721485385,-0.8281477093696594,-0.8574675917625427,0.2906721234321594,-0.04698166996240616,-0.9946455359458923,0.09204815328121185,-0.07980361580848694,0.2517714500427246,-0.17284345626831055
1.473650480264409,-2.615132333388791,2.4717430811932584,-0.8831055164337158,-0.6495727300643921,0.1833358108997345,-0.04873725026845932,-0.9952850341796875,0.08386028558015823,-0.10230952501296997,0.226318359375,-0.1763134002685547
1.4809126783678714,-2.5614270871058977,2.412348157760033,-0.9290909767150879,-0.43045324087142944,-0.0074288565665483475,-0.049204353243112564,-0.9959631562232971,0.07507471740245819,-0.16776037216186523,0.1961737871170044,-0.19453585147857666
1.4895277164997949,-2.5111111073174066,2.3587039475366054,-1.007614016532898,-0.19307075440883636,-0.2164345383644104,-0.047858256846666336,-0.9966995120048523,0.06557250767946243,-0.20728394389152527,0.17165672779083252,-0.1925410032272339
1.4998940624815398,-2.459406919482331,2.305857246824808,-1.1230106353759766,-0.010435649193823338,-0.4050239622592926,-0.04466438665986061,-0.997487485408783,0.05498624965548515,-0.19769099354743958,0.14636766910552979,-0.1474393606185913
1.5120981838570715,-2.394736558535068,2.2418676286287273,-1.2583954334259033,0.17841362953186035,-0.555138349533081,-0.03985385224223137,-0.9982777833938599,0.043050751090049744,-0.16464442014694214,0.12391853332519531,-0.11211204528808594
1.5257791261436933,-2.2887756457398503,2.1386219935873827,-1.396419644355774,0.3834366202354431,-0.6594310998916626,-0.03389185667037964,-0.9989868998527527,0.029604505747556686,-0.11405736207962036,0.10807204246520996,-0.09837591648101807
1.5399927272558245,-2.0778455583698614,1.9323873399708016,-1.4904282093048096,0.5692075490951538,-0.7464997172355652,-0.026921099051833153,-0.9995256066322327,0.014954430051147938,-0.06864467263221741,0.07209652662277222,-0.09883201122283936
1.5514902635303855,-1.5524089537045351,1.4128975104918986,-1.5262973308563232,0.6331312656402588,-0.773220956325531,-0.019295217469334602,-0.9998136162757874,-0.0003548283420968801,-0.01604413613677025,0.07250666618347168,-0.11547470092773438
1.551124198132679,-0.6374039244002954,0.504027310991283,-1.5326132774353027,0.6063776612281799,-0.725325345993042,-0.011701456271111965,-0.9998065233230591,-0.015801751986145973,0.03620705008506775,0.08141070604324341,-0.12799715995788574
1.5390905917039555,-0.14809592967946494,0.020123323677822255,-1.565346121788025,0.4886513948440552,-0.6450083255767822,-0.004677752498537302,-0.9994974136352539,-0.03135470673441887,0.055977821350097656,0.0930795669555664,-0.12459015846252441
1.5232825596201645,0.02801263428251866,-0.15212334943941505,-1.6606225967407227,0.2951389253139496,-0.5136809349060059,0.001330401748418808,-0.9988714456558228,-0.047480497509241104,0.046917885541915894,0.0959935188293457,-0.08960450440645218
1.5057581417516503,0.09136560071142769,-0.2137106604740037,-1.7835986614227295,0.10306961089372635,-0.3780145049095154,0.005929699167609215,-0.9978857636451721,-0.06472009420394897,0.03658127784729004,0.07057875394821167,-0.042137257754802704
1.4871049527738593,0.1065103439058809,-0.2285223717277079,-1.88068687915802,-0.0326397530734539,-0.21699872612953186,0.008886615745723248,-0.9964998960494995,-0.08311855047941208,0.03605052828788757,0.015954971313476562,-0.040279321372509
1.4679838123777043,0.10258027121970965,-0.2251753861570098,-1.9096035957336426,-0.06266538053750992,-0.13258178532123566,0.010509400628507137,-0.9947194457054138,-0.10209090262651443,0.021686643362045288,-0.02504056692123413,-0.06543540209531784
1.4488016518211613,0.0982529307532955,-0.22097564395258204,-1.90000319480896,0.040250882506370544,-0.16986897587776184,0.011937344446778297,-0.9925678968429565,-0.12110485881567001,-0.014577151276171207,-0.06752115488052368,-0.09270130842924118
1.429823022411278,0.10108083644899053,-0.2230155348717327,-1.8619006872177124,0.11232950538396835,-0.26539283990859985,0.014178303070366383,-0.9900797009468079,-0.1397889405488968,-0.024859489873051643,-0.07156568765640259,-0.09928582608699799
1.41106035030722,0.11101640683917006,-0.23182364999423563,-1.8255504369735718,0.1263321340084076,-0.3911970853805542,0.017621759325265884,-0.9872693419456482,-0.15807849168777466,-0.0013101417571306229,-0.0877733826637268,-0.11538957059383392
1.3925321656483616,0.12506149291098068,-0.24507933753408537,-1.7924108505249023,0.057099565863609314,-0.4698311388492584,0.022118378430604935,-0.9841529726982117,-0.1759370118379593,0.030265064910054207,-0.0924614667892456,-0.16508175432682037
1.3740663306722347,0.13694533009040671,-0.2572223812259758,-1.806238055229187,-0.062098730355501175,-0.44119682908058167,0.026684215292334557,-0.9807109832763672,-0.19363342225551605,0.07811316847801208,-0.10321229696273804,-0.20405642688274384
1.3552650441403216,0.14205899847767256,-0.263396286010699,-1.8753663301467896,-0.11297204345464706,-0.3217191994190216,0.030279576778411865,-0.976862907409668,-0.21171213686466217,0.11350396275520325,-0.14331525564193726,-0.2195013016462326
1.3357874671269532,0.1397772365823275,-0.26217171520996335,-1.9791462421417236,-0.10246214270591736,-0.16258949041366577,0.03244141489267349,-0.9725123047828674,-0.2305801957845688,0.09988277405500412,-0.18285256624221802,-0.2014266401529312
1.3154830719775017,0.132133540800766,-0.25513123294210255,-2.066056251525879,-0.04610658437013626,-0.06155334413051605,0.033273160457611084,-0.9675842523574829,-0.25034743547439575,0.04694226756691933,-0.24487924575805664,-0.1803472340106964
1.294757374832136,0.12321739024867447,-0.24569794286582097,-2.0803768634796143,0.084701769053936,0.01323328074067831,0.033497635275125504,-0.9621425271034241,-0.27048078179359436,-0.019978340715169907,-0.3468174934387207,-0.22216454148292542
1.2743657784298905,0.11619397319362747,-0.23686656015834764,-2.0077807903289795,0.20536668598651886,-0.01847338303923607,0.03386490419507027,-0.9563852548599243,-0.2901386618614197,-0.06349751353263855,-0.4127401113510132,-0.2697826623916626
1.2549070183652196,0.11321429386957545,-0.23123520766231595,-1.8812956809997559,0.2617167830467224,-0.08770918101072311,0.035096313804388046,-0.9505204558372498,-0.3086733818054199,-0.08088797330856323,-0.4658766984939575,-0.27781352400779724
1.2367022269233263,0.11239842840613311,-0.22787474145736433,-1.749695897102356,0.19578854739665985,-0.09656786173582077,0.036779388785362244,-0.9447077512741089,-0.3258441984653473,-0.012990955263376236,-0.47564131021499634,-0.3082195222377777
1.2197639977276937,0.11007861989488486,-0.22414672033567426,-1.639099359512329,0.030680013820528984,-0.021076835691928864,0.03777605667710304,-0.9390182495117188,-0.3417861759662628,0.10251322388648987,-0.48082733154296875,-0.33399510383605957
1.2039123587544471,0.10333474315990437,-0.21779194396866716,-1.550808310508728,-0.1920492798089981,0.1387934386730194,0.03700113669037819,-0.9334496259689331,-0.35679522156715393,0.18043658137321472,-0.4983283281326294,-0.34851187467575073
1.1891911942487414,0.09025800375664535,-0.20700483663046482,-1.4435393810272217,-0.40424489974975586,0.36385825276374817,0.033567432314157486,-0.9280680418014526,-0.3708948791027069,0.2284412384033203,-0.5220203995704651,-0.37553465366363525
1.1757370703835963,0.07113623295491264,-0.19138640129499174,-1.322443962097168,-0.5102217793464661,0.590695858001709,0.027354616671800613,-0.9229737520217896,-0.3838895857334137,0.241032212972641,-0.5246886014938354,-0.3986116647720337
1.1634097609680358,0.047917159139550185,-0.17184860694242252,-1.2241837978363037,-0.5248965620994568,0.7728571891784668,0.018978049978613853,-0.9181594252586365,-0.39575642347335815,0.1959419846534729,-0.5229110717773438,-0.3861345052719116
1.1517780088343856,0.022679132562792758,-0.149901160143793,-1.1577905416488647,-0.4951723515987396,0.8912262916564941,0.00922653079032898,-0.9134888052940369,-0.4067593216896057,0.10536697506904602,-0.5330595970153809,-0.33996009826660156
1.1404965184752374,-0.002760263672026841,-0.12725127628461577,-1.1153075695037842,-0.45944976806640625,0.9439515471458435,-0.0011514239013195038,-0.9088407158851624,-0.4171416759490967,0.005133956670761108,-0.5411561727523804,-0.2843049168586731
1.1293196385654483,-0.026697813302310962,-0.10539711579492064,-1.0857473611831665,-0.35402584075927734,0.9179813265800476,-0.01140595506876707,-0.9041216969490051,-0.4271228015422821,-0.05640411376953125,-0.5443798303604126,-0.23585641384124756
1.1182305251372535,-0.04710077480002867,-0.08621442103016214,-1.058870792388916,-0.276782751083374,0.8075951933860779,-0.02058834582567215,-0.8993281126022339,-0.4367893934249878,-0.09402045607566833,-0.5529118180274963,-0.1763087809085846
1.107433696759289,-0.06369574070749338,-0.07063351487634707,-1.0082968473434448,-0.24746619164943695,0.6825801730155945,-0.02845010906457901,-0.894554615020752,-0.4460521638393402,-0.10922995209693909,-0.5371774435043335,-0.12706798315048218
1.0972570762874447,-0.07714530258689754,-0.058320037469260504,-0.9322775602340698,-0.2567014992237091,0.569655179977417,-0.03514636307954788,-0.8899598121643066,-0.4546824097633362,-0.09186780452728271,-0.5198758244514465,-0.12507528066635132
1.0879951863286836,-0.0884449578508957,-0.04870821468550674,-0.8306766748428345,-0.2945145070552826,0.4613281488418579,-0.041008107364177704,-0.8856979608535767,-0.4624471962451935,-0.08415976166725159,-0.5036453008651733,-0.1504983901977539
1.0799023353116193,-0.0976736187828319,-0.04158981611178195,-0.7119084596633911,-0.2873159945011139,0.34555602073669434,-0.0459715873003006,-0.8819117546081543,-0.46916764974594116,-0.0847046971321106,-0.4876102805137634,-0.1758214235305786
1.0731502609479997,-0.1045761513989562,-0.03702534379938012,-0.5829448103904724,-0.2923882305622101,0.22270433604717255,-0.04982936382293701,-0.8787086606025696,-0.4747505187988281,-0.08972752094268799,-0.49867159128189087,-0.17940905690193176
1.0677417308383526,-0.10980144480742902,-0.034493327291422834,-0.4609251916408539,-0.3046148121356964,0.14342603087425232,-0.05282941460609436,-0.876114010810852,-0.4792007505893707,-0.10129961371421814,-0.4915464520454407,-0.17088472843170166
1.0635664069054689,-0.11401836130014047,-0.03299271165578146,-0.3468591570854187,-0.2713114023208618,0.09767868369817734,-0.0552653893828392,-0.8740934729576111,-0.4826037883758545,-0.09442335367202759,-0.4878450036048889,-0.16249209642410278
1.060583420316046,-0.11717369638182684,-0.0321953886467657,-0.22179868817329407,-0.2215672731399536,0.054697390645742416,-0.05709244683384895,-0.8726405501365662,-0.48501431941986084,-0.11342453956604004,-0.47840309143066406,-0.14456337690353394
1.0589737982530167,-0.11915950904162799,-0.03209950680474801,-0.0786064863204956,-0.16517378389835358,-0.0022331736981868744,-0.058222394436597824,-0.8718533515930176,-0.48629409074783325,-0.12289944291114807,-0.4585757255554199,-0.13876700401306152
1.0590153388431678,-0.11972354937129151,-0.032979303005479764,0.08205670118331909,-0.10844312608242035,-0.08366917073726654,-0.05849231779575348,-0.871873676776886,-0.4862249791622162,-0.11207044124603271,-0.43560606241226196,-0.1402856409549713
1.0607163299123998,-0.11875304810412284,-0.03519117515305971,0.22619983553886414,-0.08491606265306473,-0.16677550971508026,-0.057844631373882294,-0.8727054595947266,-0.4848082959651947,-0.0982985720038414,-0.4029597043991089,-0.12392586469650269
1.0638097510427902,-0.11655421393455749,-0.0385944717600969,0.34420132637023926,-0.06715277582406998,-0.22871796786785126,-0.056464262306690216,-0.8742116093635559,-0.4822506308555603,-0.08976072072982788,-0.36677032709121704,-0.08923682570457458
1.0680218770256313,-0.11347312320755405,-0.04275704363888811,0.44191640615463257,-0.04574764519929886,-0.2624535858631134,-0.05456072837114334,-0.8762490153312683,-0.47875964641571045,-0.07355207204818726,-0.3405783176422119,-0.06385821104049683
1.073092035418656,-0.10992342542227483,-0.047237017061514626,0.5114434957504272,-0.028039220720529556,-0.2723245918750763,-0.05237289145588875,-0.8786808848381042,-0.47452834248542786,-0.04053790122270584,-0.3157771825790405,-0.04614746570587158
1.0786241359464597,-0.10602375239123615,-0.051821816941763604,0.5355057120323181,0.0019671274349093437,-0.2753465175628662,-0.05000680312514305,-0.8813084959983826,-0.46988797187805176,-0.017543882131576538,-0.28560733795166016,-0.015631496906280518
1.0842768616241714,-0.10193744354814961,-0.0562502233494071,0.5399667620658875,0.028651736676692963,-0.24977566301822662,-0.04757855460047722,-0.8839655518531799,-0.46512487530708313,-0.009290963411331177,-0.2578648328781128,0.008276700973510742
1.0898948747045265,-0.0984441560712515,-0.05984230286092192,0.5406714081764221,0.035456426441669464,-0.1908103972673416,-0.04546463117003441,-0.8865782618522644,-0.460338830947876,0.006112191826105118,-0.23097532987594604,0.02306768298149109
1.0953690119802537,-0.09601261501795304,-0.06206400720839461,0.5285753011703491,0.06307153403759003,-0.12411126494407654,-0.04387923330068588,-0.8890972137451172,-0.45561012625694275,0.01150006428360939,-0.21132075786590576,0.031202197074890137
1.1007254217748588,-0.093927798964006,-0.06345498037525973,0.5269445776939392,0.10336383432149887,-0.10966777801513672,-0.04248201847076416,-0.8915361762046814,-0.4509528875350952,0.0013748109340667725,-0.19374513626098633,0.03173285722732544
1.1062673169639554,-0.09112934126647812,-0.06514063637582367,0.5657774806022644,0.15483075380325317,-0.15329675376415253,-0.04076962172985077,-0.8940326571464539,-0.4461427927017212,-0.010194744914770126,-0.1874949336051941,0.019110292196273804
1.1124397520933311,-0.0864251731770768,-0.06828679134524035,0.6408838629722595,0.22269000113010406,-0.24065116047859192,-0.03819337859749794,-0.8967809081077576,-0.44082340598106384,-0.02813657745718956,-0.17884159088134766,-0.0024597346782684326
1.119567426163365,-0.07894341094770883,-0.07372797180003317,0.7355238199234009,0.293803870677948,-0.34780317544937134,-0.034389249980449677,-0.8999118804931641,-0.4347136914730072,-0.04097390174865723,-0.15364640951156616,-0.011499166488647461
1.127629152934996,-0.06878997663594763,-0.08145341433622677,0.8144909739494324,0.3360217809677124,-0.4252142310142517,-0.029474062845110893,-0.9033980965614319,-0.4277884364128113,-0.03127118945121765,-0.12914878129959106,-0.0009377896785736084
1.1362257602877242,-0.05717295346698513,-0.09046244580425782,0.8426962494850159,0.35101112723350525,-0.4365648925304413,-0.0240579005330801,-0.9070509076118469,-0.42033305764198303,-0.004155635833740234,-0.1021653413772583,0.015425801277160645
1.1447768963740819,-0.04562316192026595,-0.09936686631998262,0.8153353929519653,0.33771753311157227,-0.38225802779197693,-0.018847212195396423,-0.9106179475784302,-0.4128195643424988,0.02000686340034008,-0.07740402221679688,0.03699547052383423
1.1527163542434784,-0.035629818812068045,-0.10682986342408488,0.7382078170776367,0.29314395785331726,-0.28905990719795227,-0.014462882652878761,-0.9138701558113098,-0.40574896335601807,0.03100338578224182,-0.05828249454498291,0.06047302484512329
1.1596788037443326,-0.028182961356987533,-0.11200746302075086,0.6329863667488098,0.24785789847373962,-0.1727052927017212,-0.011261370964348316,-0.916674792766571,-0.3994750380516052,0.03356969356536865,-0.033627212047576904,0.08193960785865784
1.165504704797368,-0.023328385407596824,-0.11474709016656283,0.5225974917411804,0.22286415100097656,-0.08071039617061615,-0.009197241626679897,-0.9189874529838562,-0.3941795825958252,0.029888153076171875,-0.016284704208374023,0.1008751392364502
1.170239961417043,-0.019983736940326353,-0.11603508663300048,0.4251944422721863,0.20835809409618378,-0.04907442256808281,-0.007791753858327866,-0.9208441972732544,-0.3898528516292572,0.016412943601608276,-0.00338059663772583,0.10137012600898743
1.174123313820966,-0.0165944376356232,-0.11744608341476838,0.35068345069885254,0.20889419317245483,-0.08150506019592285,-0.0064109936356544495,-0.9223514795303345,-0.38629844784736633,0.00920331571251154,0.0070226192474365234,0.08608174324035645
1.177405253911138,-0.01194481351498829,-0.12024529684177108,0.30439451336860657,0.20316475629806519,-0.14485488831996918,-0.004578607622534037,-0.923614501953125,-0.3832952082157135,0.012589454650878906,0.019607603549957275,0.075906902551651
1.1803248387263463,-0.005558990459728247,-0.12496738434864108,0.27592507004737854,0.20299644768238068,-0.21711283922195435,-0.0021158771123737097,-0.9247297048568726,-0.3806186318397522,0.007914215326309204,0.03355538845062256,0.06950712203979492
1.1830207598757108,0.002465405963098593,-0.13140774310356815,0.26074284315109253,0.20796838402748108,-0.2683817148208618,0.0009322437108494341,-0.9257524609565735,-0.37812912464141846,0.00033423316199332476,0.03935408592224121,0.056733131408691406
1.1855127094163886,0.011537501884523809,-0.13883574200909268,0.2447657436132431,0.22955462336540222,-0.28011295199394226,0.00433594873175025,-0.9266918897628784,-0.3757968246936798,-0.006060183513909578,0.04885381460189819,0.05076935887336731
1.1878830328094871,0.021026492607326044,-0.14646962861068316,0.23775187134742737,0.24423648416996002,-0.28157365322113037,0.007855430245399475,-0.9275801181793213,-0.3735417425632477,0.0010709455236792564,0.045713722705841064,0.04782763123512268
1.1901816769653397,0.03081717629010791,-0.15435160260138248,0.23657795786857605,0.25306248664855957,-0.28802064061164856,0.01144650299102068,-0.9284364581108093,-0.37131500244140625,0.0035681137815117836,0.04739391803741455,0.03198996186256409
1.1924631974978221,0.04084445064620919,-0.16226567982372164,0.2405535727739334,0.2831858694553375,-0.2790519893169403,0.015082595869898796,-0.9292815923690796,-0.36906376481056213,0.00725626852363348,0.04381418228149414,0.018309980630874634
1.1948436122425183,0.051150663381609056,-0.1700978831776662,0.2604638636112213,0.3193688988685608,-0.2746540606021881,0.018772238865494728,-0.930158257484436,-0.36667880415916443,0.014186739921569824,0.036786675453186035,0.008036136627197266
1.1974690708775946,0.06199567311974642,-0.17805556733483702,0.29592210054397583,0.36508846282958984,-0.27828145027160645,0.022596314549446106,-0.9311190247535706,-0.36401504278182983,0.0087757408618927,0.04806238412857056,0.006867766380310059
1.200449699972997,0.07381025824048301,-0.18655737116397544,0.33607563376426697,0.4122341275215149,-0.29679709672927856,0.026690520346164703,-0.9322019219398499,-0.3609529733657837,0.012066779658198357,0.046871840953826904,0.009726136922836304
1.2036796283209583,0.086902689570229,-0.19594244554791834,0.3591415286064148,0.45289722084999084,-0.3193848133087158,0.031152354553341866,-0.9333661198616028,-0.3575711250305176,0.01734006404876709,0.04496896266937256,0.008831501007080078
1.2069713610705444,0.10063862372976229,-0.20567968178218005,0.35853222012519836,0.46864795684814453,-0.30423861742019653,0.03575197234749794,-0.9345425367355347,-0.3540508449077606,0.020705517381429672,0.03880590200424194,0.013138920068740845
1.2101644882778078,0.11380628180816567,-0.21466949723067497,0.3396584987640381,0.47986841201782227,-0.25335511565208435,0.04007166624069214,-0.9356740713119507,-0.35058271884918213,0.029371049255132675,0.03622955083847046,0.017223864793777466
1.2131795880948986,0.1254697323630338,-0.2220632082019972,0.3188525438308716,0.4632047414779663,-0.18771593272686005,0.04380461573600769,-0.9367337226867676,-0.3472909927368164,0.03357269987463951,0.037960588932037354,0.013764351606369019
1.21607358469719,0.1352371594110019,-0.22774929101455157,0.30721166729927063,0.4176105856895447,-0.13000059127807617,0.04682895541191101,-0.9377428293228149,-0.34415924549102783,0.0340273380279541,0.03546011447906494,-0.0033597350120544434
1.2189683170898964,0.14333714605227335,-0.23217580937333213,0.3073789179325104,0.3661743402481079,-0.09141672402620316,0.04922708496451378,-0.938744306564331,-0.3410803973674774,0.041745781898498535,0.02819138765335083,-0.024047255516052246
1.2219502965849043,0.15007615853270806,-0.2357645861596365,0.3201718032360077,0.3019598424434662,-0.06865587085485458,0.05110573396086693,-0.9397677779197693,-0.337971568107605,0.04659628868103027,0.020090103149414062,-0.027888476848602295
1.2250922234510049,0.1559558822174588,-0.23905365466585815,0.331209272146225,0.25546693801879883,-0.05840643122792244,0.05263310670852661,-0.9408370852470398,-0.3347465395927429,0.0464421771466732,0.023783981800079346,-0.03250202536582947
1.2282127696080551,0.16143044707744642,-0.2422474243782065,0.3156357407569885,0.23398107290267944,-0.05769839137792587,0.05399277061223984,-0.9418899416923523,-0.33155420422554016,0.04543346166610718,0.026301562786102295,-0.031177759170532227
1.2311425931197992,0.1667281684827452,-0.24558218237171095,0.30148154497146606,0.19639241695404053,-0.06581970304250717,0.05529029667377472,-0.9428700804710388,-0.3285408914089203,0.03981772065162659,0.020003318786621094,-0.025096893310546875
1.2338743704047508,0.1718543062268845,-0.24902097030279927,0.2747211754322052,0.18023034930229187,-0.06274545192718506,0.05653304234147072,-0.9437766671180725,-0.32571423053741455,0.03796461969614029,0.021306514739990234,-0.024825960397720337
1.2363544124426924,0.17608785077013897,-0.2516390754528826,0.23890751600265503,0.1717098355293274,-0.01756598986685276,0.057501256465911865,-0.9445936679840088,-0.3231665790081024,0.03580624610185623,0.03217899799346924,-0.016112715005874634
1.2385116287331335,0.17854428521029883,-0.25235523307038843,0.1914757490158081,0.18470801413059235,0.04974529892206192,0.05793282762169838,-0.945299506187439,-0.32101795077323914,0.03221610188484192,0.03811877965927124,-0.004040122032165527
1.240239728282876,0.17885831144225095,-0.25068856025540764,0.13028456270694733,0.19120346009731293,0.1163586750626564,0.05774293839931488,-0.94586181640625,-0.31939181685447693,0.021328091621398926,0.035339415073394775,0.009882450103759766
1.2413834534437223,0.17678362636876596,-0.24662485789732005,0.04222802072763443,0.15303485095500946,0.17726942896842957,0.056889861822128296,-0.9462324380874634,-0.31844562292099,0.017511993646621704,0.031086623668670654,0.020853400230407715
1.2418249632703824,0.1723278676891493,-0.2409423158261573,-0.010079126805067062,0.027260947972536087,0.19467425346374512,0.055398713797330856,-0.9463751912117004,-0.31828418374061584,0.05263349413871765,0.028879523277282715,0.05429184436798096
1.2420559650168812,0.16671560751775644,-0.23523883440831483,-0.002221427857875824,-0.06839833408594131,0.169112890958786,0.05357537418603897,-0.9464497566223145,-0.3183750510215759,0.12096989899873734,0.020515859127044678,-0.038787513971328735
1.2425462666990648,0.16110661114602062,-0.23075890375508135,0.05527595430612564,-0.20529626309871674,0.13619329035282135,0.05171423405408859,-0.9466079473495483,-0.3182118833065033,0.09150474518537521,0.002379000186920166,-0.06637069582939148
1.2436465587364962,0.15541859910945394,-0.22740170533560516,0.12277913838624954,-0.2914499342441559,0.10595648735761642,0.049742210656404495,-0.9469621181488037,-0.31747204065322876,0.05894613265991211,-0.009718179702758789,-0.08297967910766602
1.2451132888007288,0.15043756864523794,-0.2255898620913598,0.1435648500919342,-0.3570587635040283,0.04950093850493431,0.04795205220580101,-0.9474323987960815,-0.3163422644138336,0.016378995031118393,0.0010518431663513184,-0.07660207152366638
1.2464370118913153,0.1467779355491882,-0.2258052288754849,0.11343035101890564,-0.4117030203342438,-0.024162814021110535,0.04661057889461517,-0.9478551149368286,-0.315274715423584,-0.006937742233276367,0.012292981147766113,-0.04587036371231079
1.24712356748716,0.14434934362095528,-0.22795318234785447,0.041250430047512054,-0.4803747832775116,-0.08460511267185211,0.04575114697217941,-0.94807368516922,-0.31474295258522034,0.00043720006942749023,0.02363520860671997,-0.00843822956085205
1.2468766822606687,0.1418549840625291,-0.2307523074598764,-0.06945455074310303,-0.548616886138916,-0.09013868868350983,0.044999051839113235,-0.947995126247406,-0.31508803367614746,0.023863855749368668,0.04421699047088623,0.009927421808242798
1.2454823731990374,0.1375943397368268,-0.23251595313328544,-0.19460955262184143,-0.6354013085365295,-0.05188397690653801,0.043837375938892365,-0.9475504159927368,-0.3165855407714844,0.034394439309835434,0.05399584770202637,0.03239056468009949
1.2429014848227897,0.13033358643796145,-0.23204415060620293,-0.3180792033672333,-0.7273208498954773,0.016872847452759743,0.0418553352355957,-0.9467223882675171,-0.31931960582733154,0.04583689942955971,0.048910439014434814,0.037291377782821655
1.2392301039624443,0.1196187865039121,-0.22912317716357397,-0.4277244508266449,-0.8600914478302002,0.07816549390554428,0.038846056908369064,-0.9455336332321167,-0.32319843769073486,0.05429357290267944,0.031913697719573975,0.019472181797027588
1.2347443019197553,0.10600534443926114,-0.22458857388227718,-0.48865073919296265,-0.9969552159309387,0.11066209524869919,0.034891169518232346,-0.9440639019012451,-0.3279115855693817,0.04898637533187866,0.014681577682495117,-0.01831042766571045
1.2297653514144196,0.09089827062543696,-0.2197999996765115,-0.5283369421958923,-1.1142020225524902,0.10270456969738007,0.030359890311956406,-0.9424103498458862,-0.33307814598083496,0.03456622362136841,-0.0024901628494262695,-0.06653428077697754
1.224286696811693,0.07546542115626911,-0.2159137855127897,-0.5779402256011963,-1.2227952480316162,0.06165853515267372,0.025605017319321632,-0.9405638575553894,-0.33865034580230713,0.013075977563858032,-0.021197617053985596,-0.09866654872894287
1.2183784423013857,0.061425230665268914,-0.21417147661869973,-0.6058717370033264,-1.2370308637619019,-0.02781115658581257,0.021188702434301376,-0.9385408759117126,-0.34451717138290405,-0.021997451782226562,-0.023952960968017578,-0.11135447025299072
1.2121720491660712,0.05047493556545695,-0.2154681280185822,-0.6255949139595032,-1.184916377067566,-0.12686192989349365,0.01770850084722042,-0.9363805651664734,-0.35053953528404236,-0.04763099551200867,-0.013631701469421387,-0.11088636517524719
1.2056147361354528,0.04249185771516265,-0.2192973191346112,-0.6724809408187866,-1.1230448484420776,-0.20225097239017487,0.015170068480074406,-0.9340589046478271,-0.3567962944507599,-0.04310894012451172,0.0002669095993041992,-0.10552975535392761
1.1983654486768776,0.03651685006345766,-0.22486985003946433,-0.7594340443611145,-1.1126042604446411,-0.25054818391799927,0.013284827582538128,-0.9314455389976501,-0.3636382222175598,-0.02785700559616089,0.002414226531982422,-0.09456801414489746
1.1900725029875354,0.031068607702835364,-0.23118793858143974,-0.8818163871765137,-1.147706151008606,-0.2666701376438141,0.011543010361492634,-0.9283959269523621,-0.37141337990760803,-0.0065076351165771484,-0.0049842000007629395,-0.07942283153533936
1.1804499089047764,0.025148271813138192,-0.23749426793700423,-1.0221277475357056,-1.1985727548599243,-0.25581422448158264,0.009568131528794765,-0.9247773289680481,-0.3803885281085968,0.002333730459213257,-0.015240371227264404,-0.06426787376403809
1.1695346727448677,0.018015631209821078,-0.24298752300134016,-1.1375582218170166,-1.230137825012207,-0.20901261270046234,0.0070361667312681675,-0.9205689430236816,-0.3905167281627655,0.0004253685474395752,-0.017266690731048584,-0.06471401453018188
1.1576286345225377,0.009424785591188608,-0.2472734797501972,-1.227383017539978,-1.265941858291626,-0.16601718962192535,0.0037841121666133404,-0.9158535599708557,-0.401494562625885,-0.006637543439865112,-0.008859515190124512,-0.07654809951782227
1.1449816712270187,0.00020586076851852544,-0.25094427329191954,-1.2836871147155762,-1.2340366840362549,-0.14442986249923706,8.503343269694597e-05,-0.9107025265693665,-0.41306284070014954,-0.02196618914604187,-0.029025256633758545,-0.08605217933654785
1.1319777541413258,-0.008687638229663388,-0.2543721411067732,-1.3067189455032349,-1.1578648090362549,-0.13154329359531403,-0.0036910721100866795,-0.9052542448043823,-0.4248541593551636,-0.026216179132461548,-0.0437660813331604,-0.11446774005889893
1.1187573045618717,-0.016869816398486673,-0.2575187389755863,-1.3379595279693604,-1.0300991535186768,-0.10329647362232208,-0.0073683965019881725,-0.8995583057403564,-0.4367384612560272,-0.023805320262908936,-0.037544846534729004,-0.13697680830955505
1.1048666154820794,-0.024352365994327153,-0.2599238733677502,-1.4442452192306519,-0.9034369587898254,-0.04417786747217178,-0.010939306579530239,-0.8934043049812317,-0.4491204023361206,-0.015290588140487671,-0.025632500648498535,-0.13478773832321167
1.0895603997922687,-0.03225226829281959,-0.260979814890292,-1.6113317012786865,-0.8619845509529114,0.036556392908096313,-0.014926181174814701,-0.8864235281944275,-0.46263429522514343,-0.009701520204544067,-0.026479244232177734,-0.10828864574432373
1.0726634788780225,-0.04085730874112682,-0.2608083048246102,-1.7409591674804688,-0.8204052448272705,0.09854037314653397,-0.019515622407197952,-0.8784762024879456,-0.47738730907440186,0.00297507643699646,-0.04518401622772217,-0.09327620267868042
1.0551180585685636,-0.049550020514431074,-0.2601985791078378,-1.731162190437317,-0.8152059316635132,0.1147150844335556,-0.0244243536144495,-0.8699584603309631,-0.49251970648765564,0.007746459916234016,-0.06766349077224731,-0.12320300936698914
1.0384235728874562,-0.05830404626539939,-0.25960029091802034,-1.5729315280914307,-0.8121552467346191,0.12622196972370148,-0.02957715094089508,-0.8616051077842712,-0.5067166090011597,0.011114003136754036,-0.07128661870956421,-0.17753326892852783
1.023855718240298,-0.06704162273441833,-0.25846906838110595,-1.307503581047058,-0.7340316772460938,0.17541800439357758,-0.034840669482946396,-0.8541196584701538,-0.5189083218574524,0.030873358249664307,-0.05663168430328369,-0.24216961860656738
1.0122072861335598,-0.07608455945219131,-0.25609249857403443,-0.9878055453300476,-0.6732839345932007,0.24179404973983765,-0.040285177528858185,-0.8480037450790405,-0.5284569263458252,0.0409107506275177,-0.0344577431678772,-0.2647255063056946
1.0034642243264669,-0.08589759600228032,-0.2521809668305877,-0.7270544171333313,-0.6176893711090088,0.31377556920051575,-0.04610325023531914,-0.8433376550674438,-0.5354027152061462,0.03972506523132324,-0.016510307788848877,-0.21958696842193604
0.9966818715404415,-0.09614014318776944,-0.2469263811609037,-0.5823832154273987,-0.5404595732688904,0.37101754546165466,-0.052132498472929,-0.8396735787391663,-0.5405835509300232,0.032341837882995605,-0.00479358434677124,-0.13333618640899658
0.9906946125240786,-0.10594204997503186,-0.24097133364765255,-0.5484766364097595,-0.4160231053829193,0.3870401978492737,-0.057959239929914474,-0.8364068865776062,-0.5450360774993896,0.01672998070716858,-0.0037114620208740234,-0.05561095476150513
0.9847382146989471,-0.11410057968847945,-0.23534374330124405,-0.5648802518844604,-0.2744193375110626,0.34958937764167786,-0.06297005712985992,-0.8331273198127747,-0.5494849681854248,-0.0071288347244262695,-0.014834046363830566,-0.003539443016052246
0.9787879162282367,-0.11970697820749111,-0.23107460599329202,-0.5476176738739014,-0.12952661514282227,0.25131529569625854,-0.06664051115512848,-0.8298215866088867,-0.5540353059768677,-0.041498564183712006,-0.030819833278656006,0.027927517890930176
0.9735708239700575,-0.12179382460190644,-0.22890722763524687,-0.4405476748943329,0.0812259390950203,0.1120622307062149,-0.0683216005563736,-0.8268990516662598,-0.5581846237182617,-0.06345333904027939,-0.04587310552597046,0.013094961643218994
0.9701116198369157,-0.11977885499068151,-0.22895160710967086,-0.2331521362066269,0.312115341424942,-0.030442722141742706,-0.06753813475370407,-0.824948787689209,-0.5611578226089478,-0.06501498818397522,-0.06431806087493896,-0.04052680730819702
0.9691018087202633,-0.11442862647438024,-0.23060172929368042,0.018740536645054817,0.4698019027709961,-0.12257800996303558,-0.0646299421787262,-0.8243776559829712,-0.5623384118080139,-0.050070375204086304,-0.07326638698577881,-0.07871389389038086
0.9706914017412646,-0.10780540007235763,-0.23257291882991293,0.27025240659713745,0.5132795572280884,-0.12493357807397842,-0.06076298654079437,-0.8252763748168945,-0.5614506006240845,-0.01852169632911682,-0.06832408905029297,-0.09299886226654053
0.9746191755128726,-0.10189526414883396,-0.2335330031932108,0.49170997738838196,0.5050365328788757,-0.05926162749528885,-0.05711352452635765,-0.827488124370575,-0.5585708618164062,0.01045212522149086,-0.06107687950134277,-0.08248138427734375
0.9802887494594081,-0.09745703366660556,-0.23262449531826487,0.629545271396637,0.538998544216156,0.05047845095396042,-0.05417652428150177,-0.8306581974029541,-0.554140567779541,0.017494384199380875,-0.04023712873458862,-0.040448665618896484
0.9866221070404506,-0.0941769057599934,-0.22968246847602364,0.6423172354698181,0.5979491472244263,0.14788788557052612,-0.05186282470822334,-0.8341677784919739,-0.5490667223930359,0.0032330453395843506,-0.012755990028381348,0.025003552436828613
0.9923906394846522,-0.09142250813275046,-0.22542706217480213,0.5290176272392273,0.6625960469245911,0.2039508819580078,-0.04991013929247856,-0.8373352885246277,-0.544406533241272,-0.018540825694799423,0.004846394062042236,0.09851419925689697
0.9964528957185054,-0.08824080637390654,-0.220824471082005,0.3130246102809906,0.7437894344329834,0.2197679877281189,-0.04787760227918625,-0.83954918384552,-0.5411699414253235,-0.021916117519140244,0.009288012981414795,0.161729633808136
0.9981146378558657,-0.08387433214402136,-0.2166465738058204,0.059001121670007706,0.8241742849349976,0.19658011198043823,-0.045397210866212845,-0.8404508233070374,-0.5399829149246216,-0.022992700338363647,0.008816361427307129,0.2023211121559143
0.9975146844398556,-0.07784255228959913,-0.21364583658194233,-0.14063727855682373,0.8734502196311951,0.12771296501159668,-0.042178548872470856,-0.840125560760498,-0.5407494902610779,-0.01592695340514183,0.008628427982330322,0.20372861623764038
0.9954623089130019,-0.06995079196125384,-0.21254613061249175,-0.2430155873298645,0.8768265843391418,0.02134205773472786,-0.03803024813532829,-0.8390105962753296,-0.5427843928337097,0.012715905904769897,0.017553746700286865,0.16038382053375244
0.9930249907393268,-0.06077059967325039,-0.21330710434269562,-0.2369440793991089,0.8214887976646423,-0.06841868162155151,-0.0331699512898922,-0.8376819491386414,-0.5451502203941345,0.04789465665817261,0.028004884719848633,0.10418641567230225
0.9910787213750493,-0.051412221503467845,-0.2151780314088151,-0.15580955147743225,0.7336119413375854,-0.11164311319589615,-0.02815057896077633,-0.8366173505783081,-0.547063946723938,0.07156181335449219,0.03318113088607788,0.06702238321304321
0.9901013558594541,-0.0424358616715211,-0.21748432125532233,-0.04952763020992279,0.6770284175872803,-0.1300835758447647,-0.023273540660738945,-0.8360815644264221,-0.5481111407279968,0.0593758225440979,0.03134840726852417,0.031967341899871826
0.9902108980855355,-0.033694321005823466,-0.220039865292037,0.06175335496664047,0.6367079019546509,-0.15051455795764923,-0.01847829297184944,-0.8361417055130005,-0.5482021570205688,0.01658618450164795,0.02847874164581299,0.010589182376861572
0.9913843486225988,-0.025080043098791933,-0.22309257061503335,0.15956735610961914,0.5708283185958862,-0.19126224517822266,-0.013730685226619244,-0.8367847800254822,-0.5473597645759583,-0.030092567205429077,0.006721973419189453,0.025524377822875977
0.9934499819063634,-0.016283243129214246,-0.22698034363281108,0.23895405232906342,0.5375124216079712,-0.23878982663154602,-0.008887037634849548,-0.837913990020752,-0.5457298755645752,-0.040459901094436646,-0.009101331233978271,0.05282527208328247
0.9963148074013641,-0.006986565939883248,-0.2317667455315012,0.3258485496044159,0.51491379737854,-0.2873433828353882,-0.0037964656949043274,-0.8394741415977478,-0.5433862805366516,-0.019045978784561157,-0.0010408759117126465,0.07054692506790161
1.0000089402486043,0.0029479550213397238,-0.23746338022822455,0.40718284249305725,0.5154557824134827,-0.32535335421562195,0.001592762186191976,-0.8414758443832397,-0.5402923226356506,0.028558582067489624,0.02912849187850952,0.09345394372940063
1.0042244496139214,0.013726874283093292,-0.243786165815707,0.4325481653213501,0.5755700469017029,-0.3425752520561218,0.007367569021880627,-0.8437459468841553,-0.536692202091217,0.09080743789672852,0.06812649965286255,0.12856531143188477
1.008318175443322,0.025323311725800574,-0.25021128810074383,0.38941454887390137,0.6540160775184631,-0.31983211636543274,0.013503078371286392,-0.8459361791610718,-0.5331131815910339,0.1204080581665039,0.09312856197357178,0.17176979780197144
1.0115869467668617,0.03723054624514674,-0.2558799648530662,0.2694607079029083,0.7684575319290161,-0.25696951150894165,0.019746845588088036,-0.8476747870445251,-0.5301485657691956,0.08736982941627502,0.10000944137573242,0.21255207061767578
1.0132095453359753,0.04908331430995156,-0.2599855407488886,0.06707699596881866,0.8915866613388062,-0.16021473705768585,0.025961514562368393,-0.8485345244407654,-0.5285027027130127,0.02510961890220642,0.08814334869384766,0.24786299467086792
1.0126547504751584,0.05994009329625695,-0.2619241208132441,-0.1673109382390976,0.9318962097167969,-0.04614691808819771,0.031725913286209106,-0.8482407927513123,-0.5286597013473511,-0.026873648166656494,0.06903553009033203,0.2668035626411438
1.0097711684798676,0.06847194898334472,-0.26125705663845183,-0.4057176411151886,0.8753876686096191,0.08094445616006851,0.036402344703674316,-0.8467101454734802,-0.5308076739311218,-0.045252442359924316,0.044769287109375,0.26289379596710205
1.0047771149478335,0.07398784294598998,-0.25797142001796985,-0.6011991500854492,0.7715884447097778,0.19627635180950165,0.039641737937927246,-0.8440424799919128,-0.5348091721534729,-0.042083144187927246,0.023836791515350342,0.23875808715820312
0.9983480131971431,0.07638053571356948,-0.2523887195051127,-0.7068012356758118,0.6492023468017578,0.30048078298568726,0.04133448749780655,-0.840577244758606,-0.5401124358177185,-0.02082669734954834,0.009782016277313232,0.19736945629119873
0.9914029420765841,0.07664757458009218,-0.24526258037526527,-0.7260440587997437,0.6072332262992859,0.3548097014427185,0.04192472621798515,-0.836794912815094,-0.5459089279174805,0.0051486194133758545,0.0048094987869262695,0.1459454894065857
0.9844316130821039,0.07692685269772037,-0.23801697026804877,-0.7247020602226257,0.6784634590148926,0.3219391107559204,0.04252447932958603,-0.8329577445983887,-0.551700234413147,0.013398975133895874,0.005549907684326172,0.1226993203163147
0.9771007628689102,0.07935089911582231,-0.23194451854469117,-0.7810380458831787,0.7554159164428711,0.22994916141033173,0.04434455186128616,-0.8288789391517639,-0.5576677918434143,0.007550567388534546,2.1576881408691406e-05,0.18265247344970703
0.969330416988991,0.08266226967763038,-0.22773544417431327,-0.8001388311386108,0.611741304397583,0.12203522026538849,0.046721335500478745,-0.8245069980621338,-0.5639195442199707,0.01193341612815857,-0.0019547343254089355,0.1501469612121582
0.9612654636305951,0.0864869884805553,-0.225204797818433,-0.8211343884468079,0.5572949051856995,0.03274508938193321,0.04945061728358269,-0.8199166655540466,-0.5703431367874146,0.01134037971496582,-0.014540672302246094,0.08361822366714478
0.9531778572720364,0.09058588599175868,-0.2241629088688284,-0.7847108840942383,0.41969022154808044,-0.053415361791849136,0.05238613486289978,-0.8152598738670349,-0.5767208337783813,0.004025574773550034,-0.04043763875961304,0.04206812381744385
0.9458099600236943,0.09420730840339696,-0.22461522774959836,-0.66521155834198,0.23119889199733734,-0.13231094181537628,0.05503791198134422,-0.8109710812568665,-0.582491934299469,0.00898793339729309,-0.05070793628692627,-0.03103351593017578
0.9397586505453844,0.0971861083381665,-0.2264228439318578,-0.512485146522522,0.07087766379117966,-0.19514955580234528,0.05724792927503586,-0.8074157238006592,-0.5871989130973816,0.008334308862686157,-0.07651060819625854,-0.052495360374450684
0.9353474455371524,0.09932442034757488,-0.22948032291456252,-0.32358771562576294,-0.14684481918811798,-0.24387076497077942,0.058856021612882614,-0.804805338382721,-0.5906135439872742,0.010266274213790894,-0.08705556392669678,-0.03286057710647583
