attitudeX,attitudeY,attitudeZ,gyroX,gyroY,gyroZ,gravityX,gravityY,gravityZ,accX,accY,accZ
0.7567139069902307,0.06186766069062468,0.19886556958838955,0.17126081883907318,-0.14381279051303864,-0.04388564079999924,0.04495503753423691,-0.6865358352661133,-0.7257049083709717,-0.0056177228689193726,-0.02862834930419922,-0.07965391874313354
0.7584040071502208,0.061312207753605505,0.19809819211714721,0.1690123975276947,-0.07632411271333694,-0.04359503835439682,0.04448077455163002,-0.6877637505531311,-0.724570631980896,-0.006501473486423492,-0.022258281707763672,-0.076271653175354
0.7600320226572612,0.061198126404977356,0.19743900866269418,0.15575571358203888,-0.05331946164369583,-0.025502322241663933,0.044329576194286346,-0.6889446377754211,-0.7234571576118469,0.009305238723754883,-0.012257754802703857,-0.041389644145965576
0.7615920016498052,0.06076778927493606,0.19715504992412747,0.14871741831302643,-0.08187118172645569,0.014370506629347801,0.04395292326807976,-0.6900745034217834,-0.7224025726318359,0.03165455907583237,-0.019978046417236328,-0.019937515258789062
0.7630281612948705,0.059788067994046,0.19745848084775486,0.13303272426128387,-0.07278261333703995,0.05322709307074547,0.04318588599562645,-0.6911131739616394,-0.7214552164077759,0.03716706857085228,-0.02476823329925537,-0.013072371482849121
0.7642010018847067,0.05855604196220562,0.19839712809074203,0.09758145362138748,-0.04394632205367088,0.0979742631316185,0.04224953427910805,-0.6919603943824768,-0.7206981778144836,0.03502115234732628,-0.014979362487792969,0.013010859489440918
0.7649543258833902,0.057069739086898254,0.2000813925497167,0.045690298080444336,-0.02045617252588272,0.15021829307079315,0.04114856570959091,-0.6925040483474731,-0.720239520072937,0.023976106196641922,-0.002549111843109131,0.05335420370101929
0.7651838460864163,0.055190088619610146,0.20243091488614462,-0.010349918156862259,-0.032358817756175995,0.18789997696876526,0.039785925298929214,-0.6926696300506592,-0.7201568484306335,0.009835831820964813,0.009548842906951904,0.07097172737121582
0.7649155888801187,0.052806256605176884,0.20525155599029696,-0.05755151808261871,-0.05379167199134827,0.21563678979873657,0.03807888925075531,-0.6924760937690735,-0.7204352021217346,0.03221851587295532,0.02586531639099121,0.051322102546691895
0.764318807195454,0.04995712455798764,0.20859834827343102,-0.07732265442609787,-0.0489143542945385,0.26709601283073425,0.03604675084352493,-0.6920454502105713,-0.7209534049034119,0.0616859532892704,0.039335429668426514,0.01723337173461914
0.7637285807899571,0.04665219408303702,0.21287402759456742,-0.06658531725406647,-0.018377486616373062,0.3500377833843231,0.03368290141224861,-0.6916192770004272,-0.7214764952659607,0.05715284124016762,0.04437190294265747,-0.01569080352783203
0.7633792017226965,0.04282182265091574,0.21838430461662772,-0.03822364658117294,0.006830546073615551,0.44923657178878784,0.030929477885365486,-0.6913668513298035,-0.72184157371521,0.04110743850469589,0.03841274976730347,-0.024984538555145264
0.7633838240940916,0.03833149102941194,0.2251339500895183,-0.0030645965598523617,0.022121617570519447,0.5329157710075378,0.02768774889409542,-0.6913701891899109,-0.7219700217247009,0.03507182002067566,0.027170300483703613,-0.026473581790924072
0.7637710731574414,0.033419421526055086,0.23282352581065519,0.03527238219976425,0.046832676976919174,0.5826951265335083,0.02413211390376091,-0.6916499733924866,-0.7218296527862549,0.04001601040363312,-0.0008854866027832031,-0.030169188976287842
0.7644920625343263,0.028448826224137604,0.24073688065797783,0.07401738315820694,0.06213626265525818,0.5593959093093872,0.020529717206954956,-0.6921705007553101,-0.7214420437812805,0.0008022431284189224,-0.04771298170089722,-0.03684341907501221
0.7654521364871737,0.024176409086694262,0.24814180758025994,0.08671989291906357,0.10858945548534393,0.5144739151000977,0.017431167885661125,-0.6928631067276001,-0.7208585143089294,0.0067999474704265594,-0.10392040014266968,-0.03468036651611328
0.7663581860507663,0.02056541455873946,0.25483601113791504,0.06993931531906128,0.07977379113435745,0.45690885186195374,0.014815127477049828,-0.6935161352157593,-0.7202888131141663,-0.011686895973980427,-0.147441565990448,0.002256035804748535
0.7670335512280851,0.016565087775956167,0.26071053861387394,0.05313209816813469,-0.08800115436315536,0.3979872167110443,0.011925864964723587,-0.6940025091171265,-0.7198739051818848,-0.07044316828250885,-0.1689431071281433,0.023188114166259766
0.7675525388114202,0.011361996227938839,0.26569818482000673,0.038849566131830215,-0.23981279134750366,0.3099207580089569,0.00817605759948492,-0.6943761110305786,-0.7195659279823303,-0.09742454439401627,-0.19302940368652344,0.016974985599517822
0.7677984855194944,0.00687952627297087,0.2688630267502602,0.005391413811594248,-0.19714771211147308,0.1445988118648529,0.004949377849698067,-0.6945530772209167,-0.7194244861602783,-0.08737718313932419,-0.259579062461853,-0.01812434196472168
0.767550237605618,0.004414779501240356,0.26981658966949185,-0.06570806354284286,-0.18124569952487946,0.002098661381751299,0.0031769261695444584,-0.6943744421005249,-0.719606876373291,-0.042529165744781494,-0.2753826379776001,-0.013440549373626709
0.7663657735223932,0.0026999635518298102,0.26939833546719266,-0.17302294075489044,-0.21735292673110962,-0.05041976273059845,0.0019451482221484184,-0.6935216188430786,-0.720433235168457,0.008842967450618744,-0.27875322103500366,-0.00037670135498046875
0.7640954976351064,0.0011305528391150415,0.26887327273884726,-0.2872781753540039,-0.15273931622505188,-0.015411176718771458,0.0008162686135619879,-0.6918842196464539,-0.7220080494880676,0.024650802835822105,-0.2888897657394409,-0.016914010047912598
0.7604229081943196,-1.550180478507605e-05,0.269390322009902,-0.4477826654911041,-0.025524700060486794,0.08633293211460114,-1.1231750249862671e-05,-0.6892279386520386,-0.7245447039604187,0.0184287428855896,-0.22263741493225098,-0.0375707745552063
0.7556538095484915,-0.0009713668457351383,0.27099267540104593,-0.48209747672080994,0.054070793092250824,0.1503116488456726,-0.0007069834391586483,-0.6857646703720093,-0.7278230786323547,-0.041407108306884766,-0.244304358959198,-0.07234781980514526
0.7514648721723112,-0.002458791941233753,0.27381138817020323,-0.3384164869785309,0.0014517595991492271,0.27497395873069763,-0.0017966119339689612,-0.6827098727226257,-0.7306874394416809,0.010875750333070755,-0.24281209707260132,-0.1773325800895691
0.7494789413811008,-0.006856770855220725,0.2786866366482073,-0.03856959193944931,-0.23175539076328278,0.442542165517807,-0.005019418429583311,-0.681257426738739,-0.7320267558097839,0.11804143339395523,-0.21766841411590576,-0.3018934726715088
0.7511018332121631,-0.014982466525375613,0.2856797306260048,0.3855009377002716,-0.4215344190597534,0.5720265507698059,-0.010950836353003979,-0.6824445724487305,-0.730855405330658,0.05468267947435379,-0.2658435106277466,-0.39661645889282227
0.7570645031783553,-0.025286827026464235,0.29421157038840856,0.8268572688102722,-0.4642784297466278,0.6432506442070007,-0.01837790384888649,-0.6867907047271729,-0.7266228795051575,-0.04583091288805008,-0.33441901206970215,-0.5096136331558228
0.7668420005778737,-0.03637013380573871,0.3036452739171105,1.153606653213501,-0.444129079580307,0.6536746025085449,-0.026184560731053352,-0.6938645839691162,-0.7196293473243713,-0.04728633165359497,-0.37412863969802856,-0.5336818099021912
0.7790958506141102,-0.04695341430312435,0.31311927623088853,1.338388204574585,-0.3425459861755371,0.5955281853675842,-0.03339738771319389,-0.7026363611221313,-0.71076500415802,-0.05807889252901077,-0.4252476096153259,-0.4961899518966675
0.7925388124046907,-0.0558736595671852,0.3219311209822131,1.4033342599868774,-0.1862494796514511,0.5131781101226807,-0.039205119013786316,-0.7121379375457764,-0.7009441256523132,-0.07619695365428925,-0.5100606679916382,-0.456953763961792
0.8062145451667478,-0.06218609966092164,0.32984525460372094,1.3902983665466309,0.05930514633655548,0.4270288944244385,-0.043019670993089676,-0.7216719388961792,-0.6908972263336182,-0.06508870422840118,-0.5621721148490906,-0.45436638593673706
0.8197980913934247,-0.06561861487197047,0.3365288185623762,1.395432710647583,0.21357615292072296,0.3140413761138916,-0.04474397376179695,-0.7310080528259277,-0.6809003353118896,-0.06165540590882301,-0.577738344669342,-0.47048211097717285
0.8339988590906783,-0.06658500214069915,0.34158204273707626,1.4973598718643188,0.338149756193161,0.1843036264181137,-0.04470670968294144,-0.740624189376831,-0.6704305410385132,-0.06959670782089233,-0.5926735401153564,-0.48603302240371704
0.8492620595816303,-0.06529850975527893,0.34525492748567327,1.5817615985870361,0.43025752902030945,0.11009188741445541,-0.043101467192173004,-0.7507931590080261,-0.6591297388076782,-0.05870500206947327,-0.5934299230575562,-0.5217479467391968
0.8657493563591551,-0.06409102716853221,0.3482456177481208,1.7582929134368896,0.28100013732910156,0.07174237072467804,-0.041507020592689514,-0.7615811228752136,-0.6467390656471252,-0.039852675050497055,-0.5929569005966187,-0.55193030834198
0.8843374561081997,-0.06359184135744164,0.35096443055047016,1.980028510093689,0.23567497730255127,0.03677188232541084,-0.04027748480439186,-0.7734952569007874,-0.6325210332870483,-0.021856140345335007,-0.6220278739929199,-0.5970168709754944
0.9051747686386096,-0.06381051647134547,0.35326578023206606,2.2063205242156982,0.05460425466299057,-0.01187235489487648,-0.03937933221459389,-0.7865331172943115,-0.616291344165802,-0.02962075173854828,-0.5999263525009155,-0.6349292993545532
0.9283786108013459,-0.0662694838232847,0.35545878402814984,2.451669931411743,-0.19233977794647217,-0.017776302993297577,-0.03967517241835594,-0.8006495833396912,-0.5978177785873413,-0.009412191808223724,-0.5653325319290161,-0.6778779029846191
0.9540703915228879,-0.07145193478993253,0.35820471584686586,2.704422950744629,-0.3974034786224365,-0.014310730621218681,-0.041290320456027985,-0.8157764673233032,-0.5768917202949524,0.020141813904047012,-0.5282635688781738,-0.7369052171707153
0.9822246068807288,-0.07910450083086144,0.3615714952723655,2.948457956314087,-0.5755264163017273,-0.033328983932733536,-0.0438709631562233,-0.8317344784736633,-0.5534377694129944,0.03949185833334923,-0.46169227361679077,-0.7646774649620056
1.0127896368075566,-0.0888250079894615,0.3653733850583697,3.1918323040008545,-0.7359930276870728,-0.07012934237718582,-0.04697070270776749,-0.848312258720398,-0.5274089574813843,0.054722316563129425,-0.4068910479545593,-0.7599902749061584
1.045861533574662,-0.10070113040763688,0.3697199100164694,3.4500651359558105,-0.8937199115753174,-0.1064353883266449,-0.05038178339600563,-0.8653566241264343,-0.4986177086830139,0.05480698123574257,-0.34452807903289795,-0.7632077932357788
1.0815837868959048,-0.1151840328927131,0.375377574947202,3.7254953384399414,-1.0108059644699097,-0.11391833424568176,-0.05400894582271576,-0.8827031850814819,-0.466817170381546,0.06310334801673889,-0.2510249614715576,-0.7715098261833191
1.119880373145465,-0.1329043568720953,0.3834256993262031,3.970999002456665,-1.094346046447754,-0.11364787071943283,-0.057748064398765564,-0.9000483155250549,-0.43194711208343506,0.0499814935028553,-0.15830141305923462,-0.7554460167884827
1.1601837215708648,-0.15385778391746235,0.39436428973469323,4.141720771789551,-1.0996317863464355,-0.1360301375389099,-0.061173588037490845,-0.9168764352798462,-0.3944559395313263,-0.0007006600499153137,-0.08152145147323608,-0.716917872428894
1.201592203097318,-0.17766974568407362,0.4086742314172292,4.205643177032471,-1.0091586112976074,-0.15553700923919678,-0.06377952545881271,-0.9326148629188538,-0.35519278049468994,-0.03656210005283356,-0.004992067813873291,-0.6566479206085205
1.2429443376288831,-0.20460763001021026,0.42739137046887177,4.161412715911865,-0.8548292517662048,-0.1592385321855545,-0.06542709469795227,-0.946736216545105,-0.3152937889099121,-0.054125383496284485,0.06801283359527588,-0.5746750831604004
1.283353051481199,-0.23540236085968966,0.45170558470943,4.057459354400635,-0.6743165850639343,-0.17059116065502167,-0.06612235307693481,-0.9589718580245972,-0.27568304538726807,-0.07364800572395325,0.11810564994812012,-0.5095799565315247
1.3225016060686416,-0.27124783447554257,0.4826224273865126,3.947364330291748,-0.5366811752319336,-0.2119860053062439,-0.06584533303976059,-0.9693329334259033,-0.23676684498786926,-0.10976792871952057,0.15886211395263672,-0.47821423411369324
1.3604662971424824,-0.31353813657558294,0.5212531049251572,3.839808464050293,-0.3949110507965088,-0.30129149556159973,-0.06439416855573654,-0.977962076663971,-0.1986045241355896,-0.14854209125041962,0.1908373236656189,-0.4543037414550781
1.3972153862604884,-0.3638208869149046,0.5690857730218198,3.7052454948425293,-0.27915486693382263,-0.42273271083831787,-0.06145896762609482,-0.9849725961685181,-0.161406472325325,-0.15509361028671265,0.23056268692016602,-0.39889615774154663
1.4325204936294553,-0.42678999987173455,0.6302859020409302,3.552861452102661,-0.2312248945236206,-0.5409948825836182,-0.05705747753381729,-0.9904550909996033,-0.1254723221063614,-0.15598557889461517,0.2933114767074585,-0.33703678846359253
1.4662919745260476,-0.5148398437599665,0.7166578148072976,3.4244840145111084,-0.23366354405879974,-0.6616722941398621,-0.05136438459157944,-0.9945443868637085,-0.09079308807849884,-0.17597615718841553,0.34326863288879395,-0.3020748496055603
1.4983118745039197,-0.6580566532451186,0.8581439520475662,3.2864346504211426,-0.21154801547527313,-0.7943140864372253,-0.044292230159044266,-0.9973741769790649,-0.057299453765153885,-0.1905708760023117,0.3994431495666504,-0.28063690662384033
1.526899983625349,-0.9555763195974044,1.154434133684196,3.1130270957946777,-0.1213022768497467,-0.9109751582145691,-0.03583685681223869,-0.9990367293357849,-0.025326525792479515,-0.18326392769813538,0.47761332988739014,-0.25421440601348877
1.54407430067859,-1.7481136713741967,1.9468846677360037,2.9028875827789307,0.02636551298201084,-0.9976531863212585,-0.02630816213786602,-0.9996429681777954,0.004714406561106443,-0.18221831321716309,0.5522856116294861,-0.2201530933380127
1.5345134478244005,-2.681458556661979,2.8818225057484432,2.672576904296875,0.21756663918495178,-1.0464718341827393,-0.016111018136143684,-0.9993418455123901,0.032507073134183884,-0.16372892260551453,0.6209237575531006,-0.17932701110839844
1.5124596756793462,-3.0421116167210145,-3.0371776032132733,2.4522945880889893,0.4063367545604706,-1.0464613437652588,-0.005790841765701771,-0.9982988834381104,0.05801835656166077,-0.13710755109786987,0.6921769380569458,-0.13000917434692383
1.4891849474043786,3.09175952288495,-2.8827828354220033,2.2526822090148926,0.53141850233078,-0.9922279119491577,0.004060819745063782,-0.9966716170310974,0.0814208835363388,-0.10118284821510315,0.7595652341842651,-0.056167490780353546
1.4668522142947469,3.0163729468950002,-2.801350358772492,2.071922779083252,0.6048506498336792,-0.9008933305740356,0.012958768755197525,-0.9946026802062988,0.10294678807258606,-0.056476663798093796,0.8052256107330322,0.021809235215187073
1.4459362708950607,2.9750492665784316,-2.753432002681041,1.9164676666259766,0.6517206430435181,-0.7931051254272461,0.020645208656787872,-0.992215096950531,0.12281471490859985,-0.01042165607213974,0.8366667628288269,0.10205413401126862
1.4264903908896867,2.952289760086834,-2.723623797075785,1.778877854347229,0.7131128311157227,-0.686966598033905,0.02706056460738182,-0.9896059632301331,0.14123685657978058,0.03785049915313721,0.8484469056129456,0.1783890426158905
1.4084692477700924,2.941093986325877,-2.7046386330632037,1.6508961915969849,0.7972053289413452,-0.5814681053161621,0.032187096774578094,-0.986853837966919,0.1583782583475113,0.10929255187511444,0.8248359560966492,0.26129961013793945
1.391909749509919,2.9384576648897656,-2.694100677749143,1.5282443761825562,0.7259763479232788,-0.42870399355888367,0.035896655172109604,-0.9840424060821533,0.1742759644985199,0.19240553677082062,0.7859680652618408,0.36625146865844727
1.3768494245999077,2.942529848851978,-2.6923542747421423,1.4190130233764648,0.41230738162994385,-0.23628155887126923,0.0381133109331131,-0.9812511801719666,0.18892806768417358,0.22899198532104492,0.7580607533454895,0.4297701120376587
1.3630535484934894,2.950411807803494,-2.698060285977886,1.3406014442443848,0.057958535850048065,-0.08420249074697495,0.03919190168380737,-0.9784989356994629,0.20249542593955994,0.21079300343990326,0.7514784932136536,0.38554802536964417
1.3501197499350457,2.9592974678526227,-2.707696580857066,1.2817636728286743,-0.1382589042186737,-0.0009677889756858349,0.039682041853666306,-0.9757495522499084,0.2152635008096695,0.16887526214122772,0.7806658744812012,0.26323699951171875
1.3379546593764668,2.9683547814111013,-2.7184252677926812,1.1979026794433594,-0.11495038866996765,0.04138672351837158,0.03977397456765175,-0.9730146527290344,0.22729027271270752,0.09966100752353668,0.8392102122306824,0.16775988042354584
1.3268626346084558,2.9777619492250498,-2.7283738108729274,1.0673142671585083,0.074858158826828,0.047302134335041046,0.039392050355672836,-0.9703953862190247,0.23828856647014618,0.03822958469390869,0.8995029330253601,0.13384294509887695
1.3171682744839783,2.987566194612019,-2.7366003254967763,0.915084958076477,0.28907525539398193,0.05073035508394241,0.03849545121192932,-0.9680084586143494,0.24794794619083405,0.013415113091468811,0.9498808979988098,0.1427229642868042
1.308983496242857,2.9982986171940595,-2.7437743086174464,0.7599872350692749,0.4670415222644806,0.06884117424488068,0.03696245327591896,-0.9659223556518555,0.25618037581443787,-0.014257203787565231,0.9844768047332764,0.18876603245735168
1.3023970804265579,3.009616870499155,-2.749947145701771,0.5892055630683899,0.6017299890518188,0.06998398900032043,0.0348970852792263,-0.9641966223716736,0.26288339495658875,-0.03700261563062668,1.0029842853546143,0.2622784674167633
1.2976014881011875,3.0205859704473945,-2.7546776029790583,0.39806675910949707,0.675450325012207,0.06268346309661865,0.03256918489933014,-0.9629138112068176,0.2678369879722595,-0.03858098015189171,1.0046007633209229,0.3540656566619873
1.294706793221243,3.0303190827221824,-2.7578640973010593,0.19417649507522583,0.6429223418235779,0.039631184190511703,0.030270105227828026,-0.962128758430481,0.27090951800346375,-0.03335222229361534,0.9804546236991882,0.44262203574180603
1.2939034081838197,3.0367765457177884,-2.7586415897088408,-0.034473732113838196,0.48562994599342346,-0.01706431806087494,0.028601069003343582,-0.9619094729423523,0.2718690037727356,-0.027487006038427353,0.9591168165206909,0.5252501964569092
1.2954250600534043,3.0377637038630736,-2.7558215692644774,-0.2861766219139099,0.2541552484035492,-0.10977830737829208,0.028180887922644615,-0.962324321269989,0.2704404294490814,-0.03710712119936943,0.949338972568512,0.5713413953781128
1.2993511805396742,3.031497592408273,-2.747771488065263,-0.5421245098114014,0.048269983381032944,-0.23694317042827606,0.02945953980088234,-0.9633844494819641,0.2665007710456848,-0.047342684119939804,0.9396570324897766,0.5560396313667297
1.3057207660586148,3.018386046906935,-2.7343662560367377,-0.8096239566802979,-0.07291819900274277,-0.3130955100059509,0.03219638764858246,-0.9650726914405823,0.2599966824054718,-0.03846757486462593,0.9628143310546875,0.5133341550827026
1.3146853993112695,3.000815468262106,-2.7170965766058157,-1.0863335132598877,-0.09146871417760849,-0.33103907108306885,0.03554420545697212,-0.9673824906349182,0.25081539154052734,-0.02405417338013649,1.0134484767913818,0.4581538736820221
1.3261886125615159,2.9802572540703975,-2.6965889749739276,-1.3406882286071777,-0.040344927459955215,-0.32495301961898804,0.03890233859419823,-0.9702324271202087,0.2390313595533371,-0.0173567533493042,1.0491812229156494,0.39559710025787354
1.33993332389002,2.9575092937253764,-2.6731937027189483,-1.5567848682403564,0.03895042836666107,-0.2858985662460327,0.04188411310315132,-0.9734693169593811,0.2249520868062973,-0.006987117230892181,1.0845837593078613,0.34529948234558105
1.355478227900937,2.9329546697271107,-2.647221572718577,-1.7136380672454834,0.11471700668334961,-0.23256738483905792,0.04425477236509323,-0.9769085049629211,0.2090260237455368,0.010844901204109192,1.1008553504943848,0.3088727295398712
1.3722920557300797,2.9067429769459925,-2.618958731288261,-1.827851414680481,0.16961699724197388,-0.15784254670143127,0.04588887840509415,-0.9803626537322998,0.19179120659828186,0.03971308842301369,1.0893406867980957,0.30103734135627747
1.390285326603638,2.878639679602878,-2.588776280222661,-1.9504241943359375,0.12454978376626968,-0.0574110746383667,0.04666655510663986,-0.9837520718574524,0.17336176335811615,0.08259083330631256,1.0649135112762451,0.3442012071609497
1.4097025069037092,2.847015048805725,-2.5560025381402287,-2.0996809005737305,0.0006989435642026365,0.05539004132151604,0.04656931012868881,-0.9870524406433105,0.15348899364471436,0.12904424965381622,1.0286784172058105,0.3960716724395752
1.430828274678843,2.809062797631492,-2.518535980371876,-2.275815725326538,-0.18497660756111145,0.18230456113815308,0.04554203152656555,-0.9902204275131226,0.1318705826997757,0.15508069097995758,1.0073254108428955,0.4294241666793823
1.4538932446906834,2.7599513176673938,-2.4718174579682555,-2.4746146202087402,-0.3643953800201416,0.303010493516922,0.04344106838107109,-0.9931746125221252,0.10824622958898544,0.14946070313453674,1.0131635665893555,0.4228665828704834
1.4789536205954075,2.686057393711605,-2.4018863966257733,-2.706098794937134,-0.5011627674102783,0.3999840021133423,0.04034882411360741,-0.9957854151725769,0.08236129581928253,0.13621076941490173,1.0275542736053467,0.38792991638183594
1.5056996933861635,2.5506808366828744,-2.2716625689937873,-2.9434101581573486,-0.6071571111679077,0.5037671327590942,0.036241114139556885,-0.9978819489479065,0.05402050167322159,0.13394033908843994,1.0379821062088013,0.33138608932495117
1.5320595933539098,2.2224552440844803,-1.9496837276485008,-3.1268956661224365,-0.7303617000579834,0.6502604484558105,0.030790889635682106,-0.9992498159408569,0.02348807081580162,0.13287502527236938,1.0305609703063965,0.24000084400177002
1.546062661886437,1.2229459961189455,-0.9578616596730235,-3.217944622039795,-0.895599901676178,0.8812693953514099,0.02325613610446453,-0.9996941089630127,-0.008432541973888874,0.11979515850543976,1.0210715532302856,0.11779236793518066
1.5278578952619557,0.30744145271735507,-0.051688449385459925,-3.256218910217285,-1.0550310611724854,1.1218411922454834,0.012991673313081264,-0.9990782737731934,-0.0409175306558609,0.09168379008769989,0.9844143390655518,-0.0023410357534885406
1.4970934625709893,0.003752806690407484,0.24108501910785363,-3.2982051372528076,-1.2217146158218384,1.2864210605621338,0.00027634022990241647,-0.9972851872444153,-0.07363526523113251,0.03544464707374573,0.9076398015022278,-0.08884023874998093
1.4632933033333202,-0.1305222153548866,0.3633458542842954,-3.2942869663238525,-1.2501922845840454,1.335839867591858,-0.01396506279706955,-0.9942271113395691,-0.1063854843378067,-0.06116906553506851,0.8205055594444275,-0.22587455809116364
1.4291467837751528,-0.20044012633487712,0.42209534695807455,-3.2069904804229736,-1.054160714149475,1.2109259366989136,-0.028108490630984306,-0.9899844527244568,-0.13835076987743378,-0.1961345225572586,0.735254168510437,-0.42269957065582275
1.3958119969795397,-0.23275025963803259,0.445814821168774,-3.167764902114868,-0.7070317268371582,0.951200544834137,-0.04015549644827843,-0.9847292900085449,-0.16939939558506012,-0.27580809593200684,0.6572449207305908,-0.493121862411499
1.3627590047126736,-0.2407398931855415,0.4485489014416543,-3.2636189460754395,-0.38048797845840454,0.7204573154449463,-0.04924367368221283,-0.9784381985664368,-0.20058438181877136,-0.22251522541046143,0.5763232111930847,-0.42874908447265625
1.328595976086546,-0.23814090595989493,0.44249594641041456,-3.454314947128296,-0.31084373593330383,0.6680437922477722,-0.05657724291086197,-0.9708126187324524,-0.23307065665721893,-0.1293204128742218,0.4875667095184326,-0.3448711633682251
1.2926734544017027,-0.2369779119326495,0.43768589895061066,-3.5800490379333496,-0.4029451608657837,0.7991459369659424,-0.06445537507534027,-0.961572527885437,-0.26687827706336975,-0.04447697848081589,0.41658949851989746,-0.4018685817718506
1.2560927286580343,-0.24194630326459962,0.4379350596707118,-3.511275053024292,-0.5446388721466064,0.9439283609390259,-0.07416235655546188,-0.9508881568908691,-0.3005194664001465,-0.050898514688014984,0.3611205816268921,-0.5904869437217712
1.2208765589205448,-0.2510463387400569,0.4412879071596641,-3.26090145111084,-0.6326595544815063,0.9686630368232727,-0.08516326546669006,-0.9394001960754395,-0.3320764899253845,-0.1294972449541092,0.2841265797615051,-0.8040318489074707
1.1885298302144456,-0.2598684531547654,0.44408000808600306,-2.9622859954833984,-0.5877628922462463,0.851565957069397,-0.0958499163389206,-0.9278215765953064,-0.3604997396469116,-0.19794264435768127,0.16346293687820435,-0.9494672417640686
1.158869511360141,-0.26532382714804736,0.444580554811123,-2.792299509048462,-0.40351951122283936,0.7394553422927856,-0.10498734563589096,-0.9163510799407959,-0.3863660395145416,-0.1648642122745514,0.0422968864440918,-0.9288042783737183
1.1300425214166199,-0.2678941588144782,0.44401085967378223,-2.806335210800171,-0.2242477983236313,0.7509786486625671,-0.11292725056409836,-0.9044303297996521,-0.4114040434360504,-0.0725889503955841,-0.06386196613311768,-0.8051638603210449
1.100814107410117,-0.26986713964023284,0.4442885611021341,-2.821370840072632,-0.12652869522571564,0.833488404750824,-0.12073680758476257,-0.89157634973526,-0.43647944927215576,-0.02760898321866989,-0.20118188858032227,-0.7596721649169922
1.071680515127081,-0.27292897521593334,0.44658651303743185,-2.730529308319092,-0.10194425284862518,0.9400750398635864,-0.1290215253829956,-0.878006100654602,-0.4609327018260956,-0.006461113691329956,-0.3040008544921875,-0.760899543762207
1.043668253999486,-0.2789011798106427,0.4514201409621705,-2.5221238136291504,-0.27045872807502747,1.0406242609024048,-0.13849037885665894,-0.8642553687095642,-0.48361486196517944,-0.003706127405166626,-0.37332409620285034,-0.7746706604957581
1.0180759037096612,-0.28859541366561214,0.45852171452432267,-2.181396961212158,-0.4362068176269531,1.0892139673233032,-0.14941948652267456,-0.85109943151474,-0.5032929182052612,-0.0708867758512497,-0.48161858320236206,-0.8780699968338013
0.995893576164936,-0.30057891399614667,0.4673046679052012,-1.8031268119812012,-0.46427226066589355,1.0953656435012817,-0.16099078953266144,-0.8392452001571655,-0.5193742513656616,-0.16392971575260162,-0.576068639755249,-0.9478346109390259
0.9769463052381281,-0.31297843757882055,0.47688223196076407,-1.509583830833435,-0.4063723087310791,1.0512433052062988,-0.1722838580608368,-0.8287925124168396,-0.5323734283447266,-0.24537955224514008,-0.662143886089325,-0.9241085052490234
0.960421371265095,-0.3233905564401229,0.485718205165307,-1.3387776613235474,-0.20046360790729523,0.926989734172821,-0.18214534223079681,-0.8194331526756287,-0.5434634685516357,-0.31680166721343994,-0.7851964831352234,-0.8759243488311768
0.9452839912548681,-0.32899234036616465,0.49201092226329124,-1.3185646533966064,0.10906405746936798,0.7307285070419312,-0.18917307257652283,-0.8106632232666016,-0.5541107654571533,-0.37535619735717773,-0.8916836380958557,-0.7553374171257019
0.9304224675339712,-0.32858699743691017,0.4945051236562886,-1.4113281965255737,0.3571217954158783,0.5138939023017883,-0.19281528890132904,-0.8018724322319031,-0.5655288696289062,-0.3839362561702728,-0.9976423978805542,-0.600028932094574
0.9152472738524553,-0.32346131312882664,0.49341075082733243,-1.4998717308044434,0.485385000705719,0.34129273891448975,-0.19375981390476227,-0.7927133440971375,-0.5779815912246704,-0.3598441481590271,-1.1053732633590698,-0.5038512349128723
0.9000958242279271,-0.31566429708024,0.49000077537729914,-1.5038028955459595,0.5245227813720703,0.2195572555065155,-0.19295430183410645,-0.7833864688873291,-0.5908252000808716,-0.3328939378261566,-1.171645998954773,-0.4615429639816284
0.8856080934743505,-0.3074280524066476,0.48560356837182356,-1.4159939289093018,0.41486451029777527,0.14901115000247955,-0.19149622321128845,-0.7742999196052551,-0.6031491160392761,-0.2862715721130371,-1.2114484310150146,-0.4383242130279541
0.8726077668607518,-0.3011161517974142,0.4812914803305339,-1.2202109098434448,0.18298442661762238,0.11043766885995865,-0.1906549632549286,-0.7660079002380371,-0.6139077544212341,-0.25769391655921936,-1.2588945627212524,-0.48298555612564087
0.8620160831564873,-0.2976199926454299,0.4778346300560231,-0.9284268021583557,-0.0024633524008095264,0.08606888353824615,-0.1908760517835617,-0.7591564059257507,-0.6222925782203674,-0.25048428773880005,-1.2883901596069336,-0.5949620604515076
0.8546437001234378,-0.29651127603527067,0.4754032851610786,-0.5713052153587341,-0.1354387104511261,0.04140181839466095,-0.19181610643863678,-0.7543370723724365,-0.6278393864631653,-0.2642536759376526,-1.3230708837509155,-0.7104479670524597
0.8508747715939756,-0.2970294761652475,0.4738383729098167,-0.21448999643325806,-0.19010579586029053,-0.022222639992833138,-0.19297215342521667,-0.7518574595451355,-0.6304539442062378,-0.2965754270553589,-1.3551524877548218,-0.7745905518531799
0.8505676221624454,-0.29778579387867266,0.4726093232346488,0.10126529633998871,-0.1334877908229828,-0.12055773288011551,-0.19351667165756226,-0.7516549229621887,-0.6305285692214966,-0.3377942442893982,-1.3704612255096436,-0.7940319776535034
0.8532720602015715,-0.2972307136406487,0.4709946083735992,0.34095215797424316,0.006681142840534449,-0.23965847492218018,-0.19257058203220367,-0.7534359097480774,-0.6286898851394653,-0.3479871451854706,-1.3510410785675049,-0.7825955152511597
0.8582166120547758,-0.29454180240958905,0.468638210605537,0.5127635598182678,0.16969802975654602,-0.3345400094985962,-0.189795583486557,-0.7566778063774109,-0.6256328225135803,-0.33387064933776855,-1.2973079681396484,-0.7363972067832947
0.8650112428536518,-0.29024189487064445,0.4659479340353093,0.69449782371521,0.266697496175766,-0.3903278410434723,-0.1856279820203781,-0.761102557182312,-0.6215023398399353,-0.30620840191841125,-1.25478196144104,-0.6979403495788574
0.8739488040624848,-0.28571093628346006,0.46334987710414505,0.9362742304801941,0.22899113595485687,-0.4391385316848755,-0.18088564276695251,-0.7668692469596863,-0.6157857179641724,-0.27545881271362305,-1.213950514793396,-0.6841562986373901
0.8856579040746414,-0.2821339307080311,0.46099668734195337,1.2353832721710205,0.11677897721529007,-0.5085560083389282,-0.17616970837116241,-0.7743314504623413,-0.607762336730957,-0.28267717361450195,-1.1544406414031982,-0.6957807540893555
0.9005383039047453,-0.2796273395818632,0.4585671759454945,1.5422133207321167,0.013925297185778618,-0.6164755821228027,-0.17144639790058136,-0.783661425113678,-0.5970602631568909,-0.2969372570514679,-1.0847010612487793,-0.7022103071212769
0.9184660787836231,-0.277159280624503,0.45530384421623893,1.7896592617034912,-0.0304908137768507,-0.7556447982788086,-0.16610093414783478,-0.7946714162826538,-0.5838730931282043,-0.3077605962753296,-1.0085971355438232,-0.6799817681312561
0.9386683519116777,-0.27361601628868915,0.45056006020902706,1.9385850429534912,-0.01436430960893631,-0.8919067978858948,-0.15965983271598816,-0.806771993637085,-0.5688828229904175,-0.3067706823348999,-0.9024412631988525,-0.6253767609596252
0.9602010175353606,-0.2680934918739411,0.443921059027253,2.0035512447357178,0.04548242688179016,-1.0050350427627563,-0.15187813341617584,-0.8193068504333496,-0.5528738498687744,-0.296791136264801,-0.7871996164321899,-0.5766580104827881
0.9824546149715245,-0.26009030883356477,0.43527556966870834,2.047578811645508,0.13117627799510956,-1.0983409881591797,-0.14272359013557434,-0.8318621516227722,-0.536316454410553,-0.2825692296028137,-0.6644299626350403,-0.5589288473129272
1.005365723812139,-0.2495312008134096,0.4248546509863293,2.107081890106201,0.23575037717819214,-1.1519609689712524,-0.1323106437921524,-0.844357967376709,-0.5191856622695923,-0.26276981830596924,-0.5450769662857056,-0.5602821111679077
1.028782700514462,-0.2371534339688829,0.4135713248738461,2.164422035217285,0.31664812564849854,-1.1212403774261475,-0.12119497358798981,-0.8566716909408569,-0.5014235973358154,-0.18710872530937195,-0.4324367046356201,-0.5510970950126648
1.052698187098467,-0.22477020559387664,0.40313856962589173,2.265137195587158,0.3539624810218811,-0.9924787282943726,-0.11037781089544296,-0.8687626123428345,-0.48277169466018677,-0.0867198184132576,-0.3422054648399353,-0.5396129488945007
1.0773716950699865,-0.21511574701554015,0.395815381515497,2.408534288406372,0.28323665261268616,-0.7674520015716553,-0.10110451281070709,-0.8807159662246704,-0.462728351354599,0.015212945640087128,-0.25157785415649414,-0.5105687379837036
1.1030704041853356,-0.2119800252263302,0.3943165148429159,2.6042497158050537,0.05507297068834305,-0.447674959897995,-0.09485869854688644,-0.8925958871841431,-0.44076594710350037,0.11150618642568588,-0.17390203475952148,-0.48957765102386475
1.1304047676421736,-0.2199982603167928,0.40177995943681805,2.899966239929199,-0.32318753004074097,-0.08230923116207123,-0.09302923828363419,-0.9045848250389099,-0.4160193204879761,0.12865865230560303,-0.11958521604537964,-0.5307732224464417
1.1602644056379425,-0.24218478470429783,0.42059333852487263,3.2870068550109863,-0.6773175001144409,0.21054480969905853,-0.09571320563554764,-0.9169086813926697,-0.3874501883983612,0.07720443606376648,-0.08095520734786987,-0.6279001235961914
1.1931320549577167,-0.2782869883587191,0.4510029643099953,3.6698873043060303,-0.9077235460281372,0.33178550004959106,-0.10129906982183456,-0.9295284748077393,-0.35456374287605286,-0.052249982953071594,-0.04022872447967529,-0.7086533904075623
1.2284934108677559,-0.3253853900716832,0.4914802278216022,3.916015863418579,-0.9050104022026062,0.27102869749069214,-0.10730092227458954,-0.9419841766357422,-0.31804460287094116,-0.19926325976848602,-0.010393202304840088,-0.7288608551025391
1.2647982749485802,-0.3790915030439882,0.5395778123421099,3.9382803440093994,-0.7034834027290344,0.08973640203475952,-0.11148399114608765,-0.9535467624664307,-0.2798576354980469,-0.2992977499961853,0.024103164672851562,-0.6632270812988281
1.3002260197660171,-0.43529031161283466,0.5923522278857608,3.746565818786621,-0.41086432337760925,-0.14375397562980652,-0.11270558089017868,-0.9636186361312866,-0.24235689640045166,-0.3584246337413788,0.07740330696105957,-0.5545638203620911
1.3335279409799454,-0.4909795123135783,0.6472061203147357,3.450653553009033,-0.12035898119211197,-0.36481714248657227,-0.11082323640584946,-0.9719836711883545,-0.20728300511837006,-0.3403332233428955,0.14193588495254517,-0.464866578578949
1.3645230498924104,-0.5464010831247662,0.7037830366596453,3.183377742767334,0.06235097721219063,-0.542731761932373,-0.1064247265458107,-0.9788010120391846,-0.1749933660030365,-0.27615875005722046,0.22858721017837524,-0.4151555299758911
1.393843727551434,-0.6050541506345376,0.7645383623133483,3.022500514984131,0.12675127387046814,-0.7126995325088501,-0.10012803226709366,-0.9843847155570984,-0.14478108286857605,-0.205780029296875,0.3057193160057068,-0.42516517639160156
1.422688054130766,-0.6734465825414302,0.8351534997007634,2.9891018867492676,0.12436205893754959,-0.8955462574958801,-0.09203629940748215,-0.9890519976615906,-0.11535114049911499,-0.16458585858345032,0.37760162353515625,-0.45877599716186523
1.4514780458320709,-0.7647498325309419,0.9281715500751414,2.979069709777832,0.04433247447013855,-1.017039179801941,-0.0824158787727356,-0.9928900003433228,-0.08589164167642593,-0.10290198028087616,0.4828953742980957,-0.41802978515625
1.4789832112912642,-0.9067769399506582,1.070839458802104,2.9379053115844727,-0.06486745923757553,-1.0280370712280273,-0.07220544666051865,-0.9957881569862366,-0.05650549381971359,-0.03269858658313751,0.5844414830207825,-0.35668718814849854
1.5026751372884843,-1.1556182947825462,1.3197162324331022,2.890505313873291,-0.0657351166009903,-0.9702091217041016,-0.06228673830628395,-0.9976806640625,-0.027456076815724373,-0.005217976868152618,0.6411589980125427,-0.3591862916946411
1.5179051402036463,-1.5896134161045383,1.754354151230209,2.815375566482544,0.05404433608055115,-0.9260737299919128,-0.05285840854048729,-0.9986016154289246,0.000994758796878159,-0.015439767390489578,0.69827800989151,-0.3710966110229492
1.5185991517477526,-2.1468502138734413,2.3137534991128788,2.694653034210205,0.2378900796175003,-0.9072870016098022,-0.043753743171691895,-0.9986380338668823,0.028419937938451767,-0.022453997284173965,0.7434958219528198,-0.3345264196395874
1.5061872359625268,-2.5705540116579653,2.74156594652938,2.5242726802825928,0.44382214546203613,-0.8985295295715332,-0.03489810600876808,-0.9979135394096375,0.05432162061333656,-0.012403972446918488,0.7721444368362427,-0.2528994083404541
1.4880790387100176,-2.816697803959588,2.993724510511106,2.3235626220703125,0.6217886805534363,-0.8856968283653259,-0.02637455426156521,-0.9965808987617493,0.07830211520195007,0.010825999081134796,0.8086230158805847,-0.1378113031387329
1.4687640180413062,-2.9604351130919166,-3.1383351027788473,2.1083858013153076,0.7145735025405884,-0.843326985836029,-0.018351208418607712,-0.9947991967201233,0.10018913447856903,0.06629448384046555,0.8476739525794983,-0.0019986778497695923
1.4500468806952636,-3.047557658051265,-3.0438129782699375,1.8933537006378174,0.6291965246200562,-0.7167690396308899,-0.011310513131320477,-0.9927186369895935,0.11992508918046951,0.1418801248073578,0.8983429074287415,0.16369009017944336
1.4324960048230497,-3.0989021423416006,-2.98688580340094,1.7213252782821655,0.38159623742103577,-0.5065376162528992,-0.005883524660021067,-0.9904517531394958,0.13773435354232788,0.20258474349975586,0.9420203566551208,0.3029089868068695
1.416074842497793,-3.126582304035827,-2.9567082177330763,1.595165491104126,0.047179125249385834,-0.28039634227752686,-0.0023130904883146286,-0.9880545139312744,0.1540881246328354,0.24248658120632172,0.9767324328422546,0.40442943572998047
1.4008163411167949,-3.1388643640100935,-2.945430939075756,1.4624645709991455,-0.26380181312561035,-0.05752300098538399,-0.0004615230718627572,-0.9855881333351135,0.1691616326570511,0.2595864236354828,1.0359269380569458,0.4729893207550049
1.3869927694241395,-3.1400012825294694,-2.9480495731920113,1.2979843616485596,-0.46664944291114807,0.15475916862487793,-0.0002908575697802007,-0.9831556081771851,0.18277153372764587,0.25576892495155334,1.0778210163116455,0.4972975254058838
1.3752143276502224,-3.1316968214277354,-2.9614636119256246,1.0502108335494995,-0.48213234543800354,0.36654573678970337,-0.001923110568895936,-0.980934739112854,0.19432905316352844,0.2561499774456024,1.0897297859191895,0.5104135274887085
1.3660681990651746,-3.114229375663645,-2.983779656213183,0.7677969336509705,-0.4005304276943207,0.5499126315116882,-0.005562331061810255,-0.9791163206100464,0.2032264769077301,0.25336524844169617,1.0964713096618652,0.5190942287445068
1.3593891049979367,-3.089564295464019,-3.012899360674574,0.5304939150810242,-0.3798914849758148,0.7057433724403381,-0.010912521742284298,-0.9777365922927856,0.20955251157283783,0.2333552986383438,1.093855857849121,0.499294638633728
1.354492399526966,-3.058874419733121,-3.0486721812428614,0.3545253276824951,-0.49196475744247437,0.8817138671875,-0.017732905223965645,-0.9766973853111267,0.2138880491256714,0.25165030360221863,1.0782902240753174,0.47291016578674316
1.3505551373509337,-3.022522722019788,-3.091936556666164,0.2516857087612152,-0.6933688521385193,1.064793586730957,-0.02595120295882225,-0.9758448004722595,0.21691827476024628,0.2716788947582245,1.0385432243347168,0.45332416892051697
1.3467980798391854,-2.982710232976408,-3.140895062981518,0.1997511386871338,-0.8871282339096069,1.1612000465393066,-0.03514430299401283,-0.9750171303749084,0.2193325012922287,0.23744550347328186,0.9830736517906189,0.4199650287628174
1.3431516329902167,-2.9451125322588436,3.0941774881805855,0.13124558329582214,-0.9600064158439636,1.069648027420044,-0.04405771940946579,-0.9742006659507751,0.2213420569896698,0.15895655751228333,0.9169953465461731,0.38127338886260986
1.340602882781983,-2.9152525374769573,3.053808229346523,-0.029712680727243423,-0.9205325245857239,0.8179119825363159,-0.05120336264371872,-0.9736222624778748,0.2223467230796814,0.09327201545238495,0.862202525138855,0.38269492983818054
1.3405061104571678,-2.895265550233827,3.0244057878639765,-0.2758672535419464,-0.8051503896713257,0.4931488335132599,-0.05565975233912468,-0.9736002087593079,0.2213699370622635,0.05343214422464371,0.8105753064155579,0.4043777585029602
1.3437500847563493,-2.8831080647702834,3.00449596207951,-0.586144208908081,-0.6371030211448669,0.23748564720153809,-0.05753928795456886,-0.9743355512619019,0.21762248873710632,0.054457180202007294,0.8152626156806946,0.42535245418548584
1.350485729253408,-2.8731347382916517,2.988698420774985,-0.8918532729148865,-0.4541254937648773,0.10158707201480865,-0.0579647421836853,-0.9758296012878418,0.21070529520511627,0.08964213728904724,0.8577266335487366,0.4118228554725647
1.360028592105661,-2.861625219048283,2.973055278333962,-1.1172786951065063,-0.3024744391441345,0.030590921640396118,-0.05781012773513794,-0.9778705835342407,0.20106537640094757,0.09273765236139297,0.886043131351471,0.357772558927536
1.3714686493535788,-2.8480260611528116,2.956882848368447,-1.2611466646194458,-0.14516247808933258,-0.04989532381296158,-0.05729808285832405,-0.980199933052063,0.18953976035118103,0.07058864086866379,0.8965663909912109,0.29543042182922363
1.3844537605796452,-2.834553925178104,2.9423785153037234,-1.3918367624282837,-0.01357994880527258,-0.19371694326400757,-0.05599430203437805,-0.9826884269714355,0.17660170793533325,0.05433124676346779,0.8831400871276855,0.28366443514823914
1.399389495070825,-2.824154134579005,2.9321985928524157,-1.574357271194458,0.0923767238855362,-0.38229304552078247,-0.05324063077569008,-0.9853457808494568,0.16204775869846344,0.05142497643828392,0.8398836255073547,0.3136756420135498
1.416855768522079,-2.8179677580133244,2.9275298523227824,-1.798290729522705,0.22453555464744568,-0.5753415822982788,-0.048761170357465744,-0.988174557685852,0.14537467062473297,0.06479832530021667,0.8021697402000427,0.3196980953216553
1.4371431372848351,-2.8171132832407535,2.9295609631080373,-2.039179563522339,0.3494498133659363,-0.7742395401000977,-0.04248426482081413,-0.991081714630127,0.12630288302898407,0.07262053340673447,0.7827228307723999,0.297235369682312
1.4604181369623541,-2.8247512356103646,2.9414188843738964,-2.296441078186035,0.476712703704834,-0.9650334715843201,-0.03432045876979828,-0.9939144849777222,0.104671411216259,0.09907892346382141,0.7796047925949097,0.2686654329299927
1.4865309593437572,-2.845364495699832,2.9672998809350353,-2.528688669204712,0.5459528565406799,-1.080985188484192,-0.02456967905163765,-0.9964517951011658,0.08050135523080826,0.15280471742153168,0.7958138585090637,0.24502968788146973
1.5145316958462698,-2.888576295138645,3.0162350832569067,-2.672868251800537,0.5719815492630005,-1.0888398885726929,-0.014078017324209213,-0.9984175562858582,0.05444832146167755,0.20121197402477264,0.8120465874671936,0.19613158702850342
1.5432681744921917,-3.003554710686816,3.136982955792652,-2.7655141353607178,0.5578972101211548,-1.011902928352356,-0.0037881708703935146,-0.9996211528778076,0.027268441393971443,0.2398723065853119,0.8341088891029358,0.1506795883178711
1.5651268941239649,1.4593592514330478,-1.3206536424208433,-2.8205981254577637,0.47718530893325806,-0.8939072489738464,0.005664987955242395,-0.9999839067459106,-0.0006339158862829208,0.2579612731933594,0.8432302474975586,0.11052781343460083
1.5388308080158668,0.45371662468531687,-0.31049852347968665,-2.8110694885253906,0.414364755153656,-0.7644546031951904,0.014009102247655392,-0.9994891285896301,-0.028727944940328598,0.23892073333263397,0.8276293873786926,0.02959776297211647
1.5103363159318781,0.35855812092240874,-0.21124883180531207,-2.790634870529175,0.38840746879577637,-0.6510012745857239,0.021204238757491112,-0.9981728792190552,-0.05658121407032013,0.20660965144634247,0.7903786301612854,-0.046095069497823715
1.4819389384801653,0.31579274330720647,-0.16455442006628176,-2.8164100646972656,0.3728582262992859,-0.5769554972648621,0.027560807764530182,-0.9960547685623169,-0.08435434848070145,0.17361122369766235,0.7321538329124451,-0.06016159802675247
1.4530715253353168,0.2876207775487102,-0.1325711285951991,-2.908357858657837,0.3608036935329437,-0.5073683857917786,0.03331834450364113,-0.9930784106254578,-0.11262912303209305,0.1707986444234848,0.6750699281692505,-0.040370695292949677
1.4232670045162878,0.264026629155631,-0.10522079418360501,-3.035740375518799,0.33979541063308716,-0.4120948314666748,0.03836141154170036,-0.9891372919082642,-0.14190177619457245,0.20095761120319366,0.6162734031677246,-0.03572571277618408
1.3924851504583966,0.2397349465176809,-0.07757922533516406,-3.1534674167633057,0.24392083287239075,-0.2472565919160843,0.04211532324552536,-0.9841446280479431,-0.17229606211185455,0.24365144968032837,0.5759261250495911,-0.054846227169036865
1.3612917584603974,0.21208300383442258,-0.04790514490732657,-3.1778323650360107,0.04036495089530945,-0.032803647220134735,0.04377824813127518,-0.9781340956687927,-0.20331615209579468,0.25559934973716736,0.5444791913032532,-0.14505720138549805
1.3307867139923777,0.18106304852596067,-0.01685289539662767,-3.0709619522094727,-0.19454582035541534,0.1978929489850998,0.04280612990260124,-0.9713357090950012,-0.2338263988494873,0.22474165260791779,0.49600905179977417,-0.2943107485771179
1.3020058463191506,0.14830966447729105,0.013905896435964477,-2.8616018295288086,-0.3942272663116455,0.37768813967704773,0.03924177587032318,-0.9640927910804749,-0.26265066862106323,0.14567963778972626,0.4223904609680176,-0.437453031539917
1.2752904032229013,0.11659840457153287,0.04231130180867593,-2.661174774169922,-0.4747364819049835,0.47516703605651855,0.033879417926073074,-0.9566549062728882,-0.289247065782547,0.03676893189549446,0.32536810636520386,-0.5334151983261108
1.2499290098754663,0.08891723319037284,0.0667496003553303,-2.5597431659698486,-0.3800206482410431,0.47246062755584717,0.02800665982067585,-0.9489622116088867,-0.31414395570755005,-0.03446098044514656,0.20807170867919922,-0.5761452913284302
1.2247223584195241,0.06774571871582007,0.08637687568981087,-2.5936155319213867,-0.13676351308822632,0.4150809645652771,0.022962268441915512,-0.9407116770744324,-0.33842921257019043,-0.06561041623353958,0.0983654260635376,-0.5568649172782898
1.1984877827123186,0.05261217427889309,0.10235462830706954,-2.7239813804626465,0.09100223332643509,0.40127208828926086,0.019129745662212372,-0.9314900636672974,-0.36326369643211365,-0.05475885421037674,0.013338088989257812,-0.49827802181243896
1.1710048093077485,0.04044518481321833,0.11714028697542929,-2.811225175857544,0.19803868234157562,0.4638260006904602,0.015738043934106827,-0.9211421608924866,-0.38890811800956726,-0.015722637996077538,-0.06939738988876343,-0.4937059283256531
1.1434565743435754,0.028772841354308118,0.1319566047906525,-2.719580888748169,0.16632109880447388,0.5324901938438416,0.011923295445740223,-0.9100714921951294,-0.4142797291278839,-0.02075798809528351,-0.1610039472579956,-0.5859948396682739
1.1176640626506333,0.017238649174835446,0.14600479590199847,-2.46299147605896,0.06434547901153564,0.539178192615509,0.0075464327819645405,-0.8990802764892578,-0.43771904706954956,-0.08258898556232452,-0.252027690410614,-0.7006018757820129
1.0946325144501448,0.0065493624608122265,0.15806302564283117,-2.1678171157836914,-0.03663505241274834,0.48040321469306946,0.0030020305421203375,-0.8887598514556885,-0.4583633244037628,-0.1416890025138855,-0.334003210067749,-0.7557936906814575
1.0741961247333036,-0.0018640358548654167,0.16704313310818367,-1.9435112476348877,-0.045709509402513504,0.33996060490608215,-0.0008880994282662868,-0.87920743227005,-0.4764384627342224,-0.19939860701560974,-0.4252054691314697,-0.7436237335205078
1.055306214396783,-0.005766927793025046,0.17183394908870508,-1.8593602180480957,0.13225457072257996,0.13840901851654053,-0.0028428577352315187,-0.8700512051582336,-0.4929533004760742,-0.23752868175506592,-0.5131733417510986,-0.6692933440208435
1.0363925810949162,-0.003998733732172586,0.17288099807511753,-1.9493825435638428,0.39290159940719604,0.002157712820917368,-0.0020366620738059282,-0.8605724573135376,-0.5093240141868591,-0.19730398058891296,-0.5566639304161072,-0.5025625228881836
1.0161758384378974,0.0006558372901319615,0.17274179821778288,-2.0904252529144287,0.4931372106075287,0.003977538552135229,0.00034537751344032586,-0.8501003384590149,-0.5266206860542297,-0.12261390686035156,-0.5923588275909424,-0.35707682371139526
0.9953032542032961,0.004560108503253722,0.17360656878470263,-2.06720232963562,0.41664376854896545,0.08252880722284317,0.002481824019923806,-0.8389240503311157,-0.5442429184913635,-0.07332822680473328,-0.6644176840782166,-0.3858107924461365
0.9755713076303996,0.005842628071920411,0.17597160862719088,-1.8709704875946045,0.22329719364643097,0.15512126684188843,0.0032759150490164757,-0.8280223608016968,-0.5606856346130371,-0.06232727691531181,-0.711589515209198,-0.4805893898010254
0.958354133313815,0.00452455247909642,0.17905992503109538,-1.5707720518112183,0.033416736871004105,0.16976945102214813,0.0026010102592408657,-0.8182465434074402,-0.5748618245124817,-0.08284683525562286,-0.7564454078674316,-0.5804879069328308
0.9442586057442124,0.0022666192807282754,0.18179069141421156,-1.2629462480545044,-0.022213710471987724,0.13516776263713837,0.001329016755335033,-0.8100624680519104,-0.5863421559333801,-0.10829296708106995,-0.8095512390136719,-0.6636883020401001
0.9328742992474723,0.0006496180707241739,0.1837866207884176,-1.0278290510177612,0.03183940425515175,0.10000765323638916,0.00038686537300236523,-0.8033349514007568,-0.5955273509025574,-0.10568760335445404,-0.8473150730133057,-0.6624987125396729
0.9234494144065818,0.00018308912398168036,0.18537080587248397,-0.8706401586532593,0.1301390379667282,0.09380289912223816,0.00011041596007999033,-0.7976866364479065,-0.6030722260475159,-0.09637794643640518,-0.9011964797973633,-0.6128548383712769
0.9152811084764761,0.0006189040203281946,0.1870655237169689,-0.7693894505500793,0.2248157560825348,0.11219894886016846,0.00037726396112702787,-0.7927339673042297,-0.6095677018165588,-0.0801500529050827,-0.945364236831665,-0.5547693967819214
0.9081276553420324,0.001435408864224989,0.18918973596304334,-0.6583025455474854,0.26632827520370483,0.14625801146030426,0.0008830962469801307,-0.7883532047271729,-0.6152223348617554,-0.05831701308488846,-0.9667127728462219,-0.5205808877944946
0.9024078778912529,0.0017921373036590424,0.19189403647044012,-0.475165992975235,0.21993601322174072,0.1841886043548584,0.00111062650103122,-0.7848213911056519,-0.6197211146354675,-0.042385492473840714,-0.9912254214286804,-0.5443413853645325
0.898975594496231,0.001036101265224809,0.19499326884554116,-0.20652420818805695,0.1112321987748146,0.200139582157135,0.0006448818603530526,-0.7826896905899048,-0.6224117875099182,-0.04764178767800331,-1.0228065252304077,-0.607049822807312
0.8983625677542654,-0.0009661672056530477,0.19828667834583288,0.08470602333545685,0.009646189399063587,0.21050088107585907,-0.0006018175627104938,-0.782308042049408,-0.6228915452957153,-0.06351544708013535,-1.0249277353286743,-0.6491878628730774
0.9005167966538017,-0.003881636614468057,0.20176900404777923,0.33976468443870544,-0.039971016347408295,0.22619947791099548,-0.0024112865794450045,-0.7836480736732483,-0.621200442314148,-0.07545415312051773,-1.001370906829834,-0.6549530625343323
0.9049270106952686,-0.0071099055971236,0.20551114799955775,0.5415512919425964,-0.008571815676987171,0.22903655469417572,-0.004392057657241821,-0.7863800525665283,-0.6177274584770203,-0.07716599851846695,-0.9776275753974915,-0.6517580151557922
0.9111474998740927,-0.00953524804224285,0.20912012618974324,0.7090708017349243,0.09492010623216629,0.21160554885864258,-0.005843488033860922,-0.7902075052261353,-0.6128116250038147,-0.0742955207824707,-0.9589075446128845,-0.642269492149353
0.9189686946658248,-0.010972833120779598,0.2128798469533657,0.8646391034126282,0.20966532826423645,0.23947925865650177,-0.006656430661678314,-0.7949764132499695,-0.6066039204597473,-0.04754263907670975,-0.9186314344406128,-0.6012665629386902
0.9284585601484194,-0.012551546990466502,0.21777444787969188,1.0496108531951904,0.24144180119037628,0.33355584740638733,-0.00751904584467411,-0.8006974458694458,-0.599021852016449,-0.0055270446464419365,-0.901420533657074,-0.5401840209960938
0.9399260792135076,-0.01574987475858731,0.22453664518582822,1.2593275308609009,0.19921205937862396,0.4411150813102722,-0.009289644658565521,-0.807514488697052,-0.5897746682167053,0.013226576149463654,-0.9188954830169678,-0.4814228415489197
0.9532935630736786,-0.021863765561657818,0.23376971727128612,1.4307212829589844,0.05652477964758873,0.5991708636283875,-0.0126581322401762,-0.8153269290924072,-0.5788625478744507,0.02904624119400978,-0.93108731508255,-0.40177398920059204
0.9680365190374686,-0.03355020789731407,0.2467046076105019,1.5624969005584717,-0.29925915598869324,0.8031652569770813,-0.019016653299331665,-0.8237741589546204,-0.5665991306304932,0.053181231021881104,-0.9507620334625244,-0.35342949628829956
0.9840762200235289,-0.05281082794583089,0.2636304869351179,1.740251064300537,-0.750748336315155,0.9409986138343811,-0.02922421507537365,-0.8327609896659851,-0.5528609156608582,0.04426954314112663,-0.9966000318527222,-0.45032817125320435
1.0020239704679652,-0.07829321255264629,0.28286854573800024,1.9929357767105103,-1.1015582084655762,0.9010781049728394,-0.04212551936507225,-0.8425627946853638,-0.5369483828544617,-0.008091006428003311,-0.996396005153656,-0.6608512997627258
1.0224953923330247,-0.1060693518348613,0.3018454938180984,2.275116443634033,-1.2105792760849,0.7173894643783569,-0.0551837757229805,-0.8534113764762878,-0.518308699131012,-0.10347697138786316,-0.9494146108627319,-0.8660601377487183
1.045466853761397,-0.13294030294420567,0.31942440282780726,2.4990434646606445,-1.1201533079147339,0.5238757133483887,-0.0664731115102768,-0.86515873670578,-0.49707311391830444,-0.17720958590507507,-0.858382523059845,-1.0003023147583008
1.070430549365736,-0.15662641764315755,0.3354485049808754,2.6750776767730713,-0.8029637336730957,0.29868435859680176,-0.07483413070440292,-0.8774071335792542,-0.4738740026950836,-0.25579315423965454,-0.7267951369285583,-1.0930509567260742
1.0972607000716508,-0.17338856851313558,0.34795143119197797,2.812525749206543,-0.3320513367652893,-0.03753016144037247,-0.0786757841706276,-0.8899614810943604,-0.4491978585720062,-0.3680403530597687,-0.6123731732368469,-1.1220453977584839
1.1254993067711514,-0.1800641763376602,0.3543388819885048,2.8402187824249268,0.12303227931261063,-0.39541348814964294,-0.07713986933231354,-0.9024827480316162,-0.4237620234489441,-0.40139085054397583,-0.459943950176239,-0.9886219501495361
1.154036916810133,-0.17648764064059433,0.3536243596226427,2.7660109996795654,0.43903738260269165,-0.6624153256416321,-0.07107185572385788,-0.9144055247306824,-0.3985117971897125,-0.3368717432022095,-0.2989887595176697,-0.7577992081642151
1.1818683603436508,-0.16494223557211643,0.34663237291238863,2.6331288814544678,0.5603628754615784,-0.8149800300598145,-0.0622623972594738,-0.9253160953521729,-0.3740505576133728,-0.23186586797237396,-0.15496057271957397,-0.5595431327819824
1.2086114315694474,-0.14811137079662845,0.3344092993835776,2.5276265144348145,0.5187861323356628,-0.9058337807655334,-0.052286937832832336,-0.935124933719635,-0.35043925046920776,-0.17171192169189453,-0.009897768497467041,-0.44548964500427246
1.234742353316219,-0.12683376284800513,0.3169455898320521,2.501673936843872,0.4570992887020111,-0.9979556798934937,-0.04171326383948326,-0.9440632462501526,-0.327115923166275,-0.147846519947052,0.11830317974090576,-0.4183979332447052
1.260758306541616,-0.10029926626749285,0.2935025816152584,2.5108518600463867,0.4036288857460022,-1.0668671131134033,-0.030549533665180206,-0.9523219466209412,-0.3035617768764496,-0.11878808587789536,0.2539423704147339,-0.3902705907821655
1.2867045328462559,-0.06877830361287654,0.26438006340837683,2.526540994644165,0.32947587966918945,-1.0638883113861084,-0.019262421876192093,-0.9599165916442871,-0.2796236276626587,-0.08971569687128067,0.3780224919319153,-0.3419278562068939
1.3125456897715773,-0.03307719626147843,0.23047777977824122,2.5494768619537354,0.2892189919948578,-1.012457013130188,-0.008446037769317627,-0.9668382406234741,-0.25525006651878357,-0.07349351048469543,0.46355754137039185,-0.3193195164203644
1.3381219667260666,0.007789743386310793,0.19151030582302817,2.5416786670684814,0.33515796065330505,-0.9470248818397522,0.001796150580048561,-0.9730532169342041,-0.23057425022125244,-0.07403109222650528,0.5384522676467896,-0.2891858220100403
1.3628965108409452,0.05538891086306592,0.14663429941511866,2.4706692695617676,0.4259014427661896,-0.8563567996025085,0.01142673660069704,-0.9784665703773499,-0.2060890644788742,-0.048139218240976334,0.6218228340148926,-0.22831331193447113
1.3863198648051422,0.109900739093209,0.09565032326834157,2.3682022094726562,0.46373018622398376,-0.7369474768638611,0.020118780434131622,-0.9830324053764343,-0.1823255866765976,-0.0038374923169612885,0.6758118867874146,-0.15652625262737274
1.4083395368787124,0.17091303646346706,0.038198358015276164,2.280094861984253,0.4147964417934418,-0.6134945154190063,0.02750980108976364,-0.9868329167366028,-0.15938755869865417,0.03276257961988449,0.6919718384742737,-0.09012408554553986
1.4291821506279132,0.24032888492491636,-0.02822551454124693,2.2217681407928467,0.33554625511169434,-0.5088138580322266,0.03359493613243103,-0.9899894595146179,-0.13708564639091492,0.050511669367551804,0.7073202729225159,-0.04051131010055542
1.4490470726117834,0.3232988444092487,-0.10907319204045018,2.191570281982422,0.2315189242362976,-0.4319150745868683,0.03858394920825958,-0.9925976991653442,-0.11515722423791885,0.03084372729063034,0.7429791688919067,-0.006226345896720886
1.4678407968127956,0.4294680327957324,-0.213927399743668,2.1667606830596924,0.1665884405374527,-0.37829938530921936,0.042793624103069305,-0.9947047829627991,-0.09344048798084259,-0.0020982585847377777,0.7595668435096741,0.018291063606739044
1.4848670197179559,0.5725688808107265,-0.3561487233924807,2.099900245666504,0.13694798946380615,-0.34269586205482483,0.046499960124492645,-0.9963103532791138,-0.07213783264160156,-0.008337561041116714,0.7438383102416992,0.05787092447280884
1.4988546495333352,0.7671749737954182,-0.5500031180834016,1.9789626598358154,0.13926339149475098,-0.32466310262680054,0.04989303648471832,-0.9974133372306824,-0.05174541845917702,-0.00648164376616478,0.7196574807167053,0.10364067554473877
1.5083162841533262,1.017290401038336,-0.7989968496957612,1.7965304851531982,0.2050623744726181,-0.3071996867656708,0.053117018193006516,-0.9980487823486328,-0.0328231006860733,5.9995800256729126e-05,0.712343156337738,0.14543306827545166
1.5124836862319253,1.2953293904736372,-1.074950955532509,1.580816388130188,0.3144416809082031,-0.27216973900794983,0.056082721799612045,-0.998300313949585,-0.015851937234401703,0.0153285451233387,0.720041036605835,0.18731504678726196
1.5122816675840174,1.5542238925598362,-1.330646103940995,1.3679039478302002,0.40501660108566284,-0.19566747546195984,0.05847540125250816,-0.9982885122299194,-0.0009691684972494841,0.04760389402508736,0.7124149799346924,0.21971923112869263
1.5097511552230953,1.7677606082196506,-1.5402786918368476,1.1793946027755737,0.4513774514198303,-0.07664629817008972,0.0598280243575573,-0.9981372952461243,0.011938773095607758,0.07565490901470184,0.7076863050460815,0.2384427785873413
1.5065721303847792,1.9411352201575598,-1.7093521465511325,1.0389940738677979,0.4647201597690582,0.06066548824310303,0.05983170121908188,-0.997938334941864,0.023229843005537987,0.08807190507650375,0.715177595615387,0.2410677671432495
1.503462533715764,2.0899253098331623,-1.8542002998087588,0.9582566618919373,0.3743959069252014,0.19647468626499176,0.05842002481222153,-0.9977339506149292,0.033381544053554535,0.0847533643245697,0.7255780696868896,0.25397205352783203
1.50017999249658,2.2264451618081154,-1.988135444440108,0.9529439210891724,0.2018049657344818,0.2715795636177063,0.05593002587556839,-0.9975076913833618,0.04301892966032028,0.05848056077957153,0.6909584999084473,0.23533201217651367
1.4958995687169994,2.35222301416319,-2.113074693229425,0.9808246493339539,0.037880606949329376,0.2740640938282013,0.0531216599047184,-0.9971965551376343,0.05270138382911682,0.027551721781492233,0.6625101566314697,0.22391009330749512
1.4903482168856033,2.4600914930565683,-2.2212944693261263,0.9651519656181335,-0.028432901948690414,0.221842423081398,0.05062597990036011,-0.9967657923698425,0.062412817031145096,0.000384356826543808,0.6770939230918884,0.25590085983276367
1.4840261755986044,2.5428570467156666,-2.3045741483312323,0.8721523880958557,-0.008830408565700054,0.13956205546855927,0.04884353280067444,-0.9962378144264221,0.07158845663070679,-0.0043640099465847015,0.6913823485374451,0.3049832582473755
1.4778454633612403,2.600285728598594,-2.3620544584109706,0.7220848202705383,0.048735152930021286,0.06948097795248032,0.04782472923398018,-0.9956831932067871,0.07954778522253036,0.0024226494133472443,0.7065596580505371,0.343456506729126
1.4725967477305988,2.6392616587419577,-2.4003321181178503,0.5548291802406311,0.12528425455093384,0.04692826420068741,0.04720426723361015,-0.9951822757720947,0.08593014627695084,0.014700818806886673,0.7332804799079895,0.3780592679977417
1.4686778608167743,2.6665141159061974,-2.426151123053169,0.39218997955322266,0.18567702174186707,0.04698765277862549,0.04662976786494255,-0.9947904348373413,0.09065388143062592,0.022675838321447372,0.762215793132782,0.41323721408843994
1.466013044483379,2.686371288239386,-2.4440541376243696,0.25580868124961853,0.22180238366127014,0.04397808760404587,0.04598581790924072,-0.9945152401924133,0.09394232928752899,0.027561720460653305,0.7853781580924988,0.4436706304550171
1.4644089055287401,2.6999938723268624,-2.455469657199489,0.14031589031219482,0.22941264510154724,0.034698568284511566,0.04538336023688316,-0.9943462014198303,0.09600166976451874,0.03393201529979706,0.8068765997886658,0.4565650224685669
1.4637896157011334,2.708599640911616,-2.461887659120741,0.027059193700551987,0.21331195533275604,0.04029493406414986,0.0448138527572155,-0.994280219078064,0.09694752097129822,0.04441973567008972,0.8206198811531067,0.47989583015441895
1.464369535864,2.7131211519456264,-2.464523181507842,-0.11301454901695251,0.1630016565322876,0.058642249554395676,0.04413578286767006,-0.994342029094696,0.09662534296512604,0.06230970844626427,0.8322629332542419,0.5118647813796997
1.4663788454410454,2.712081305768708,-2.462227516045104,-0.27392488718032837,0.0856751799583435,0.05989047512412071,0.043403930962085724,-0.9945534467697144,0.09476225823163986,0.06514725834131241,0.8282935619354248,0.5288492441177368
1.469861221550362,2.7019080368560857,-2.451417993979628,-0.4538200795650482,0.03779473528265953,0.03141409158706665,0.04289107769727707,-0.9949103593826294,0.09118092060089111,0.06105194240808487,0.8229742050170898,0.5213375091552734
1.4748421671664842,2.6790907150821126,-2.428141368461114,-0.6428083181381226,0.0383109450340271,-0.009542307816445827,0.04274832457304001,-0.9953999519348145,0.08574208617210388,0.05080346018075943,0.8391041159629822,0.4965333938598633
1.4811699512715095,2.6403975427126016,-2.388730073546884,-0.815372109413147,0.07295121252536774,-0.05284663662314415,0.043005600571632385,-0.9959862232208252,0.07849810272455215,0.03733210638165474,0.85279780626297,0.4576195478439331
1.4884440464408462,2.581590309212402,-2.3286719416368653,-0.9630586504936218,0.14243783056735992,-0.09713777899742126,0.043695252388715744,-0.9966109395027161,0.0696946457028389,0.0241301991045475,0.8561996221542358,0.40207672119140625
1.496368046139111,2.4980567203428983,-2.242918667924258,-1.105333924293518,0.24622653424739838,-0.10766392201185226,0.04461804777383804,-0.9972314834594727,0.05948641151189804,0.032408468425273895,0.8673944473266602,0.3708268404006958
1.5047107338427286,2.383860271520609,-2.1256995636568243,-1.229828119277954,0.29379358887672424,-0.07067998498678207,0.045386020094156265,-0.9978171586990356,0.047969430685043335,0.04195546358823776,0.8601676225662231,0.36462831497192383
1.5130339894973537,2.2290025515998604,-1.9676967623176587,-1.335616946220398,0.2647411823272705,-0.011342620477080345,0.045671913772821426,-0.9983322024345398,0.03531510755419731,0.04940574988722801,0.8254805207252502,0.35979604721069336
1.5203785286427756,2.013207826458681,-1.7493352916644191,-1.4407284259796143,0.18827131390571594,0.015252431854605675,0.0455477200448513,-0.9987292885780334,0.021577313542366028,0.043853674083948135,0.7940172553062439,0.35069143772125244
1.5247575041512809,1.7172587345410657,-1.451413697297388,-1.5568121671676636,0.1435520499944687,-0.024961300194263458,0.04553479328751564,-0.9989404082298279,0.006717235315591097,0.021161556243896484,0.7762534022331238,0.32020246982574463
1.523698136577589,1.369096611214555,-1.101506601846666,-1.69866144657135,0.136665478348732,-0.09382323175668716,0.0461275652050972,-0.9988910555839539,-0.009432174265384674,0.011062543839216232,0.7593585848808289,0.27035754919052124
1.5162589966317304,1.0511485408389007,-0.7816871393489048,-1.8530629873275757,0.16067840158939362,-0.13090960681438446,0.04731683433055878,-0.9985132217407227,-0.027069689705967903,0.028153307735919952,0.7322472333908081,0.2108314037322998
1.5037875915206864,0.8104288792104042,-0.5388107120908949,-1.9866746664047241,0.1841890811920166,-0.08786669373512268,0.04851837828755379,-0.997755765914917,-0.046148307621479034,0.04338550195097923,0.7235552072525024,0.1565152406692505
1.4882774083350703,0.6373386331692547,-0.3633818616144814,-2.061551332473755,0.1846010684967041,0.008946407586336136,0.0490482933819294,-0.9965972304344177,-0.06624429672956467,0.03634006530046463,0.7132720351219177,0.10716850310564041
1.4711440933359303,0.5099442507056587,-0.23376723583174414,-2.0925240516662598,0.15038880705833435,0.11175346374511719,0.04856294393539429,-0.9950388073921204,-0.08683032542467117,-0.006814736872911453,0.6837289929389954,0.07274658232927322
1.452913970896548,0.41421213688611586,-0.13630015184249333,-2.1216015815734863,0.07847972959280014,0.1505352258682251,0.047334153205156326,-0.9930599331855774,-0.10766369849443436,-0.0556805282831192,0.6156185269355774,0.05677570402622223
1.4333658349683858,0.34209352221582107,-0.06314507205737692,-2.2177155017852783,0.021004274487495422,0.1365426480770111,0.04595765098929405,-0.9905712604522705,-0.12906040251255035,-0.08090008795261383,0.5496532320976257,0.0742967277765274
1.411814339340449,0.28580207012863384,-0.0061281747891848825,-2.424043893814087,-0.004994036164134741,0.1432093381881714,0.04463300481438637,-0.9873889684677124,-0.15189212560653687,-0.05125512555241585,0.5137712955474854,0.13640451431274414
1.3874885826368741,0.23703391546637378,0.04276086806630962,-2.7162749767303467,-0.13091346621513367,0.21882188320159912,0.04280390590429306,-0.9832461476325989,-0.17718663811683655,0.007946964353322983,0.4879762530326843,0.2022416591644287
1.3603827810014877,0.1900533185166506,0.08805956866478855,-2.9506747722625732,-0.39486098289489746,0.3725869357585907,0.03945695608854294,-0.9779446125030518,-0.20510424673557281,0.05420166254043579,0.4477626085281372,0.17258787155151367
1.3316291253318986,0.14260295956856953,0.13104503941559173,-3.027693271636963,-0.72050541639328,0.566819429397583,0.0336674302816391,-0.9715356230735779,-0.2344895452260971,0.06376010924577713,0.42345499992370605,0.036903560161590576
1.3026038552211834,0.09547312569157673,0.17065888951955432,-2.9670708179473877,-1.0346113443374634,0.710121214389801,0.025260960683226585,-0.9642514586448669,-0.2637827396392822,0.027351509779691696,0.3843410611152649,-0.1495930552482605
1.274342673970322,0.051336435390211585,0.20476026298182398,-2.812464714050293,-1.2157037258148193,0.7628472447395325,0.014990379102528095,-0.9563785195350647,-0.2917461693286896,-0.052358999848365784,0.30525535345077515,-0.36613649129867554
1.247273533371965,0.012500008320629976,0.23288916273410348,-2.669832706451416,-1.1698634624481201,0.7818275690078735,0.003973762970417738,-0.9481213688850403,-0.31788426637649536,-0.10204184055328369,0.23289602994918823,-0.5364094972610474
1.2209735110658633,-0.020737594713232263,0.25687352135815056,-2.6014246940612793,-0.9388719201087952,0.8352840542793274,-0.0071069225668907166,-0.9394334554672241,-0.34265804290771484,-0.08963364362716675,0.17197728157043457,-0.6122521758079529
1.1948275685565963,-0.04958065385067805,0.2789418989747406,-2.575340509414673,-0.7185070514678955,0.9178828001022339,-0.01819727011024952,-0.9301523566246033,-0.36672282218933105,-0.05924092233181,0.10051661729812622,-0.6331397891044617
1.1688490681013515,-0.0753390939180442,0.29985005792456687,-2.509812831878662,-0.574467122554779,0.9909879565238953,-0.029445642605423927,-0.9203009605407715,-0.39010173082351685,-0.04179748147726059,0.015088438987731934,-0.6489454507827759
1.1436450061060548,-0.09893197049727102,0.31974068285699486,-2.374427080154419,-0.5194376707077026,1.0452661514282227,-0.04091871902346611,-0.9101495742797852,-0.41225433349609375,-0.03499360755085945,-0.05182558298110962,-0.6509169936180115
1.119788228901329,-0.1213334512528993,0.33855379136058006,-2.1932971477508545,-0.5670896768569946,1.0630944967269897,-0.05275631695985794,-0.9000081419944763,-0.4326685965061188,-0.04468614608049393,-0.11569315195083618,-0.6463871002197266
1.0977425490663533,-0.14230488474165542,0.35550862265938016,-1.9874881505966187,-0.5784962773323059,1.0114035606384277,-0.06461647152900696,-0.8901811242103577,-0.4510014057159424,-0.09834723174571991,-0.1873030662536621,-0.6559931039810181
1.077354785886563,-0.1604443399198277,0.36980763178446785,-1.8670679330825806,-0.5180469751358032,0.9196056127548218,-0.07567038387060165,-0.8807079792022705,-0.46757620573043823,-0.1395089030265808,-0.23188668489456177,-0.5989214777946472
1.0575798844216513,-0.1752066252727139,0.38099155658124756,-1.8697878122329712,-0.4769168198108673,0.8036838173866272,-0.08558382838964462,-0.8711698055267334,-0.48346516489982605,-0.16777294874191284,-0.2929537892341614,-0.5120944976806641
1.0376882598157458,-0.18584131665855605,0.3884428924233172,-1.9221556186676025,-0.34170183539390564,0.6401328444480896,-0.09390421211719513,-0.8612316846847534,-0.4994618892669678,-0.20760931074619293,-0.37393689155578613,-0.47633761167526245
1.0172543248701047,-0.19113592470901966,0.3917681943285914,-2.0442452430725098,-0.1522730588912964,0.4689006805419922,-0.09987019747495651,-0.8506678342819214,-0.516130268573761,-0.19822534918785095,-0.40101075172424316,-0.41010868549346924
0.9957206007613499,-0.19207051353454796,0.3918145089509714,-2.182152271270752,-0.04177779704332352,0.3710864186286926,-0.10382572561502457,-0.83915114402771,-0.533896803855896,-0.1455942839384079,-0.4077361822128296,-0.335152268409729
0.9734297166500123,-0.19142999858284346,0.39062465696432086,-2.2047080993652344,-0.03808052837848663,0.36056241393089294,-0.1070166751742363,-0.826819658279419,-0.5521926879882812,-0.11005472391843796,-0.43044358491897583,-0.37007904052734375
0.9517386972228165,-0.1914262637921617,0.38992534331772066,-2.058150291442871,-0.08379685878753662,0.38726869225502014,-0.11040139943361282,-0.8144256472587585,-0.5696688294410706,-0.11671026796102524,-0.42571723461151123,-0.44105803966522217
0.9319186334360025,-0.1929838853378624,0.3902149087192045,-1.8333667516708374,-0.18639832735061646,0.4013754427433014,-0.11436237394809723,-0.8027654886245728,-0.5852255821228027,-0.14294645190238953,-0.4418635368347168,-0.46258020401000977
0.9140952497717323,-0.19602819033368798,0.391054076763469,-1.6619528532028198,-0.2817428708076477,0.3856624960899353,-0.11891169100999832,-0.7920105457305908,-0.5988150835037231,-0.16094961762428284,-0.5113495588302612,-0.43153464794158936
0.8975897422964808,-0.19937416351121406,0.3915124104777351,-1.5772387981414795,-0.302940309047699,0.313585102558136,-0.12348712980747223,-0.781826376914978,-0.6111452579498291,-0.16711634397506714,-0.596393346786499,-0.3918149471282959
0.881880680072344,-0.20167999421255883,0.39074180880576,-1.5296978950500488,-0.2778778076171875,0.22094091773033142,-0.12734070420265198,-0.7719358205795288,-0.6228157877922058,-0.17293685674667358,-0.6764590740203857,-0.3752005100250244
0.8667894531366537,-0.20309326910835282,0.3889507764794584,-1.471941351890564,-0.28547874093055725,0.1653980314731598,-0.13055580854415894,-0.7622547745704651,-0.6339739561080933,-0.16030709445476532,-0.740629255771637,-0.37298405170440674
0.8527144716221888,-0.20437474762921828,0.3867414864332902,-1.3336094617843628,-0.3089834451675415,0.1203928291797638,-0.13353247940540314,-0.7530691623687744,-0.6442484259605408,-0.15133371949195862,-0.7973612546920776,-0.42896324396133423
0.8405550134116091,-0.2060188530307514,0.3844286257412932,-1.1047252416610718,-0.3730204999446869,0.07620140165090561,-0.13645470142364502,-0.7450134754180908,-0.65294349193573,-0.15504907071590424,-0.8464173078536987,-0.501017689704895
0.830911628619416,-0.20858556036662357,0.38244463616169055,-0.8419422507286072,-0.4343242347240448,0.06578411906957626,-0.13961145281791687,-0.7385463118553162,-0.6595893502235413,-0.15369285643100739,-0.8890019655227661,-0.5469077825546265
0.8236885078957847,-0.2121804037853608,0.38119358757841315,-0.6129658222198486,-0.46564432978630066,0.06871625781059265,-0.14310136437416077,-0.7336572408676147,-0.664280891418457,-0.1487380862236023,-0.92778080701828,-0.5706433653831482
0.8186360265279521,-0.21607993420708407,0.3802295523345875,-0.4059532880783081,-0.4477469325065613,0.007763356436043978,-0.14648352563381195,-0.7302145957946777,-0.6673299074172974,-0.1768195480108261,-0.972422182559967,-0.6179331541061401
0.8157822709513068,-0.2187825110068882,0.37843203463546154,-0.20726950466632843,-0.3465883433818817,-0.133348748087883,-0.14873819053173065,-0.7282618880271912,-0.6689630746841431,-0.2224317044019699,-0.9943333864212036,-0.6715978384017944
0.8151379410021827,-0.21901131627039783,0.3750294571583873,-0.02433287724852562,-0.1963082104921341,-0.292007178068161,-0.14899316430091858,-0.7278202176094055,-0.6693869233131409,-0.22814291715621948,-1.0027248859405518,-0.7022103667259216
0.8165220173294943,-0.2167358214703126,0.3702541339273778,0.1550414115190506,-0.04825696721673012,-0.39954960346221924,-0.14725282788276672,-0.7287686467170715,-0.6687397956848145,-0.19568832218647003,-0.9925296306610107,-0.707892894744873
0.8198739095758498,-0.2127676493639493,0.36487919046412487,0.34585481882095337,0.04294378310441971,-0.45964476466178894,-0.14408136904239655,-0.7310597896575928,-0.6669274568557739,-0.1594158113002777,-0.971119225025177,-0.6828802824020386
0.8252622144343603,-0.208227575589566,0.3593213395875681,0.553758978843689,0.04050778970122337,-0.5014963150024414,-0.14023560285568237,-0.7347257137298584,-0.66371089220047,-0.12490098178386688,-0.9399111866950989,-0.6507879495620728
0.832803948607694,-0.20392032872674887,0.3538953926019898,0.7775552272796631,0.023392092436552048,-0.5199154019355774,-0.13624951243400574,-0.7398207783699036,-0.6588636040687561,-0.11654269695281982,-0.8863694071769714,-0.6370347738265991
0.8424947209125645,-0.20012631439710157,0.34892819619895404,0.9885833263397217,-0.00651440629735589,-0.5209366679191589,-0.13231731951236725,-0.7463059425354004,-0.6523186564445496,-0.10706241428852081,-0.8323989510536194,-0.6165258884429932
0.8542002567297979,-0.19681212904024326,0.3443836569515497,1.1889852285385132,-5.3280964493751526e-05,-0.5357213616371155,-0.1284375637769699,-0.754045844078064,-0.6441418528556824,-0.11747293174266815,-0.7878701090812683,-0.5991900563240051
0.867713062452722,-0.19316095706831546,0.3398878773440421,1.3448240756988525,0.04080946370959282,-0.5626248717308044,-0.12411744147539139,-0.7628522515296936,-0.6345481872558594,-0.13142134249210358,-0.7594561576843262,-0.5514869689941406
0.8825184216500367,-0.18936498512650574,0.33537453033117004,1.4540942907333374,0.02045516110956669,-0.5675314664840698,-0.1195685863494873,-0.7723410725593567,-0.6238532066345215,-0.12078770250082016,-0.7391794323921204,-0.4742608070373535
0.8982297010811148,-0.18604122041184376,0.33102478255153805,1.5320473909378052,-0.034802503883838654,-0.5577046871185303,-0.11523547023534775,-0.7822252511978149,-0.6122455596923828,-0.11144895106554031,-0.7159438133239746,-0.4447765350341797
0.9146775462519591,-0.18331496581715118,0.32678085543039215,1.6171783208847046,-0.08635452389717102,-0.566787600517273,-0.1112053245306015,-0.7923659086227417,-0.5998247861862183,-0.12316952645778656,-0.6957781314849854,-0.48129093647003174
0.9322996811486587,-0.18049249522957844,0.3221179172538468,1.7560621500015259,-0.08546342700719833,-0.6301937103271484,-0.10698843747377396,-0.8029926419258118,-0.5863074660301208,-0.1728575974702835,-0.697007417678833,-0.5728111267089844
0.9514333094402692,-0.17663967164774538,0.31640980160346416,1.8946908712387085,-0.06886491924524307,-0.7169960141181946,-0.10200987011194229,-0.8142483830451965,-0.5714837312698364,-0.18728134036064148,-0.6666934490203857,-0.6336858868598938
0.9720311386621364,-0.17094075792270974,0.30882634051625396,2.0152344703674316,-0.02336694672703743,-0.8615939617156982,-0.09587761014699936,-0.8260322213172913,-0.5554082989692688,-0.2370842695236206,-0.6590753197669983,-0.6815759539604187
0.9938502598009332,-0.16122313164692925,0.2977463315296071,2.082476854324341,0.1340171992778778,-1.0854346752166748,-0.08756141364574432,-0.838132381439209,-0.5383931994438171,-0.30072882771492004,-0.6372095346450806,-0.7203042507171631
1.0162929929159081,-0.14500154621721728,0.2813963536008901,2.0876190662384033,0.3520065248012543,-1.3346586227416992,-0.07607913762331009,-0.8501620292663574,-0.5209957361221313,-0.32240399718284607,-0.5661435723304749,-0.7120822668075562
1.0387594163352174,-0.12132418125012488,0.25907476500698984,2.0654025077819824,0.5583986043930054,-1.549855351448059,-0.06139564886689186,-0.8617755770683289,-0.5035609006881714,-0.3035944402217865,-0.4923047423362732,-0.6937352418899536
1.0608762890144938,-0.09048812532493905,0.230918115468178,2.046461820602417,0.7189754843711853,-1.7003138065338135,-0.044107697904109955,-0.8727835416793823,-0.4861106872558594,-0.25082927942276,-0.4044077396392822,-0.6776924133300781
1.082642869060525,-0.05378202833789999,0.19784661276184573,2.0852267742156982,0.8057207465171814,-1.7688376903533936,-0.02521139569580555,-0.8832004070281982,-0.46831783652305603,-0.20151880383491516,-0.2792752981185913,-0.6714831590652466
1.1045662804809002,-0.012406332373242361,0.16061246967798287,2.196281909942627,0.857231616973877,-1.798246145248413,-0.005576775874942541,-0.8932693004608154,-0.4494873583316803,-0.184425488114357,-0.16688090562820435,-0.6893370151519775
1.126895449222211,0.0333781605619595,0.1192743040050568,2.3094229698181152,0.8679121732711792,-1.7897368669509888,0.014332111924886703,-0.9030832648277283,-0.42922642827033997,-0.16476836800575256,-0.040749192237854004,-0.6601747274398804
1.1493089916838912,0.08314978855847019,0.07389233811253383,2.3946642875671387,0.8512088656425476,-1.7486058473587036,0.03397892042994499,-0.912481427192688,-0.4077048897743225,-0.13183337450027466,0.06744962930679321,-0.6165107488632202
1.1715962657951966,0.13679284541716236,0.024712902316997274,2.471531629562378,0.8642748594284058,-1.6627510786056519,0.05300319567322731,-0.9213722348213196,-0.3850506842136383,-0.11791393160820007,0.16679447889328003,-0.5936785340309143
1.1936212759362836,0.19426781938380802,-0.027963929832895636,2.537283182144165,0.8794314861297607,-1.5486249923706055,0.07109884172677994,-0.9297087788581848,-0.3613679111003876,-0.09746585041284561,0.27171921730041504,-0.5553953051567078
1.2153317926140401,0.25540753194063576,-0.08404925027461445,2.6010828018188477,0.8773698210716248,-1.3987977504730225,0.08792524039745331,-0.9374849200248718,-0.3367363512516022,-0.07669460773468018,0.3594666123390198,-0.5266669392585754
1.2369204874290722,0.3197802956826026,-0.1431624161346641,2.6814470291137695,0.8712131381034851,-1.2092009782791138,0.10301754623651505,-0.9447792768478394,-0.3110944330692291,-0.06331400573253632,0.4413459897041321,-0.5140703320503235
1.2586533663469048,0.3876412617847851,-0.20563720845979785,2.779289960861206,0.8513352274894714,-1.0119774341583252,0.11608526855707169,-0.951677680015564,-0.28431347012519836,-0.05997852981090546,0.5078909397125244,-0.47758835554122925
1.2806440206768035,0.46033346333458897,-0.2732666009224415,2.8892252445220947,0.7635235786437988,-0.842746376991272,0.12709839642047882,-0.9582003355026245,-0.2563169598579407,-0.07202926278114319,0.5475862622261047,-0.42564404010772705
1.302733016552027,0.5399589874475097,-0.34873479450077577,2.9843811988830566,0.653935968875885,-0.6950231790542603,0.13616716861724854,-0.964285671710968,-0.22718235850334167,-0.1014685332775116,0.5695559978485107,-0.36070817708969116
1.3241848738051878,0.6291882832536355,-0.43488161407306963,3.0111641883850098,0.5291532874107361,-0.6099753379821777,0.1436617225408554,-0.9697452187538147,-0.197372168302536,-0.1267853081226349,0.5939821600914001,-0.2686464190483093
1.3436448455477625,0.7312176121656933,-0.5349791228715692,2.9672248363494873,0.42560893297195435,-0.6028432250022888,0.150385320186615,-0.9743118286132812,-0.167632594704628,-0.15423041582107544,0.6000290513038635,-0.18884316086769104
1.3599673376314374,0.8474190278035627,-0.6497871155822182,2.869804859161377,0.40692979097366333,-0.593559205532074,0.1568647027015686,-0.977857768535614,-0.13852109014987946,-0.16031301021575928,0.6285076141357422,-0.12994195520877838
1.3725413206415484,0.9752541397964856,-0.7761418552567932,2.7264864444732666,0.41594812273979187,-0.5665021538734436,0.16305196285247803,-0.9804117679595947,-0.11048603802919388,-0.1502801924943924,0.6660043001174927,-0.06837737560272217
1.3811746260795519,1.1099246311468631,-0.9090410106744958,2.5727016925811768,0.44082072377204895,-0.5234724283218384,0.16882233321666718,-0.9820756316184998,-0.08382617682218552,-0.14248545467853546,0.6961868405342102,-0.03046208620071411
1.3862763705935488,1.2467481961963884,-1.043424439585307,2.4397363662719727,0.5197758078575134,-0.44100579619407654,0.17392674088478088,-0.9830244183540344,-0.058419935405254364,-0.12708204984664917,0.7299877405166626,-0.01456279307603836
1.388537076053081,1.3810279338994247,-1.17438673210804,2.296459197998047,0.5767277479171753,-0.334274560213089,0.17799867689609528,-0.9834367036819458,-0.03418992832303047,-0.09613506495952606,0.7607956528663635,0.04244500398635864
1.3886267019349425,1.507516145882231,-1.2972381456138282,2.128150463104248,0.5457717776298523,-0.20874850451946259,0.18080131709575653,-0.9834529757499695,-0.011456436477601528,-0.05052162706851959,0.770272433757782,0.13284021615982056
1.38732024788766,1.6237407215811495,-1.4105376177810884,2.002384662628174,0.4073673188686371,-0.07171022146940231,0.18219295144081116,-0.9832154512405396,0.009655118919909,-0.012972831726074219,0.7634278535842896,0.18625259399414062
1.385213298972942,1.7311021984878958,-1.5167203562615084,1.9287762641906738,0.18125800788402557,0.06445614248514175,0.18215423822402954,-0.9828288555145264,0.02945312298834324,-0.0022529512643814087,0.7630717158317566,0.19892525672912598
1.382398261817237,1.8314457860130775,-1.6181605867948248,1.8848596811294556,-0.04222860932350159,0.16716015338897705,0.18096020817756653,-0.9823055267333984,0.04826517775654793,-0.007681220769882202,0.7666072249412537,0.19924771785736084
1.378562291638241,1.9254616513323015,-1.7152001790863511,1.8498624563217163,-0.2031695544719696,0.20761436223983765,0.1791626513004303,-0.9815798401832581,0.06634832173585892,-0.02356860041618347,0.7684755325317383,0.18772590160369873
1.373385511331121,2.012351756617383,-1.8061775537727265,1.8006783723831177,-0.25456589460372925,0.2004147619009018,0.17732034623622894,-0.9805777072906494,0.08381615579128265,-0.057370856404304504,0.7708913087844849,0.1810002326965332
1.3669773310298772,2.0908445316544393,-1.888564772956206,1.7020955085754395,-0.18508405983448029,0.18532012403011322,0.17565225064754486,-0.9793007373809814,0.100583016872406,-0.07267045974731445,0.7766942977905273,0.19333197176456451
1.3600873040123351,2.1600688294527868,-1.9606798401692362,1.5437954664230347,-0.08466397970914841,0.21169686317443848,0.17387929558753967,-0.9778828620910645,0.11623874306678772,-0.04623934626579285,0.7771228551864624,0.2501249313354492
1.3536494105277288,2.2204668739337996,-2.023013499913151,1.3632891178131104,-0.024049870669841766,0.28211894631385803,0.17155581712722778,-0.9765161275863647,0.13032832741737366,-0.015793874859809875,0.7557059526443481,0.3085603713989258
1.348100790782037,2.27390007567684,-2.0778388566963333,1.204902172088623,0.006011889781802893,0.34621113538742065,0.16848085820674896,-0.9753056764602661,0.14280572533607483,-0.0033195316791534424,0.7315616607666016,0.3528151512145996
1.3432262749975423,2.321350964093401,-2.126426497993546,1.0700522661209106,0.004956598859280348,0.364735871553421,0.16499210894107819,-0.9742174744606018,0.15387707948684692,0.006287962198257446,0.7077531814575195,0.39460015296936035
1.3388434106891516,2.362676285306422,-2.169211891453,0.9434385895729065,-0.08189147710800171,0.36584562063217163,0.16149240732192993,-0.9732193350791931,0.1635996252298355,0.0187903493642807,0.6896498799324036,0.43543004989624023
1.3349224992546083,2.3979201020664784,-2.2069467087799692,0.8383138179779053,-0.21316809952259064,0.36006927490234375,0.15820960700511932,-0.972310483455658,0.1719956248998642,0.021478071808815002,0.6719105243682861,0.44413912296295166
1.3313620709636158,2.4275113696560773,-2.2402720002782264,0.7454230189323425,-0.3405758738517761,0.3342275321483612,0.15531736612319946,-0.9714723229408264,0.17921574413776398,0.002855435013771057,0.6664490699768066,0.437910795211792
1.3280708817339109,2.451084963356259,-2.268392592159312,0.625803530216217,-0.39305731654167175,0.2618389129638672,0.15308599174022675,-0.9706864953041077,0.18529151380062103,-0.021982282400131226,0.6724380254745483,0.4317587614059448
1.3251817000694364,2.467609738778062,-2.2892680180136535,0.4533342719078064,-0.344320148229599,0.1584147810935974,0.15175274014472961,-0.9699880480766296,0.1899859756231308,-0.04872521758079529,0.6908740997314453,0.43254223465919495
1.3232199855956306,2.4764143006751738,-2.301343670611633,0.21714113652706146,-0.23283080756664276,0.06413057446479797,0.1512482464313507,-0.9695091843605042,0.19281145930290222,-0.05212695896625519,0.7208213806152344,0.44642508029937744
1.3226966460805594,2.4778420540481707,-2.304518360894918,-0.036532945930957794,-0.09517893940210342,-0.0022266064770519733,0.15128526091575623,-0.969380795955658,0.193426713347435,-0.027414262294769287,0.7392934560775757,0.44353628158569336
1.3236715604845652,2.4730398231620514,-2.299788440536949,-0.25265976786613464,0.04729872941970825,-0.054868184030056,0.15162639319896698,-0.9696197509765625,0.19195610284805298,0.008987799286842346,0.7339019775390625,0.42864951491355896
1.3258077761349694,2.4635692073890607,-2.288988895628276,-0.4021286070346832,0.15012311935424805,-0.08448706567287445,0.15213824808597565,-0.9701400995254517,0.18889833986759186,0.05602233111858368,0.7260909080505371,0.4206904172897339
1.3288417068556273,2.4513114272903724,-2.274486846787,-0.509171187877655,0.20546910166740417,-0.0679575726389885,0.15256710350513458,-0.9708715081214905,0.18474864959716797,0.09575457870960236,0.7231755256652832,0.4271136522293091
1.3327991852306331,2.4375649928858425,-2.2581732388424243,-0.5972693562507629,0.20724037289619446,-0.01613672263920307,0.1526038497686386,-0.9718121290206909,0.1797037273645401,0.11915536224842072,0.7244213223457336,0.44193947315216064
1.3377709993688265,2.422381952930422,-2.2405857391521944,-0.6958141922950745,0.1716761589050293,0.043366994708776474,0.15212976932525635,-0.9729722142219543,0.1737290918827057,0.13743644952774048,0.7276566028594971,0.45305633544921875
1.3437956944266798,2.4045384137085843,-2.2208858806336065,-0.8042487502098083,0.09157706052064896,0.08573947846889496,0.15126283466815948,-0.9743458032608032,0.1666436642408371,0.13647228479385376,0.734553873538971,0.45675432682037354
1.3507670271151548,2.382519958407349,-2.1977920136614943,-0.9186601638793945,0.011583135463297367,0.1080956757068634,0.15021665394306183,-0.9758910536766052,0.15834146738052368,0.1091524213552475,0.7526243329048157,0.4502553939819336
1.3585571924195337,2.3546937096680627,-2.1695824377473123,-1.0470256805419922,-0.06659635156393051,0.11486862599849701,0.1491757184267044,-0.9775617122650146,0.1487286388874054,0.07241259515285492,0.7928539514541626,0.45898330211639404
1.3671545414409743,2.3200904356116037,-2.1351363068617526,-1.175468921661377,-0.10317254066467285,0.13533425331115723,0.14807288348674774,-0.9793365597724915,0.1377490758895874,0.008711352944374084,0.8282743692398071,0.46431708335876465
1.3764893491478685,2.277405750194193,-2.0925545331195954,-1.337289571762085,-0.08207577466964722,0.13391505181789398,0.14685595035552979,-0.9811817407608032,0.12536361813545227,-0.06638090312480927,0.8564867973327637,0.48883330821990967
1.3865400956249898,2.2213459047040103,-2.03623225912765,-1.5899683237075806,-0.06978646665811539,0.09929987043142319,0.14579400420188904,-0.983072817325592,0.1109597235918045,-0.1102866530418396,0.8966622948646545,0.5560020208358765
1.3972496332125202,2.144440461350124,-1.9588608321518788,-1.9027339220046997,-0.08760194480419159,0.07438760250806808,0.1450369954109192,-0.9849785566329956,0.09371158480644226,-0.11020098626613617,0.916252851486206,0.6260150671005249
1.4082055853311803,2.040125973293054,-1.854453658418952,-2.2200405597686768,-0.2116972655057907,0.08923405408859253,0.14437280595302582,-0.9868112206459045,0.07321474701166153,-0.07113046944141388,0.9022316932678223,0.6472595930099487
1.418439536370054,1.9023285841837814,-1.7184953461042738,-2.49886155128479,-0.49804994463920593,0.12959904968738556,0.14350402355194092,-0.9884161353111267,0.04939951002597809,-0.04006451368331909,0.8550238013267517,0.5943384170532227
1.4261964641134364,1.7299972305579592,-1.550497186623932,-2.689814567565918,-0.7253881096839905,0.16053958237171173,0.14227448403835297,-0.9895636439323425,0.02284354157745838,-0.019853025674819946,0.802200973033905,0.44032180309295654
1.4295888837632562,1.5314875580793936,-1.3580452507481415,-2.8183414936065674,-0.869110107421875,0.18495969474315643,0.14063096046447754,-0.9900467991828918,-0.005530879367142916,-0.01845364272594452,0.7829238772392273,0.2585369348526001
1.4273976862987794,1.3228966272920537,-1.1562457868521843,-2.9058802127838135,-0.8740108609199524,0.202475443482399,0.13853979110717773,-0.989736020565033,-0.03506523743271828,-0.020375549793243408,0.7644399404525757,0.09150755405426025
1.4194368586318156,1.123646108310331,-0.9631663474732322,-2.967642068862915,-0.7751029133796692,0.24578429758548737,0.13595829904079437,-0.9885669946670532,-0.0651981458067894,-0.0027794241905212402,0.732417643070221,-0.04867810010910034
1.4067225998784283,0.9447238472124326,-0.7894330967073581,-3.0207769870758057,-0.6985824108123779,0.37650159001350403,0.1323598027229309,-0.9865700602531433,-0.09571155160665512,0.055003032088279724,0.7112556099891663,-0.14505678415298462
1.390687395538172,0.7879192413638059,-0.6370675972033847,-3.023174285888672,-0.6411510705947876,0.5686268210411072,0.1269885003566742,-0.9838241934776306,-0.1263498067855835,0.10232074558734894,0.6780074238777161,-0.25740867853164673
1.3725706301107858,0.6529983842050017,-0.5060694659251629,-2.942089319229126,-0.6144686341285706,0.7407118082046509,0.11964960396289825,-0.9804175496101379,-0.1564156711101532,0.11089561134576797,0.6277409195899963,-0.37307947874069214
1.353248827668265,0.538853896341823,-0.39566531241423775,-2.813394784927368,-0.6135956645011902,0.8611873388290405,0.11075669527053833,-0.9764297008514404,-0.18525128066539764,0.09293302148580551,0.5676620006561279,-0.4560145139694214
1.3333353064902835,0.4428940084251741,-0.3034480489038653,-2.664533853530884,-0.6022406816482544,0.927280604839325,0.10081162303686142,-0.9719383716583252,-0.2125389277935028,0.0685458555817604,0.50013667345047,-0.5219123363494873
1.3132430662103625,0.3624696649332362,-0.22632173409110062,-2.5216753482818604,-0.5293001532554626,0.983914315700531,0.09031815826892853,-0.9670161008834839,-0.23816506564617157,0.0697467103600502,0.4187830090522766,-0.56083083152771
1.2932732751563634,0.2929292909034702,-0.1595970106915491,-2.4037022590637207,-0.5174764394760132,1.0773624181747437,0.07911230623722076,-0.9617370367050171,-0.26230373978614807,0.08784949034452438,0.3326933979988098,-0.5737404823303223
1.2735247576318534,0.23018234914586821,-0.0995501853184856,-2.2987656593322754,-0.5140604376792908,1.1997716426849365,0.06682957708835602,-0.9561392664909363,-0.28518733382225037,0.12419538199901581,0.20558983087539673,-0.6154626607894897
1.254112753448244,0.17178826438806852,-0.04375983913496291,-2.1787354946136475,-0.5310946702957153,1.3285578489303589,0.05323511362075806,-0.9502734541893005,-0.30683353543281555,0.16298209130764008,0.08380287885665894,-0.7170312404632568
1.23546596898411,0.1180939395861516,0.007608287526280703,-1.979249119758606,-0.45003148913383484,1.3826937675476074,0.03877224400639534,-0.9443016648292542,-0.3267892897129059,0.1027379259467125,-0.046375274658203125,-0.9088369011878967
1.2183703926965466,0.07178154015322098,0.05324930191043709,-1.7192755937576294,-0.20947276055812836,1.352311611175537,0.02475598268210888,-0.9385380744934082,-0.3442869782447815,-0.02802119217813015,-0.13301044702529907,-1.0691040754318237
1.2031427308953733,0.03445855868453222,0.09266589127483335,-1.4816670417785645,0.14251963794231415,1.254577398300171,0.012382883578538895,-0.9331732988357544,-0.35921356081962585,-0.16788503527641296,-0.15255063772201538,-1.1172878742218018
1.1894233360821784,0.007617584115953999,0.12576604506421837,-1.327735424041748,0.6705361604690552,1.1119158267974854,0.002835202496498823,-0.928154468536377,-0.3721846342086792,-0.2523162364959717,-0.18711048364639282,-1.0703202486038208
1.1765186963680352,-0.00892200456081512,0.15374081305406168,-1.267128825187683,1.1779319047927856,1.0242624282836914,-0.00342726637609303,-0.9232742786407471,-0.3841261565685272,-0.1932125836610794,-0.24571681022644043,-0.9137406349182129
1.1637365480345538,-0.019882732486395247,0.17982776692760793,-1.2623423337936401,1.3953226804733276,1.0647773742675781,-0.007871277630329132,-0.9182888269424438,-0.39583292603492737,-0.07684537023305893,-0.3186191916465759,-0.7020674347877502
1.1510785186170436,-0.031111979448972874,0.2066990517706588,-1.2066631317138672,1.2329950332641602,1.161170244216919,-0.012676181271672249,-0.9132039546966553,-0.40730583667755127,-0.031024843454360962,-0.4263499975204468,-0.5494964718818665
1.1392421671724149,-0.04644325811111444,0.2345116103710552,-1.0624849796295166,0.7442052364349365,1.2200301885604858,-0.019419455900788307,-0.9083167910575867,-0.41783225536346436,-0.04622368887066841,-0.5125054717063904,-0.47795015573501587
1.1290610123074427,-0.06604488573024536,0.2614213962270024,-0.8411962985992432,0.23826001584529877,1.1448465585708618,-0.02821427583694458,-0.9040111899375916,-0.4265771806240082,-0.1549368053674698,-0.5521658062934875,-0.4924291968345642
1.1209180488824906,-0.08503370265858481,0.283595132637265,-0.6540446877479553,0.006907009519636631,0.8555493354797363,-0.03693287819623947,-0.9005000591278076,-0.4332849085330963,-0.1462182253599167,-0.5556768178939819,-0.4857214093208313
1.1139810931064906,-0.09678403697686119,0.297002820837353,-0.6564375758171082,0.08864608407020569,0.4377848207950592,-0.04262407869100571,-0.8974618315696716,-0.4390280246734619,-0.31343960762023926,-0.5834495425224304,-0.5274330973625183
1.1061955022373111,-0.09798594736637545,0.30087472145005933,-0.8814553618431091,0.3824376165866852,0.07605106383562088,-0.04383396729826927,-0.8940004706382751,-0.44591692090034485,-0.4080396592617035,-0.5849882364273071,-0.49472635984420776
1.0960320958221297,-0.08955266929688084,0.2978511820450357,-1.1706491708755493,0.7734200358390808,-0.14194437861442566,-0.04088244214653969,-0.8894005417823792,-0.4552973508834839,-0.4179796874523163,-0.5359384417533875,-0.4024449586868286
1.0833061418811807,-0.07384807546968267,0.29100397895373165,-1.4112554788589478,1.1407718658447266,-0.2716124951839447,-0.03455974534153938,-0.8835112452507019,-0.4671333432197571,-0.3625653386116028,-0.48652970790863037,-0.33625707030296326
1.0686305228193798,-0.05400412028116658,0.2826515262444833,-1.5615004301071167,1.3343455791473389,-0.3208508789539337,-0.025980917736887932,-0.8765421509742737,-0.48062360286712646,-0.2755173444747925,-0.46261507272720337,-0.28393322229385376
1.0529509778299224,-0.034377357850786404,0.275174797222439,-1.5929219722747803,1.2488542795181274,-0.2563384175300598,-0.017013758420944214,-0.8688877820968628,-0.4947167634963989,-0.15690577030181885,-0.40822720527648926,-0.2064092755317688
1.037629270447211,-0.019782835175328375,0.27079995735223367,-1.4670591354370117,0.8916546702384949,-0.09226533025503159,-0.010054236277937889,-0.8612017035484314,-0.5081639885902405,-0.04628103971481323,-0.3337751626968384,-0.14337092638015747
1.0241878412170966,-0.01270426763945218,0.2703100123336954,-1.2147586345672607,0.43998098373413086,0.07929828763008118,-0.0066034127958118916,-0.8542923331260681,-0.5197511315345764,0.031048158183693886,-0.28732460737228394,-0.11780679225921631
1.0135027916603714,-0.012141967774769046,0.27239800696761135,-0.923261821269989,0.04119286686182022,0.1484946608543396,-0.006421624217182398,-0.848689615726471,-0.5288524031639099,0.04192899167537689,-0.28445863723754883,-0.11152839660644531
1.0055593730183208,-0.015100462338085364,0.2745365782401362,-0.6706715226173401,-0.2646670639514923,0.08531351387500763,-0.008087744005024433,-0.8444616794586182,-0.5355550646781921,-0.006804683245718479,-0.3042505383491516,-0.11308073997497559
0.999878254699767,-0.019169824646443002,0.2745511350761021,-0.47542667388916016,-0.5425642132759094,-0.07317066937685013,-0.010358831845223904,-0.8414052128791809,-0.5403056144714355,-0.06961232423782349,-0.33202630281448364,-0.09104204177856445
0.9957115674871307,-0.022720921485069944,0.27115861883711917,-0.38232335448265076,-0.7233940362930298,-0.2809869349002838,-0.012356982566416264,-0.8391461968421936,-0.5437656044960022,-0.12703189253807068,-0.37700986862182617,-0.05762892961502075
0.9918800605501253,-0.023888578917968334,0.263769732694364,-0.42069071531295776,-0.7231932282447815,-0.5067348480224609,-0.013068608939647675,-0.8370561003684998,-0.5469610691070557,-0.1799854189157486,-0.4164840579032898,-0.01331108808517456
0.9869911835391065,-0.0208375211684934,0.252632273709426,-0.6050025820732117,-0.5080103874206543,-0.6867220401763916,-0.011484870687127113,-0.8343712687492371,-0.5510832667350769,-0.2125445157289505,-0.4104713201522827,0.047680556774139404
0.9795935007629152,-0.013176314755696743,0.23925492727169886,-0.9124583601951599,-0.18517345190048218,-0.7581837177276611,-0.007343740202486515,-0.8302708864212036,-0.5573117733001709,-0.23836837708950043,-0.34802812337875366,0.0973050594329834
0.9689258670650467,-0.002546094966666399,0.22586667337422647,-1.2307153940200806,0.08031076937913895,-0.7176826000213623,-0.001441559987142682,-0.8242780566215515,-0.5661835074424744,-0.20766471326351166,-0.26025575399398804,0.13905948400497437
0.9554434681540823,0.008251938324086815,0.2143218240330961,-1.4488322734832764,0.15839225053787231,-0.6061505079269409,0.004763350356370211,-0.8165698051452637,-0.5772270560264587,-0.0984673947095871,-0.2142835259437561,0.18226861953735352
0.9405285957101291,0.01664326312305507,0.20557078260624925,-1.5008856058120728,0.08782833814620972,-0.44921788573265076,0.009808439761400223,-0.8078697323799133,-0.5892795324325562,-0.01592704840004444,-0.19280171394348145,0.18371617794036865
0.9260682542321681,0.021658501278465,0.19973765596397375,-1.3613277673721313,-0.02647213824093342,-0.30697500705718994,0.013015336357057095,-0.7992632389068604,-0.6008403301239014,0.020142188295722008,-0.1753462553024292,0.11814379692077637
0.9136923885108796,0.02385890193415423,0.19576977000013213,-1.097647786140442,-0.16819672286510468,-0.24489448964595795,0.01457226648926735,-0.7917645573616028,-0.6106526255607605,0.014816324226558208,-0.1783130168914795,0.007487952709197998
0.904133401612509,0.024489942692868166,0.19182805534360428,-0.8075342774391174,-0.3265128433704376,-0.30049940943717957,0.015142255462706089,-0.7858895659446716,-0.6181814670562744,-0.015203120186924934,-0.20362764596939087,-0.06445091962814331
0.8972467554025478,0.025194493162897538,0.18633003636144455,-0.5683019161224365,-0.3708712160587311,-0.41962358355522156,0.0157137643545866,-0.7816125154495239,-0.6235663890838623,-0.03727427124977112,-0.22230905294418335,-0.0990288257598877
0.8920985107998576,0.027623875679290588,0.17914875053505352,-0.45830193161964417,-0.2539621591567993,-0.4965881407260895,0.017339512705802917,-0.7783908843994141,-0.6275405287742615,-0.06868517398834229,-0.2310696840286255,-0.13201141357421875
0.8872895558190453,0.03177544747446218,0.17151497260358062,-0.493657648563385,-0.0993482917547226,-0.48693567514419556,0.020063327625393867,-0.7753629088401794,-0.6311972141265869,-0.09821867197751999,-0.20591461658477783,-0.11317229270935059
0.8815280423968452,0.037140002797677735,0.16458740616766354,-0.6373887062072754,0.11086352914571762,-0.4236467182636261,0.02361460216343403,-0.7717115879058838,-0.6355342268943787,-0.08611444383859634,-0.16652101278305054,-0.03847700357437134
0.8741283145615867,0.04364475074823211,0.15926681717141103,-0.8156967163085938,0.36876407265663147,-0.31087490916252136,0.027996452525258064,-0.7669844627380371,-0.6410547494888306,-0.05607247352600098,-0.14658981561660767,0.004656434059143066
0.8651409038777421,0.05065889237910434,0.15610018534152595,-0.9538365006446838,0.5319213271141052,-0.1844906061887741,0.03283991292119026,-0.7611866593360901,-0.6477009654045105,0.0019503049552440643,-0.1303539276123047,0.017406225204467773
0.8552699027010103,0.05711674187193998,0.1547960996640204,-0.9987928867340088,0.5460485219955444,-0.10119810700416565,0.03744906559586525,-0.7547479867935181,-0.6549451947212219,0.044231392443180084,-0.12205260992050171,0.030158817768096924
0.8454459610792004,0.062428284270076316,0.15434040465951052,-0.9546323418617249,0.43499234318733215,-0.0846545472741127,0.0413878858089447,-0.7482670545578003,-0.6621054410934448,0.03939231485128403,-0.13878744840621948,0.0260276198387146
0.8363942863681918,0.06633356809628019,0.15357214942325004,-0.8409783840179443,0.22347141802310944,-0.14467187225818634,0.04442042112350464,-0.7422316074371338,-0.6686697602272034,0.025571823120117188,-0.1560686230659485,0.01585298776626587
0.8285867924017886,0.06901621822808937,0.15129668367473872,-0.6989525556564331,-0.02135377749800682,-0.27243754267692566,0.04661228135228157,-0.7369769215583801,-0.6743088960647583,0.006442710757255554,-0.16976147890090942,0.006446957588195801
0.8219809732673383,0.07115589242539404,0.1468628569806952,-0.5851336717605591,-0.18847841024398804,-0.4183107018470764,0.048400044441223145,-0.7324958443641663,-0.6790488958358765,-0.022200539708137512,-0.17714166641235352,-0.011975884437561035
0.8161039534607807,0.07359368289557641,0.1405191065740181,-0.5329817533493042,-0.23778337240219116,-0.526076078414917,0.05037093907594681,-0.7284823060035706,-0.6832104325294495,-0.02902371436357498,-0.15262126922607422,-0.024858415126800537
0.8104307651909285,0.0767887373343189,0.13296318147275135,-0.5282133221626282,-0.21780264377593994,-0.5920906662940979,0.0528697669506073,-0.7245841026306152,-0.6871556043624878,-0.017957504838705063,-0.11068207025527954,-0.026940464973449707
0.8045780440675426,0.08066937251575408,0.12481748827165116,-0.5515002608299255,-0.18221190571784973,-0.6199526190757751,0.05587673559784889,-0.7205381393432617,-0.6911603808403015,-0.019072365015745163,-0.07822906970977783,-0.02539229393005371
0.7984362841037979,0.08500215918947909,0.1166892125904802,-0.5770280361175537,-0.12164812535047531,-0.604110598564148,0.05924544855952263,-0.7162657380104065,-0.6953080892562866,-0.015818774700164795,-0.049084603786468506,-0.024342119693756104
0.7921979140732793,0.08919088171257009,0.1091904842821898,-0.5740935206413269,-0.1234968900680542,-0.5496990084648132,0.06255417317152023,-0.7118985652923584,-0.6994909644126892,0.005606994032859802,-0.020798027515411377,-0.014681398868560791
0.7861805255439133,0.0923816106792872,0.10264955383200025,-0.5435875058174133,-0.16867129504680634,-0.47844213247299194,0.0651797354221344,-0.7076597809791565,-0.703540563583374,0.02301623672246933,0.011843681335449219,0.015170812606811523
0.7805259851896568,0.09435275096157442,0.0970845158474818,-0.5118865966796875,-0.22689040005207062,-0.4150460958480835,0.06694231182336807,-0.7036532759666443,-0.7073830962181091,0.03506285697221756,0.03957545757293701,0.040818214416503906
0.7751685570670142,0.09515967890497308,0.09226216642035322,-0.4939901530742645,-0.2832344174385071,-0.3761134743690491,0.06787031143903732,-0.6998364925384521,-0.7110714316368103,0.04045199602842331,0.05593079328536987,0.0646938681602478
0.7699226362589896,0.09545866597740138,0.08789770351483957,-0.49424660205841064,-0.25344935059547424,-0.34306976199150085,0.06843189895153046,-0.696079671382904,-0.7146958708763123,0.024860508739948273,0.05730098485946655,0.06375592947006226
0.7646569878895779,0.0960259978058441,0.08429436170660304,-0.5065320134162903,-0.12792357802391052,-0.27166393399238586,0.06918782740831375,-0.6922895312309265,-0.7182954549789429,0.009013645350933075,0.06150639057159424,0.02420365810394287
0.7593205063866842,0.09710573419645321,0.081739898854039,-0.5206171870231628,-0.01812250167131424,-0.20199191570281982,0.07032053917646408,-0.6884287595748901,-0.7218870520591736,-0.011726617813110352,0.07150065898895264,0.0007414817810058594
0.7539532564962609,0.09837605248264653,0.07997783858339749,-0.523589015007019,0.027564942836761475,-0.1622430980205536,0.07159939408302307,-0.6845259666442871,-0.7254638671875,-0.041814081370830536,0.07739394903182983,-0.0006256103515625
0.7486388998208948,0.09985158298714827,0.07856890817439482,-0.5167686343193054,0.07688295841217041,-0.15078005194664001,0.07303137332201004,-0.6806422472000122,-0.7289668917655945,-0.05243183672428131,0.07224369049072266,0.005669772624969482
0.7433561992538171,0.10184160278782164,0.07717305018486977,-0.5159253478050232,0.13043871521949768,-0.16426289081573486,0.07484639436006546,-0.676762580871582,-0.7323868870735168,-0.057039208710193634,0.051762521266937256,0.020198166370391846
0.7379586556067153,0.1044589845519987,0.07536321925902553,-0.5350050330162048,0.14354465901851654,-0.2161220908164978,0.07714282721281052,-0.6727790236473083,-0.7358106970787048,-0.07212251424789429,0.034015536308288574,0.04440450668334961
0.7321658089848311,0.1075987006818901,0.0727263117424687,-0.5798714756965637,0.12997153401374817,-0.29791387915611267,0.07986988127231598,-0.6684819459915161,-0.7394272685050964,-0.08762118965387344,0.03415882587432861,0.06811684370040894
0.7258020062181817,0.11116166019395976,0.0691069046822656,-0.6258178949356079,0.09550916403532028,-0.3751410245895386,0.08297416567802429,-0.6637355089187622,-0.7433508038520813,-0.08445410430431366,0.026757359504699707,0.08278262615203857
0.7190118344159658,0.11454477400774715,0.0649075202839843,-0.6512172818183899,0.02368125505745411,-0.39862287044525146,0.08600165694952011,-0.6586414575576782,-0.7475260496139526,-0.05157766491174698,-0.006733357906341553,0.07259929180145264
0.7121440914657219,0.1169837719488814,0.06090984191888364,-0.638432502746582,-0.062392376363277435,-0.354690283536911,0.08835049718618393,-0.653458297252655,-0.751788854598999,0.0254192054271698,-0.049453139305114746,0.027072668075561523
0.7056749911587645,0.11805391930915043,0.05767273781707903,-0.5864889621734619,-0.14197830855846405,-0.2851346433162689,0.08965099602937698,-0.6485477685928345,-0.7558760643005371,0.10718756169080734,-0.0874904990196228,-0.05509805679321289
0.6999596060399931,0.11783888091206338,0.05534547858973024,-0.5070868134498596,-0.19978274405002594,-0.20268291234970093,0.08992277085781097,-0.644186794757843,-0.7595639228820801,0.14875537157058716,-0.11202359199523926,-0.13916349411010742
0.6952240965826916,0.11654081140498042,0.05393365528855187,-0.40741968154907227,-0.2368628978729248,-0.12528352439403534,0.08929044008255005,-0.6405575275421143,-0.7627013325691223,0.1711009442806244,-0.12944674491882324,-0.2059723138809204
0.6916690576535353,0.1145515872805062,0.053360295211260664,-0.2895055413246155,-0.2298412173986435,-0.04442116618156433,0.08803281933069229,-0.6378235220909119,-0.7651349306106567,0.18793782591819763,-0.15018612146377563,-0.26759517192840576
0.6893336294004153,0.1122680203125432,0.05369807948867942,-0.18362990021705627,-0.18170827627182007,0.04341626167297363,0.08645199239253998,-0.6360231041908264,-0.7668120265007019,0.19102928042411804,-0.16484969854354858,-0.3152802586555481
0.6880967769054388,0.10985552734156491,0.05496035448528745,-0.08287719637155533,-0.1439712792634964,0.12138163298368454,0.08468800038099289,-0.6350681781768799,-0.7677997350692749,0.18360744416713715,-0.1519802212715149,-0.3302532434463501
0.6880081927723992,0.10741915918499206,0.056923399778104296,0.03657926619052887,-0.08858329057693481,0.17178963124752045,0.08282313495874405,-0.6349997520446777,-0.7680597305297852,0.166856586933136,-0.12911468744277954,-0.32205867767333984
0.6891492361324204,0.10566469669178886,0.05900994054314381,0.15509073436260223,0.005781824234873056,0.16679753363132477,0.08139900118112564,-0.6358808279037476,-0.7674828171730042,0.1328803300857544,-0.12119930982589722,-0.30710214376449585
0.6913006403031401,0.10538627202347937,0.06068278541630353,0.24005240201950073,0.16265390813350677,0.1350202113389969,0.08104122430086136,-0.6375397443771362,-0.7661432027816772,0.07545307278633118,-0.11394035816192627,-0.29830992221832275
0.6940573598487182,0.10733485576157707,0.0618193525123832,0.2859863042831421,0.3738958239555359,0.09875249117612839,0.08234536647796631,-0.6396611332893372,-0.7642335295677185,0.011938869953155518,-0.08642834424972534,-0.2682065963745117
0.6970612321004586,0.11164818933555028,0.06240235524424482,0.2984154224395752,0.5573354363441467,0.05503871291875839,0.08542651683092117,-0.641967236995697,-0.7619583010673523,-0.040794387459754944,-0.053177475929260254,-0.20578455924987793
0.6999332708349462,0.1180525560387113,0.06223053667532332,0.2719252407550812,0.6984107494354248,-0.017618980258703232,0.09008707106113434,-0.6441666483879089,-0.7595615386962891,-0.0816945806145668,-0.02897489070892334,-0.11736100912094116
0.7022715783669338,0.12623726001537536,0.06109595469937548,0.21171888709068298,0.7856461405754089,-0.09764886647462845,0.09611085802316666,-0.6459534168243408,-0.7573024034500122,-0.10261092334985733,-0.01005244255065918,-0.03626143932342529
0.7038072506726933,0.13570927626751994,0.058945663370395876,0.13519509136676788,0.8295864462852478,-0.18626154959201813,0.1031452938914299,-0.6471249461174011,-0.7553743720054626,-0.11977720260620117,0.006759345531463623,0.046801984310150146
0.704443744654988,0.1460695097282146,0.05585450896428735,0.060848336666822433,0.8405046463012695,-0.26218029856681824,0.11090549826622009,-0.647610068321228,-0.7538575530052185,-0.12642350792884827,0.026882529258728027,0.1208619475364685
0.7043821241539016,0.1568838127307736,0.05190796916160609,0.02262718603014946,0.8065949082374573,-0.3323756456375122,0.11905752867460251,-0.647563099861145,-0.7526535391807556,-0.11476965248584747,0.04012596607208252,0.16520541906356812
0.7039315321549988,0.16744182024074053,0.047226178093113934,0.003315504640340805,0.6907413005828857,-0.3816879689693451,0.1270458996295929,-0.647219717502594,-0.7516422867774963,-0.10572919249534607,0.04246807098388672,0.1827641725540161
0.703211546487995,0.17672054650604388,0.04226328265152889,-0.016016382724046707,0.5206068754196167,-0.38655543327331543,0.13409648835659027,-0.6466706991195679,-0.7508895993232727,-0.08546656370162964,0.038485825061798096,0.18997657299041748
0.7022006007141929,0.183855414534307,0.03743601375880359,-0.0546681210398674,0.2619132697582245,-0.3758416473865509,0.1395699679851532,-0.64589923620224,-0.7505560517311096,-0.050321146845817566,0.03161090612411499,0.20711439847946167
0.7007247475482851,0.1876934666359148,0.03297317801964345,-0.1107252687215805,-0.06002242863178253,-0.34698548913002014,0.14262732863426208,-0.6447718143463135,-0.7509505748748779,-0.02907124161720276,0.026623010635375977,0.2422378659248352
0.6988567411234519,0.18863394738250608,0.02904844929721462,-0.13755832612514496,-0.23717600107192993,-0.3152581751346588,0.14355912804603577,-0.6433428525924683,-0.7519978284835815,-0.009418949484825134,0.007188677787780762,0.2172994613647461
0.696936741366354,0.18831312279995763,0.025371319772576326,-0.1331995278596878,-0.29385843873023987,-0.3135707974433899,0.14354883134365082,-0.6418717503547668,-0.7532559037208557,-0.016854941844940186,-0.0017287135124206543,0.1384792923927307
0.695030508711266,0.1875554552469056,0.021577321056326697,-0.1319645345211029,-0.34371426701545715,-0.3318709135055542,0.14320595562458038,-0.6404088735580444,-0.7545651793479919,-0.024538174271583557,-0.0027490854263305664,0.05768102407455444
0.6931229664516956,0.18669297099612406,0.017566231519704396,-0.13063029944896698,-0.33483263850212097,-0.341861754655838,0.1427815854549408,-0.6389426589012146,-0.7558874487876892,-0.01697269082069397,-0.0061226487159729,0.013852536678314209
0.6911117043107632,0.18582984625579801,0.013676519359310468,-0.15738993883132935,-0.3445271849632263,-0.3198959529399872,0.14236624538898468,-0.6373941898345947,-0.7572717666625977,0.005506843328475952,0.0025064945220947266,-0.0020207762718200684
0.6889065407265617,0.18444114022484043,0.010307186748654593,-0.17712263762950897,-0.3608555793762207,-0.2708309292793274,0.14157192409038544,-0.6356934905052185,-0.7588486671447754,0.027312546968460083,-0.01324760913848877,-0.01654195785522461
0.6867807385857075,0.1825931117499169,0.007688606771573429,-0.16547569632530212,-0.3341892957687378,-0.20321474969387054,0.14041437208652496,-0.6340510249137878,-0.7604361772537231,0.05286890268325806,-0.005078613758087158,-0.048508524894714355
0.6849933065684031,0.1808292630989797,0.005893098600474427,-0.13877271115779877,-0.24081620573997498,-0.13690416514873505,0.13927645981311798,-0.6326678395271301,-0.7617962956428528,0.06496261060237885,-0.001884162425994873,-0.07949703931808472
0.6834804529166277,0.17960729586291238,0.004848989530388481,-0.13213111460208893,-0.13776721060276031,-0.07926996052265167,0.13851627707481384,-0.6314955353736877,-0.7629067301750183,0.0631897896528244,-0.009816110134124756,-0.10293793678283691
0.6820565104169467,0.1789596893120016,0.0044806712574703075,-0.13985854387283325,-0.040265414863824844,-0.028965512290596962,0.1381821185350418,-0.6303907632827759,-0.7638803124427795,0.05236981809139252,-0.003459334373474121,-0.10500085353851318
0.6806017012421115,0.17877612617195424,0.0047090855538413435,-0.15242870151996613,0.026960819959640503,0.012452073395252228,0.13820482790470123,-0.629260778427124,-0.764807403087616,0.0445803701877594,0.008991003036499023,-0.08970004320144653
0.6791519241109835,0.17880763581285267,0.005408018818035944,-0.15158236026763916,0.06358061730861664,0.04176655411720276,0.13839104771614075,-0.6281333565711975,-0.7656999826431274,0.04134240746498108,0.01851421594619751,-0.06965768337249756
0.6777901581450984,0.17904729054407795,0.006350417433250995,-0.14236314594745636,0.10586333274841309,0.05445666238665581,0.13872675597667694,-0.6270731687545776,-0.7665078043937683,0.03793969750404358,0.023465991020202637,-0.04959326982498169
0.6765264910824534,0.1798158844065376,0.007367219832477698,-0.13399577140808105,0.17877347767353058,0.05364466458559036,0.13945744931697845,-0.6260883212089539,-0.7671799063682556,0.03209728002548218,0.029133975505828857,-0.02891683578491211
0.6753602687826274,0.18131112013546344,0.00825286683653781,-0.12052594125270844,0.22075265645980835,0.04088491201400757,0.14073596894741058,-0.6251785159111023,-0.7676882147789001,0.01963406801223755,0.036585986614227295,-0.016872882843017578
0.6742699607035939,0.1830029845813381,0.009012913353445338,-0.1160704717040062,0.2103697955608368,0.04047105833888054,0.14215855300426483,-0.6243271827697754,-0.7681187987327576,-0.0017317533493041992,0.04560708999633789,-0.005822181701660156
0.6732672755051199,0.1843206700947784,0.009959076634528356,-0.10746900737285614,0.16244907677173615,0.07225964218378067,0.14328522980213165,-0.6235436201095581,-0.7685458660125732,0.0046488940715789795,0.053566813468933105,0.03169894218444824
0.672454321523163,0.18458922929228155,0.011359471287775891,-0.09028229862451553,0.0612630732357502,0.11240652948617935,0.14358462393283844,-0.6229078769683838,-0.7690054178237915,0.03183057904243469,0.051145732402801514,0.066017746925354
0.6718932342812751,0.18350914099438553,0.013030879440329133,-0.06610922515392303,-0.07192294299602509,0.12054115533828735,0.14281770586967468,-0.6224688291549683,-0.7695035934448242,0.04283614456653595,0.037263691425323486,0.08684062957763672
0.6715579788969939,0.18106533491173382,0.014572348139169994,-0.04257513955235481,-0.22358517348766327,0.10076851397752762,0.14097432792186737,-0.6222063899040222,-0.7700554728507996,0.03155696392059326,0.017607450485229492,0.08948302268981934
0.6714097198785917,0.17755990901270224,0.015703918247666416,-0.010449889115989208,-0.33352217078208923,0.07287329435348511,0.1382903903722763,-0.6220903396606445,-0.770635724067688,0.015182659029960632,0.010655403137207031,0.09694498777389526
0.6716070496270804,0.1734548275429611,0.016491142259090135,0.034307196736335754,-0.3866517245769501,0.061530355364084244,0.13510452210903168,-0.6222448348999023,-0.771075963973999,0.007138073444366455,0.016654014587402344,0.0877721905708313
0.6722660399272219,0.16917935195189873,0.017232002146121157,0.0814022645354271,-0.36923763155937195,0.08203140646219254,0.13173750042915344,-0.622760534286499,-0.7712422013282776,0.00121249258518219,0.0211065411567688,0.05682575702667236
0.6734787028794453,0.16521170053228745,0.018417103916106025,0.13530170917510986,-0.2703281044960022,0.14753104746341705,0.1285521686077118,-0.6237089037895203,-0.7710133790969849,0.003207653760910034,0.033880412578582764,0.016573071479797363
0.6754128103495777,0.161884666061001,0.020511573418411755,0.19541560113430023,-0.13701903820037842,0.2451094090938568,0.12579160928726196,-0.6252195239067078,-0.770244836807251,0.00825701653957367,0.052343547344207764,-0.03860831260681152
0.6780649380728185,0.1591345960320394,0.023728637716227872,0.2490178495645523,-0.021222926676273346,0.34438005089759827,0.12340971827507019,-0.6272872090339661,-0.7689478993415833,0.008655272424221039,0.07086014747619629,-0.07709085941314697
0.6814262833400999,0.15672547878682333,0.02797253905885832,0.30726301670074463,0.0532347671687603,0.42032238841056824,0.12122707813978195,-0.6299014091491699,-0.7671559453010559,0.0034526512026786804,0.08027982711791992,-0.08495581150054932
0.6853587349817666,0.15417630670289462,0.03288837441157009,0.35107067227363586,0.04769033193588257,0.45044007897377014,0.11888975650072098,-0.6329507827758789,-0.7650088667869568,-0.007897160947322845,0.06967252492904663,-0.08136558532714844
