attitudeX,attitudeY,attitudeZ,gyroX,gyroY,gyroZ,gravityX,gravityY,gravityZ,accX,accY,accZ
1.1484260265321762,0.24830458301953143,-1.0521752579714703,0.18024897575378418,-1.389699101448059,-0.2790306508541107,0.10074324160814285,-0.9121198654174805,-0.3973516523838043,0.09504231065511703,-0.016667485237121582,-0.273500919342041
1.1504742946115663,0.24373967213118083,-1.0618663423022507,0.4147953987121582,-1.2838419675827026,-0.38892287015914917,0.09847723692655563,-0.9129576086997986,-0.39599350094795227,0.08577264845371246,0.010125458240509033,-0.32640326023101807
1.1546383557584616,0.24394987466882442,-1.0752894726065811,0.6554325222969055,-1.140334129333496,-0.46730610728263855,0.09764142334461212,-0.9146488308906555,-0.3922804296016693,0.08598287403583527,0.012503325939178467,-0.345222532749176
1.1606870133196623,0.2479182689016135,-1.0919029440998378,0.837324857711792,-1.1411755084991455,-0.5363746285438538,0.09783796966075897,-0.9170772433280945,-0.3865194022655487,0.09567403048276901,-0.005789697170257568,-0.32457059621810913
1.1677774918108896,0.25208124077057753,-1.1105884549199259,0.8761878609657288,-1.5028256177902222,-0.5454294085502625,0.09782183170318604,-0.9198812246322632,-0.37980204820632935,0.14843977987766266,-0.003931760787963867,-0.2608228921890259
1.1741638918923327,0.253249674124491,-1.130010288135338,0.729231595993042,-1.8306465148925781,-0.6088471412658691,0.096791572868824,-0.9223671555519104,-0.37399226427078247,0.1801707148551941,-0.0210074782371521,-0.11602839827537537
1.1783953053464329,0.25183319303988755,-1.150489648847011,0.4762730896472931,-2.2683331966400146,-0.7090160846710205,0.09528834372758865,-0.9239935278892517,-0.3703458607196808,0.15602391958236694,-0.1647515892982483,-0.04631051421165466
1.1795947614360383,0.24647609482043786,-1.1718453934927782,0.15537066757678986,-2.7613258361816406,-0.8176621198654175,0.0930325910449028,-0.9244515895843506,-0.36977618932724,0.1050112396478653,-0.26654279232025146,0.011103212833404541
1.1773870971325286,0.23388425209590064,-1.1922190864101472,-0.2379382848739624,-3.536713123321533,-0.8013180494308472,0.08884191513061523,-0.9236075282096863,-0.3729025721549988,0.04189540445804596,-0.277640700340271,0.07102280855178833
1.1705932516105788,0.21135871773155357,-1.2099619512099415,-0.8064369559288025,-4.252276420593262,-0.8429532647132874,0.08173476159572601,-0.9209818840026855,-0.3809354305267334,0.03314867615699768,-0.26883745193481445,0.14401230216026306
1.1578879660195645,0.18197111430159477,-1.2260516859744102,-1.4228657484054565,-4.452498435974121,-0.9347505569458008,0.07261817902326584,-0.9159576296806335,-0.3946497440338135,0.07107387483119965,-0.44201362133026123,0.08712416887283325
1.1404660351902116,0.1589766572042545,-1.244689961743674,-1.7114746570587158,-3.5008316040039062,-1.1411855220794678,0.06604146212339401,-0.9088280200958252,-0.4119104743003845,-0.14810322225093842,-0.4594581723213196,-0.17889443039894104
1.122088655369552,0.14901669139454418,-1.2657420339525842,-1.620435357093811,-2.3113455772399902,-1.1789278984069824,0.06440470367670059,-0.9010084867477417,-0.4289940595626831,-0.2712680697441101,-0.41001152992248535,-0.5907049775123596
1.1059109641838742,0.14938445298221137,-1.2866301856476874,-1.2955875396728516,-1.4305840730667114,-1.131550908088684,0.06672327220439911,-0.8938729763031006,-0.44332730770111084,-0.2789272367954254,-0.4052908420562744,-0.8647322654724121
1.0935519713263941,0.15709681598381298,-1.3083090928763068,-0.8432952165603638,-0.9370882511138916,-1.2247120141983032,0.07186335325241089,-0.8882640600204468,-0.45367690920829773,-0.2951452136039734,-0.4186971187591553,-0.9283115267753601
1.0854597595219238,0.17291394602008012,-1.335176547773482,-0.3471423387527466,-0.6432230472564697,-1.50050687789917,0.08026406168937683,-0.8845179677009583,-0.45954951643943787,-0.30459874868392944,-0.5536534786224365,-0.94160395860672
1.082349929870551,0.19376121014077782,-1.3612295260413596,0.20021474361419678,0.2643977403640747,-0.7885558605194092,0.09035550057888031,-0.8830629587173462,-0.46047350764274597,0.10655920207500458,-0.9717345237731934,-0.8938660025596619
1.0872590116524177,0.20547526785526837,-1.368175299462472,0.8936936259269714,0.7967816591262817,0.2097039818763733,0.09485754370689392,-0.8853558897972107,-0.4551341235637665,1.4092776775360107,-1.9273425340652466,-0.9918109774589539
1.0991491941291467,0.21516268050052967,-1.372013940269103,1.4986867904663086,0.4135211110115051,-0.1649138331413269,0.09700751304626465,-0.890821099281311,-0.44387757778167725,0.7336046695709229,-1.6744407415390015,-1.0585942268371582
1.1154024760979977,0.23548156097117104,-1.3907000202831188,2.047873020172119,0.36806949973106384,-0.6905314922332764,0.1026141420006752,-0.8980878591537476,-0.4276784360408783,-0.3119799494743347,-0.9680011868476868,-0.9021707773208618
1.1353571545411953,0.2676441700893764,-1.4219497010135225,2.4648919105529785,0.4030511975288391,-0.9222733378410339,0.1115516945719719,-0.9066848754882812,-0.40679115056991577,-0.09449233114719391,-1.2551805973052979,-0.9140554070472717
1.1564222273552993,0.3099344469511835,-1.4641886634833292,2.531144142150879,0.3676545321941376,-1.2175202369689941,0.12279678881168365,-0.9153684973716736,-0.38343414664268494,-0.11620496958494186,-1.1970279216766357,-0.8381997346878052
1.1752637783972515,0.3611599331969535,-1.5152224641902325,2.342803955078125,0.5268721580505371,-1.3042010068893433,0.13614943623542786,-0.9227914810180664,-0.3604433238506317,-0.17420482635498047,-0.9229879975318909,-0.6438290476799011
1.190897672265365,0.4159551518291431,-1.567116756442982,2.033357620239258,0.8307483196258545,-1.120521068572998,0.14983756840229034,-0.9287022352218628,-0.33920639753341675,0.017887070775032043,-0.766427218914032,-0.4985314905643463
1.203766849751883,0.46694530744003293,-1.6115772856992143,1.6878694295883179,1.077030062675476,-0.6834332346916199,0.16153772175312042,-0.9333974123001099,-0.32042938470840454,0.09870095551013947,-0.5410289764404297,-0.3544819951057434
1.215401472595791,0.5067773765263814,-1.6416224703016309,1.3775941133499146,1.2553424835205078,-0.10869166254997253,0.16888710856437683,-0.9375091791152954,-0.3042268753051758,0.21293359994888306,-0.34767770767211914,-0.26268285512924194
1.227009079202697,0.5328605735344414,-1.656082550047407,1.1498643159866333,1.2307865619659424,0.3864821195602417,0.1712239682674408,-0.9414849281311035,-0.29032522439956665,0.2850901484489441,-0.17207109928131104,-0.22214114665985107
1.239192382768492,0.5467125058407445,-1.6587546283515222,1.0301092863082886,0.9787467122077942,0.6652529239654541,0.1692529171705246,-0.945521354675293,-0.278106153011322,0.24796819686889648,0.0007428526878356934,-0.16386455297470093
1.2511219797270747,0.5514081905731185,-1.6562018751511351,0.9540528059005737,0.45788753032684326,0.7235564589500427,0.16463561356067657,-0.9493377804756165,-0.2676808536052704,0.06841190159320831,0.21828913688659668,-0.05685824155807495
1.263734224632958,0.5508117783979795,-1.6530138588302918,1.1265498399734497,0.038826629519462585,0.7571055293083191,0.158196359872818,-0.9532256722450256,-0.25755536556243896,0.1569586843252182,0.17685848474502563,-0.03182747960090637
1.2782384380584648,0.5510346239842853,-1.6548685111005998,1.4090672731399536,-0.3413712978363037,0.6553525328636169,0.1509987711906433,-0.9575092792510986,-0.24571438133716583,0.14288552105426788,0.19907110929489136,-0.02932518720626831
1.2943492546099522,0.5568192202467149,-1.6659595894773784,1.6597340106964111,-0.6183933615684509,0.5201473236083984,0.14424528181552887,-0.9620312452316284,-0.23170916736125946,0.036662936210632324,0.3800762891769409,0.026188641786575317
1.3118306379421618,0.5684676726815875,-1.6853613584975717,1.8415884971618652,-0.7859496474266052,0.4906802475452423,0.13785922527313232,-0.9666553735733032,-0.21580670773983002,0.040912777185440063,0.5262255668640137,0.07109248638153076
1.3303959392923348,0.5836418607040695,-1.7096640589027434,1.927578091621399,-0.8846536874771118,0.530775249004364,0.131204754114151,-0.9712427258491516,-0.1986788809299469,0.06180371344089508,0.666997492313385,0.14081761240959167
1.3494955747065513,0.6009312215628679,-1.7368513136888328,1.9320037364959717,-0.9556645154953003,0.5683455467224121,0.1241072490811348,-0.9756127595901489,-0.1810450553894043,0.05800643563270569,0.8082084655761719,0.20358240604400635
1.368319641709558,0.6201576248454616,-1.7666887617188671,1.8791147470474243,-1.0358262062072754,0.5612126588821411,0.11686959862709045,-0.979571521282196,-0.16364921629428864,0.022931449115276337,0.933947741985321,0.23072697222232819
1.3863934503593542,0.642575116646676,-1.8008155552892648,1.8197827339172363,-1.2089325189590454,0.5107644200325012,0.10987982898950577,-0.9830459356307983,-0.14678941667079926,-0.01425296813249588,1.0522445440292358,0.2562102675437927
1.403369893067061,0.6703466077293856,-1.8430767637411152,1.7829753160476685,-1.5872511863708496,0.37917184829711914,0.10352984815835953,-0.9860169291496277,-0.13058455288410187,-0.04867447167634964,1.1743561029434204,0.3148192763328552
1.4189378786258056,0.7085665134489418,-1.9004092777049548,1.7920633554458618,-2.1152713298797607,0.1947261244058609,0.0984424501657486,-0.9884916543960571,-0.11486341059207916,-0.05599246919155121,1.261120319366455,0.407878041267395
1.4331816371596202,0.7628726660663818,-1.9796319075035704,1.8639788627624512,-2.7176461219787598,0.02947373129427433,0.0947933942079544,-0.9905460476875305,-0.09916310012340546,-0.012823142111301422,1.3385682106018066,0.4545251727104187
1.4463142491179235,0.8381505020293939,-2.0859011217104246,1.9672242403030396,-3.3028366565704346,-0.0723668783903122,0.09230253845453262,-0.9922621250152588,-0.08304401487112045,0.01334933191537857,1.4279156923294067,0.4713497757911682
1.458220110886105,0.9400420881535605,-2.223788291220517,2.064258575439453,-3.688633918762207,-0.1322779506444931,0.09072361141443253,-0.9936699867248535,-0.06625278294086456,0.027928762137889862,1.514147162437439,0.4645683169364929
1.467990046840231,1.0717361088672899,-2.3943614360275696,2.067566394805908,-3.8907957077026367,-0.1842934787273407,0.09010915458202362,-0.9947201013565063,-0.04911695793271065,0.04389355331659317,1.5783228874206543,0.4356527328491211
1.4745104325631337,1.2258229318047065,-2.5886129175175214,1.9850058555603027,-3.9427502155303955,-0.20181290805339813,0.090473972260952,-0.9953681230545044,-0.0325111448764801,0.0316421315073967,1.6321935653686523,0.39228296279907227
1.4778562241905742,1.387732327707301,-2.789874357599035,1.863645076751709,-3.718299150466919,-0.13328817486763,0.09125645458698273,-0.9956841468811035,-0.016894923523068428,0.024222098290920258,1.6927056312561035,0.341022253036499
1.479083809560137,1.5453928827220196,-2.9831521761589683,1.6984765529632568,-3.241382122039795,0.009737158194184303,0.09155740588903427,-0.995797336101532,-0.002326373942196369,0.04847253859043121,1.7318048477172852,0.25247907638549805
1.4793260391262961,1.686013465511038,3.129472231811967,1.4061354398727417,-2.5924954414367676,0.17662620544433594,0.0907398909330368,-0.9958195090293884,0.010501299984753132,0.018986091017723083,1.764312982559204,0.19541621208190918
1.4797926904424745,1.7972949378023608,2.995775268095565,0.9697685837745667,-1.7707933187484741,0.32458412647247314,0.08855943381786346,-0.9958620071411133,0.020408788695931435,-0.01781965047121048,1.7680785655975342,0.19568634033203125
1.4816819433489747,1.8704132750253661,2.9090986265761334,0.43397256731987,-0.8893290162086487,0.44269293546676636,0.08503226190805435,-0.9960319399833679,0.026267876848578453,-0.02468372881412506,1.7331688404083252,0.21698784828186035
1.4858366016094247,1.900025622077482,2.8743569868398797,-0.11134655773639679,-0.13124597072601318,0.5339595079421997,0.08030012995004654,-0.996393084526062,0.027435660362243652,-0.047020696103572845,1.6784305572509766,0.2381131649017334
1.4924285321185509,1.8833765281415826,2.8927545943880593,-0.5744109153747559,0.44549110531806946,0.624718964099884,0.07449641078710556,-0.9969308376312256,0.02407536469399929,-0.04165946692228317,1.6206793785095215,0.22552800178527832
1.5008485825530595,1.8184090363487058,2.964215656116442,-0.8902994990348816,0.7837161421775818,0.7032670974731445,0.06776245683431625,-0.9975546598434448,0.017130384221673012,-0.03306393325328827,1.5707203149795532,0.19232714176177979
1.509825452501439,1.6986325484170444,3.0925518704654715,-1.0825167894363403,0.8393000364303589,0.7380272150039673,0.060437727719545364,-0.9981418251991272,0.007768494542688131,-0.013211742043495178,1.48891019821167,0.1713850498199463
1.5174972690921464,1.5133600886015106,-2.998007960343096,-1.1557883024215698,0.5198809504508972,0.704765260219574,0.053189314901828766,-0.9985799193382263,-0.0030583580955863,-0.018689174205064774,1.404845118522644,0.18134218454360962
1.5219318611042731,1.275390721810638,-2.757518706634158,-1.0912537574768066,-0.08868062496185303,0.5807690024375916,0.04673108458518982,-0.998806357383728,-0.01422070525586605,-0.06763561069965363,1.3123438358306885,0.17086756229400635
1.5222860793259423,1.0455520537932583,-2.5313555417451417,-0.8874807953834534,-0.6975545287132263,0.3437284529209137,0.04195551946759224,-0.9988235831260681,-0.02431516908109188,-0.15610650181770325,1.188704013824463,0.11553233861923218
1.519480372728097,0.8959394428749553,-2.3912624249443866,-0.5738136768341064,-1.2130507230758667,-0.03292668238282204,0.040051206946372986,-0.9986836314201355,-0.032048583030700684,-0.3050810992717743,1.0600086450576782,0.015492919832468033
1.5150041949059898,0.8562840910671671,-2.3644130494913864,-0.23032411932945251,-1.2956022024154663,-0.4683528244495392,0.0421263761818409,-0.9984440207481384,-0.03654063120484352,-0.4235655665397644,0.9154818654060364,-0.1063883900642395
1.509333951548377,0.8952764522460885,-2.415706837393841,-0.07010861486196518,-1.149581789970398,-0.7642776966094971,0.04793509840965271,-0.9981117844581604,-0.03840935230255127,-0.3697887063026428,0.7736244201660156,-0.12794184684753418
1.5022372328683566,0.9458768305243868,-2.4767806199571707,-0.200791597366333,-0.9190043210983276,-0.8183294534683228,0.05555858463048935,-0.9976507425308228,-0.040077853947877884,-0.22813548147678375,0.7010046243667603,-0.0050880275666713715
1.4938037598820193,0.9557140866471083,-2.4946659658110812,-0.5917984843254089,-0.6781044006347656,-0.7025408148765564,0.06282167136669159,-0.9970375299453735,-0.0443841852247715,-0.1028149276971817,0.658200740814209,0.15505623817443848
1.4837276783902325,0.9131773060616671,-2.4568620760487465,-1.128200650215149,-0.27478155493736267,-0.550665557384491,0.06882594525814056,-0.9962119460105896,-0.053154055029153824,-0.01221580058336258,0.563304603099823,0.22823351621627808
1.4709797933912698,0.8269904692564637,-2.370920853869866,-1.7459354400634766,0.14654676616191864,-0.35945937037467957,0.07333441823720932,-0.9950224757194519,-0.06747447699308395,0.12622006237506866,0.3758663535118103,0.2347109317779541
1.4546986000375457,0.7172746760598877,-2.2571715303534767,-2.276831865310669,0.5239681005477905,-0.15159477293491364,0.07614478468894958,-0.9932682514190674,-0.08729621022939682,0.2700161337852478,0.16785907745361328,0.13449174165725708
1.4354583446459126,0.6082787215421743,-2.1402573377905654,-2.5163567066192627,0.8796811699867249,0.11198600381612778,0.07710446417331696,-0.9908558130264282,-0.1107250303030014,0.39947330951690674,-0.030598163604736328,-0.06969481706619263
1.4163443679674226,0.5105960647916438,-2.031470634167438,-2.342705249786377,1.067446231842041,0.5545464158058167,0.07518098503351212,-0.9880959987640381,-0.13421784341335297,0.5809317231178284,-0.27073895931243896,-0.3090498447418213
1.4018654979725655,0.4150624617132313,-1.9246632127276229,-1.7373493909835815,0.8727971911430359,1.2661381959915161,0.06779768317937851,-0.9857650995254517,-0.15385369956493378,0.7908601760864258,-0.5473008155822754,-0.5472875833511353
1.3956579664383162,0.30233204138198916,-1.803898920036811,-0.8672100305557251,0.34164777398109436,2.19233775138855,0.05188090726733208,-0.984702467918396,-0.1663418561220169,0.9169453978538513,-0.881249189376831,-0.7176149487495422
1.397319042744307,0.1503016144181863,-1.6491497502297023,-0.046348936855793,-0.2508901059627533,3.089561939239502,0.025845861062407494,-0.9849905371665955,-0.17066311836242676,0.8517786860466003,-1.3021495342254639,-0.745398223400116
1.4012031666977038,-0.049460938136686616,-1.4508524848181485,0.4221196472644806,-0.5673536062240601,3.667165517807007,-0.00834472943097353,-0.9856535196304321,-0.1685759276151657,0.48202332854270935,-1.82265043258667,-0.6656982898712158
1.3996915094301874,-0.2741398723636912,-1.2273508561722515,0.4539095461368561,-0.21419420838356018,3.799527168273926,-0.046095747500658035,-0.9853972792625427,-0.16391333937644958,-0.12971600890159607,-2.410431146621704,-0.5268214344978333
1.38952982340204,-0.4696729227138118,-1.026254914183661,0.20150208473205566,0.7489412426948547,3.459864854812622,-0.08159168064594269,-0.9836161732673645,-0.16075453162193298,-0.8176850080490112,-2.9985921382904053,-0.46621376276016235
1.3737668107829342,-0.6003332385421627,-0.8805845079649655,-0.10336380451917648,1.6947375535964966,2.839672088623047,-0.11058706045150757,-0.980652391910553,-0.16152912378311157,-1.3586511611938477,-3.522552013397217,-0.4984286427497864
1.3580013327147986,-0.6706383323321554,-0.7894549601672296,-0.18955115973949432,1.9863252639770508,1.990041971206665,-0.1312539279460907,-0.9774444699287415,-0.16545438766479492,-1.6874563694000244,-3.85780668258667,-0.5625271201133728
1.3483160572044255,-0.7011823049718582,-0.7401227201984468,0.12801775336265564,1.45904541015625,0.8469663858413696,-0.14234575629234314,-0.9753531813621521,-0.1685938984155655,-1.9322086572647095,-4.016773223876953,-0.6287388205528259
1.3503525929491245,-0.7118745297577781,-0.7189766376389711,0.7943319082260132,0.5450467467308044,-0.40493789315223694,-0.1428423523902893,-0.9758005142211914,-0.16555801033973694,-2.1295881271362305,-3.9860219955444336,-0.7869718074798584
1.3655074867998565,-0.707514002415261,-0.7207324294816615,1.4460492134094238,0.054362501949071884,-1.5967035293579102,-0.13249188661575317,-0.9790021181106567,-0.1549222618341446,-2.129211664199829,-3.693635940551758,-0.882888913154602
1.3914671103813578,-0.6825206875561827,-0.7465389171124913,1.885032296180725,-0.0986548587679863,-2.4526777267456055,-0.11250707507133484,-0.9839635491371155,-0.1384125053882599,-1.8667104244232178,-3.2191920280456543,-0.8333739042282104
1.4239709245381804,-0.6242921341984167,-0.8067678266677205,2.0618889331817627,-0.1482248157262802,-3.024447202682495,-0.0855153277516365,-0.9892405271530151,-0.1187039241194725,-1.5121408700942993,-2.7252371311187744,-0.6429689526557922
1.4583171411765077,-0.5031380250281021,-0.9308485875147895,2.00506591796875,-0.238385409116745,-3.3368945121765137,-0.054121196269989014,-0.9936808943748474,-0.09833350777626038,-1.1414048671722412,-2.218263864517212,-0.41475844383239746
1.4889456635614051,-0.2520124673271912,-1.1859314777740664,1.8222503662109375,-0.31682878732681274,-3.490654706954956,-0.020387353375554085,-0.9966521263122559,-0.07917827367782593,-0.8464491963386536,-1.7271028757095337,-0.250304639339447
1.5071149062750246,0.22678283669787055,-1.6691587505097014,1.630233883857727,-0.3191925585269928,-3.5103671550750732,0.01430896483361721,-0.9979730248451233,-0.06201004609465599,-0.6456413269042969,-1.3264594078063965,-0.17825472354888916
1.503312855263213,0.8077990469965098,-2.254436997835979,1.4930254220962524,-0.2989749014377594,-3.4281632900238037,0.048738546669483185,-0.9977238774299622,-0.04660246893763542,-0.4554920494556427,-1.0071895122528076,-0.1920296549797058
1.4826124739455957,1.1946907368751571,-2.645460729999241,1.4222463369369507,-0.30556946992874146,-3.2537524700164795,0.08191392570734024,-0.9961143136024475,-0.032348137348890305,-0.29512494802474976,-0.6915687918663025,-0.22178691625595093
1.4560169195601829,1.4081943436198427,-2.8632837456002678,1.434932827949524,-0.33850955963134766,-3.0236995220184326,0.11301804333925247,-0.9934200644493103,-0.018540646880865097,-0.159542053937912,-0.39270371198654175,-0.21813827753067017
1.4284434200793799,1.5397119409145148,-2.9991173372899644,1.5008083581924438,-0.2928676903247833,-2.8116517066955566,0.14180497825145721,-0.9898849129676819,-0.004409341141581535,-0.06985975801944733,-0.15133529901504517,-0.19328343868255615
1.4010327725876182,1.6303088628869435,-3.093132391237548,1.4784367084503174,-0.15075954794883728,-2.632449150085449,0.16865113377571106,-0.9856247305870056,0.010048722848296165,-0.020106777548789978,0.06532120704650879,-0.10915446281433105
1.3745812549384946,1.691266278737544,3.128073859200239,1.219805121421814,0.1750131994485855,-2.434206485748291,0.19354569911956787,-0.9808114767074585,0.02342989668250084,0.07717575132846832,0.331656813621521,0.0660172700881958
1.3502875442296656,1.7244427565562395,3.098298667420653,0.6572909355163574,0.6663525700569153,-2.2323648929595947,0.21614962816238403,-0.9757862687110901,0.03347444534301758,0.23955413699150085,0.4916859269142151,0.286716103553772
1.3288655663606106,1.7355594519248128,3.096163113343846,0.11883541196584702,1.1230511665344238,-1.9559727907180786,0.23633357882499695,-0.9708772301673889,0.03929528594017029,0.36731940507888794,0.6286377310752869,0.4579734802246094
1.3118120587985946,1.7329376965744003,3.112194224456876,-0.3181893229484558,1.4419963359832764,-1.554176926612854,0.2527405917644501,-0.9666506052017212,0.041342638432979584,0.5212920904159546,0.8471589088439941,0.5071194171905518
1.2993553396905122,1.7226018830967937,3.138218482735234,-0.6252807974815369,1.4794447422027588,-1.1119776964187622,0.2650371193885803,-0.9633855223655701,0.04054604470729828,0.6474690437316895,1.0663516521453857,0.4931759834289551
1.2920536425611233,1.7080291745106968,-3.1159427734753464,-0.6902850866317749,1.1549571752548218,-0.5576658844947815,0.27256056666374207,-0.9614021182060242,0.037640854716300964,0.7612072229385376,1.168540120124817,0.46917998790740967
1.289860261192478,1.694694526804587,-3.092686145504844,-0.5053970813751221,0.6416008472442627,-0.05792072042822838,0.2751305103302002,-0.9607963562011719,0.03426367789506912,0.7813270688056946,1.2264975309371948,0.36081695556640625
1.2918326584348367,1.6866460945882489,-3.0806759778223753,-0.1982530653476715,0.05023050308227539,0.3557014763355255,0.2735139727592468,-0.9613413214683533,0.03182905167341232,0.7124632000923157,1.3258737325668335,0.2682962417602539
1.2969937941086165,1.6844692289799599,-3.081076023646159,0.09259580075740814,-0.561070442199707,0.6648836731910706,0.2686501443386078,-0.9627496600151062,0.03067046031355858,0.6114768981933594,1.3536186218261719,0.23611438274383545
1.304340283799276,1.686862798836819,-3.0922371958283663,0.3262716829776764,-1.0941801071166992,0.8565817475318909,0.26154303550720215,-0.9647101163864136,0.03049343079328537,0.45674923062324524,1.3739659786224365,0.23102712631225586
1.3128037023502857,1.693414103181342,-3.1120241862835973,0.48276418447494507,-1.3898626565933228,0.940988302230835,0.25322479009628296,-0.9669041037559509,0.031206415966153145,0.26676422357559204,1.4219516515731812,0.21595549583435059
1.3215618854200148,1.7033500883771877,-3.1371709220780977,0.5304653644561768,-1.4809584617614746,0.954362690448761,0.24449943006038666,-0.9691015481948853,0.03260047733783722,0.10140213370323181,1.4634402990341187,0.20157623291015625
1.330189455071102,1.7138014912606192,3.120184848889341,0.4645177721977234,-1.4286118745803833,0.9259613156318665,0.23586010932922363,-0.9711935520172119,0.033961035311222076,-0.02560921013355255,1.4886189699172974,0.20580041408538818
1.3385228708052916,1.7223097300624461,3.0976469314984874,0.33330702781677246,-1.2457693815231323,0.8844879269599915,0.22755366563796997,-0.973145604133606,0.03474370017647743,-0.11970451474189758,1.520493507385254,0.2106330394744873
1.3467259131033404,1.7280886252367087,3.0801801025190367,0.19694718718528748,-1.0037331581115723,0.8662327527999878,0.2194577157497406,-0.9750010967254639,0.03480653092265129,-0.1722012162208557,1.5776163339614868,0.19744765758514404
1.3551723529943533,1.731605714053211,3.0675502350565766,0.08209704607725143,-0.7674793004989624,0.8994325399398804,0.21119774878025055,-0.9768430590629578,0.0342583954334259,-0.17071612179279327,1.645925521850586,0.17854082584381104
1.3644021359830982,1.7339137256322912,3.0582004119809594,0.01529194600880146,-0.6136603951454163,0.9912614226341248,0.20221221446990967,-0.978776216506958,0.03328001871705055,-0.13429532945156097,1.712083101272583,0.1516871452331543
1.3748438958208322,1.7374448627324752,3.048587711169623,0.02992015704512596,-0.5791756510734558,1.1392688751220703,0.19200418889522552,-0.9808626770973206,0.03229675069451332,-0.08613866567611694,1.7586488723754883,0.11949777603149414
1.3866043336144165,1.7442089200151814,3.0357368785519196,0.03376892954111099,-0.5995169281959534,1.2583949565887451,0.18040548264980316,-0.9830845594406128,0.03160199895501137,-0.05171284079551697,1.7766789197921753,0.1132497787475586
1.399139852121718,1.751034857911568,3.0224381568228145,-0.01871025748550892,-0.6603904366493225,1.292540431022644,0.1680479198694229,-0.9853031635284424,0.030621012672781944,-0.06865213811397552,1.7746098041534424,0.14032328128814697
1.4120337910368836,1.754295545043256,3.012176916111717,-0.12574690580368042,-0.7078955769538879,1.3049944639205933,0.15544269979000092,-0.9874236583709717,0.028848133981227875,-0.09878677129745483,1.7580687999725342,0.1682344675064087
1.4251224773714837,1.749977456226792,3.009686056308631,-0.28474774956703186,-0.6347896456718445,1.2797244787216187,0.14283490180969238,-0.9894083142280579,0.025870781391859055,-0.12278485298156738,1.7098673582077026,0.1758657693862915
1.4380762140609276,1.7311392782621282,3.022908262294217,-0.5238620638847351,-0.5147436857223511,1.2171493768692017,0.13063392043113708,-0.991205632686615,0.021127602085471153,-0.1573062539100647,1.6518957614898682,0.18320298194885254
1.4506210267801425,1.6885607561631983,3.0613996025437586,-0.7898117303848267,-0.35153186321258545,1.1340211629867554,0.11905709654092789,-0.9927876591682434,0.014085867442190647,-0.2061542272567749,1.6201832294464111,0.1719646453857422
1.4622338914388529,1.6150185552645069,3.1331925893736465,-1.026925802230835,-0.0762217566370964,1.0526130199432373,0.1082451194524765,-0.9941129088401794,0.004789963364601135,-0.2460930049419403,1.5830409526824951,0.12365865707397461
1.4722533910810762,1.5079840648396685,-3.041292081143443,-1.189157485961914,0.3080334961414337,0.978269100189209,0.09819132089614868,-0.9951485991477966,-0.0061757429502904415,-0.2722788155078888,1.5332648754119873,0.041606783866882324
1.480194946360106,1.3730935591621385,-2.900639534932928,-1.2266294956207275,0.7201211452484131,0.9477307200431824,0.08871634304523468,-0.9958984851837158,-0.017771614715456963,-0.2462633103132248,1.4864075183868408,-0.05049610137939453
1.4860970438831724,1.2212668070343555,-2.7393569665857176,-1.1694331169128418,1.0364940166473389,0.9518525004386902,0.07948383688926697,-0.9964151382446289,-0.028971495106816292,-0.17387467622756958,1.424180030822754,-0.10849487781524658
1.4901090919362223,1.0623887013175846,-2.56883254927027,-1.057499885559082,1.1430535316467285,0.941642701625824,0.07040698081254959,-0.9967465400695801,-0.03923569619655609,-0.1064024418592453,1.3678706884384155,-0.10723334550857544
1.4922567459638303,0.9085600485631475,-2.4039475625539106,-0.8826090693473816,0.9273439049720764,0.8571696877479553,0.06187630072236061,-0.9969173669815063,-0.04824460670351982,-0.08200261741876602,1.3173518180847168,-0.07229971885681152
1.4931591851413346,0.7763187005718943,-2.2643638483697632,-0.6121067404747009,0.4202580749988556,0.7236185073852539,0.05434416979551315,-0.9969877600669861,-0.05534007027745247,-0.08556362986564636,1.2501461505889893,-0.031192421913146973
1.4940589217251814,0.6759935221902792,-2.163525536712465,-0.28134557604789734,-0.4140831232070923,0.5559256672859192,0.04796576127409935,-0.9970571398735046,-0.05980348587036133,-0.07404300570487976,1.1647969484329224,0.020634297281503677
1.495810715727082,0.611342860214838,-2.10763508197893,0.04608634486794472,-1.3639280796051025,0.31944602727890015,0.04300004616379738,-0.9971898794174194,-0.061348047107458115,-0.08816604316234589,1.0678226947784424,0.060325801372528076
1.498095716501823,0.5894735025807181,-2.1028826869599713,0.27101051807403564,-2.0132856369018555,-0.013727953657507896,0.0403812900185585,-0.997358500957489,-0.06037932261824608,-0.1406009942293167,0.9272900223731995,0.05777013301849365
1.4993262657528268,0.6143836776349703,-2.1492177191096538,0.28095370531082153,-2.2026917934417725,-0.39909589290618896,0.04116513207554817,-0.9974470734596252,-0.05835185572504997,-0.21452021598815918,0.786738395690918,0.039598941802978516
1.4973024474023753,0.672459466533186,-2.228282435367308,0.05847376957535744,-1.8966127634048462,-0.7513660192489624,0.04574064537882805,-0.9973005652427673,-0.05744398385286331,-0.29317715764045715,0.6889813542366028,0.055811405181884766
1.490533616120066,0.7309640187831528,-2.302788098423154,-0.3827189803123474,-1.2601360082626343,-0.9840723872184753,0.0535258911550045,-0.9967806935310364,-0.05969507247209549,-0.3229960799217224,0.6333772540092468,0.12137115001678467
1.4781972188549803,0.7572021949524197,-2.338545405691811,-1.038092017173767,-0.6213480830192566,-1.1387370824813843,0.06351544708013535,-0.9957157373428345,-0.0672021359205246,-0.32923197746276855,0.6529422402381897,0.18817394971847534
1.4598386299003072,0.7447944875599624,-2.329352401210252,-1.792493224143982,-0.057045355439186096,-1.2233657836914062,0.07505594193935394,-0.9938505291938782,-0.08141263574361801,-0.32861119508743286,0.6618954539299011,0.23075050115585327
1.4356124263996977,0.7042144451286615,-2.287218603144297,-2.5165061950683594,0.29208385944366455,-1.2000722885131836,0.08725713193416595,-0.9908765554428101,-0.10271363705396652,-0.2899548411369324,0.609025239944458,0.1967993974685669
1.4066424857248703,0.6511939750689134,-2.228610207682334,-3.0896823406219482,0.7128869295120239,-1.0632083415985107,0.09905380010604858,-0.9865570068359375,-0.12997649610042572,-0.1865781843662262,0.46823108196258545,0.06250226497650146
1.374227150013477,0.5965944752287949,-2.1635508214970325,-3.5239884853363037,1.157073974609375,-0.8112949132919312,0.10972872376441956,-0.9807423949241638,-0.16156797111034393,-0.06524932384490967,0.22857558727264404,-0.0798870325088501
1.3404132064097356,0.5415736335983673,-2.0948696981757866,-3.7174596786499023,1.1883814334869385,-0.3553698658943176,0.1177116259932518,-0.9735789895057678,-0.19567379355430603,0.08843464404344559,0.02486366033554077,-0.2339983582496643
1.308424534485029,0.4820119512193433,-2.0236040606742502,-3.5126023292541504,0.6908236742019653,0.26310375332832336,0.12023533135652542,-0.9657775163650513,-0.22982041537761688,0.2873727083206177,-0.194760262966156,-0.4659344553947449
1.2825238699645485,0.41740102729025164,-1.9530586582338612,-2.766880750656128,-0.06926640123128891,0.9421766400337219,0.11525003612041473,-0.9587364196777344,-0.2598888874053955,0.5134426355361938,-0.645664393901825,-0.843367338180542
1.2669625757346743,0.3481115267036031,-1.8846806065649526,-1.5856391191482544,-0.6385897994041443,1.5866526365280151,0.10205750912427902,-0.9541965126991272,-0.2812354862689972,0.6367425918579102,-1.23252534866333,-1.3100577592849731
1.263378946484226,0.2773026218101423,-1.8170155701441189,-0.38177722692489624,-0.5458450317382812,2.055880546569824,0.08283998817205429,-0.9531182646751404,-0.2910381853580475,0.51025390625,-1.800528645515442,-1.6643297672271729
1.2693492848684842,0.20594757201818528,-1.74528008578293,0.45995742082595825,-0.008430030196905136,2.3939249515533447,0.060715027153491974,-0.9549078345298767,-0.2906282842159271,0.3469845950603485,-2.3188042640686035,-1.7277889251708984
1.2807957096816738,0.13166986781749887,-1.6645268448123864,0.9762659668922424,0.5932533144950867,2.625014543533325,0.037542685866355896,-0.958243727684021,-0.2834777235984802,0.2233978807926178,-2.8582847118377686,-1.5535125732421875
1.2944035189680503,0.05235647169166379,-1.5734834980527108,1.2455812692642212,0.9954965710639954,2.6665453910827637,0.01428088080137968,-0.9620460271835327,-0.272513210773468,0.07533400505781174,-3.4302420616149902,-1.3183526992797852
1.3078430615208132,-0.02896473390233654,-1.4779022034003169,1.37725830078125,1.1489447355270386,2.4273781776428223,-0.007527862675487995,-0.9656265377998352,-0.25982484221458435,-0.22437520325183868,-3.879206895828247,-1.0893113613128662
1.3206160015060757,-0.10376983081775251,-1.3887881584211763,1.4950741529464722,1.1381546258926392,1.8259717226028442,-0.025645121932029724,-0.9688677787780762,-0.24624696373939514,-0.6446582078933716,-4.092823505401611,-0.9266960620880127
1.3339762497474579,-0.15821922614015685,-1.322787033864378,1.5785813331604004,0.704200029373169,1.0416176319122314,-0.03696562349796295,-0.9720889329910278,-0.2316826581954956,-1.0815036296844482,-4.119265556335449,-0.7686529159545898
1.3489523744040584,-0.18920442934040796,-1.2859034822112734,1.6493394374847412,0.30144408345222473,0.02262907847762108,-0.041382528841495514,-0.9754933714866638,-0.21610243618488312,-1.3370811939239502,-4.061890602111816,-0.667427122592926
1.3658285835533976,-0.17292446529036248,-1.3013127773399793,1.5495885610580444,-0.044460367411375046,-1.2857393026351929,-0.03502126783132553,-0.9790675640106201,-0.20050078630447388,-1.630704402923584,-3.6952643394470215,-0.5125881433486938
1.3826867895604291,-0.09283617372978617,-1.3843644381027478,1.3575876951217651,-0.2243550419807434,-2.308542490005493,-0.017335694283246994,-0.9823595285415649,-0.18619750440120697,-1.5202925205230713,-3.3060622215270996,-0.39432305097579956
1.3956449832840214,0.04157163086548813,-1.5242520912713526,1.1010737419128418,-0.4111239016056061,-2.752516031265259,0.007242104504257441,-0.9847002029418945,-0.17410747706890106,-1.042657732963562,-2.6775617599487305,-0.2705792784690857
1.4019024870033219,0.2026905135193076,-1.6927243064889592,0.8420792818069458,-0.5654132962226868,-2.7898848056793213,0.033837947994470596,-0.9857712984085083,-0.16465142369270325,-0.5922790765762329,-2.1100387573242188,-0.1823638528585434
1.4011925180442786,0.3604087303909316,-1.8590748635311893,0.5867922306060791,-0.6920716166496277,-2.618513822555542,0.059525635093450546,-0.9856517314910889,-0.1579475849866867,-0.26127731800079346,-1.6501209735870361,-0.15073762834072113
1.3952719514715934,0.49363253348566816,-2.002010598244085,0.3797365128993988,-0.8316110968589783,-2.338360548019409,0.08274203538894653,-0.9846351146697998,-0.15377753973007202,-0.04035310447216034,-1.2494347095489502,-0.152893528342247
1.386685290502007,0.5954743519811804,-2.114594611184044,0.252481609582901,-0.9564635753631592,-1.9988880157470703,0.10268587619066238,-0.9830994009971619,-0.1515628695487976,0.0967007428407669,-0.9325500726699829,-0.18628184497356415
1.377837502471239,0.6693949010620783,-2.2001177499574593,0.23500433564186096,-1.0640672445297241,-1.6354728937149048,0.11899223923683167,-0.9814411401748657,-0.15038138628005981,0.17748607695102692,-0.6625410318374634,-0.2462250143289566
1.3708624995124803,0.723368308643996,-2.2662658597534175,0.37609225511550903,-1.103302240371704,-1.2455717325210571,0.13145886361598969,-0.980079710483551,-0.14886994659900665,0.2286638468503952,-0.407218873500824,-0.32039874792099
1.3673281595942561,0.7677547970404104,-2.322052687847406,0.6204588413238525,-0.9251639246940613,-0.8993246555328369,0.14034046232700348,-0.9793716669082642,-0.1453820914030075,0.2258094698190689,-0.1849503517150879,-0.4039647579193115
1.3668752136395028,0.8126223613488278,-2.3752246465413323,0.8429463505744934,-0.49633634090423584,-0.7025132179260254,0.14704203605651855,-0.9792800545692444,-0.1392461359500885,0.17323999106884003,0.001496732234954834,-0.40555357933044434
1.3681462789907923,0.8654178273058604,-2.431445559226879,1.0114279985427856,0.05743393301963806,-0.6388418674468994,0.1532374918460846,-0.9795366525650024,-0.13048548996448517,0.07398118078708649,0.1887955665588379,-0.3335341811180115
1.369777540027228,0.9288271524042766,-2.4924497660004845,1.0989874601364136,0.6777442693710327,-0.6390773057937622,0.15991787612438202,-0.9798636436462402,-0.11955606192350388,0.04128454625606537,0.34407562017440796,-0.24021559953689575
1.3706879320992926,1.0006760517693938,-2.5557438995244808,1.0668635368347168,1.2827415466308594,-0.6515321135520935,0.16733740270137787,-0.9800450205802917,-0.10728640854358673,0.0807095319032669,0.4349703788757324,-0.0949229747056961
1.370142663839538,1.0735497507875855,-2.6147414591783775,0.8879634737968445,1.7037147283554077,-0.6377217769622803,0.17517350614070892,-0.9799364805221558,-0.09507238119840622,0.14910630881786346,0.5525530576705933,0.12594103813171387
1.3680783592677133,1.1382363084026024,-2.662189129466216,0.6280338764190674,1.9194536209106445,-0.5821540951728821,0.18278896808624268,-0.9795230031013489,-0.08439789712429047,0.23904027044773102,0.7061007022857666,0.34657448530197144
1.365120138518747,1.1906209178829907,-2.695970459896625,0.42167195677757263,1.9314064979553223,-0.4911046326160431,0.18964752554893494,-0.9789230823516846,-0.07578621059656143,0.34436434507369995,0.7900649905204773,0.4999043345451355
1.3629708555201034,1.2315114662245248,-2.7194263733555397,0.34280136227607727,1.6315553188323975,-0.2322903871536255,0.19457118213176727,-0.9784818887710571,-0.06867048889398575,0.4636777937412262,0.8871578574180603,0.5320037007331848
1.3633144066239475,1.259887661720118,-2.734059842209234,0.23741407692432404,1.1669589281082153,0.09880194813013077,0.1961207389831543,-0.9785527586936951,-0.06301941722631454,0.5976720452308655,1.0636355876922607,0.5411231517791748
1.365982995097601,1.272673306986763,-2.7380784155668203,0.07976078987121582,0.5998764038085938,0.34840086102485657,0.194413959980011,-0.9790989756584167,-0.05973968654870987,0.6113264560699463,1.174670696258545,0.5862290263175964
1.3703045862781436,1.2700930206265797,-2.73224717017431,-0.04942658171057701,0.03215322643518448,0.5448691248893738,0.1902160495519638,-0.979968786239624,-0.0589873306453228,0.5129700899124146,1.253467082977295,0.6070831418037415
1.3759793578068436,1.2519416355691375,-2.7159660788633815,-0.2280416041612625,-0.4525434374809265,0.7269819378852844,0.18383000791072845,-0.9810830950737,-0.060685742646455765,0.4272845387458801,1.3050118684768677,0.5799729228019714
1.3824496144063572,1.2156378631695042,-2.6855832770652435,-0.4386598765850067,-0.8290862441062927,0.8817087411880493,0.17555005848407745,-0.9823151230812073,-0.06510894745588303,0.31709522008895874,1.3582763671875,0.5623472332954407
1.3893113050481507,1.1610423568693986,-2.6396722763020373,-0.6128367781639099,-1.039186716079712,1.0232511758804321,0.16554972529411316,-0.983576774597168,-0.07190465927124023,0.19113977253437042,1.455241084098816,0.4943748712539673
1.3961660490609977,1.0915012446885661,-2.579635796902007,-0.706191897392273,-1.0346922874450684,1.124799370765686,0.1541672646999359,-0.9847908616065979,-0.08012306690216064,0.08098596334457397,1.5261421203613281,0.3821403980255127
1.4026188121265253,1.0127204327920103,-2.5097566144599113,-0.7169763445854187,-0.950002133846283,1.1750798225402832,0.1419905424118042,-0.9858914613723755,-0.08864077180624008,-0.020011737942695618,1.5681208372116089,0.25863903760910034
1.4085373743919012,0.9299000407650636,-2.4346989415977927,-0.6424686908721924,-0.7972071170806885,1.198193907737732,0.12949106097221375,-0.9868648648262024,-0.09659229218959808,-0.10324591398239136,1.5999782085418701,0.15738344192504883
1.4143279716773485,0.8483540917509755,-2.3590461526848605,-0.492643266916275,-0.5781022310256958,1.2198786735534668,0.11690366268157959,-0.9877837896347046,-0.10303866863250732,-0.1494658887386322,1.6206724643707275,0.07989120483398438
1.420337972829631,0.7695015565572004,-2.2841216419889667,-0.34365323185920715,-0.3989335298538208,1.2351298332214355,0.10429175198078156,-0.9887024760246277,-0.10766137391328812,-0.16816502809524536,1.6447997093200684,0.05184483528137207
1.4261679243704621,0.6905788717856557,-2.207751676260943,-0.30475401878356934,-0.28695398569107056,1.2105587720870972,0.09180590510368347,-0.989559531211853,-0.11110350489616394,-0.17347091436386108,1.665218472480774,0.10046820342540741
1.4305811956705972,0.6085412411747254,-2.1275764580929026,-0.3802366852760315,-0.25982534885406494,1.1353694200515747,0.07989505678415298,-0.9901859760284424,-0.11466822773218155,-0.173797607421875,1.6764956712722778,0.18038791418075562
1.4328114551985758,0.5230590321797368,-2.0440245357183895,-0.4888997972011566,-0.2878156900405884,1.068296194076538,0.06870969384908676,-0.9904952049255371,-0.11915715783834457,-0.16642695665359497,1.6787580251693726,0.22584670782089233
1.432980975950819,0.43592159988279106,-1.9589379396259141,-0.5535278916358948,-0.28002017736434937,1.0237691402435303,0.05800841376185417,-0.9905185103416443,-0.12453295290470123,-0.14379329979419708,1.664438009262085,0.2236999273300171
1.4317484652169192,0.3523402147859257,-1.87719085937764,-0.5357078909873962,-0.23350435495376587,0.9631678462028503,0.047830697149038315,-0.9903483986854553,-0.13008685410022736,-0.13550767302513123,1.6165385246276855,0.17908287048339844
1.4296291126192102,0.2768997813570098,-1.8027593083104896,-0.5181654691696167,-0.11210479587316513,0.8845301270484924,0.03846386820077896,-0.9900524616241455,-0.13534048199653625,-0.13523507118225098,1.560181736946106,0.14568603038787842
1.4266538322368474,0.2099416115756329,-1.7354695082564857,-0.5226768851280212,0.04404059424996376,0.8375937938690186,0.029935885220766068,-0.9896294474601746,-0.1404903680086136,-0.13111689686775208,1.5241295099258423,0.12384314835071564
1.4228190109002912,0.14921544257594488,-1.6726352819446457,-0.5681989789009094,0.2548264265060425,0.832579493522644,0.02191862091422081,-0.9890713095664978,-0.1458006203174591,-0.10021144896745682,1.4963037967681885,0.10306084156036377
1.4177921348527964,0.0934833299446221,-1.6122749644727652,-0.652887761592865,0.5448164343833923,0.8480029106140137,0.014226981438696384,-0.9883176684379578,-0.15174376964569092,-0.07340054214000702,1.459676742553711,0.08254526555538177
1.4113305550018695,0.043615827044210416,-1.5544397589038434,-0.7628945112228394,0.922394335269928,0.8644171953201294,0.006923606153577566,-0.9873122572898865,-0.15864001214504242,-0.08457556366920471,1.4316786527633667,0.04397030174732208
1.403277230111553,0.0002898778275561571,-1.4990272680603633,-0.8872542381286621,1.3551393747329712,0.9120723605155945,4.833339698961936e-05,-0.9860014319419861,-0.1667371243238449,-0.10365549474954605,1.4208768606185913,0.015278458595275879
1.3937358470171082,-0.0375613200333606,-1.4450278465084598,-0.9768117666244507,1.683598279953003,0.9801517128944397,-0.006614405661821365,-0.984365701675415,-0.17601336538791656,-0.07913997024297714,1.398992657661438,0.00021696090698242188
1.383568013392164,-0.07161212552756578,-1.3933413958485543,-0.9392918348312378,1.633231520652771,0.99080890417099,-0.013318253681063652,-0.9825239181518555,-0.18565960228443146,-0.054827481508255005,1.3317670822143555,0.0022338181734085083
1.3741053729851131,-0.10143767852581098,-1.3477542799230369,-0.791210412979126,1.3388904333114624,0.8966969847679138,-0.019789565354585648,-0.9807186126708984,-0.19442127645015717,-0.07569992542266846,1.2238520383834839,-0.00041812658309936523
1.3662299661111714,-0.12619569405426473,-1.3109160295737625,-0.6070496439933777,0.923639178276062,0.7376857995986938,-0.025567850098013878,-0.9791491627693176,-0.20152811706066132,-0.08775917440652847,1.1027755737304688,0.0025535523891448975
1.360261152086041,-0.1458744627975658,-1.2836317331381775,-0.43204033374786377,0.5040221810340881,0.5335957407951355,-0.03037738986313343,-0.9779192209243774,-0.20676417648792267,-0.10859964787960052,1.012281894683838,0.01973724365234375
1.3558630157862732,-0.15827868929210967,-1.2669883987421602,-0.35103392601013184,0.3011159300804138,0.2952933609485626,-0.03361734747886658,-0.9769906401634216,-0.21061678230762482,-0.13227620720863342,0.9170539975166321,0.024764835834503174
1.3519569558610967,-0.16158484967891906,-1.2605969585939947,-0.39455223083496094,0.31584039330482483,0.10929826647043228,-0.03492721915245056,-0.9761500954627991,-0.21426953375339508,-0.10841383039951324,0.8120874762535095,0.03310203552246094
1.3472826855299735,-0.15633101507746483,-1.2619117255295962,-0.5490315556526184,0.4984895586967468,-0.01550811342895031,-0.034511029720306396,-0.9751246571540833,-0.21895480155944824,-0.05878118798136711,0.7205926775932312,0.03934365510940552
1.3411380017867813,-0.14191109962773507,-1.2701246183709292,-0.7320441603660583,0.7933407425880432,-0.17327764630317688,-0.03219711408019066,-0.9737442135810852,-0.22535718977451324,-0.07655225694179535,0.6382795572280884,0.038086146116256714
1.3332361679269722,-0.11714809886085392,-1.2861498871385593,-0.9397238492965698,1.0329145193099976,-0.35688289999961853,-0.027505751699209213,-0.971915066242218,-0.2337196171283722,-0.0828763097524643,0.554815948009491,0.06367576122283936
1.3232598187782976,-0.08485013906795734,-1.3082992610825692,-1.1558434963226318,1.1030166149139404,-0.4961134195327759,-0.020764747634530067,-0.9695189595222473,-0.2441350370645523,-0.01761108636856079,0.45866990089416504,0.10953731834888458
1.3109277160222987,-0.05027921097844364,-1.3333712242184552,-1.393046498298645,0.939795732498169,-0.5934514403343201,-0.012913981452584267,-0.966423749923706,-0.2566288709640503,0.05107622593641281,0.36000895500183105,0.16644951701164246
1.2959093259027084,-0.01643231458869321,-1.3593905854513324,-1.6642441749572754,0.8479034304618835,-0.6844167113304138,-0.004460157826542854,-0.9624558687210083,-0.271401584148407,0.0767563208937645,0.24564367532730103,0.17600378394126892
1.2777273625328585,0.01748798819790476,-1.3855429574668026,-1.9848322868347168,0.932085394859314,-0.7877047657966614,0.0050518810749053955,-0.9573617577552795,-0.28884774446487427,0.0856463760137558,0.09359216690063477,0.14861959218978882
1.2557662940796184,0.051220831043277036,-1.4106451687524186,-2.3632125854492188,1.030311942100525,-0.8647608160972595,0.01586359180510044,-0.9507870674133301,-0.3094388544559479,0.1667536199092865,-0.0892825722694397,0.10754993557929993
1.2300676842765141,0.0834394469388645,-1.432765130257943,-2.6623916625976562,1.2311854362487793,-0.9031585454940796,0.02785094827413559,-0.9425114393234253,-0.33301135897636414,0.2410241961479187,-0.324929416179657,-0.017116695642471313
1.2020114240714346,0.11260565350672748,-1.45054440184591,-2.7799041271209717,1.2429670095443726,-0.8566871285438538,0.040506649762392044,-0.9327660799026489,-0.3581995666027069,0.31911250948905945,-0.6432838439941406,-0.2058568000793457
1.1744351437501366,0.13387246517801663,-1.4612566413086394,-2.5613150596618652,0.9838955998420715,-0.5815655589103699,0.0515291690826416,-0.9224719405174255,-0.3826102018356323,0.4124448597431183,-0.9547407031059265,-0.4423866868019104
1.1516695971949138,0.14054785461615402,-1.4611306451935082,-1.9046868085861206,0.3380028307437897,0.007825463078916073,0.05700967460870743,-0.9134446978569031,-0.402950257062912,0.5977907776832581,-1.3081741333007812,-0.7420539259910583
1.1381136544869217,0.12702875515103823,-1.4466007791746274,-0.9357360005378723,-0.3859862983226776,0.844290018081665,0.053121041506528854,-0.9078441262245178,-0.41592952609062195,0.800425112247467,-1.7316975593566895,-1.0890448093414307
1.1348015546711898,0.09104927488385585,-1.4139492497704191,-0.05613211542367935,-0.8408122658729553,1.820919156074524,0.038398146629333496,-0.9064503908157349,-0.420563280582428,0.8901907205581665,-2.258848190307617,-1.3706201314926147
1.1385869266624844,0.034627688898142786,-1.361646112910789,0.5083392262458801,-0.9160614609718323,2.5777904987335205,0.014501884579658508,-0.9080424904823303,-0.4186270833015442,0.6903321146965027,-2.7950215339660645,-1.519361138343811
1.1455596227752265,-0.03309612825146508,-1.2963407070862545,0.8637440800666809,-0.711544394493103,2.7759547233581543,-0.01365086529403925,-0.9109411239624023,-0.41231051087379456,0.06162451207637787,-3.18148136138916,-1.6042146682739258
1.1538396888310887,-0.0964984102763652,-1.2321248652803969,1.1341737508773804,-0.23043744266033173,2.2922873497009277,-0.03901929780840874,-0.9143256545066833,-0.4030958414077759,-0.7825902104377747,-3.4854087829589844,-1.7205917835235596
1.1642862628477297,-0.14124360886280116,-1.1831783405767555,1.4104682207107544,0.21422578394412994,1.2956215143203735,-0.05566312372684479,-0.918506383895874,-0.3914688527584076,-1.515854835510254,-3.6894192695617676,-1.790888786315918
1.1785851268892404,-0.1585759384237794,-1.1612452724695779,1.6676480770111084,0.31308844685554504,-0.05154767632484436,-0.06035919860005379,-0.9240661263465881,-0.37743690609931946,-1.990696668624878,-3.653372287750244,-1.7516371011734009
1.1968841468635265,-0.14560210169445825,-1.1722815929462467,1.8190747499465942,0.24500827491283417,-1.2852808237075806,-0.05299493297934532,-0.9309055209159851,-0.3613952398300171,-2.078657865524292,-3.430911064147949,-1.5998320579528809
1.2174404922784023,-0.102858669075821,-1.214749915009718,1.8864377737045288,0.38963472843170166,-2.1832427978515625,-0.03553136810660362,-0.9382167458534241,-0.3442196249961853,-1.7864595651626587,-2.9865269660949707,-1.40034818649292
1.2382130687031443,-0.03267661206992138,-1.2840198827575564,1.955430030822754,0.5886750221252441,-2.7145707607269287,-0.010666563175618649,-0.945202112197876,-0.3263118863105774,-1.3155815601348877,-2.4537391662597656,-1.2410556077957153
1.2580104766597662,0.05936025496136238,-1.3744080735435793,2.0962750911712646,0.651233434677124,-2.940565586090088,0.01825505867600441,-0.9514800310134888,-0.30716872215270996,-0.8592279553413391,-1.9292116165161133,-1.0862942934036255
1.2764730449819242,0.16641867428441753,-1.4802281722787705,2.2925729751586914,0.5451168417930603,-2.9167580604553223,0.048054326325654984,-0.9569986462593079,-0.28608494997024536,-0.5063672661781311,-1.407594919204712,-0.9294911623001099
1.2935562206841822,0.28312003293651916,-1.5971270767788033,2.509697198867798,0.36102771759033203,-2.7428038120269775,0.0764596238732338,-0.9618144631385803,-0.2628062069416046,-0.2426430583000183,-0.984566330909729,-0.7881886959075928
1.3091703438286302,0.40658262963975994,-1.7224916557666463,2.6787917613983154,0.16713067889213562,-2.4887046813964844,0.10228981077671051,-0.9659706950187683,-0.2375659942626953,-0.062418580055236816,-0.665483832359314,-0.6633891463279724
1.3227432117978812,0.535459498837374,-1.8545606648572475,2.7639548778533936,0.061407458037137985,-2.221663475036621,0.12527211010456085,-0.9693922400474548,-0.2111537605524063,0.029589354991912842,-0.4121996760368347,-0.5457888841629028
1.3340528705715329,0.6691589541887961,-1.9917778692647614,2.838172197341919,0.040410853922367096,-1.9308996200561523,0.1454908698797226,-0.97210693359375,-0.18395930528640747,0.09646779298782349,-0.2131960391998291,-0.44654905796051025
1.3433666250083047,0.8067099332504315,-2.132650031281175,2.9003939628601074,0.05611710995435715,-1.6160825490951538,0.16279619932174683,-0.9742491245269775,-0.1560010462999344,0.16307054460048676,-0.06846040487289429,-0.34431928396224976
1.35060717851379,0.9466617725919674,-2.2753271043449494,2.8915631771087646,0.12590521574020386,-1.337767243385315,0.1772368997335434,-0.9758561253547668,-0.12764057517051697,0.2246338576078415,0.01684117317199707,-0.20934969186782837
1.3549053315287705,1.0874469407360177,-2.417182158882971,2.768568277359009,0.34777262806892395,-1.1771823167800903,0.18967847526073456,-0.9767858982086182,-0.09955758601427078,0.257953405380249,0.05361372232437134,-0.05776049196720123
1.3553548684074497,1.2231410695331473,-2.5508458242572174,2.486504316329956,0.6882381439208984,-1.0524625778198242,0.20099008083343506,-0.9768821001052856,-0.07283350080251694,0.2769610285758972,0.11209005117416382,0.1457553505897522
1.3523786715707637,1.3420077072819059,-2.6636630265730847,1.9837837219238281,1.0509982109069824,-0.9005664587020874,0.2110396772623062,-0.9762415289878845,-0.0491439513862133,0.31975263357162476,0.1862938404083252,0.38904881477355957
1.3473164149033445,1.433077352704507,-2.7444929835005123,1.3045036792755127,1.388710379600525,-0.7455399036407471,0.21952684223651886,-0.9751321077346802,-0.03042561002075672,0.3629164695739746,0.27318185567855835,0.6074063181877136
1.3417683697250373,1.491643395149238,-2.788820162075322,0.5592135190963745,1.688473105430603,-0.5789477229118347,0.22632071375846863,-0.97388756275177,-0.01795145310461521,0.40147167444229126,0.35547924041748047,0.7511363625526428
1.3368545799486398,1.520515566861397,-2.799797275466526,-0.10101045668125153,1.946380376815796,-0.4411686658859253,0.2315215915441513,-0.9727602005004883,-0.011650901287794113,0.4308014512062073,0.40356147289276123,0.7989740371704102
1.3330131336243363,1.5268656602527908,-2.7860277585722906,-0.5514044761657715,1.9632594585418701,-0.29776331782341003,0.23532183468341827,-0.9718625545501709,-0.01034450065344572,0.4536277651786804,0.4373623728752136,0.7684317827224731
1.330488316792758,1.5181752802833055,-2.7584549854810074,-0.7439479827880859,1.6373263597488403,-0.1457008719444275,0.23767252266407013,-0.9712647199630737,-0.012518133036792278,0.45788413286209106,0.5137757062911987,0.6848815083503723
1.3293580129795743,1.502577060809811,-2.7280627137089715,-0.694480299949646,1.1342134475708008,0.004814591258764267,0.2385435849428177,-0.9709950685501099,-0.016298560425639153,0.435330331325531,0.6124440431594849,0.5737175345420837
1.3295865404899598,1.4858044456850503,-2.7021874761305287,-0.532011866569519,0.5317571759223938,0.12948638200759888,0.23801562190055847,-0.9710496664047241,-0.020278247073292732,0.3849092125892639,0.7085527181625366,0.49171388149261475
1.330947622805949,1.4690516409936978,-2.682609298615387,-0.37387925386428833,-0.06669215112924576,0.22433112561702728,0.23632816970348358,-0.9713739156723022,-0.024128451943397522,0.3087311089038849,0.8305045962333679,0.4442182779312134
1.333229367165328,1.4529109960034308,-2.669460004830526,-0.19949904084205627,-0.6019498109817505,0.2989735007286072,0.23370568454265594,-0.9719134569168091,-0.027678808197379112,0.22660623490810394,0.9591723084449768,0.413726270198822
1.3364340373685766,1.4371319513001033,-2.661899081035781,-0.08122619241476059,-1.073435664176941,0.38552597165107727,0.2301519215106964,-0.972662627696991,-0.030947638675570488,0.15674996376037598,1.0763611793518066,0.3862791657447815
1.3406601927004087,1.420124273227491,-2.6572526402963175,-0.018246537074446678,-1.4141008853912354,0.4829348921775818,0.22552625834941864,-0.9736353754997253,-0.0342400036752224,0.09765493869781494,1.1822075843811035,0.36335694789886475
1.345821935604663,1.4008489523312195,-2.653140401393325,-0.008366476744413376,-1.6345421075820923,0.5683805346488953,0.21986792981624603,-0.9747998118400574,-0.03772991895675659,0.03506067395210266,1.2740552425384521,0.33202630281448364
1.3518281709675477,1.37835593948375,-2.647362116201589,-0.02539132907986641,-1.7278956174850464,0.6639078855514526,0.21321332454681396,-0.9761220812797546,-0.041544973850250244,-0.021822303533554077,1.3592396974563599,0.2911331057548523
1.3589290373053673,1.3530049465792675,-2.6391966626800887,-0.02196597121655941,-1.748916745185852,0.8065755367279053,0.20531877875328064,-0.9776399731636047,-0.04543735086917877,-0.05443982779979706,1.432321310043335,0.23620283603668213
1.367622909664576,1.3246475719943998,-2.6279886310559823,-0.03671298921108246,-1.7360398769378662,1.0014019012451172,0.19569706916809082,-0.9794312119483948,-0.049167633056640625,-0.05133362114429474,1.48077392578125,0.20267117023468018
1.3780563465525908,1.2899908804962068,-2.6102793277170555,-0.09549187868833542,-1.7313569784164429,1.1961759328842163,0.1840466856956482,-0.9814831018447876,-0.053083956241607666,-0.056940943002700806,1.514167308807373,0.19354122877120972
1.3898342680385738,1.2473069281218523,-2.584167902148293,-0.11873892694711685,-1.6720027923583984,1.3366280794143677,0.17064155638217926,-0.9836710095405579,-0.05721040070056915,-0.11554203927516937,1.540342092514038,0.15109783411026
1.4024446919622267,1.2001629465227168,-2.552569679100983,-0.04762905836105347,-1.5259113311767578,1.4049149751663208,0.1561809927225113,-0.9858623147010803,-0.060690686106681824,-0.1906658262014389,1.5455241203308105,0.07440847158432007
1.4154232087003076,1.1540217945278544,-2.5200940749984815,0.08211802691221237,-1.295899510383606,1.3909615278244019,0.14150305092334747,-0.9879538416862488,-0.06264472752809525,-0.2683035433292389,1.525902271270752,0.009300105273723602
1.4283647269177961,1.1129555230820067,-2.490488910726153,0.21272477507591248,-1.0702916383743286,1.3242655992507935,0.12733106315135956,-0.9898737668991089,-0.06274396181106567,-0.34055739641189575,1.5120142698287964,-0.01821904629468918
1.4407219111756662,1.077836327112872,-2.464896457148739,0.29203349351882935,-0.8897442817687988,1.1886892318725586,0.11426431685686111,-0.9915522336959839,-0.061382368206977844,-0.3765628933906555,1.5012874603271484,-0.00036983564496040344
1.4517443654592,1.048112841414259,-2.443233046218153,0.3023527264595032,-0.771389901638031,0.995048463344574,0.10291257500648499,-0.9929217100143433,-0.05929107591509819,-0.3881145715713501,1.4703845977783203,0.05346233770251274
1.4608813689447269,1.0226421941409098,-2.4251020868937876,0.2701721489429474,-0.7313548922538757,0.790946364402771,0.09362181276082993,-0.9939654469490051,-0.05716251581907272,-0.37392574548721313,1.4295886754989624,0.10594494640827179
1.468090272809607,1.0007130349499516,-2.4103666693208194,0.22953523695468903,-0.7321099042892456,0.604743480682373,0.08631275594234467,-0.9947303533554077,-0.055333904922008514,-0.3388761878013611,1.4047491550445557,0.13747209310531616
1.4736867597303043,0.9822212861992154,-2.399303912181382,0.19898462295532227,-0.7692427039146423,0.45862507820129395,0.08064283430576324,-0.9952885508537292,-0.05382859706878662,-0.28782665729522705,1.3911319971084595,0.14297056198120117
1.4780882640537247,0.9686732921841121,-2.393485239824329,0.20823724567890167,-0.7784700393676758,0.33407703042030334,0.0762961134314537,-0.9957056641578674,-0.052435118705034256,-0.23564362525939941,1.3654717206954956,0.12436514347791672
1.4816722139607894,0.9638502471348706,-2.3963474291081592,0.2437245398759842,-0.7605265974998474,0.22857975959777832,0.07310926914215088,-0.9960310459136963,-0.05076581984758377,-0.19064770638942719,1.3316633701324463,0.08926385641098022
1.4846115635427946,0.9696596833123705,-2.4096725541141892,0.273756742477417,-0.7319974899291992,0.12314096093177795,0.0709877535700798,-0.9962884187698364,-0.048683881759643555,-0.1483650505542755,1.3073235750198364,0.05904466658830643
1.4866491944926286,0.9836404740504712,-2.4307200341993083,0.24884837865829468,-0.6633790731430054,0.013296407647430897,0.06997295469045639,-0.9964616894721985,-0.046563100069761276,-0.114742211997509,1.2789628505706787,0.04094797372817993
1.4875434049258258,1.002590385463175,-2.455600738614634,0.1962120682001114,-0.4954606592655182,-0.0907042920589447,0.0700913816690445,-0.9965364933013916,-0.04474916309118271,-0.0857468768954277,1.244644284248352,0.01806163787841797
1.4873166873971826,1.0243195960012805,-2.481287626640788,0.1420639157295227,-0.28244900703430176,-0.16666333377361298,0.07124049216508865,-0.9965175986289978,-0.04333331063389778,-0.05328087508678436,1.213939905166626,-0.00370943546295166
1.4863839287366027,1.0453384917149207,-2.5041539491398606,0.09213896095752716,-0.06780169159173965,-0.18288516998291016,0.07293969392776489,-0.9964393973350525,-0.04229274392127991,-0.003618992865085602,1.1930029392242432,-0.01390528678894043
1.4851932801968057,1.061318755065646,-2.5198551913838365,0.015916863456368446,0.1190485805273056,-0.1539526730775833,0.07464193552732468,-0.9963383078575134,-0.04170043766498566,0.06544903665781021,1.1619417667388916,0.008100688457489014
1.4838866782117013,1.066477970023791,-2.5236217741716493,-0.09099014103412628,0.14915402233600616,-0.10475317388772964,0.07599453628063202,-0.9962257146835327,-0.041943129152059555,0.10949132591485977,1.1273292303085327,0.05437910929322243
1.4824911443944577,1.056085917247746,-2.511897452574525,-0.2309509813785553,0.09403883665800095,-0.03649156540632248,0.07676555961370468,-0.9961036443710327,-0.043415479362010956,0.1262373924255371,1.0906927585601807,0.0937543511390686
1.480802760565241,1.0256417365923638,-2.48127863222773,-0.4163663685321808,-0.10261057317256927,0.020381039008498192,0.07684600353240967,-0.9959533214569092,-0.04660388082265854,0.14384189248085022,1.0331236124038696,0.1436956524848938
1.4783439109796874,0.9740189175851119,-2.431877880353765,-0.6061508655548096,-0.3824727237224579,0.04628785699605942,0.07636476308107376,-0.9957293272018433,-0.05188346654176712,0.15662170946598053,0.9425675868988037,0.16232669353485107
1.4746061085745046,0.9090272194769591,-2.3716359545110834,-0.7440621256828308,-0.6050596833229065,0.00650848587974906,0.07576887309551239,-0.9953773021697998,-0.059019673615694046,0.10996113717556,0.8101660013198853,0.12066531181335449
1.4691612192551078,0.845194519439873,-2.3137674233685486,-0.8324705958366394,-0.6072204113006592,-0.12449866533279419,0.07590357214212418,-0.994839608669281,-0.06732859462499619,0.008874282240867615,0.6943023800849915,0.044196367263793945
1.4615693358964184,0.7921230293037236,-2.264991311363225,-0.972294807434082,-0.2714945673942566,-0.2811700403690338,0.07759957760572433,-0.9940406680107117,-0.07656284421682358,-0.08449652045965195,0.6234807372093201,-0.01886553317308426
1.4512654908236653,0.7439846974408834,-2.2170335798583194,-1.3093961477279663,0.15756884217262268,-0.34175819158554077,0.08075758814811707,-0.9928646683692932,-0.08773963898420334,-0.09984630346298218,0.5714626312255859,0.012330770492553711
1.4372467105409275,0.6843624091061089,-2.153710718838182,-1.8724936246871948,0.4976646602153778,-0.2758673429489136,0.08417768776416779,-0.9910954833030701,-0.10317130386829376,-0.0678507462143898,0.5484530925750732,0.09223084151744843
1.4190275292443388,0.6121205368085109,-2.07307283099189,-2.42077374458313,1.0269675254821777,-0.07650360465049744,0.08687330782413483,-0.9885051846504211,-0.12373705953359604,-0.010060518980026245,0.4661203622817993,0.0789678543806076
1.3969883102474174,0.5296213241183395,-1.9769661225945119,-2.985292434692383,1.4123966693878174,0.3485206365585327,0.08736778050661087,-0.9849333763122559,-0.14924243092536926,0.16330362856388092,0.2939695119857788,0.032680630683898926
1.371065121726444,0.4356257884545387,-1.8660779503142975,-3.503990650177002,1.5662862062454224,0.8947816491127014,0.0837232917547226,-0.9801199436187744,-0.1798768788576126,0.391465961933136,0.020250320434570312,-0.03577549755573273
1.3417162609220716,0.3407643830317446,-1.7533838062780642,-3.6927878856658936,1.44423508644104,1.293418288230896,0.07589258253574371,-0.9738757014274597,-0.21402481198310852,0.4801377058029175,-0.35785043239593506,-0.22028599679470062
1.311974867659832,0.2570500324719293,-1.6545210324383381,-3.3358066082000732,0.962721586227417,1.5174534320831299,0.06506764888763428,-0.9666922688484192,-0.24753229320049286,0.4175983667373657,-0.7805306315422058,-0.5535997748374939
1.2870311873072622,0.1831190300746845,-1.5710337644598897,-2.4726076126098633,0.37117329239845276,1.7794767618179321,0.05098220705986023,-0.9600080847740173,-0.2752912938594818,0.37769824266433716,-1.2972397804260254,-0.9692764282226562
1.2704566928000274,0.11105013425174977,-1.4933193876237874,-1.4859775304794312,0.1456373929977417,2.1882638931274414,0.03278612717986107,-0.9552360773086548,-0.2940225303173065,0.4091847240924835,-1.8933205604553223,-1.310042381286621
1.2613124209652726,0.03245561637207594,-1.4095476716877362,-0.7313988208770752,0.11964734643697739,2.7237417697906494,0.009883182123303413,-0.9524908661842346,-0.3044068217277527,0.41986536979675293,-2.48928165435791,-1.447439432144165
1.2568263608825887,-0.059194533925343906,-1.3117617026251023,-0.0726262629032135,0.1887105256319046,3.2881906032562256,-0.018270807340741158,-0.9511150121688843,-0.30829641222953796,0.2508758008480072,-2.9997975826263428,-1.5053021907806396
1.2561203175698348,-0.1633386115847048,-1.1991241688677023,0.7188420295715332,0.4121473729610443,3.6095776557922363,-0.050330210477113724,-0.950896680355072,-0.30538901686668396,-0.24422544240951538,-3.405304431915283,-1.6234285831451416
1.2594560990055437,-0.27227347609775876,-1.0796513009788,1.493160605430603,0.49410369992256165,3.3615686893463135,-0.08238019049167633,-0.9519238471984863,-0.2950502932071686,-0.9491902589797974,-3.7302968502044678,-1.6800472736358643
1.2673422666150176,-0.3710396999117176,-0.9712472786719906,2.049020290374756,0.4165183901786804,2.2990012168884277,-0.10834696888923645,-0.9543100595474243,-0.27848413586616516,-1.686574935913086,-3.9746756553649902,-1.5408365726470947
1.2807984431342765,-0.44408691414126705,-0.8917318425648202,2.2216079235076904,0.2162497490644455,0.8735002279281616,-0.12285400927066803,-0.9582445025444031,-0.25821444392204285,-2.182291269302368,-4.100761413574219,-1.2563576698303223
1.2994175934042667,-0.47757515999868994,-0.8551072659096353,1.9780892133712769,0.1813892424106598,-0.7170825600624084,-0.12320779263973236,-0.9634022116661072,-0.23806767165660858,-2.293860673904419,-3.939429759979248,-0.8941801190376282
1.3212825352749837,-0.4572577568862837,-0.87344686514338,1.49174964427948,0.32517510652542114,-2.0354056358337402,-0.10901834815740585,-0.9690325856208801,-0.2215648889541626,-2.0842952728271484,-3.482948064804077,-0.5685350894927979
1.3427198754380831,-0.38391604181248246,-0.9453869681190389,1.067581057548523,0.34297141432762146,-2.7618372440338135,-0.08468842506408691,-0.9741030931472778,-0.20964524149894714,-1.5346505641937256,-2.833651542663574,-0.3683118224143982
1.3613835523932747,-0.27108941387905144,-1.0580357986067717,0.9336936473846436,0.2070903480052948,-3.031188726425171,-0.05566784366965294,-0.9781531691551208,-0.20029351115226746,-0.8892326354980469,-2.227855682373047,-0.359551340341568
1.37704193219279,-0.13538645319990758,-1.195655584768182,1.0457358360290527,-0.04046325758099556,-2.973759889602661,-0.025988353416323662,-0.9812882542610168,-0.1907825618982315,-0.4056064784526825,-1.6779067516326904,-0.42774757742881775
1.3905090078252516,0.009259291035964172,-1.3445529480833731,1.3067830801010132,-0.2914177179336548,-2.7142932415008545,0.0016602780669927597,-0.9837921857833862,-0.17930428683757782,-0.07200327515602112,-1.2290525436401367,-0.4930283725261688
1.4028843037094494,0.15606919903342178,-1.4978520162082989,1.5937246084213257,-0.5438196063041687,-2.376600503921509,0.025977235287427902,-0.9859358668327332,-0.1650932878255844,0.116539865732193,-0.8814653754234314,-0.5149755477905273
1.414425434749655,0.30369721513719283,-1.654055320174506,1.785748839378357,-0.7593039870262146,-2.01708984375,0.04657255858182907,-0.9877989888191223,-0.1486080437898636,0.20936313271522522,-0.6073701977729797,-0.45724207162857056
1.424508287839732,0.452151291726643,-1.8124658568637289,1.8342162370681763,-0.8489601016044617,-1.6945432424545288,0.06368602812290192,-0.9893189668655396,-0.13111914694309235,0.24844777584075928,-0.4100493788719177,-0.3628535270690918
1.4323739352329734,0.6025220640655007,-1.97246136101661,1.8064348697662354,-0.7410450577735901,-1.4508459568023682,0.07819748669862747,-0.9904348850250244,-0.11368463188409805,0.2451973259449005,-0.2601146101951599,-0.2665643095970154
1.4375743954982896,0.755372827139627,-2.1331879659727946,1.731974482536316,-0.5301945805549622,-1.301639437675476,0.09106305241584778,-0.9911390542984009,-0.0967024713754654,0.1981368064880371,-0.10493046045303345,-0.17227937281131744
1.4393595747408756,0.9088031163947378,-2.29172889263719,1.5961973667144775,-0.19800226390361786,-1.2700244188308716,0.10337594896554947,-0.9913746118545532,-0.08056125789880753,0.12094353139400482,0.04859495162963867,-0.07533764839172363
1.437014506427826,1.0564188232293146,-2.4401860360530776,1.406302809715271,0.29931938648223877,-1.303181529045105,0.11612411588430405,-0.9910645484924316,-0.06562406569719315,0.06797320395708084,0.1692565679550171,0.0393027663230896
1.4306727992956312,1.1865917734827378,-2.565918519381749,1.1239643096923828,0.8143132328987122,-1.3314845561981201,0.12948454916477203,-0.9901987314224243,-0.05235011875629425,0.07931676506996155,0.2478126883506775,0.1607639193534851
1.4212542845667056,1.2876374745254144,-2.657637153804193,0.7581713795661926,1.2344590425491333,-1.3138213157653809,0.14305329322814941,-0.9888393878936768,-0.04162529110908508,0.11054779589176178,0.323037326335907,0.30671632289886475
1.410051918779995,1.3567870895268752,-2.7135273323866227,0.3747863173484802,1.543677806854248,-1.2885793447494507,0.15640199184417725,-0.9871084094047546,-0.03399200737476349,0.14559997618198395,0.41334742307662964,0.43865519762039185
1.3981602391513197,1.3995121761263771,-2.740662976816299,0.07083041965961456,1.615957260131836,-1.2165347337722778,0.16926662623882294,-0.9851353764533997,-0.029279587790369987,0.18209753930568695,0.4970982074737549,0.5139598846435547
1.3867418684171495,1.423837717113236,-2.7498100654802546,-0.0935211107134819,1.419106364250183,-1.090782880783081,0.1810443252325058,-0.983109712600708,-0.02679922617971897,0.2502301335334778,0.6267560124397278,0.5563403367996216
1.3765859392781288,1.4373997722149692,-2.7513186466771518,-0.12431178241968155,0.9786552786827087,-0.9310225248336792,0.1912783980369568,-0.9812003374099731,-0.02566831186413765,0.3219510316848755,0.7417287230491638,0.5508912205696106
1.3679917979526162,1.444775841105245,-2.751763134375851,-0.07143392413854599,0.3992806077003479,-0.7795190215110779,0.19982078671455383,-0.9795055389404297,-0.025315668433904648,0.34150010347366333,0.8260629773139954,0.5285964012145996
1.3608943041460972,1.4481271292133844,-2.754565366131569,0.013277502730488777,-0.2897484004497528,-0.644493043422699,0.20679925382137299,-0.9780513048171997,-0.02549591287970543,0.3152955174446106,0.9163447022438049,0.5113968849182129
1.3553070305482355,1.4467379468674446,-2.7597921916151336,0.06768640875816345,-1.007857322692871,-0.4900524914264679,0.21218247711658478,-0.976871907711029,-0.026458891108632088,0.2749238610267639,1.0197948217391968,0.4983217716217041
1.3514382112580052,1.439352511049441,-2.765799941519612,0.08570961654186249,-1.6335270404815674,-0.31270354986190796,0.21572726964950562,-0.976037323474884,-0.028520459309220314,0.21327364444732666,1.1348810195922852,0.4767322540283203
1.3493902011054322,1.4248449148707854,-2.770180549690621,0.040844835340976715,-2.108604907989502,-0.11899345368146896,0.21726743876934052,-0.9755896329879761,-0.03193758800625801,0.14554083347320557,1.2432897090911865,0.4456186890602112
1.3491187925720767,1.401696089644429,-2.769624639603467,-0.08278682082891464,-2.4015867710113525,0.06625629961490631,0.21673139929771423,-0.9755299687385559,-0.03700270131230354,0.07339929044246674,1.3329516649246216,0.3997957706451416
1.3503867326833174,1.3687351020667309,-2.7611460170197577,-0.23613899946212769,-2.526759624481201,0.25050032138824463,0.2141823023557663,-0.9758079648017883,-0.043876711279153824,-0.002466529607772827,1.397163987159729,0.3353044390678406
1.3530568498171018,1.3271955403144826,-2.7444336039128276,-0.34588921070098877,-2.5147440433502197,0.4334065020084381,0.2096458524465561,-0.9763882756233215,-0.0521046482026577,-0.07883220911026001,1.4389278888702393,0.25175076723098755
1.3571760247506177,1.280349946455028,-2.7215000823045896,-0.3749467432498932,-2.3691811561584473,0.6223009824752808,0.2031206637620926,-0.9772698283195496,-0.06071256101131439,-0.1539110392332077,1.4821982383728027,0.14704692363739014
1.3629205445732173,1.2317785122121858,-2.694930998367486,-0.31913140416145325,-2.1559441089630127,0.8211230039596558,0.1946355253458023,-0.9784715175628662,-0.0686347484588623,-0.21242722868919373,1.5295883417129517,0.049607157707214355
1.3705862804832636,1.1835748980636767,-2.666325153924853,-0.22127428650856018,-1.886543869972229,1.0224437713623047,0.18415172398090363,-0.9800248146057129,-0.07509902119636536,-0.25132086873054504,1.5508558750152588,-0.026188738644123077
1.3799853610059245,1.1370825447427342,-2.636535578746219,-0.08721768110990524,-1.5691405534744263,1.1606335639953613,0.1720954030752182,-0.9818507432937622,-0.07970144599676132,-0.2946082055568695,1.5429011583328247,-0.08690916746854782
1.3907126414102116,1.094569619400935,-2.6075197989931125,0.07139791548252106,-1.2376147508621216,1.2355002164840698,0.15918287634849548,-0.9838287234306335,-0.08211039006710052,-0.3458283543586731,1.5382871627807617,-0.12836921215057373
1.4023082909189812,1.0575917854706447,-2.580831746583326,0.20684175193309784,-0.9089667797088623,1.2440391778945923,0.14608973264694214,-0.9858394265174866,-0.0823322981595993,-0.38240256905555725,1.5228724479675293,-0.14226174354553223
1.4141750383395835,1.02601641282499,-2.5563484660075497,0.3055736720561981,-0.5707099437713623,1.2065447568893433,0.1334027796983719,-0.9877599477767944,-0.08083485066890717,-0.4005994200706482,1.4844028949737549,-0.12761539220809937
1.4259081299105854,0.9992174421867179,-2.5333819651186196,0.3463383913040161,-0.26036593317985535,1.146923542022705,0.1214323416352272,-0.9895220398902893,-0.07810508459806442,-0.3871793746948242,1.4541521072387695,-0.0851638913154602
1.4370623926302668,0.9738801159014066,-2.509371769563476,0.3181697130203247,-0.0706896185874939,1.0824683904647827,0.11027856916189194,-0.9910709261894226,-0.07494743168354034,-0.35771507024765015,1.4269839525222778,-0.014377407729625702
1.447180977697212,0.944341472703926,-2.479671120641336,0.2068575769662857,0.04765646532177925,1.0152299404144287,0.09988804161548615,-0.9923693537712097,-0.0722888708114624,-0.32318514585494995,1.389662265777588,0.05995988845825195
1.455714122826329,0.9042489320244012,-2.438410421142695,0.033389121294021606,0.13049648702144623,0.9404201507568359,0.09025144577026367,-0.993385374546051,-0.07099628448486328,-0.2925829589366913,1.3537979125976562,0.12365448474884033
1.4621429735231584,0.8511205113790271,-2.383158102844003,-0.1572125107049942,0.23209954798221588,0.8393228650093079,0.08154930919408798,-0.9941030144691467,-0.07147752493619919,-0.2653108835220337,1.311058521270752,0.14627623558044434
1.4662355163017855,0.7873966079516871,-2.3160772136543804,-0.3244830071926117,0.3726702332496643,0.7334809303283691,0.07394881546497345,-0.9945384860038757,-0.07365383952856064,-0.23640912771224976,1.262391209602356,0.1309659481048584
1.4679793431671566,0.7172359148217836,-2.2408109133279783,-0.48913371562957764,0.5796160101890564,0.6473580598831177,0.06746425479650497,-0.9947189688682556,-0.07735046744346619,-0.20265710353851318,1.2145521640777588,0.10622017830610275
1.467311430183136,0.6433207105284969,-2.1592883748066796,-0.6779122948646545,0.8704061508178711,0.5798786282539368,0.061966054141521454,-0.9946502447128296,-0.08265246450901031,-0.16938790678977966,1.172659158706665,0.09281492233276367
1.463984557583891,0.5672659210235166,-2.072234766784853,-0.9147581458091736,1.2436798810958862,0.5501422882080078,0.05728425085544586,-0.9943010210990906,-0.08991153538227081,-0.14012418687343597,1.1488114595413208,0.09033888578414917
1.4578840780502438,0.4916502056352334,-1.9817598807269883,-1.1384320259094238,1.6266378164291382,0.5498368144035339,0.053191233426332474,-0.9936321973800659,-0.09932823479175568,-0.11982633173465729,1.1441905498504639,0.08252841234207153
1.4493436133826747,0.42099657294165516,-1.892474757135056,-1.3061655759811401,1.9768000841140747,0.5761485695838928,0.04951249435544014,-0.9926337003707886,-0.11057613044977188,-0.08895644545555115,1.1317174434661865,0.06716501712799072
1.4391704853162095,0.357940172271743,-1.807951484869312,-1.3756484985351562,2.1605727672576904,0.6289926171302795,0.04598166048526764,-0.9913498163223267,-0.1229281947016716,-0.018897294998168945,1.0649733543395996,0.052905745804309845
1.428453823848005,0.30267437051402946,-1.7302880045615,-1.3299715518951416,2.1717140674591064,0.6802858710289001,0.04228571429848671,-0.9898864030838013,-0.13541440665721893,0.05166267603635788,0.9400053024291992,0.0338519811630249
1.4180882191783548,0.2565369158446425,-1.662152357554364,-1.2172809839248657,2.072087287902832,0.6628210544586182,0.03859671950340271,-0.988362729549408,-0.1471378207206726,0.07378429174423218,0.8008321523666382,0.022168457508087158
1.408234675814842,0.22091629535444332,-1.6062913389180802,-1.1199960708618164,1.8224910497665405,0.5729454755783081,0.03546451777219772,-0.9868159294128418,-0.15791362524032593,0.06316830962896347,0.707152783870697,0.0459294468164444
1.398641745012033,0.19395844865376882,-1.5625119789119706,-1.0683013200759888,1.416410207748413,0.4548961818218231,0.03301820904016495,-0.9852179884910583,-0.16809332370758057,0.05362120643258095,0.6545599699020386,0.10039021074771881
1.3889200050451682,0.1749702678315307,-1.5310854318340854,-1.056191325187683,0.9814150929450989,0.2616822421550751,0.03148657828569412,-0.9835060238838196,-0.17811371386051178,0.02515406534075737,0.5865791440010071,0.13972271978855133
1.3788494634200479,0.16741490985573637,-1.5151343892695701,-1.031841516494751,0.6765768527984619,-0.020496705546975136,0.031788937747478485,-0.9816346764564514,-0.18810385465621948,-0.048604097217321396,0.49629825353622437,0.11385470628738403
1.3685959148029851,0.17219941565822244,-1.51389797905222,-1.0094531774520874,0.5410099625587463,-0.26692888140678406,0.03441143035888672,-0.9796270728111267,-0.1978556364774704,-0.03193948045372963,0.40376025438308716,0.06273919343948364
1.3578500189555638,0.18420637811250248,-1.5208150731502004,-1.0728962421417236,0.5378568172454834,-0.37604445219039917,0.038710642606019974,-0.9774124622344971,-0.20776590704917908,0.04338166490197182,0.35486894845962524,0.04812851548194885
1.3457723318924701,0.1973289996490452,-1.5276107359391444,-1.2642529010772705,0.7840924263000488,-0.35863617062568665,0.04374484345316887,-0.9747887253761292,-0.21879994869232178,0.12391874939203262,0.3589286804199219,0.06401485204696655
1.3312678528684139,0.20753223361915632,-1.5285629747306142,-1.5880200862884521,1.0670770406723022,-0.2567071318626404,0.048883359879255295,-0.9714499711990356,-0.2321545034646988,0.1823330968618393,0.3714437484741211,0.11652350425720215
1.3135211210964164,0.21109202399882057,-1.5197547857320688,-1.9879651069641113,1.3588776588439941,-0.04426142945885658,0.05331364646553993,-0.967086911201477,-0.24879860877990723,0.28833067417144775,0.337493896484375,0.18285024166107178
1.2920362630738982,0.20549461590210474,-1.4988058902007213,-2.469177722930908,1.5439530611038208,0.23281210660934448,0.05614761635661125,-0.9613973498344421,-0.26937466859817505,0.43068408966064453,0.16613972187042236,0.2482413649559021
1.2659496607062077,0.19385230805279716,-1.4697489429554358,-2.9862210750579834,1.7093063592910767,0.34438416361808777,0.057820502668619156,-0.9538930058479309,-0.29452529549598694,0.39040645956993103,-0.08400994539260864,0.2478640079498291
1.234974161805891,0.18400102391459625,-1.440502421205797,-3.444193124771118,1.8678867816925049,0.2885811924934387,0.06029518321156502,-0.9441396594047546,-0.3239828944206238,0.285514771938324,-0.36234843730926514,0.12526780366897583
1.2001268818696067,0.17894490897433507,-1.4153211427382288,-3.7015573978424072,1.8355098962783813,0.16511410474777222,0.06447555869817734,-0.9320850372314453,-0.3564554452896118,0.29268693923950195,-0.6831493973731995,-0.09457898139953613
1.1645545055472382,0.17731542273334194,-1.3944632473798586,-3.5422449111938477,1.692057728767395,0.1630072295665741,0.06970138102769852,-0.9186123609542847,-0.3889642357826233,0.34056171774864197,-1.0512669086456299,-0.47320300340652466
1.1326583766206275,0.17178088782847126,-1.3728310198090987,-3.0410654544830322,1.0383249521255493,0.5343765020370483,0.07252087444067001,-0.9055432081222534,-0.41801002621650696,0.5738414525985718,-1.5260059833526611,-0.8748518228530884
1.1072872897681725,0.1472547614335352,-1.342239593491776,-2.375209093093872,-0.5177451372146606,1.3415406942367554,0.06559844315052032,-0.8944891691207886,-0.4422513246536255,0.8292379975318909,-1.925823450088501,-1.15683913230896
1.0908947146150205,0.09375529873756779,-1.2971168761660032,-1.3211942911148071,-2.0724363327026367,2.3301503658294678,0.04322269558906555,-0.887040376663208,-0.4596644639968872,0.8357903957366943,-2.1899099349975586,-1.5045077800750732
1.0862383049836177,0.018606376159633637,-1.2390361758814947,0.10846437513828278,-2.502408742904663,2.9165873527526855,0.008666676469147205,-0.8848809003829956,-0.46573692560195923,0.44583162665367126,-2.5439980030059814,-2.0735392570495605
1.0933133239680422,-0.057897769907233124,-1.1771693163377883,1.3562147617340088,-1.7241278886795044,2.6837961673736572,-0.026591787114739418,-0.8881543874740601,-0.4587753117084503,-0.33946654200553894,-2.9820544719696045,-2.540369987487793
1.1080442965053638,-0.115721641808731,-1.1244467771261197,1.9033361673355103,-0.450977087020874,1.7731752395629883,-0.05154437944293022,-0.8948273658752441,-0.4434269070625305,-1.186797857284546,-3.302957057952881,-2.5394067764282227
1.1259034143908964,-0.14379266070343952,-1.0924293866292132,1.9751464128494263,0.5182636380195618,0.5081580877304077,-0.06166980415582657,-0.9026567339897156,-0.4259200990200043,-1.6702942848205566,-3.4446487426757812,-2.162977695465088
1.144722642167634,-0.13952296689169913,-1.0892930760472377,1.7867625951766968,0.8507755398750305,-0.7366681098937988,-0.057477790862321854,-0.9105954766273499,-0.40928271412849426,-1.7509328126907349,-3.3951754570007324,-1.7470587491989136
1.163213752337849,-0.10791130656609807,-1.1136958461952178,1.674206018447876,0.9996035695075989,-1.6398708820343018,-0.04269212484359741,-0.9180817604064941,-0.39408552646636963,-1.4885120391845703,-3.030068874359131,-1.3803894519805908
1.182158957115141,-0.05605772325892711,-1.1592239513462568,1.8619754314422607,0.9541240334510803,-2.148036479949951,-0.021230725571513176,-0.9254262447357178,-0.3783329129219055,-1.0212650299072266,-2.5121195316314697,-1.2305079698562622
1.20357247060701,0.007842989904036052,-1.2188475352425736,2.346937894821167,0.7315178513526917,-2.3245034217834473,0.0028158086352050304,-0.9333276748657227,-0.35901495814323425,-0.5845113396644592,-2.0093603134155273,-1.2020964622497559
1.2288910226475118,0.07896677977626847,-1.28840791212922,2.931183338165283,0.44371792674064636,-2.264321804046631,0.026448698714375496,-0.9421175718307495,-0.3342380225658417,-0.24263520538806915,-1.546438455581665,-1.1277827024459839
1.258035982525206,0.156242228774439,-1.3669944420426057,3.438957452774048,0.1385340690612793,-2.0693233013153076,0.04787828400731087,-0.9514878988265991,-0.3039386570453644,-0.03010178729891777,-1.174900770187378,-0.973969578742981
1.2894553193895364,0.24221586993123448,-1.45682669619989,3.7411985397338867,-0.11193421483039856,-1.8499339818954468,0.06659432500600815,-0.9606840014457703,-0.26954004168510437,0.06542473286390305,-0.9016819596290588,-0.7846896648406982
1.3207068731385314,0.34207568302281915,-1.5623128029421354,3.8249905109405518,-0.2637093663215637,-1.6664259433746338,0.08301907032728195,-0.9688903093338013,-0.2331511676311493,0.08041782677173615,-0.6928070783615112,-0.5929137468338013
1.3494744546762791,0.4610919445437982,-1.687816310981169,3.7469356060028076,-0.3358920216560364,-1.4890092611312866,0.09767018258571625,-0.9756081104278564,-0.19659484922885895,0.08195630460977554,-0.5133751630783081,-0.4244072437286377
1.373887530627646,0.6010249049180245,-1.8344079072680193,3.5401155948638916,-0.35373973846435547,-1.2910741567611694,0.11063205450773239,-0.980675995349884,-0.16135531663894653,0.12128632515668869,-0.3636234998703003,-0.2769380807876587
1.3931395153810195,0.7596156732547097,-1.9991589969244377,3.3156545162200928,-0.29490700364112854,-1.0608853101730347,0.1217002272605896,-0.9842604994773865,-0.12814323604106903,0.1735726296901703,-0.24285143613815308,-0.1846923828125
1.4073626414940814,0.9332798331461019,-2.17753664768281,3.1069247722625732,-0.12724505364894867,-0.8329230546951294,0.1307482272386551,-0.986674427986145,-0.09684399515390396,0.2078443318605423,-0.14961719512939453,-0.1261630654335022
1.4169031238981313,1.1166031832912624,-2.3635807223484218,2.911133289337158,0.04470222443342209,-0.5914387702941895,0.13774625957012177,-0.9881817698478699,-0.06725284457206726,0.21477757394313812,-0.0580524206161499,-0.049705684185028076
1.4222893217667114,1.2993838643681141,-2.5471735269101137,2.6304423809051514,0.21113167703151703,-0.38174307346343994,0.1425451636314392,-0.9889931082725525,-0.03966737911105156,0.22609193623065948,0.03446429967880249,0.07529675960540771
1.4237751359084752,1.467646567593721,-2.7143276145236603,2.254375457763672,0.3750275671482086,-0.2541303038597107,0.14571316540241241,-0.9892118573188782,-0.015083813108503819,0.20861117541790009,0.12692248821258545,0.217873215675354
1.4223240508467936,1.6093206037500447,-2.852866100439618,1.8133419752120972,0.558996856212616,-0.17498303949832916,0.14781811833381653,-0.9889982342720032,0.005697404965758324,0.19197987020015717,0.2089078426361084,0.33353614807128906
1.419195347114498,1.7197687136100834,-2.9576331224138817,1.3719090223312378,0.8327802419662476,-0.16271935403347015,0.14934849739074707,-0.9885305762290955,0.022414864972233772,0.15936733782291412,0.27458709478378296,0.3974308967590332
1.4152487546383208,1.8011804152681699,-3.029959420986837,0.9642125368118286,1.1397290229797363,-0.19830025732517242,0.15082861483097076,-0.9879268407821655,0.03537663072347641,0.13200832903385162,0.342418909072876,0.43125247955322266
1.411093503819011,1.8580006704229597,-3.075412141144857,0.6474735140800476,1.2227637767791748,-0.24302920699119568,0.15251187980175018,-0.9872745871543884,0.045047543942928314,0.1156766265630722,0.4314272999763489,0.4649165868759155
1.406915481189118,1.8964884485333695,-3.102525090271615,0.4587712585926056,1.103037714958191,-0.2929019629955292,0.15457288920879364,-0.9866015315055847,0.052202142775058746,0.09872306883335114,0.5301804542541504,0.4774610996246338
1.402457780906497,1.9231275619543973,-3.119866089260857,0.3969446122646332,0.7917673587799072,-0.36023011803627014,0.1572524905204773,-0.985864520072937,0.05781743675470352,0.0860183984041214,0.6226290464401245,0.47262394428253174
1.3974132063797648,1.9427930977934482,-3.1338932956396293,0.4121682941913605,0.3684794306755066,-0.41373834013938904,0.16071735322475433,-0.9850067496299744,0.06270582228899002,0.07519882917404175,0.7298644185066223,0.45432305335998535
1.3920530857421678,1.9562965161302042,3.1368251712569926,0.382368266582489,-0.12361022084951401,-0.4173814654350281,0.16474583745002747,-0.9840679168701172,0.06685459613800049,0.07744169235229492,0.8709849119186401,0.46865272521972656
1.386942810237016,1.9625592455497916,3.1265019211931135,0.3562448024749756,-0.6636295318603516,-0.37956270575523376,0.16896967589855194,-0.9831464886665344,0.06980428099632263,0.09276436269283295,0.9450756907463074,0.49252796173095703
1.3824490318710627,1.9625993696595354,3.1167153939215995,0.3155718147754669,-1.2564961910247803,-0.31007322669029236,0.17304867506027222,-0.9823150038719177,0.07149751484394073,0.07241952419281006,1.0111844539642334,0.4828850030899048
1.3790879363947433,1.9555391842523042,3.1083193897890333,0.23210914433002472,-1.8000081777572632,-0.18205055594444275,0.17660832405090332,-0.981680154800415,0.07151272147893906,0.020947277545928955,1.1857662200927734,0.4640861749649048
1.377754269853065,1.9427211096551813,3.1008942725438606,0.13301530480384827,-2.2086613178253174,0.04820280522108078,0.17872962355613708,-0.9814251661300659,0.06971870362758636,0.0026821643114089966,1.2780406475067139,0.402968168258667
1.379052374858248,1.927326247612455,3.0929194890655065,0.06446526944637299,-2.420286178588867,0.30175384879112244,0.17858801782131195,-0.9816733598709106,0.06651443988084793,-0.01864534616470337,1.3263845443725586,0.297468900680542
1.3827964269040942,1.9121237387377856,3.083586556350796,0.011241396889090538,-2.443647623062134,0.5174188017845154,0.17611387372016907,-0.9823800325393677,0.06256112456321716,-0.07606194913387299,1.3698004484176636,0.1960906982421875
1.3885022032905565,1.8978058871341543,3.0738389815175413,-0.04940597340464592,-2.3343968391418457,0.6736781597137451,0.17167966067790985,-0.9834303855895996,0.05823150649666786,-0.14145198464393616,1.3845229148864746,0.10981369018554688
1.395757617445753,1.8829967592856445,3.0662443944545044,-0.1547793596982956,-2.1184189319610596,0.7860283255577087,0.1657288819551468,-0.9847198128700256,0.05348990112543106,-0.2011139839887619,1.3823027610778809,0.0497359037399292
1.4042170006480454,1.8659189599661157,3.0637152693304848,-0.2735781967639923,-1.790285587310791,0.8519101738929749,0.15864171087741852,-0.9861577153205872,0.048227109014987946,-0.2547262907028198,1.3855717182159424,0.001821868121623993
1.4134471167771363,1.8451840301699087,3.0686452031678417,-0.3961580693721771,-1.3841689825057983,0.874552309513092,0.15083956718444824,-0.9876461625099182,0.042459480464458466,-0.30423614382743835,1.3893184661865234,-0.04116237163543701
1.4229683496467564,1.81991811960609,3.0822933267769335,-0.49475041031837463,-0.9865174889564514,0.8598103523254395,0.14274486899375916,-0.9890933036804199,0.03631524741649628,-0.34312325716018677,1.3908722400665283,-0.06989967823028564
1.432397539769076,1.7898357751822498,3.104357981270243,-0.5527333617210388,-0.6727989912033081,0.8299459218978882,0.13466261327266693,-0.9904381632804871,0.029977384954690933,-0.36882394552230835,1.3853507041931152,-0.09233999252319336
1.4413955684400395,1.7559534619576036,3.133147422720533,-0.5619535446166992,-0.40404319763183594,0.779752254486084,0.1268356442451477,-0.9916393756866455,0.02375663071870804,-0.3659103214740753,1.3655710220336914,-0.10478067398071289
1.449625092746068,1.7192190119537054,-3.1160364391230084,-0.5478479266166687,-0.20581917464733124,0.6983740329742432,0.11954755336046219,-0.9926677346229553,0.01787501946091652,-0.3522898256778717,1.329383373260498,-0.1027137041091919
1.4566683252477846,1.6802457745742356,-3.078142286834167,-0.5095545649528503,-0.0739748626947403,0.5757157206535339,0.11320013552904129,-0.99349445104599,0.012439402751624584,-0.3481091558933258,1.2912849187850952,-0.10026884078979492
1.4621499690544189,1.642450310876983,-3.0403290023166565,-0.4267980456352234,0.027745245024561882,0.43857166171073914,0.10815606266260147,-0.9941037893295288,0.00776310358196497,-0.343583881855011,1.2552731037139893,-0.10406124591827393
1.4660808576043782,1.6086242547005118,-3.00569827012209,-0.35634171962738037,0.09171730279922485,0.3079465329647064,0.10445018857717514,-0.9945223331451416,0.003953019622713327,-0.32233041524887085,1.2267916202545166,-0.09034812450408936
1.4685831353870533,1.578113848057498,-2.9737290612309333,-0.3215526044368744,0.16549721360206604,0.1758752316236496,0.10203384608030319,-0.9947807788848877,0.000746648118365556,-0.2896100878715515,1.1992026567459106,-0.05624270439147949
1.46967358154583,1.5474496931953123,-2.9409189159781923,-0.34969261288642883,0.2277507334947586,0.047653600573539734,0.10092435777187347,-0.9948914647102356,-0.0023566721938550472,-0.2612178921699524,1.1682007312774658,-0.022911787033081055
1.4694321609498704,1.5119243525966117,-2.9025584230840993,-0.43290504813194275,0.30621805787086487,-0.06152711063623428,0.10101672261953354,-0.9948670268058777,-0.005953934043645859,-0.23378342390060425,1.1446624994277954,0.005862534046173096
1.4679752365968262,1.4695150714054197,-2.856220337289641,-0.5354737639427185,0.43972206115722656,-0.1524391770362854,0.10211386531591415,-0.9947185516357422,-0.010377729311585426,-0.20129597187042236,1.1324596405029297,0.019548356533050537
1.465415575949688,1.4213986897683675,-2.8026959721057474,-0.6310005784034729,0.5821790099143982,-0.21607093513011932,0.10401497036218643,-0.9944525957107544,-0.01565624587237835,-0.16576726734638214,1.1176977157592773,0.010010601952672005
1.462033035221348,1.3719587818046413,-2.7463181922733377,-0.6668134331703186,0.7505464553833008,-0.23891286551952362,0.10641052573919296,-0.9940910935401917,-0.021441731601953506,-0.11367369443178177,1.0916862487792969,-0.02172529511153698
1.4583547781376396,1.3288252762322315,-2.694228062816066,-0.6116393208503723,0.9852666258811951,-0.22664088010787964,0.10893544554710388,-0.9936851263046265,-0.02688600867986679,-0.05844409763813019,1.048098087310791,-0.05715929716825485
1.4549323179850633,1.2955259090740607,-2.6494596867676097,-0.5559654235839844,1.2555245161056519,-0.1739201545715332,0.11125408113002777,-0.9932952523231506,-0.03142266720533371,0.0025459900498390198,0.9783263206481934,-0.06438714265823364
1.4521018007115747,1.2660805780498574,-2.606113650523699,-0.5963361263275146,1.4517757892608643,-0.0765688493847847,0.11296159774065018,-0.9929640889167786,-0.03552764654159546,0.08538743108510971,0.900587260723114,-0.006571292877197266
1.4498501357848537,1.2299173076991199,-2.555044286432344,-0.7109343409538269,1.435368299484253,0.042519986629486084,0.11371087282896042,-0.9926949143409729,-0.04033622518181801,0.15408089756965637,0.8584632277488708,0.08168762922286987
1.4480242739307827,1.1818822930131851,-2.4929987009814805,-0.8300355076789856,1.2696142196655273,0.14804798364639282,0.11332046985626221,-0.9924729466438293,-0.04643714427947998,0.18356981873512268,0.85755455493927,0.14891529083251953
1.4461069573967265,1.122790381143916,-2.421747986473972,-0.936387836933136,1.0583521127700806,0.21151722967624664,0.11209405213594437,-0.9922363758087158,-0.053872182965278625,0.17391672730445862,0.8645354509353638,0.18875998258590698
1.4435201799844715,1.054365707323681,-2.3432687785665767,-1.0574899911880493,0.823860228061676,0.23961150646209717,0.11038034409284592,-0.9919112920761108,-0.06267748773097992,0.15782341361045837,0.8748458027839661,0.2153112292289734
1.4397188784956823,0.977410325014623,-2.2592841419401175,-1.178108811378479,0.41521117091178894,0.2558075189590454,0.10835999995470047,-0.991421639919281,-0.07308565080165863,0.15331301093101501,0.893200695514679,0.2369498610496521
1.4347953632272017,0.8949472959884732,-2.174381630664175,-1.215346336364746,-0.06007697433233261,0.2965123951435089,0.10577838867902756,-0.9907661080360413,-0.08481510728597641,0.17159590125083923,0.8723273277282715,0.19374775886535645
1.429633184431358,0.8133343799063161,-2.0936228021134453,-1.1394628286361694,-0.2110947221517563,0.40908288955688477,0.1022268533706665,-0.9900529980659485,-0.09666900336742401,0.21053257584571838,0.7753465175628662,0.08594214916229248
1.4254213239886886,0.7333987352924779,-2.014258122158841,-1.0577720403671265,-0.05322856083512306,0.634861171245575,0.09697163105010986,-0.9894516468048096,-0.10761987417936325,0.3048228323459625,0.6130020022392273,0.00193757563829422
1.42208325751243,0.6484682066802901,-1.9281226434050334,-1.0832558870315552,0.10017617791891098,0.884562611579895,0.0894872397184372,-0.9889625906944275,-0.11808972805738449,0.3910883367061615,0.4428046941757202,-0.0004251524806022644
1.418251646332359,0.55405190054769,-1.8307503301387247,-1.2240344285964966,0.28492245078086853,1.0916461944580078,0.07994849979877472,-0.9883875846862793,-0.1292213648557663,0.4083022475242615,0.3264003396034241,0.04415370523929596
1.4120119267872244,0.4501918360278351,-1.7216849868733013,-1.5251308679580688,0.4875844717025757,1.2742303609848022,0.06880337744951248,-0.9874202013015747,-0.14236408472061157,0.4208053946495056,0.21247202157974243,0.11299103498458862
1.400908792908663,0.34023665895475647,-1.6043590984059353,-2.0274622440338135,0.6801285743713379,1.4127702713012695,0.05642097815871239,-0.9856038093566895,-0.15937986969947815,0.4313262403011322,0.04850047826766968,0.1889209896326065
1.3826894104337732,0.23511193732898814,-1.4896931521773855,-2.6276423931121826,0.8681744337081909,1.466457486152649,0.043562017381191254,-0.9823600053787231,-0.18185539543628693,0.34588807821273804,-0.1117715835571289,0.22322207689285278
1.3571371319585719,0.1466064102829693,-1.3894963232429314,-3.135514259338379,1.078609824180603,1.4969075918197632,0.030974827706813812,-0.9772616028785706,-0.20976293087005615,0.275330126285553,-0.2686644196510315,0.1532444953918457
1.326206537772466,0.07769502412972364,-1.3067562127487966,-3.406703233718872,1.2536178827285767,1.563172698020935,0.01879557967185974,-0.9702367186546326,-0.24142786860466003,0.29318565130233765,-0.46578317880630493,-0.01910059154033661
1.2932306254954125,0.023781810774928993,-1.2371477345001598,-3.3198418617248535,1.4333369731903076,1.7176687717437744,0.006515969522297382,-0.9617252945899963,-0.27393797039985657,0.3046870529651642,-0.6404628157615662,-0.2617521584033966
1.2614670797875105,-0.02310859051012986,-1.1724202305280522,-3.032627820968628,1.5633301734924316,2.0509860515594482,-0.007034097798168659,-0.9525379538536072,-0.3043390214443207,0.3031004071235657,-0.7612378597259521,-0.49984487891197205
1.2320040927084341,-0.07183703803827142,-1.1054693468692733,-2.6542327404022217,1.3353012800216675,2.506991386413574,-0.023854395374655724,-0.9431567788124084,-0.33149123191833496,0.29570499062538147,-0.8505292534828186,-0.6057798266410828
1.2048510350729043,-0.1284714381532778,-1.0336995476261008,-2.260091543197632,0.7967131733894348,2.9591870307922363,-0.04584489390254021,-0.9337859153747559,-0.35488349199295044,0.2076033353805542,-0.9403139352798462,-0.6669822335243225
1.179936928815817,-0.1911427034697832,-0.9605527726620621,-1.7942063808441162,0.2804030478000641,3.1297688484191895,-0.07237953692674637,-0.9245820045471191,-0.37404465675354004,-0.019615672528743744,-1.0501494407653809,-0.7310730218887329
1.1583124508461176,-0.25233726335522244,-0.8934332671798941,-1.2777409553527832,-0.15769252181053162,2.9046380519866943,-0.10008841753005981,-0.9161279201507568,-0.38819077610969543,-0.3424317240715027,-1.1639808416366577,-0.8025897741317749
1.141192710579366,-0.30645857346864647,-0.8378067101825797,-0.7645567655563354,-0.49051859974861145,2.3971595764160156,-0.12565460801124573,-0.9091309309005737,-0.3971044421195984,-0.6522231698036194,-1.2674133777618408,-0.8784387111663818
1.1293875106656437,-0.3509693227070875,-0.7948770845029042,-0.3243551552295685,-0.5908417105674744,1.805606484413147,-0.14687961339950562,-0.9041507244110107,-0.4011708199977875,-0.8234420418739319,-1.3292325735092163,-0.9157083630561829
1.1218071040286932,-0.3847050105949649,-0.7627710904512224,-0.08366230875253677,-0.3157293200492859,1.3323525190353394,-0.16289477050304413,-0.9008862972259521,-0.40232986211776733,-0.7717823386192322,-1.3482286930084229,-0.8496079444885254
1.116791568038908,-0.407691683064057,-0.7386333336000025,-0.07497028261423111,0.06055108830332756,1.035805344581604,-0.1738884598016739,-0.8986979722976685,-0.4026224613189697,-0.6089942455291748,-1.302687644958496,-0.7229877710342407
1.1108206218255299,-0.4213356349654658,-0.7202845257658769,-0.3848251402378082,0.5163425207138062,0.941860556602478,-0.18155688047409058,-0.8960632681846619,-0.4051021933555603,-0.4171827435493469,-1.2201629877090454,-0.5022921562194824
1.101818272994164,-0.42550288482051785,-0.7072229088554939,-0.7844569683074951,0.9802460074424744,0.8727414011955261,-0.1865658164024353,-0.892030656337738,-0.4116731584072113,-0.2754092812538147,-1.1202223300933838,-0.29746371507644653
1.089422208257372,-0.4208172037658182,-0.6993653206316203,-1.1725846529006958,1.3488744497299194,0.8005432486534119,-0.18913757801055908,-0.8863595724105835,-0.42260369658470154,-0.18038451671600342,-1.0291221141815186,-0.1792486310005188
1.0741414185410378,-0.4086749838451475,-0.6964836016396853,-1.5070867538452148,1.570718765258789,0.6777190566062927,-0.18935315310955048,-0.8791813850402832,-0.4372478425502777,-0.11544115841388702,-0.9464870691299438,-0.1211169958114624
1.057076010181814,-0.3914737820557701,-0.6981460217416399,-1.6823313236236572,1.5561518669128418,0.4951407015323639,-0.1875021755695343,-0.870922327041626,-0.4542437791824341,-0.11477445065975189,-0.8212012052536011,-0.12763482332229614
1.0401917621375176,-0.371714932873695,-0.7038407625402264,-1.6408700942993164,1.3944019079208374,0.22815561294555664,-0.1838061660528183,-0.8625012636184692,-0.4714944362640381,-0.2204449325799942,-0.676423966884613,-0.23179835081100464
1.0257001634804548,-0.35116001600618063,-0.7133088702041552,-1.39530611038208,1.0837956666946411,-0.12267463654279709,-0.17835751175880432,-0.8550774455070496,-0.4868584871292114,-0.3405938744544983,-0.5685218572616577,-0.3506353199481964
1.0153210459956838,-0.3308414411512212,-0.7266224608787486,-1.02072274684906,0.7201796174049377,-0.49370089173316956,-0.1713029146194458,-0.8496499061584473,-0.4987488090991974,-0.4248121976852417,-0.475163996219635,-0.43728622794151306
1.0094158245884686,-0.31082861838995274,-0.7435419160963918,-0.6836411952972412,0.43558526039123535,-0.8324660062789917,-0.16281963884830475,-0.8465210199356079,-0.5068451166152954,-0.44763872027397156,-0.41112369298934937,-0.44403666257858276
1.0069597134261994,-0.28999340817123076,-0.7633944427802973,-0.4238669276237488,0.40426701307296753,-1.0302432775497437,-0.15281888842582703,-0.8452109098434448,-0.5121180415153503,-0.3658425807952881,-0.32362765073776245,-0.3968479633331299
1.006512464966838,-0.26754228938929503,-0.7842876394802588,-0.2973022758960724,0.5811619758605957,-1.082407832145691,-0.14138366281986237,-0.8449718356132507,-0.5157842040061951,-0.22440001368522644,-0.19253432750701904,-0.3560113310813904
1.0063114507354673,-0.24314564717862802,-0.8048182197652415,-0.3151603639125824,0.8266936540603638,-1.0210589170455933,-0.12880034744739532,-0.8448643088340759,-0.5192446112632751,-0.13149933516979218,-0.05020111799240112,-0.2781338691711426
1.004870147015614,-0.21797187977984686,-0.8233628786049447,-0.42079684138298035,1.137824535369873,-0.849704384803772,-0.11595277488231659,-0.8440923690795898,-0.5235104560852051,-0.0074908435344696045,0.04251754283905029,-0.17718839645385742
1.0020131275791864,-0.19126963365716068,-0.8387793793156532,-0.4727764129638672,1.540274739265442,-0.6462556719779968,-0.10239224135875702,-0.8425569534301758,-0.5287851691246033,0.09915738552808762,0.124844491481781,-0.04750871658325195
0.9979270546056003,-0.16767116015538153,-0.8496588222688198,-0.546603798866272,1.3038966655731201,-0.37792885303497314,-0.0904601439833641,-0.8403491377830505,-0.5344439148902893,0.032110534608364105,0.15100276470184326,0.004262089729309082
0.9926941627653756,-0.15091293180345663,-0.8566001569754517,-0.5998374819755554,0.9038639664649963,-0.22240212559700012,-0.08215154707431793,-0.8375012278556824,-0.5402250289916992,-0.04878412187099457,0.11920887231826782,0.046053946018218994
0.987482460427899,-0.13789622851616384,-0.8623279983820534,-0.4885271191596985,0.834672212600708,-0.3031684458255768,-0.07571180164813995,-0.8346419930458069,-0.545564591884613,-0.13173142075538635,0.13279849290847778,0.03643983602523804
0.9846304309417028,-0.12150239931612491,-0.8708648645688398,-0.19937892258167267,0.9847705960273743,-0.5373814702033997,-0.06704637408256531,-0.8330677151679993,-0.5490930080413818,-0.2666327953338623,0.16287106275558472,-0.004175305366516113
0.9840216025449906,-0.10296343882932806,-0.8795009950590139,-0.04075166583061218,1.1940791606903076,-0.37872767448425293,-0.05690793693065643,-0.832730770111084,-0.5507459044456482,-0.23210878670215607,-0.01684814691543579,-0.0017595291137695312
0.9842119638815434,-0.08794542568318309,-0.8844961785773539,0.010673176497220993,0.9853504300117493,-0.18481971323490143,-0.04861680418252945,-0.8328361511230469,-0.5513805747032166,-0.045407842844724655,-0.13997286558151245,0.030659139156341553
0.9842442027386106,-0.07690749975275918,-0.8868305894750811,-0.0318169929087162,0.8573858737945557,-0.09279759228229523,-0.042525798082351685,-0.8328539729118347,-0.5518567562103271,-0.05275007337331772,0.04693472385406494,0.019309818744659424
0.9837280130885763,-0.0662738762382692,-0.8883850604983868,-0.07849262654781342,1.0503835678100586,-0.07223053276538849,-0.03668373450636864,-0.8325681686401367,-0.5527065992355347,-0.07566672563552856,0.16757482290267944,0.028948724269866943
0.9828364290937917,-0.05283724049850306,-0.8895959871975452,-0.10874725878238678,1.45714271068573,-0.05461128056049347,-0.029293324798345566,-0.832073986530304,-0.5538907647132874,-0.10641834139823914,0.2144133448600769,0.012966752052307129
0.9815311585248868,-0.035247000795000705,-0.8907363185922791,-0.15706126391887665,1.8529843091964722,-0.06191393360495567,-0.019584478810429573,-0.8313493132591248,-0.5554051995277405,-0.14284531772136688,0.2253921627998352,0.001968979835510254
0.9797085904030414,-0.015435499979868518,-0.8919787269405447,-0.20951524376869202,1.8305695056915283,-0.0631806030869484,-0.008601315319538116,-0.8303350210189819,-0.557198166847229,-0.1713303178548813,0.20930224657058716,0.00985032320022583
0.9772428424782482,0.0008593484700766007,-0.8930700768292322,-0.2853791117668152,1.2155100107192993,-0.05545903369784355,0.000480642425827682,-0.8289583921432495,-0.5593101382255554,-0.17011258006095886,0.18229085206985474,0.010009050369262695
0.9741084401191531,0.010488758077238935,-0.8938663041379662,-0.33298102021217346,0.6267932057380676,-0.04302321746945381,0.0058935871347785,-0.827201247215271,-0.56187504529953,-0.11085879802703857,0.11611104011535645,0.021561384201049805
0.9708235657582941,0.016589402474596986,-0.8948530865326422,-0.3169834017753601,0.4906409680843353,-0.0838388204574585,0.009366280399262905,-0.8253509998321533,-0.5645424127578735,-0.050976984202861786,0.01919853687286377,0.05500572919845581
0.967959093734087,0.023449184774033387,-0.8964376717179331,-0.24430708587169647,0.638120710849762,-0.10259759426116943,0.013294044882059097,-0.8237302899360657,-0.5668260455131531,-0.022739209234714508,-0.08038359880447388,0.05876946449279785
0.9659511507709682,0.032080495459200754,-0.8982917239190894,-0.15500995516777039,0.7742303609848022,-0.13371770083904266,0.018238959833979607,-0.822590172290802,-0.5683423280715942,0.00042256712913513184,-0.13524991273880005,0.039472758769989014
0.96459485514889,0.04207406595062563,-0.9009902334888877,-0.10681845992803574,0.7605185508728027,-0.18002182245254517,0.023964621126651764,-0.8218181729316711,-0.5692456364631653,0.013434696942567825,-0.16103100776672363,0.027680814266204834
0.9634059924803556,0.05155739612562593,-0.9041808592702607,-0.12062322348356247,0.607113778591156,-0.19150084257125854,0.02941213920712471,-0.8211402297019958,-0.5699681639671326,0.05643382668495178,-0.0728113055229187,0.007086753845214844
0.9617235090900064,0.05899326210686892,-0.9071684360618879,-0.1992175281047821,0.41714128851890564,-0.16157518327236176,0.033730898052453995,-0.8201788067817688,-0.5711119771003723,0.090643510222435,0.010181307792663574,-0.006830036640167236
0.959169927006337,0.06499547588747862,-0.9086946952754753,-0.29502472281455994,0.5686889886856079,-0.0318310372531414,0.03729412704706192,-0.8187152147293091,-0.5729875564575195,0.09675434976816177,0.0019273161888122559,-0.03818798065185547
0.9561174330182285,0.07067532705153767,-0.9071685438299892,-0.3208363950252533,0.8291418552398682,0.1708788424730301,0.04072428122162819,-0.8169586658477783,-0.5752566456794739,0.1226515993475914,-0.01334846019744873,-0.08876001834869385
0.9531628412961181,0.07580696405218186,-0.9019052602580016,-0.32040122151374817,1.046112060546875,0.39094114303588867,0.0438583567738533,-0.8152512311935425,-0.5774444341659546,0.1300613284111023,-0.03452610969543457,-0.11493825912475586
0.9502332937938661,0.07977870909832517,-0.8932777126550816,-0.34020376205444336,1.1481115818023682,0.5553310513496399,0.046341605484485626,-0.8135511875152588,-0.579643964767456,0.10674984753131866,-0.028657972812652588,-0.10326284170150757
0.9473983519616245,0.08311909002903366,-0.8826520233745256,-0.3156920075416565,1.27912437915802,0.6219667792320251,0.04846885800361633,-0.8118994235992432,-0.5817819833755493,0.061287615448236465,-0.04004466533660889,-0.09213763475418091
0.945256336259769,0.0880310924133113,-0.8714332644802529,-0.21954864263534546,1.5394951105117798,0.642621636390686,0.051478754729032516,-0.8106470704078674,-0.583267867565155,0.010319367051124573,-0.09603029489517212,-0.1053154468536377
0.944096894365059,0.09488948485575452,-0.8601899870386934,-0.14493513107299805,1.603498101234436,0.6511130928993225,0.05556679517030716,-0.8099676370620728,-0.5838362574577332,-0.025979995727539062,-0.06030219793319702,-0.0972396731376648
0.9432692015931439,0.10065867342596141,-0.8491585063645954,-0.15062850713729858,1.31743323802948,0.6151934862136841,0.05900147557258606,-0.8094819188117981,-0.5841729044914246,-0.09379148483276367,-0.0004089474678039551,-0.07683777809143066
0.9424325385681278,0.10469131349994307,-0.8392526072702289,-0.12263470143079758,1.1287996768951416,0.534433901309967,0.06142749637365341,-0.8089904189109802,-0.5846035480499268,-0.08036364614963531,-0.016510188579559326,-0.10214871168136597
0.9423384474165278,0.10874284154664082,-0.8302590644143846,-0.004544561728835106,1.1609032154083252,0.5252017378807068,0.0638037919998169,-0.8089351058006287,-0.5844256281852722,-0.039649128913879395,-0.02311152219772339,-0.138474702835083
0.9434476326053932,0.1130918499789582,-0.8212945371233155,0.10488898307085037,1.1547178030014038,0.5527273416519165,0.06624355912208557,-0.8095866441726685,-0.5832507014274597,-0.03795374184846878,0.014145910739898682,-0.1340649127960205
0.9454463787590154,0.11683534644031768,-0.8118494824714457,0.16251946985721588,1.1311888694763184,0.5978071093559265,0.06823772192001343,-0.8107582926750183,-0.581390380859375,-0.039474889636039734,0.013517022132873535,-0.12292474508285522
0.948098496854483,0.12053435430959905,-0.8021561198428245,0.24184279143810272,1.2231180667877197,0.5917795896530151,0.07012901455163956,-0.8123079538345337,-0.5789972543716431,-0.03649861365556717,-0.036126554012298584,-0.10979968309402466
0.9519975791962588,0.12583429261193588,-0.7927874907056432,0.40207046270370483,1.353423833847046,0.5785489678382874,0.07279860973358154,-0.8145758509635925,-0.5754708051681519,-0.019545406103134155,-0.04774421453475952,-0.12728792428970337
0.9573373112281646,0.13283295453853225,-0.7851093825385571,0.5331131219863892,1.2767748832702637,0.4210091233253479,0.07624714076519012,-0.8176615834236145,-0.5706276893615723,-0.06358233094215393,0.002659022808074951,-0.060002684593200684
0.9633125029749302,0.14120629922803393,-0.7811261040624653,0.5862365365028381,1.037661075592041,0.2003888040781021,0.08033342659473419,-0.8210868835449219,-0.5651220083236694,-0.1107441708445549,-0.019703030586242676,0.011456966400146484
0.9690301315424239,0.14951487832420624,-0.7806944913798319,0.49963027238845825,0.6777248978614807,0.018321791663765907,0.08432527631521225,-0.8243370652198792,-0.5597836375236511,-0.10358183830976486,-0.0579262375831604,0.0955808162689209
0.9724791631030134,0.1554748137804415,-0.7826176677562978,0.2199207842350006,0.16066521406173706,-0.13837558031082153,0.0872192531824112,-0.826284646987915,-0.5564589500427246,-0.020385749638080597,-0.09794032573699951,0.3914504647254944
0.972860103645623,0.15755873368494813,-0.7866269340547047,-0.06551281362771988,-0.3456754684448242,-0.2881237864494324,0.08832928538322449,-0.8264991641044617,-0.5559651255607605,0.021015219390392303,-0.09728330373764038,0.24518942832946777
0.9705611601844584,0.15886024434267823,-0.791950257534527,-0.27931326627731323,-0.21619446575641632,-0.3669687807559967,0.08935314416885376,-0.8252028226852417,-0.5577242970466614,0.025179356336593628,-0.09645867347717285,0.14686620235443115
0.9665617196992626,0.16235475898958096,-0.7973138972254223,-0.407205730676651,0.0123396385461092,-0.3566754162311554,0.09183432161808014,-0.8229371905326843,-0.5606611967086792,0.04041363298892975,-0.11762994527816772,0.09468835592269897
0.9614872813033604,0.1667122437134663,-0.8020593053997263,-0.5069014430046082,0.05464977025985718,-0.34743228554725647,0.09496825933456421,-0.8200436234474182,-0.5643665194511414,0.03314456343650818,-0.06991004943847656,0.06113171577453613
0.9555102886584927,0.17044897008055862,-0.8064416977708473,-0.5838082432746887,-0.032070744782686234,-0.3522041440010071,0.09790614247322083,-0.8166083693504333,-0.5688279867172241,0.007440559566020966,-0.0192071795463562,0.03351926803588867
0.94895636504817,0.17317638398447213,-0.8105967138474417,-0.6247398257255554,-0.09348658472299576,-0.3441031873226166,0.10037726908922195,-0.8128079771995544,-0.573818564414978,0.013407550752162933,0.001055598258972168,0.013897299766540527
0.9421778098842588,0.17516160839228342,-0.8141950857377865,-0.6386537551879883,-0.08697967976331711,-0.30337706208229065,0.10247402638196945,-0.8088406324386597,-0.5790301561355591,0.03998204320669174,-0.005688846111297607,0.0006000995635986328
0.9354779430456566,0.17660729478031767,-0.8169061103936944,-0.6200301051139832,-0.062233664095401764,-0.24398642778396606,0.10426079481840134,-0.804882824420929,-0.58420330286026,0.05490366369485855,-0.011218369007110596,-0.005670905113220215
0.9291687763225002,0.17739615704099776,-0.8184189584678885,-0.5842076539993286,-0.01562994346022606,-0.15884490311145782,0.10561565309762955,-0.8011227250099182,-0.5891076922416687,0.05534932017326355,0.0005702972412109375,-0.027377843856811523
0.9235734870314743,0.1778142265706728,-0.8187844424722704,-0.5123432278633118,0.03908957540988922,-0.08754205703735352,0.1066531389951706,-0.7977614402770996,-0.5934661030769348,0.036794766783714294,0.01617562770843506,-0.06058657169342041
0.9189333803266767,0.17822390535996954,-0.8185001464401831,-0.40264442563056946,0.08827123790979385,-0.0469440296292305,0.10755135864019394,-0.7949550151824951,-0.5970590114593506,0.019554361701011658,0.028933167457580566,-0.07904261350631714
0.9155632034537368,0.17892216629146873,-0.8181356900099823,-0.26482903957366943,0.10116225481033325,-0.03392019122838974,0.10844441503286362,-0.7929059267044067,-0.5996167063713074,0.008712582290172577,0.03480339050292969,-0.08986687660217285
0.9136389241784203,0.17963319352189688,-0.8178946038255981,-0.12233741581439972,0.07009541243314743,-0.0014344218652695417,0.10914313793182373,-0.7917318940162659,-0.6010395884513855,0.01118769496679306,0.04742330312728882,-0.09070229530334473
0.9128173582043875,0.17978040860360897,-0.817547421445829,-0.0546804815530777,0.010222375392913818,0.00856799352914095,0.1093478798866272,-0.7912297248840332,-0.6016631722450256,0.022533856332302094,0.07481426000595093,-0.05249631404876709
0.9124460129384943,0.17926653168846943,-0.8172459719503018,-0.024657070636749268,-0.061820924282073975,0.015751337632536888,0.10909108072519302,-0.791002631187439,-0.6020084619522095,0.01038525253534317,0.032289743423461914,-0.008983969688415527
0.9124136933312953,0.1782204733557817,-0.8169261573777197,0.014196517877280712,-0.08229406177997589,0.021808037534356117,0.10846582055091858,-0.7909828424453735,-0.6021474003791809,0.014047019183635712,-0.004396915435791016,0.009068846702575684
0.912812214697847,0.1772158157297732,-0.8166617059553921,0.05526565760374069,-0.08371592313051224,0.019461261108517647,0.10780520737171173,-0.7912266254425049,-0.6019456386566162,0.02207762748003006,-0.0008419156074523926,0.024675190448760986
0.9133737498808955,0.17613252879894237,-0.8166748319699744,0.048885777592659,-0.14280030131340027,-0.0029956651851534843,0.10707522183656693,-0.7915698885917664,-0.6016246676445007,0.015620730817317963,0.018986761569976807,0.05333065986633301
0.9136967015453978,0.17449375051798047,-0.8168496157996511,0.013280642218887806,-0.2087138146162033,-0.006470558233559132,0.10604474693536758,-0.7917671799659729,-0.6015474200248718,0.016284972429275513,0.029453277587890625,0.0770876407623291
0.9136334074916482,0.17227694617143954,-0.8168136760409287,-0.026438379660248756,-0.2252476066350937,0.010542268864810467,0.10471955686807632,-0.7917284965515137,-0.6018303632736206,0.023332223296165466,0.025905072689056396,0.08428287506103516
0.913298299751152,0.16981438833369286,-0.8163310216775609,-0.043154243379831314,-0.18915536999702454,0.03599276766180992,0.10328204184770584,-0.7915237545967102,-0.6023479700088501,0.019932687282562256,0.02151942253112793,0.06693238019943237
0.9129831924799775,0.1674206669834971,-0.8152897772102652,-0.04039838910102844,-0.12976235151290894,0.07906601577997208,0.10188145935535431,-0.7913311719894409,-0.6028394103050232,0.015428118407726288,0.03528857231140137,0.03876781463623047
0.9125951061277099,0.16511586647710488,-0.8137791099081029,-0.06660629063844681,-0.09577454626560211,0.08752741664648056,0.10054223984479904,-0.7910938262939453,-0.6033755540847778,0.009046413004398346,0.05768001079559326,0.04212677478790283
0.912156924687381,0.16327238731578814,-0.8123362546458434,-0.04430349916219711,-0.04391305148601532,0.08357113599777222,0.0994860827922821,-0.7908257246017456,-0.603901743888855,-0.0024249032139778137,0.023110151290893555,0.032566964626312256
0.9122360778018562,0.16225210779330013,-0.8110725565047902,0.028557660058140755,0.03033534809947014,0.07948344945907593,0.09885977953672409,-0.7908741235733032,-0.6039412021636963,0.0036335289478302,0.006953775882720947,-0.0008713006973266602
0.913048249207372,0.16213410737053952,-0.8102990399163632,0.10026583820581436,0.05327862501144409,0.04745553061366081,0.09868478029966354,-0.7913709282875061,-0.6033186912536621,-0.006933681666851044,0.015186786651611328,-0.00628507137298584
0.9144585625975361,0.16266493900523674,-0.8102801336487863,0.1518683135509491,0.043196696788072586,0.014240587130188942,0.09882418811321259,-0.7922323346138,-0.6021643280982971,-0.015663757920265198,0.029231727123260498,0.0013495683670043945
0.9162765456118263,0.16355151401350237,-0.8108000854467309,0.17966444790363312,0.032442256808280945,0.004261027090251446,0.09912335127592087,-0.7933403849601746,-0.6006544828414917,-0.009264327585697174,0.03433758020401001,0.017021119594573975
0.9182406283268314,0.16432392615104696,-0.8113373939219538,0.19185054302215576,0.023546233773231506,0.01403189916163683,0.09933219105005264,-0.7945345044136047,-0.5990394353866577,0.002077735960483551,0.02816176414489746,0.029138922691345215
0.9200814933455701,0.1646414330067063,-0.8114821961738042,0.16826748847961426,0.00829941313713789,0.03856723755598068,0.09928247332572937,-0.7956509590148926,-0.5975638628005981,0.011969387531280518,0.023220479488372803,0.05038374662399292
0.9215462228104483,0.16443056026977027,-0.8111724248167751,0.11622241139411926,-0.008895819075405598,0.05527777224779129,0.0989655926823616,-0.7965373992919922,-0.596434473991394,0.013552740216255188,0.017194628715515137,0.07118123769760132
0.9224620975096077,0.1636950321591461,-0.8104671989744908,0.04918733239173889,-0.021511046215891838,0.059312041848897934,0.09840794652700424,-0.7970907688140869,-0.5957871079444885,0.012935452163219452,0.010500133037567139,0.0845719575881958
0.9227913570994293,0.1627580410555061,-0.8095816857600587,0.008374655619263649,-0.025867711752653122,0.0573575459420681,0.09780710935592651,-0.7972895503044128,-0.5956199765205383,0.01057608425617218,0.0035578012466430664,0.0741051435470581
0.9227673244429746,0.16174202930513631,-0.8086607223798205,-0.014505589380860329,-0.02643520012497902,0.05021822452545166,0.09720498323440552,-0.7972750663757324,-0.595737874507904,0.005883403122425079,-0.003506183624267578,0.050938189029693604
0.9225987920157872,0.1608965251346605,-0.8078901079198597,-0.02010408788919449,-0.013422196730971336,0.03277212381362915,0.0967227965593338,-0.7971733212471008,-0.5959526300430298,0.0038784444332122803,-0.009253859519958496,0.03307121992111206
