attitudeX,attitudeY,attitudeZ,gyroX,gyroY,gyroZ,gravityX,gravityY,gravityZ,accX,accY,accZ
1.4393510827464333,-0.8733632349081409,0.7302256913938029,0.47051727771759033,-0.10879050940275192,0.02077953889966011,-0.10046324133872986,-0.9913734793663025,-0.08417914062738419,0.030715271830558777,-0.055867910385131836,0.007381848990917206
1.4417225559190436,-0.9014203289786188,0.7575214429638946,0.3714648485183716,-0.08409447968006134,0.05307987332344055,-0.10094122588634491,-0.9916815161705017,-0.07986863702535629,0.033268459141254425,-0.06770581007003784,0.031116962432861328
1.4432121874624584,-0.9240148406289934,0.7797352440525928,0.25316694378852844,-0.02740936353802681,0.05458588898181915,-0.1015402302145958,-0.9918721914291382,-0.07667691260576248,0.014229409396648407,-0.07352709770202637,0.04712080955505371
1.444012256213535,-0.9381549742310129,0.7939523976038374,0.13095827400684357,0.017501894384622574,0.03216666728258133,-0.10197453200817108,-0.9919736385345459,-0.07476447522640228,-0.004623398184776306,-0.06913793087005615,0.0560421347618103
1.4443869264931617,-0.9442174096615511,0.8003829964126623,0.04750226438045502,0.04511274769902229,0.004526784643530846,-0.10212497413158417,-0.9920209646224976,-0.07392703741788864,-0.018480531871318817,-0.07113528251647949,0.051786720752716064
1.4445343441423246,-0.9446706647318885,0.8014437041442668,-0.0063195424154400826,0.07491330057382584,-0.011117292568087578,-0.10204068571329117,-0.9920395612716675,-0.07379556447267532,-0.01871742308139801,-0.0824846625328064,0.03609132021665573
1.4445316563563744,-0.9423475461383028,0.799949967531635,-0.016911998391151428,0.08721737563610077,-0.009557746350765228,-0.10187076777219772,-0.9920392036437988,-0.074033722281456,-0.011227406561374664,-0.0788533091545105,0.013319194316864014
1.4445100559574582,-0.9410097818997837,0.7993538479706986,0.006787649821490049,0.05577874183654785,0.0037457942962646484,-0.1017887219786644,-0.9920364618301392,-0.07418238371610641,-0.0023067742586135864,-0.07707071304321289,-0.010686755180358887
1.4445247807762152,-0.9436953562122319,0.8023103081066484,0.05550751835107803,-0.007632191758602858,0.034531138837337494,-0.10197553038597107,-0.9920383095741272,-0.07390002906322479,0.006104528903961182,-0.07894569635391235,-0.028806686401367188
1.4445826785279634,-0.951367176353436,0.8096717995541375,0.10598515719175339,-0.06653037667274475,0.0659809485077858,-0.1024920642375946,-0.9920456409454346,-0.07308171689510345,0.010557837784290314,-0.0715072751045227,-0.04315953701734543
1.4447236882551207,-0.9648866009882889,0.8223900804405866,0.17196443676948547,-0.11397486180067062,0.09378408640623093,-0.10335630923509598,-0.9920633435249329,-0.07161019742488861,0.01122371107339859,-0.06682044267654419,-0.057326316833496094
1.445024637024972,-0.9846232529352116,0.8409226682653725,0.24149972200393677,-0.1490100771188736,0.11360342055559158,-0.10450039803981781,-0.9921011328697205,-0.06939110904932022,0.00922449678182602,-0.06600439548492432,-0.06395523995161057
1.4454972339920327,-1.0101527149858442,0.8650625424224523,0.3113555312156677,-0.16588972508907318,0.1345853954553604,-0.105840764939785,-0.9921603202819824,-0.06645175069570541,0.009191557765007019,-0.06501448154449463,-0.06571966409683228
1.44606357850955,-1.0409563297835676,0.8942090263149437,0.3622291684150696,-0.21092382073402405,0.1442374587059021,-0.10735202580690384,-0.9922309517860413,-0.06287630647420883,0.005820028483867645,-0.060778141021728516,-0.061177484691143036
1.4466218544778568,-1.0752704002160471,0.9264684038523237,0.38134294748306274,-0.24503305554389954,0.14850758016109467,-0.108958899974823,-0.992300271987915,-0.058893077075481415,-0.0013469159603118896,-0.05314052104949951,-0.049627240747213364
1.4471085671544068,-1.1106216040053134,0.9595754114923604,0.38995492458343506,-0.2525207996368408,0.14243069291114807,-0.11054041236639023,-0.9923604130744934,-0.0547911673784256,-0.00992777943611145,-0.04700750112533569,-0.03988940268754959
1.447525046303772,-1.1464060489712733,0.9931384765382922,0.3958200216293335,-0.24554836750030518,0.1399451643228531,-0.11205267906188965,-0.992411732673645,-0.05063086375594139,-0.009941361844539642,-0.04385852813720703,-0.032193657010793686
1.4477710545757643,-1.1827995512744998,1.027292046735903,0.39495041966438293,-0.2504674792289734,0.14995110034942627,-0.11359444260597229,-0.9924419522285461,-0.04642776772379875,-0.0013500526547431946,-0.03455096483230591,-0.02695155143737793
1.4477804193027457,-1.218947502228406,1.0610973912690171,0.37562012672424316,-0.2711122930049896,0.1484173834323883,-0.11518975347280502,-0.9924430847167969,-0.04228904843330383,-0.0011280179023742676,-0.030552029609680176,-0.018288131803274155
1.4475382894837832,-1.2542103196798673,1.0936604792617668,0.3621485233306885,-0.31501585245132446,0.16154064238071442,-0.11683724075555801,-0.992413341999054,-0.03827643766999245,-0.0016015097498893738,-0.024142563343048096,-0.012947138398885727
1.446915791337958,-1.2893982796824983,1.1257775443587548,0.35920411348342896,-0.3413558602333069,0.18953430652618408,-0.11870498210191727,-0.992336630821228,-0.034313879907131195,0.01181713491678238,-0.0007207393646240234,-0.017458975315093994
1.445953161908439,-1.3260183304420636,1.159080039407195,0.38728994131088257,-0.371586412191391,0.2091582715511322,-0.12080879509449005,-0.9922171831130981,-0.030176442116498947,0.011784717440605164,0.01838594675064087,-0.02821868658065796
1.444703148774224,-1.3656338620553095,1.1950742477504293,0.4351447820663452,-0.4034916162490845,0.22980229556560516,-0.123122937977314,-0.9920607805252075,-0.02562069147825241,0.005202978849411011,0.03023815155029297,-0.037336885929107666
1.4432564824392333,-1.408837828894802,1.234381154071013,0.4905340373516083,-0.43317386507987976,0.234148770570755,-0.12553094327449799,-0.9918777942657471,-0.02051045186817646,-0.0016510933637619019,0.048793017864227295,-0.04185199737548828
1.44166490252024,-1.4556740727821225,1.2770449362408267,0.5401985049247742,-0.4660591185092926,0.23173195123672485,-0.1279217153787613,-0.9916741251945496,-0.01479203999042511,-0.00832405686378479,0.06566381454467773,-0.04116171598434448
1.4398645595360537,-1.5039349070189032,1.3207922947310198,0.5482072234153748,-0.5069423913955688,0.22703400254249573,-0.13026854395866394,-0.9914406538009644,-0.0087229423224926,-0.007594659924507141,0.08049070835113525,-0.022343754768371582
1.4379159431779711,-1.5505089307632718,1.3625905984046742,0.5261234641075134,-0.5062848925590515,0.20587998628616333,-0.132463738322258,-0.991184413433075,-0.0026877131313085556,-0.010572180151939392,0.09642410278320312,0.008715152740478516
1.4360014987459564,-1.5911620992000148,1.3987883332731081,0.43191811442375183,-0.4463728666305542,0.17445561289787292,-0.13436037302017212,-0.9909289479255676,0.0027367311995476484,-0.02506348490715027,0.10346239805221558,0.041300296783447266
1.4342907023017974,-1.6228080997612886,1.4265266783532435,0.3254798352718353,-0.3862895369529724,0.1387261003255844,-0.13589933514595032,-0.9906975626945496,0.007074745837599039,-0.024821534752845764,0.10999059677124023,0.07414793968200684
1.4329483171289303,-1.6456581429145059,1.4460685480839048,0.22481895983219147,-0.31061679124832153,0.09474204480648041,-0.13702701032161713,-0.9905139803886414,0.010277297347784042,-0.018673688173294067,0.11383551359176636,0.0880199670791626
1.4320915513664834,-1.6611463029435394,1.4589765132545036,0.15018945932388306,-0.23227086663246155,0.049289342015981674,-0.13769754767417908,-0.9903959035873413,0.012474932707846165,-0.019117072224617004,0.11553311347961426,0.0884774923324585
1.4317544428628384,-1.671879702167637,1.4676377542347272,0.09578682482242584,-0.20097105205059052,-0.0022941874340176582,-0.1378873884677887,-0.9903492331504822,0.013985790312290192,-0.021978959441184998,0.1279529333114624,0.0834723711013794
1.4318914333887758,-1.678734696704322,1.4726432116634938,0.0417395681142807,-0.17592960596084595,-0.03964502364397049,-0.1376543641090393,-0.9903681874275208,0.014916161075234413,-0.022532448172569275,0.14678585529327393,0.07912397384643555
1.4324869218455627,-1.682554213096516,1.4748744484873921,0.009324491024017334,-0.1456974446773529,-0.08554524183273315,-0.13700971007347107,-0.9904505014419556,0.015375983901321888,-0.024458810687065125,0.17000055313110352,0.06926476955413818
1.4335529789493708,-1.6853900440974237,1.4763366760054366,0.01104649156332016,-0.13311877846717834,-0.1264958679676056,-0.13591641187667847,-0.9905968904495239,0.015643702819943428,-0.029626205563545227,0.19039541482925415,0.05436384677886963
1.4349376788829635,-1.690021338123111,1.4796145112150374,0.052433960139751434,-0.14293350279331207,-0.15665502846240997,-0.13448069989681244,-0.9907854199409485,0.01610986702144146,-0.02230338752269745,0.21064913272857666,0.036060214042663574
1.4364318498046802,-1.700049842574266,1.4881309683361796,0.14003145694732666,-0.17445069551467896,-0.16480110585689545,-0.13284358382225037,-0.9909866452217102,0.017266763374209404,-0.007506772875785828,0.2385757565498352,0.016714690253138542
1.4377327639948863,-1.7178154552485085,1.5041144106968285,0.24311883747577667,-0.2048850804567337,-0.1466340273618698,-0.1312396377325058,-0.9911600947380066,0.019434964284300804,0.0165393203496933,0.26166796684265137,0.007725831121206284
1.4385588801140041,-1.743682876104126,1.5279666423686953,0.35322991013526917,-0.23991043865680695,-0.11328327655792236,-0.1298883706331253,-0.9912693500518799,0.022682394832372665,0.04199771583080292,0.27717316150665283,0.00690460205078125
1.4386892172476438,-1.777985565265008,1.559920975087106,0.46786946058273315,-0.283899188041687,-0.0699165090918541,-0.1289065033197403,-0.9912865161895752,0.027096888050436974,0.0520784854888916,0.2992699146270752,0.008319016546010971
1.437947326800863,-1.819965413412709,1.5990729036658382,0.5701651573181152,-0.34952133893966675,-0.018514573574066162,-0.1283682882785797,-0.9911885261535645,0.032664213329553604,0.05866612493991852,0.32300615310668945,0.015172358602285385
1.4362077676358005,-1.867353881374195,1.6429802656295451,0.6450860500335693,-0.4252443313598633,0.040016550570726395,-0.12832696735858917,-0.9909566044807434,0.039212666451931,0.05906727910041809,0.3510791063308716,0.028383973985910416
1.433472646149628,-1.9166299142405145,1.6881498121573377,0.6805614829063416,-0.4729229211807251,0.08762827515602112,-0.12878838181495667,-0.9905859231948853,0.046404264867305756,0.05334891378879547,0.3897557258605957,0.03840422257781029
1.430087445907811,-1.964678156949352,1.731742445271456,0.6846298575401306,-0.49437814950942993,0.098435178399086,-0.1295071244239807,-0.9901168346405029,0.05382315069437027,0.035162001848220825,0.4473615884780884,0.042963504791259766
1.4266289672408905,-2.010951243250255,1.7733150285245767,0.6690831184387207,-0.5266671180725098,0.05127405747771263,-0.12997636198997498,-0.989625871181488,0.06121493875980377,0.012163206934928894,0.5191056132316589,0.04295695573091507
1.423537369495416,-2.056149611190456,1.8136185762982617,0.6506618857383728,-0.5410284996032715,-0.022931547835469246,-0.12978248298168182,-0.9891769886016846,0.06845171749591827,-0.004540637135505676,0.5998947024345398,0.0408015176653862
1.4210601958182936,-2.101053782971252,1.8532958261360855,0.6064414381980896,-0.5747723579406738,-0.11609876900911331,-0.12869222462177277,-0.9888104796409607,0.07544747740030289,-0.008728444576263428,0.6570538282394409,0.04347967356443405
1.419514158508781,-2.143995101346016,1.891695275319671,0.5324795842170715,-0.39990857243537903,-0.22669348120689392,-0.12662048637866974,-0.9885786771774292,0.0817323625087738,-0.005047664046287537,0.707007884979248,0.0302368625998497
1.4192173125859937,-2.1844778664606155,1.9295719467343917,0.4432644844055176,-0.203698068857193,-0.36359459161758423,-0.12344817817211151,-0.9885338544845581,0.08695849776268005,0.008595243096351624,0.748894453048706,0.02525484561920166
1.4203443697525546,-2.22297158842094,1.967715145247214,0.3474953770637512,0.05076983943581581,-0.4927751421928406,-0.11912428587675095,-0.9887034296989441,0.09096836298704147,0.028670161962509155,0.781961977481842,0.02527332305908203
1.4228001994941946,-2.259429425980873,2.0064339253144925,0.2405572086572647,0.3093965947628021,-0.6024689078330994,-0.11385422945022583,-0.9890685677528381,0.0937066599726677,0.04982832074165344,0.8137602210044861,0.026258230209350586
1.426701247610457,-2.2928390415402973,2.04435535457964,0.09140651673078537,0.5047125816345215,-0.7006462812423706,-0.10776440054178238,-0.989636242389679,0.09490686655044556,0.07883371412754059,0.8280150294303894,0.04065239429473877
1.4322518142019385,-2.3215555164283668,2.0792582977078697,-0.11634694784879684,0.656576931476593,-0.77458256483078,-0.10097622126340866,-0.9904180765151978,0.09421238303184509,0.10222742706537247,0.8471075296401978,0.06248031556606293
1.4397052994597246,-2.3411468734940843,2.1063880147402543,-0.38677647709846497,0.7932099103927612,-0.7957413792610168,-0.09381051361560822,-0.9914198517799377,0.09102891385555267,0.11305183172225952,0.863261342048645,0.07739780843257904
1.4492422927000692,-2.3454124085932686,2.119388051010507,-0.7158139944076538,0.9335707426071167,-0.7895298600196838,-0.08666103333234787,-0.9926214218139648,0.08481211960315704,0.13272729516029358,0.881705105304718,0.07734322547912598
1.4610194125324072,-2.3246387069010415,2.108515204499671,-1.0916072130203247,1.0439022779464722,-0.7186588048934937,-0.07987511903047562,-0.9939805865287781,0.07498671114444733,0.16335591673851013,0.892875611782074,0.059992678463459015
1.4740899356634576,-2.2634012831436,2.0578234661895656,-1.4002859592437744,1.1079667806625366,-0.5344844460487366,-0.07430823147296906,-0.9953275918960571,0.06165539473295212,0.18145543336868286,0.8810545206069946,0.00028024986386299133
1.4864310186907792,-2.1502736523765846,1.9553859402307545,-1.5531357526779175,1.0994694232940674,-0.3441515266895294,-0.07051002234220505,-0.9964433312416077,0.04614328593015671,0.18554601073265076,0.8695664405822754,-0.09901487827301025
1.4963496653226622,-1.9689076136428723,1.7846553801655578,-1.7321350574493408,1.1103579998016357,-0.1268194615840912,-0.06856171786785126,-0.9972301125526428,0.028834909200668335,0.18719878792762756,0.8935008645057678,-0.18914353847503662
1.501291618166113,-1.7247655576833305,1.5499657507039155,-1.7471858263015747,0.8703060150146484,0.09570685029029846,-0.06862762570381165,-0.9975855350494385,0.010650841519236565,0.20293547213077545,0.8302576541900635,-0.202392578125
1.4997653975700813,-1.4713754912014783,1.3035185734962218,-1.6823242902755737,0.6459581255912781,0.2929410934448242,-0.07062167674303055,-0.9974783658981323,-0.007044491358101368,0.19339385628700256,0.7207449078559875,-0.21716797351837158
1.492767438481425,-1.2560669789107664,1.0929839085989177,-1.6672381162643433,0.4246513247489929,0.40586936473846436,-0.0741209164261818,-0.9969573020935059,-0.024130070582032204,0.1617216169834137,0.5752501487731934,-0.19420772790908813
1.4824229349721063,-1.0829883262694888,0.9225552130127072,-1.7509024143218994,0.21399076282978058,0.3624390661716461,-0.07796532660722733,-0.9960976243019104,-0.041366517543792725,0.08510642498731613,0.41679757833480835,-0.14633160829544067
1.4700509378549178,-0.9316936879549144,0.771093731841669,-1.9879851341247559,-0.125381201505661,0.17656771838665009,-0.08072544634342194,-0.9949294924736023,-0.05999111384153366,-0.020364046096801758,0.250346302986145,-0.07546096295118332
1.4553825486344452,-0.7851634632237751,0.6208553726557987,-2.378100633621216,-0.4162391424179077,-0.08595018833875656,-0.0814107358455658,-0.9933472275733948,-0.08144895732402802,-0.1332499384880066,0.036636292934417725,0.007382988929748535
1.4369327866432595,-0.6389732324440158,0.4690467524844927,-2.8607771396636963,-0.41826847195625305,-0.366881787776947,-0.07959511876106262,-0.9910536408424377,-0.10713400691747665,-0.18851709365844727,-0.20229065418243408,0.06651532649993896
1.4135491277577406,-0.4976073004251529,0.32342186588212435,-3.308619976043701,-0.1020905077457428,-0.6828027367591858,-0.07474932819604874,-0.987662136554718,-0.13760928809642792,-0.17328232526779175,-0.4498990774154663,0.04923057556152344
1.3854462387704738,-0.3682080886618547,0.1927585606325465,-3.6061036586761475,0.21194462478160858,-0.9945124983787537,-0.06633450090885162,-0.9828717708587646,-0.1719387322664261,-0.15868687629699707,-0.7383349537849426,-0.026135429739952087
1.3535698178574174,-0.2574023737866787,0.08290473097826796,-3.765022039413452,0.40404534339904785,-1.194745421409607,-0.054865505546331406,-0.9764989614486694,-0.20842230319976807,-0.10739648342132568,-1.0019710063934326,-0.1257755160331726
1.3188392664937763,-0.16831378511985656,-0.0037920166016097135,-3.8292574882507324,0.5395557880401611,-1.2513985633850098,-0.041762758046388626,-0.9684264063835144,-0.24577687680721283,-0.015900228172540665,-1.2090792655944824,-0.26354604959487915
1.2829193667772791,-0.10009699030231395,-0.06861356296262575,-3.697455644607544,0.5872924327850342,-1.1912486553192139,-0.02837187983095646,-0.958848774433136,-0.2824966013431549,0.06667141616344452,-1.4368727207183838,-0.4117628335952759
1.2484867760623353,-0.0505034372017461,-0.11478946886943596,-3.3298912048339844,0.5025117993354797,-1.0392879247665405,-0.015990586951375008,-0.9485063552856445,-0.3163544833660126,0.14459164440631866,-1.67829430103302,-0.5692960023880005
1.2178542238519872,-0.016621205413933783,-0.1462727786750527,-2.82749342918396,0.3178735077381134,-0.8282074332237244,-0.005745024420320988,-0.938359797000885,-0.34561243653297424,0.19597633183002472,-1.9018044471740723,-0.7087087035179138
1.1925593954486495,0.004879972255140718,-0.1667017476719321,-2.209824800491333,0.18447254598140717,-0.5971545577049255,0.0018020824063569307,-0.9293171763420105,-0.3692783713340759,0.20400844514369965,-2.078403949737549,-0.8214410543441772
1.173984932845255,0.018384596493271115,-0.17923912157154198,-1.4627288579940796,0.20639942586421967,-0.39455780386924744,0.007104872725903988,-0.922298014163971,-0.38641437888145447,0.18555258214473724,-2.1796154975891113,-0.9434499740600586
1.1635077406034515,0.027414006630913364,-0.18643742387096923,-0.608015239238739,0.27050620317459106,-0.2136412262916565,0.01085791364312172,-0.9181982278823853,-0.39597252011299133,0.1561647653579712,-2.227874279022217,-1.028862476348877
1.161559364627631,0.03297772014411571,-0.18922385651024579,0.21155956387519836,0.3305937945842743,-0.014491107314825058,0.013119776733219624,-0.917424738407135,-0.39769336581230164,0.14595308899879456,-2.2317605018615723,-1.008937954902649
1.1672169030275887,0.0344411660039109,-0.18699866738421214,0.8889386057853699,0.35969576239585876,0.23187175393104553,0.01352281216531992,-0.9196612238883972,-0.39247989654541016,0.14687755703926086,-2.175004482269287,-0.8989779949188232
1.1788636297728967,0.02986955830099559,-0.17856348081843532,1.3885916471481323,0.2627391219139099,0.49218854308128357,0.011407745070755482,-0.9241725206375122,-0.3818051815032959,0.1382351815700531,-2.0348730087280273,-0.7440796494483948
1.194772100190352,0.01723570437388835,-0.16319028128418347,1.7344248294830322,0.05326157063245773,0.7256184816360474,0.006329076364636421,-0.9301319718360901,-0.36717092990875244,0.11159082502126694,-1.8317089080810547,-0.5767375230789185
1.2131923701288414,-0.004303754265560548,-0.14077064452397722,1.9112956523895264,-0.16844391822814941,0.889046311378479,-0.0015064425533637404,-0.9367381930351257,-0.3500277101993561,0.06711921840906143,-1.6259145736694336,-0.4119655191898346
1.2323786310248854,-0.0329483863373415,-0.11270440960838257,1.9214006662368774,-0.24909299612045288,0.9330837726593018,-0.01093673799186945,-0.9432811737060547,-0.33181533217430115,0.007259349338710308,-1.4305593967437744,-0.2720206081867218
1.2505486798765122,-0.06394381814778831,-0.08172740792217487,1.7859762907028198,-0.05890335142612457,0.870617151260376,-0.020115923136472702,-0.9491574764251709,-0.31415855884552,-0.05465216562151909,-1.2412112951278687,-0.18376606702804565
1.2670416005810718,-0.09205634283599781,-0.05134691541973002,1.6413127183914185,0.21261286735534668,0.7226488590240479,-0.027495674788951874,-0.954220175743103,-0.2978389263153076,-0.11225959658622742,-1.0588719844818115,-0.16317468881607056
1.282264562406901,-0.11508016277695043,-0.02388889492829668,1.547649621963501,0.4244081974029541,0.5533215999603271,-0.032673291862010956,-0.9586626887321472,-0.2826632261276245,-0.14506110548973083,-0.8803724646568298,-0.18466749787330627
1.2967502635784394,-0.13350736000724317,0.0004905621106204894,1.4853405952453613,0.5597851872444153,0.43406975269317627,-0.036023762077093124,-0.9626837968826294,-0.268220990896225,-0.13751447200775146,-0.7074366211891174,-0.21050810813903809
1.3106301812772092,-0.149942477286928,0.02360569870656874,1.426192283630371,0.594549834728241,0.3883158564567566,-0.03842702880501747,-0.9663472771644592,-0.25435498356819153,-0.09797131270170212,-0.5475078225135803,-0.21621063351631165
1.3237600879510696,-0.16744094278295857,0.04775225245836205,1.349818468093872,0.5684846639633179,0.396984338760376,-0.04075361043214798,-0.969641387462616,-0.24111208319664001,-0.043886929750442505,-0.39144283533096313,-0.20935770869255066
1.3360234292626785,-0.18852917396136115,0.07496661516941036,1.2877968549728394,0.4878257215023041,0.449665904045105,-0.0435967743396759,-0.9725672006607056,-0.22850055992603302,0.007280826568603516,-0.23266363143920898,-0.20658837258815765
1.3475187562848954,-0.21639696819069756,0.10765525787569855,1.2575143575668335,0.2856297492980957,0.5428886413574219,-0.047543250024318695,-0.9751769304275513,-0.21626371145248413,0.04079882800579071,-0.09370148181915283,-0.20292559266090393
1.3584152286422657,-0.254954426993413,0.1484857304707872,1.2696118354797363,-0.03059133142232895,0.661838173866272,-0.053161170333623886,-0.9775317907333374,-0.2039748579263687,0.062423225492239,0.0055925846099853516,-0.19585102796554565
1.3688221420048106,-0.3068391775596539,0.19958494905638832,1.3058480024337769,-0.32941341400146484,0.7744898796081543,-0.06059182062745094,-0.9796724319458008,-0.19123438000679016,0.07423314452171326,0.0962037444114685,-0.19301222264766693
1.3787163806394196,-0.37206973525604997,0.26171855004446776,1.3590747117996216,-0.5112902522087097,0.848631739616394,-0.06940119713544846,-0.9816092848777771,-0.1778395175933838,0.07564200460910797,0.20214444398880005,-0.19902187585830688
1.3878957775610232,-0.44831716426355966,0.33386086550184274,1.3827886581420898,-0.5391916632652283,0.8731482625007629,-0.07883726060390472,-0.9833202958106995,-0.16390922665596008,0.07337458431720734,0.32145488262176514,-0.2144474983215332
1.3960461903996693,-0.5313333306101642,0.41335870315090034,1.3736636638641357,-0.3992769718170166,0.8453366160392761,-0.08809314668178558,-0.9847699999809265,-0.14989233016967773,0.0653575211763382,0.41758549213409424,-0.21248845756053925
1.403206226963902,-0.6173292797358789,0.4975604738571021,1.3782837390899658,-0.20441024005413055,0.7720784544944763,-0.0965581089258194,-0.9859896302223206,-0.13601940870285034,0.05896041542291641,0.4714478850364685,-0.19691193103790283
1.4098641428300185,-0.7050323322378562,0.585340936089667,1.4294513463974,-0.018869416788220406,0.66765958070755,-0.10384422540664673,-0.9870783686637878,-0.12203650176525116,0.05504658818244934,0.5000329613685608,-0.18892216682434082
1.416415206436658,-0.7959672452482855,0.6781138922396343,1.504485011100769,0.15323470532894135,0.5649573802947998,-0.1098751500248909,-0.988106906414032,-0.10757679492235184,0.05602683126926422,0.5429009795188904,-0.18743641674518585
1.4227388548108124,-0.8914051928351693,0.7769686523058221,1.543276309967041,0.2988875210285187,0.46500810980796814,-0.11476215720176697,-0.9890595078468323,-0.09268821030855179,0.057450100779533386,0.6163176894187927,-0.1782923936843872
1.4285305001727422,-0.9892021373021668,0.8794983856147984,1.5156630277633667,0.42622819542884827,0.3442826569080353,-0.11847521364688873,-0.9898972511291504,-0.07789144665002823,0.05136703699827194,0.6988816261291504,-0.15424031019210815
1.4335807961547407,-1.085734207326078,0.9817896938007822,1.4369347095489502,0.5195179581642151,0.2346285879611969,-0.12100644409656525,-0.9906007051467896,-0.06377790123224258,0.04390376806259155,0.7546846270561218,-0.1061895340681076
1.4377365962975495,-1.1795967408929187,1.08201491916331,1.3531802892684937,0.549213171005249,0.16566012799739838,-0.12264620512723923,-0.9911606311798096,-0.05058639496564865,0.05611785501241684,0.7693434357643127,-0.04824453592300415
1.4406980118094839,-1.2745034533549522,1.1825391260880254,1.329475998878479,0.3665810823440552,0.17325866222381592,-0.12407968193292618,-0.9915491342544556,-0.03787892311811447,0.0763043761253357,0.770967960357666,-0.00321274995803833
1.4419582995148943,-1.3765294018941865,1.2873884705384422,1.3495895862579346,0.012005699798464775,0.2451227307319641,-0.12606750428676605,-0.9917118549346924,-0.024803558364510536,0.09167411923408508,0.7995423674583435,0.016060467809438705
1.4408708215304882,-1.4850102000292893,1.3949695996602818,1.3539297580718994,-0.36606064438819885,0.3574191927909851,-0.12908442318439484,-0.9915715456008911,-0.011100897565484047,0.11374931037425995,0.8457279801368713,0.018867790699005127
1.4371376848231472,-1.5936127923151016,1.4992633917315812,1.3477543592453003,-0.661645233631134,0.46800243854522705,-0.13322800397872925,-0.9910809993743896,0.00304031977429986,0.13307537138462067,0.8942332863807678,0.019665002822875977
1.4310232160943726,-1.6952715692245286,1.594124097157421,1.305428385734558,-0.8523616194725037,0.554663896560669,-0.1382419764995575,-0.9902476072311401,0.017297130078077316,0.1422549933195114,0.9355752468109131,0.013815760612487793
1.423026164902331,-1.784578527292196,1.6752902999296118,1.2440160512924194,-0.9270070791244507,0.6278414726257324,-0.14388234913349152,-0.9891018271446228,0.031236810609698296,0.14855149388313293,0.9587214589118958,0.013868451118469238
1.4135130410558023,-1.8604355890019688,1.7422750803055091,1.1963167190551758,-1.0050419569015503,0.7008203268051147,-0.15011295676231384,-0.9876564741134644,0.04473665729165077,0.15877990424633026,0.9771886467933655,0.011598948389291763
1.402725834283817,-1.9255374917338068,1.7973591409520753,1.1738744974136353,-1.1379549503326416,0.7715089917182922,-0.15686485171318054,-0.9859093427658081,0.05810442939400673,0.16952961683273315,0.9919518828392029,0.008546225726604462
1.3909281573643535,-1.982114058716084,1.842826516277119,1.1543023586273193,-1.2016950845718384,0.8218768239021301,-0.1639789193868637,-0.9838672876358032,0.071527399122715,0.17472107708454132,1.0008807182312012,0.004858247935771942
1.3785871651075445,-2.0296479201472497,1.8790043188485321,1.0824694633483887,-1.177356481552124,0.840814471244812,-0.17126847803592682,-0.9815846085548401,0.08460993319749832,0.17055128514766693,1.0149402618408203,0.012680284678936005
1.3664142623118722,-2.067650700665262,1.906047029507235,0.9717476963996887,-1.109365463256836,0.8213680982589722,-0.17842213809490204,-0.9791865944862366,0.09674495458602905,0.16555893421173096,1.0337061882019043,0.03167319297790527
1.3549327548355716,-2.097239859589541,1.9252378019009373,0.8391604423522949,-1.0490576028823853,0.7829138040542603,-0.18518999218940735,-0.9767917990684509,0.10762307792901993,0.16375134885311127,1.052124261856079,0.05170941352844238
1.3446165846902582,-2.1198668380122356,1.9377875331105316,0.685769259929657,-1.023972988128662,0.6958491802215576,-0.19129259884357452,-0.9745302200317383,0.11703798919916153,0.15276415646076202,1.0668611526489258,0.06519792973995209
1.3358790691324554,-2.1382769240725126,1.9463276056402015,0.5731281042098999,-0.9776124358177185,0.5710323452949524,-0.19627925753593445,-0.9725335836410522,0.12511228024959564,0.11990897357463837,1.0706322193145752,0.04944847524166107
1.328752542217649,-2.1545275098261927,1.9536024733163473,0.49109265208244324,-0.8460426926612854,0.43977656960487366,-0.19999830424785614,-0.9708501100540161,0.13210174441337585,0.09773388504981995,1.0642949342727661,0.028466686606407166
1.323054548069504,-2.1685872725031765,1.960261468430844,0.4056433141231537,-0.6603622436523438,0.3317263424396515,-0.2026904821395874,-0.9694686532020569,0.13801169395446777,0.1059497594833374,1.057572841644287,0.031391605734825134
1.318656604655751,-2.1786015174532216,1.9649550022969988,0.275236040353775,-0.4267772138118744,0.26129186153411865,-0.20479616522789001,-0.9683808088302612,0.14246787130832672,0.13329346477985382,1.0620241165161133,0.05151735246181488
1.3157282959389216,-2.183176248011058,1.9661746409509326,0.11031874269247055,-0.26872795820236206,0.17623713612556458,-0.20646263659000397,-0.9676461219787598,0.14503324031829834,0.16100667417049408,1.0759223699569702,0.09349238872528076
1.3146354135391491,-2.1841188472704274,1.9644765128756083,-0.0488264337182045,-0.2584625482559204,0.04625411331653595,-0.20719002187252045,-0.967369794845581,0.14583607017993927,0.14711612462997437,1.069756269454956,0.11624908447265625
1.3154635811950222,-2.1837714294897794,1.9618488970148282,-0.14210663735866547,-0.15302081406116486,-0.10420312732458115,-0.2065858393907547,-0.9675793051719666,0.14530350267887115,0.10168159008026123,1.0597879886627197,0.057592883706092834
1.3176793024442328,-2.183580494447284,1.9613367010995062,-0.12035714089870453,0.1020013615489006,-0.24050264060497284,-0.20485839247703552,-0.9681365489959717,0.14403003454208374,0.08251342177391052,1.0636565685272217,-0.03329683840274811
1.3206329998396376,-2.1851307925619006,1.965362682470753,-0.06001260131597519,0.3539992868900299,-0.354716420173645,-0.2022978663444519,-0.9688720107078552,0.14269894361495972,0.09972824156284332,1.073669195175171,-0.07998514175415039
1.3245476290936684,-2.1880220225306153,1.9728023297778852,-0.11383827775716782,0.503741979598999,-0.49804189801216125,-0.19879014790058136,-0.9698336720466614,0.1410871297121048,0.1322922706604004,1.0860902070999146,-0.07202564179897308
1.3303707900463662,-2.1907342880299683,1.9817451985405756,-0.20381304621696472,0.6905391812324524,-0.6959943175315857,-0.19380614161491394,-0.9712367653846741,0.13834179937839508,0.08934444189071655,1.0608820915222168,-0.12161792814731598
1.3378964600641032,-2.194777449783575,1.9935985505634233,-0.1983993798494339,0.760053277015686,-0.8327303528785706,-0.18730811774730682,-0.9730011820793152,0.1348499208688736,-0.029443010687828064,0.9769226908683777,-0.2521439790725708
1.3454326271939754,-2.206276933518044,2.0121204133685486,0.012047778815031052,0.5157511234283447,-0.8562319278717041,-0.1798391491174698,-0.9747129082679749,0.13263903558254242,-0.0844583809375763,0.8915066123008728,-0.3402498960494995
1.3514854657311277,-2.229292381910574,2.0392250949013233,0.18800389766693115,0.17012766003608704,-0.8230078816413879,-0.17206987738609314,-0.9760476350784302,0.13313010334968567,-0.028903678059577942,0.8356360197067261,-0.3115050792694092
1.3572298137730157,-2.2533665864926875,2.064234210092642,-0.11126352846622467,-0.08070297539234161,-0.7404857873916626,-0.1644613891839981,-0.9772812128067017,0.13369417190551758,0.059206247329711914,0.8217025399208069,-0.15412546694278717
1.3653687383293749,-2.262211330774068,2.0718901171098154,-0.7076699733734131,-0.1754356026649475,-0.7200372815132141,-0.1571393609046936,-0.9789738655090332,0.13006703555583954,0.11427740752696991,0.6530613899230957,0.1141958087682724
1.3779015286924359,-2.24566870203749,2.053196648013122,-1.448784351348877,-0.18757613003253937,-0.7641847133636475,-0.14967826008796692,-0.9814534187316895,0.11977487802505493,0.07695484161376953,0.3947376012802124,0.29758381843566895
1.3958589594831365,-2.1956828670121515,2.0003824487948183,-2.265270233154297,-0.17619191110134125,-0.9392955303192139,-0.14115752279758453,-0.9847374558448792,0.10181859880685806,0.010572761297225952,0.1673850417137146,0.415042519569397
1.4196964335198574,-2.092308402471446,1.894987041626135,-3.1886727809906006,0.08828132599592209,-1.2027909755706787,-0.13051700592041016,-0.9886060953140259,0.07499133050441742,-0.05097106099128723,-0.014750957489013672,0.487585186958313
1.446983498233873,-1.884345804808599,1.688057010484273,-4.156891345977783,0.492971807718277,-1.4468563795089722,-0.11747653037309647,-0.9923449754714966,0.038091257214546204,-0.07104583084583282,-0.19460582733154297,0.5144602060317993
1.4679196996488104,-1.4913542245341707,1.2985830341607139,-4.951817989349365,0.6468684077262878,-1.5813508033752441,-0.10237190127372742,-0.9947128891944885,-0.008149790577590466,-0.043761543929576874,-0.36644744873046875,0.46107661724090576
1.4650589265540315,-0.958119369716648,0.7688206667132862,-5.419098854064941,0.5700857639312744,-1.5737000703811646,-0.08634521812200546,-0.9944149851799011,-0.06069299951195717,0.020076259970664978,-0.4817356467247009,0.2959074378013611
1.4343397141887426,-0.5470425192871098,0.35967132766619747,-5.618373870849609,0.38039299845695496,-1.4605213403701782,-0.07075975090265274,-0.9907042384147644,-0.11618179082870483,0.09557053446769714,-0.5682252049446106,0.06004490703344345
1.3889456967351683,-0.3196223948752543,0.13219631398897602,-5.51530122756958,0.1592438519001007,-1.2655621767044067,-0.056824956089258194,-0.9835106730461121,-0.17169196903705597,0.1584484577178955,-0.6956124901771545,-0.1853635460138321
1.3401254440557706,-0.20065127323351284,0.011411895155733678,-5.111015796661377,-0.006014565005898476,-0.994515061378479,-0.04556800052523613,-0.9735132455825806,-0.22404450178146362,0.20209263265132904,-0.8601050972938538,-0.42155468463897705
1.293742746016136,-0.13756388671014122,-0.05436359621521766,-4.533437252044678,-0.1141948327422142,-0.7003132700920105,-0.03750838339328766,-0.9618655443191528,-0.2709394693374634,0.20965802669525146,-1.0678586959838867,-0.6246444582939148
1.25258562116725,-0.10404786989094121,-0.09120793500965675,-3.853703737258911,-0.21948343515396118,-0.46342918276786804,-0.032494548708200455,-0.949796736240387,-0.31117603182792664,0.16787050664424896,-1.3248615264892578,-0.7856865525245667
1.2181750786452041,-0.08592058381166165,-0.11310845266509852,-3.1102089881896973,-0.2915818691253662,-0.33010467886924744,-0.02963697351515293,-0.9384706616401672,-0.3440852761268616,0.08620128780603409,-1.575186014175415,-0.9051668643951416
1.1907612184269893,-0.07528490726136423,-0.127635608700933,-2.4328949451446533,-0.2654898464679718,-0.27416858077049255,-0.027900828048586845,-0.9286516308784485,-0.3699027895927429,0.002235526219010353,-1.8085159063339233,-0.9657140970230103
1.1696716412823414,-0.0664335414803183,-0.1390166628562403,-1.829580307006836,-0.05027633160352707,-0.2952789068222046,-0.025920186191797256,-0.9206224679946899,-0.3895930051803589,-0.062260374426841736,-2.0170607566833496,-0.9799137115478516
1.1543994443533871,-0.056315012711243985,-0.14927690767120824,-1.2601680755615234,0.1877732276916504,-0.32717373967170715,-0.022765595465898514,-0.9145522117614746,-0.4038270115852356,-0.11259514093399048,-2.177626371383667,-0.9757962226867676
1.1449335770444253,-0.045321781235306655,-0.15835053838919477,-0.6504218578338623,0.3384660482406616,-0.30555951595306396,-0.018716320395469666,-0.9106826782226562,-0.412682443857193,-0.11948254704475403,-2.2558059692382812,-0.9691685438156128
1.1419791800263597,-0.036015517362749744,-0.16466291442944775,0.04620056971907616,0.3620545268058777,-0.1825399249792099,-0.014971849508583546,-0.9094582200050354,-0.41552576422691345,-0.09728708118200302,-2.263988494873047,-0.9694075584411621
1.1459775037452002,-0.031057275461139244,-0.16625676734009787,0.7408632040023804,0.3293679356575012,0.03173348680138588,-0.012798381969332695,-0.911113440990448,-0.41195714473724365,-0.05107492581009865,-2.205082416534424,-0.9559168815612793
1.1564897514467003,-0.03213678748792095,-0.16197880483029847,1.358154058456421,0.22169767320156097,0.248434916138649,-0.012934612110257149,-0.9153956770896912,-0.402347594499588,-0.024754613637924194,-2.072397470474243,-0.9116018414497375
1.1727242158390005,-0.03994300052721432,-0.1518183193015295,1.8959999084472656,0.08484260737895966,0.4267028868198395,-0.015479473397135735,-0.9218100309371948,-0.3873329758644104,-0.03917752578854561,-1.8917124271392822,-0.8435018658638
1.193821078295916,-0.053937381372274947,-0.13642337407780242,2.3515660762786865,-0.030918899923563004,0.5199063420295715,-0.019845258444547653,-0.9297823309898376,-0.3675745725631714,-0.08217502385377884,-1.6894652843475342,-0.772455096244812
1.2187447864072423,-0.07266417608381583,-0.11724042797556485,2.675816535949707,-0.12295880913734436,0.5195468068122864,-0.025034360587596893,-0.9386672973632812,-0.34391477704048157,-0.1419425904750824,-1.4878160953521729,-0.6794615387916565
1.2460253940326873,-0.09481428352406118,-0.09529859912242636,2.846264600753784,-0.15725205838680267,0.46447858214378357,-0.030209166929125786,-0.9477238655090332,-0.31765875220298767,-0.17340412735939026,-1.297210454940796,-0.5526566505432129
1.2741493938473076,-0.11825275839822191,-0.07170468409761771,2.858302354812622,-0.00952066294848919,0.3631945848464966,-0.03448658436536789,-0.9563220143318176,-0.29027387499809265,-0.1730024516582489,-1.1154553890228271,-0.418801873922348
1.3017056270648506,-0.13970005686076414,-0.04797596847984602,2.752025842666626,0.2756948173046112,0.23766620457172394,-0.03701931610703468,-0.9640130400657654,-0.2632652819156647,-0.1482681930065155,-0.9394447207450867,-0.3176518678665161
1.3280910796421541,-0.1579775705561367,-0.02511671183056247,2.6185104846954346,0.47432002425193787,0.12966543436050415,-0.03780897334218025,-0.9706913828849792,-0.23733697831630707,-0.11429065465927124,-0.7791255712509155,-0.2505016326904297
1.3530841263594915,-0.17504861498902502,-0.0021212690471725994,2.460340976715088,0.5736367702484131,0.08416151255369186,-0.037617187947034836,-0.9763941764831543,-0.21269622445106506,-0.058421652764081955,-0.629532516002655,-0.20119822025299072
1.3762363827748454,-0.1939696995788992,0.023208323131147807,2.261592388153076,0.5879773497581482,0.09242929518222809,-0.03726658970117569,-0.9811328649520874,-0.18971024453639984,0.009114101529121399,-0.4772260785102844,-0.15728968381881714
1.3970929091014195,-0.21852522728979867,0.05386907288545979,2.0350492000579834,0.5182382464408875,0.16120654344558716,-0.03746829926967621,-0.9849514365196228,-0.16872183978557587,0.07091554254293442,-0.33148545026779175,-0.12221729755401611
1.415294407515539,-0.25319965428810987,0.09414437122525815,1.8045918941497803,0.5075992345809937,0.2714134752750397,-0.038797251880168915,-0.9879339337348938,-0.14993934333324432,0.12711510062217712,-0.20615816116333008,-0.10843755304813385
1.4310729699164928,-0.30091214966186847,0.14787722628861882,1.6657832860946655,0.5781087875366211,0.38045600056648254,-0.04127838462591171,-0.9902545809745789,-0.13301192224025726,0.17421293258666992,-0.0938062071800232,-0.14803950488567352
1.4452918524089473,-0.3657472865060352,0.21926737452123415,1.6372681856155396,0.5940302610397339,0.46520015597343445,-0.04476859048008919,-0.9921346306800842,-0.11689577251672745,0.1931602954864502,0.02771812677383423,-0.21969763934612274
1.4583023662638244,-0.4533914011774282,0.3132213802108454,1.6257596015930176,0.5215597748756409,0.5429167747497559,-0.0491708405315876,-0.9936792254447937,-0.10091610997915268,0.1904977262020111,0.16030508279800415,-0.26346355676651
1.46966119936554,-0.5707462029597168,0.43585222466508744,1.6186201572418213,0.3802385926246643,0.6216736435890198,-0.05454698204994202,-0.9948902130126953,-0.08496125787496567,0.18433821201324463,0.28610408306121826,-0.2648462653160095
1.4784785989247526,-0.7230085506408148,0.5915520575265372,1.5825923681259155,0.14741307497024536,0.7099456787109375,-0.06099561229348183,-0.9957417249679565,-0.06912429630756378,0.17668771743774414,0.397597074508667,-0.2477089762687683
1.4839069699206129,-0.9060523218547543,0.7754408459614948,1.5384091138839722,-0.11872432380914688,0.7472512125968933,-0.06830481439828873,-0.996227502822876,-0.05353284254670143,0.16118502616882324,0.4883231520652771,-0.21682220697402954
1.4858354836360046,-1.1032884530222975,0.9711940823794146,1.4882519245147705,-0.30396589636802673,0.714246392250061,-0.07575403898954391,-0.9963930249214172,-0.03824326768517494,0.12908348441123962,0.5739533305168152,-0.21375542879104614
1.4848646941189387,-1.2949503755351441,1.160145279183068,1.4298328161239624,-0.3574315011501312,0.6279463768005371,-0.0825822651386261,-0.9963101744651794,-0.02337591163814068,0.09138656407594681,0.6631191372871399,-0.22676122188568115
1.4818288939797415,-1.4678949010886861,1.3303923526129966,1.365402340888977,-0.2962426543235779,0.5232746601104736,-0.08838167786598206,-0.9960449934005737,-0.009126837365329266,0.07066618651151657,0.7333648204803467,-0.22929155826568604
1.4773361035703898,-1.6183279485680566,1.4791781256468273,1.313849687576294,-0.1495285928249359,0.4502989947795868,-0.09321935474872589,-0.9956357479095459,0.004434206988662481,0.075381800532341,0.7766263484954834,-0.2178281545639038
1.4716038417196726,-1.749022607076071,1.6098197581199216,1.304283857345581,0.013621699996292591,0.4022301733493805,-0.09746159613132477,-0.9950844645500183,0.017556503415107727,0.08552920073270798,0.8237587809562683,-0.2000209093093872
1.4647917584567511,-1.864232186625137,1.7262818089184297,1.326851487159729,0.09847001731395721,0.3616617023944855,-0.10128358006477356,-0.9943867921829224,0.030603691935539246,0.09043456614017487,0.8778706789016724,-0.18589210510253906
1.4568387357437667,-1.9688901260797815,1.8324898506706908,1.4001339673995972,0.07273591309785843,0.34603631496429443,-0.10482079535722733,-0.9935138821601868,0.04408218339085579,0.09131672978401184,0.9282213449478149,-0.18019044399261475
1.4473046763574404,-2.065613918869376,1.9301439598559367,1.4963444471359253,-0.031255997717380524,0.3751252293586731,-0.10840499401092529,-0.9923846125602722,0.058494504541158676,0.09555704891681671,0.9797653555870056,-0.18146491050720215
1.435822051243616,-2.1528912179313635,2.0170013346765288,1.5948138236999512,-0.2099519670009613,0.4487387537956238,-0.11240401118993759,-0.9909048080444336,0.07398057729005814,0.1126633957028389,1.0194082260131836,-0.16583824157714844
1.422051461109862,-2.2310147311007738,2.0921442586205328,1.7201594114303589,-0.5560675263404846,0.5564900040626526,-0.11705631017684937,-0.9889578819274902,0.09088894724845886,0.1267913579940796,1.0515339374542236,-0.13858771324157715
1.4059688890422795,-2.2996584385408525,2.153781584404696,1.793468952178955,-0.9867047071456909,0.6755722165107727,-0.12239473313093185,-0.9864466786384583,0.10928263515233994,0.13077178597450256,1.0807764530181885,-0.10279751569032669
1.3884136359254076,-2.357460996958021,2.200521036477547,1.764329195022583,-1.3458266258239746,0.7530100345611572,-0.12808778882026672,-0.983414351940155,0.1284126490354538,0.12550902366638184,1.1043708324432373,-0.05407167971134186
1.3706521039643569,-2.40378231524502,2.2326616120930796,1.6270896196365356,-1.5807791948318481,0.8059109449386597,-0.13373428583145142,-0.9800379276275635,0.14710910618305206,0.11582043766975403,1.1311455965042114,-0.015074625611305237
1.3536649497778557,-2.43872409871477,2.25156987945237,1.4257400035858154,-1.6827820539474487,0.8363522291183472,-0.13925646245479584,-0.9765194654464722,0.16437183320522308,0.11943523585796356,1.1541314125061035,0.01690293848514557
1.3381856284356828,-2.463862672746296,2.260003133859256,1.1889036893844604,-1.6804064512252808,0.8390881419181824,-0.14454196393489838,-0.9730678796768188,0.17957445979118347,0.1293594241142273,1.1654810905456543,0.04228866100311279
1.324634508650691,-2.48094913427914,2.2605559366093035,0.9469335675239563,-1.6130551099777222,0.8115934133529663,-0.1495305448770523,-0.9698548913002014,0.19241218268871307,0.13700304925441742,1.1532349586486816,0.06273031234741211
1.3132339110357782,-2.492113832371524,2.256212860871398,0.7225639224052429,-1.4361352920532227,0.739937961101532,-0.15405049920082092,-0.9670137763023376,0.20286288857460022,0.13795243203639984,1.1465485095977783,0.06405937671661377
1.304192181853468,-2.498543959138698,2.2492680062391726,0.4997069239616394,-1.1778228282928467,0.6297776103019714,-0.15797901153564453,-0.9646711349487305,0.21083733439445496,0.12695789337158203,1.148463249206543,0.055062487721443176
1.2976756046518085,-2.5009114164204935,2.2410784323612702,0.2825322449207306,-0.8662494421005249,0.4907732605934143,-0.1612338423728943,-0.9629338383674622,0.21624617278575897,0.1181277483701706,1.1402409076690674,0.04815837740898132
1.293747390126201,-2.5004875954811316,2.2331979459476163,0.09650270640850067,-0.5667207837104797,0.318610280752182,-0.1635863333940506,-0.9618667960166931,0.21920737624168396,0.10360400378704071,1.127363681793213,0.037323564291000366
1.2922209461719145,-2.499163087010017,2.2272811905762984,-0.03912423923611641,-0.30601757764816284,0.12382041662931442,-0.16475620865821838,-0.9614481925964355,0.22016604244709015,0.0764535665512085,1.1209176778793335,0.012408614158630371
1.2926468090605583,-2.4986584194863264,2.224777062178422,-0.10540792346000671,-0.07832662761211395,-0.06188579648733139,-0.16462168097496033,-0.9615651965141296,0.21975499391555786,0.05346138775348663,1.1144583225250244,-0.018170982599258423
1.2944381527896278,-2.5002180625847252,2.226341920242674,-0.12406854331493378,0.057327330112457275,-0.21499218046665192,-0.16324783861637115,-0.962055504322052,0.2186308205127716,0.05309461057186127,1.1111948490142822,-0.036562711000442505
1.2971161694600597,-2.5042567683122665,2.231585242488887,-0.13798408210277557,0.14160919189453125,-0.32188186049461365,-0.16083019971847534,-0.9627827405929565,0.21721744537353516,0.06360116600990295,1.1165149211883545,-0.034493088722229004
1.3006542738764983,-2.5091129081166974,2.2384992123188185,-0.21970774233341217,0.22184917330741882,-0.3959046006202698,-0.15775884687900543,-0.9637330174446106,0.21524713933467865,0.08781252801418304,1.1240873336791992,-0.0055758655071258545
1.3056888566020386,-2.5128291205421083,2.2450798170745667,-0.38780513405799866,0.29580995440483093,-0.48017099499702454,-0.15410232543945312,-0.9650643467903137,0.21190530061721802,0.11459727585315704,1.1347417831420898,0.040536314249038696
1.3125669239124744,-2.5135508904261,2.2493494118905524,-0.595243513584137,0.38810285925865173,-0.48918527364730835,-0.1500457525253296,-0.9668436646461487,0.20664051175117493,0.12331230938434601,1.1324012279510498,0.05718424916267395
1.3208710525365888,-2.5079277251076264,2.248143911911096,-0.7600002288818359,0.5052015781402588,-0.4377298057079315,-0.14644603431224823,-0.9689309000968933,0.19931598007678986,0.15914130210876465,1.109723687171936,0.026697397232055664
1.3296505583757676,-2.4969151929087774,2.242469672199563,-0.7947131991386414,0.5815287232398987,-0.38758566975593567,-0.14351457357406616,-0.9710649847984314,0.190884530544281,0.18869580328464508,1.0891525745391846,-0.04468974471092224
1.3380587319529142,-2.48397600911208,2.2351511968768483,-0.735793948173523,0.5728210210800171,-0.361856609582901,-0.14097636938095093,-0.9730386137962341,0.1825425922870636,0.18171730637550354,1.0750435590744019,-0.1326308250427246
1.3456722665688385,-2.471819602309202,2.228245097653985,-0.6609770655632019,0.5042549967765808,-0.316280335187912,-0.13858193159103394,-0.9747664332389832,0.17500261962413788,0.14947667717933655,1.0580182075500488,-0.2022392749786377
1.3524453484491397,-2.4582659569349254,2.2189118347932335,-0.6563950777053833,0.37891680002212524,-0.203790545463562,-0.13676945865154266,-0.9762560129165649,0.16798463463783264,0.14842714369297028,1.037733554840088,-0.24119603633880615
1.3584163852419606,-2.4398481855079117,2.203124887228968,-0.7113096714019775,0.20587076246738434,-0.05107884854078293,-0.13607434928417206,-0.9775320291519165,0.16098237037658691,0.15284372866153717,0.978355884552002,-0.2338733673095703
1.3647104726724921,-2.414818733645798,2.1785421590912986,-0.9673787355422974,-0.010061003267765045,0.006229450460523367,-0.1359696090221405,-0.9788393378257751,0.1529252827167511,0.14216464757919312,0.8648103475570679,-0.1537032127380371
1.3734732903610853,-2.3741383704314143,2.13594357763575,-1.4679032564163208,-0.20356310904026031,0.030909664928913116,-0.1361156553030014,-0.9805948734283447,0.14109034836292267,0.1276622712612152,0.7361947298049927,0.0037615299224853516
1.3860627212076877,-2.3127743756429,2.0703342272557768,-2.088874340057373,-0.37411537766456604,-0.11070366203784943,-0.13540005683898926,-0.9829851984977722,0.12412439286708832,0.08376431465148926,0.5282276272773743,0.1682494580745697
1.4038616789352325,-2.217453741605921,1.970501868402624,-2.865795612335205,-0.18547627329826355,-0.4023607671260834,-0.13261377811431885,-0.9860987663269043,0.10011589527130127,0.00903281569480896,0.34046876430511475,0.27262604236602783
1.4267033975201886,-2.0616895291944823,1.812482004532678,-3.6853952407836914,0.1113910898566246,-0.8065284490585327,-0.12663830816745758,-0.9896365404129028,0.06769273430109024,-0.04630482196807861,0.12542450428009033,0.31571507453918457
1.4509093586617987,-1.7964928435801564,1.5471808912187053,-4.488636016845703,0.2994396388530731,-1.2306067943572998,-0.11656828224658966,-0.9928221702575684,0.026765067130327225,-0.08315403014421463,-0.09587728977203369,0.32870399951934814
1.4657503785564479,-1.3582532994287024,1.1101735366892167,-5.211957931518555,0.49363869428634644,-1.5833791494369507,-0.10249578952789307,-0.9944877624511719,-0.022118842229247093,-0.05657712370157242,-0.2695658802986145,0.28135061264038086
1.4556050055224574,-0.8340952474202472,0.5891371288326391,-5.673976898193359,0.7091277837753296,-1.8198658227920532,-0.0851336345076561,-0.9933727979660034,-0.07722117751836777,-0.009684503078460693,-0.42235302925109863,0.10250520706176758
1.4203083290110041,-0.4534863239445585,0.212600910746685,-5.7370476722717285,0.7062241435050964,-1.9138697385787964,-0.06568071991205215,-0.9886980056762695,-0.1347677856683731,0.07175370305776596,-0.5970411896705627,-0.17736582458019257
1.3735256887430218,-0.23755939752196523,-0.00010436872329166114,-5.435296058654785,0.5523586869239807,-1.8105618953704834,-0.046123478561639786,-0.9806051850318909,-0.19048938155174255,0.1855430155992508,-0.8005533218383789,-0.45407214760780334
1.3252047298807543,-0.1188824655961316,-0.11697766383276205,-4.908926010131836,0.35886695981025696,-1.4962478876113892,-0.02883591689169407,-0.9699936509132385,-0.24141442775726318,0.32172834873199463,-1.0347518920898438,-0.7025245428085327
1.280523970398847,-0.055526576104764455,-0.18029686205728124,-4.239420413970947,0.09305503219366074,-1.0475929975509644,-0.01588430628180504,-0.9581659436225891,-0.2857726514339447,0.42039477825164795,-1.3279364109039307,-0.8766570091247559
1.2419209275700167,-0.02520760733470388,-0.21232067331298743,-3.526951789855957,-0.11373089998960495,-0.595745325088501,-0.008140666410326958,-0.9464061856269836,-0.3228764235973358,0.4353257119655609,-1.6478474140167236,-0.9608758687973022
1.2100436884079884,-0.013242904067691252,-0.22676419473198864,-2.851626396179199,-0.19578266143798828,-0.2783796489238739,-0.004674327559769154,-0.9356313943862915,-0.35294783115386963,0.3699086904525757,-1.9409403800964355,-0.9881622791290283
1.1845559870739195,-0.009187191172577523,-0.23287360113183916,-2.238990545272827,-0.10379574447870255,-0.1305968314409256,-0.0034608447458595037,-0.9263318777084351,-0.37669265270233154,0.2402467280626297,-2.174452543258667,-0.9769601225852966
1.1649998220198485,-0.005790500240423315,-0.23627712321377367,-1.6622333526611328,0.1685023307800293,-0.10658241808414459,-0.002285792725160718,-0.9187882542610168,-0.394744336605072,0.11385804414749146,-2.344151258468628,-0.9581149816513062
1.1513793391224583,-0.00016046357534468594,-0.2388963741921961,-1.0418294668197632,0.46366846561431885,-0.08803856372833252,-6.534527346957475e-05,-0.9133265018463135,-0.4072280824184418,0.030354028567671776,-2.450244665145874,-0.9518568515777588
1.1444037834037182,0.006071045406053258,-0.2397287314888596,-0.34404781460762024,0.609966516494751,0.028870122507214546,0.0025109036359936,-0.9104636907577515,-0.41358160972595215,-0.005837332457304001,-2.4848458766937256,-0.944313108921051
1.1445907669313644,0.009367769606000526,-0.23643311148910462,0.3768347501754761,0.6274624466896057,0.2564050257205963,0.0038727582432329655,-0.9105409979820251,-0.41340094804763794,0.0005065016448497772,-2.4403045177459717,-0.9194846749305725
1.1517518622900336,0.006518511271882202,-0.22701257048386947,1.0279936790466309,0.5089735984802246,0.5236166715621948,0.002652286784723401,-0.9134781360626221,-0.40687960386276245,-0.001767290523275733,-2.309788703918457,-0.8643453121185303
1.1648484823866019,-0.003381552715663802,-0.21112270636873698,1.5647029876708984,0.4310583472251892,0.7441932559013367,-0.0013353381073102355,-0.9187285304069519,-0.3948875367641449,-0.026801882311701775,-2.1124606132507324,-0.7917273044586182
1.1827189217402927,-0.019596385711783917,-0.18902363185691287,2.00508975982666,0.39676910638809204,0.9095340967178345,-0.00741498963907361,-0.9256383180618286,-0.3783371150493622,-0.07319720834493637,-1.8963985443115234,-0.7147871255874634
1.2042876354626988,-0.04204191935186023,-0.16101040381720952,2.3398635387420654,0.3191525936126709,1.0038732290267944,-0.015061651356518269,-0.9335841536521912,-0.3580420911312103,-0.1257312148809433,-1.7011969089508057,-0.6147665977478027
1.2280673879382236,-0.07059766287748702,-0.12758506851494436,2.500643014907837,0.24068284034729004,1.0284779071807861,-0.023705272004008293,-0.9418410658836365,-0.3352217972278595,-0.17192767560482025,-1.5060503482818604,-0.5000746846199036
1.252313013468056,-0.10431314096915659,-0.08977688804739943,2.5084261894226074,0.1721802055835724,0.9777179956436157,-0.032604049891233444,-0.9497114419937134,-0.3114248812198639,-0.19980257749557495,-1.3194079399108887,-0.37917250394821167
1.2758400385413118,-0.14158151542735203,-0.04912053287036916,2.44012713432312,0.1344277411699295,0.8698105812072754,-0.04102014750242233,-0.9568148255348206,-0.28778964281082153,-0.21787574887275696,-1.1333799362182617,-0.29024362564086914
1.2982597064467785,-0.18023144527182874,-0.007065670178129247,2.3454737663269043,0.22518295049667358,0.7252227663993835,-0.04825172945857048,-0.9630911946296692,-0.2648158073425293,-0.2174038141965866,-0.9426859021186829,-0.2656863331794739
1.3195948550318763,-0.21774039805607154,0.03489568885672118,2.2520759105682373,0.3788454532623291,0.5566895008087158,-0.05369668826460838,-0.9686144590377808,-0.24269907176494598,-0.1957997977733612,-0.7678968906402588,-0.282523512840271
1.340061069446695,-0.2533785330704863,0.07606439671360125,2.1731932163238525,0.4766295552253723,0.40091532468795776,-0.057328078895807266,-0.973498523235321,-0.2213919311761856,-0.16097943484783173,-0.6133546233177185,-0.29691845178604126
1.3597454951270662,-0.28897480482615245,0.117647688043443,2.0900917053222656,0.5124027132987976,0.30496278405189514,-0.059697698801755905,-0.977811336517334,-0.2008017897605896,-0.10235066711902618,-0.44931280612945557,-0.3066443204879761
1.3782574731702504,-0.32675547624762974,0.16219868806460278,1.9605612754821777,0.6936265826225281,0.27692314982414246,-0.06141865998506546,-0.9815216064453125,-0.18122746050357819,-0.035245802253484726,-0.2799684405326843,-0.3089914917945862
1.3951678911650371,-0.3663920732268947,0.21134171100542268,1.8300588130950928,1.0415863990783691,0.26090309023857117,-0.06259626895189285,-0.9846169352531433,-0.16313080489635468,0.03842630982398987,-0.12587213516235352,-0.3220069408416748
1.4110453645004875,-0.40922496673007286,0.26685302487080514,1.8123477697372437,1.3033572435379028,0.2533714175224304,-0.06329511851072311,-0.9872669577598572,-0.14593876898288727,0.08662576228380203,-0.009910404682159424,-0.3550375699996948
1.4266451147055532,-0.46243353513410507,0.3341269076055445,1.8668054342269897,1.3172284364700317,0.282833456993103,-0.0640876516699791,-0.9896281957626343,-0.12856528162956238,0.11813425272703171,0.10144448280334473,-0.3605549931526184
1.441749373573658,-0.5369778214046989,0.4218265490224661,1.9094429016113281,1.1185022592544556,0.36974892020225525,-0.06583038717508316,-0.9916849732398987,-0.11057817190885544,0.14854824542999268,0.23451322317123413,-0.33473408222198486
1.4551689696665113,-0.64392835589953,0.5392408145090147,1.8977948427200317,0.7838621735572815,0.5216772556304932,-0.06926243007183075,-0.9933226108551025,-0.09226775169372559,0.17363250255584717,0.36687278747558594,-0.2820148468017578
1.4654685788840924,-0.7906446406776415,0.692748288276265,1.8587976694107056,0.38210970163345337,0.672702431678772,-0.07473072409629822,-0.9944581389427185,-0.07395066320896149,0.19156724214553833,0.47684937715530396,-0.2195519208908081
1.4714988034655254,-0.9724895334551882,0.8774732595940361,1.8016331195831299,0.00750306062400341,0.7829819917678833,-0.08191509544849396,-0.9950740337371826,-0.05583775043487549,0.18231789767742157,0.5748773813247681,-0.1875854730606079
1.472928803137418,-1.1718251225206706,1.0762903928510141,1.7544938325881958,-0.2894498109817505,0.8219557404518127,-0.09003856033086777,-0.9952148199081421,-0.037958551198244095,0.14066718518733978,0.6460630297660828,-0.17047631740570068
1.4703141372187463,-1.3667467993665323,1.2682995443231013,1.70490562915802,-0.4597146809101105,0.793464183807373,-0.09823330491781235,-0.9949558973312378,-0.020327363163232803,0.10529808700084686,0.6910922527313232,-0.15887165069580078
1.4644899099150808,-1.5407085832677272,1.4385084223788165,1.6289913654327393,-0.4463597238063812,0.7617424726486206,-0.10606017708778381,-0.994354784488678,-0.00319207482971251,0.08568966388702393,0.7252201437950134,-0.14469587802886963
1.4564847433558346,-1.684294639131393,1.5790910516868222,1.5170515775680542,-0.3093706965446472,0.6911723613739014,-0.11332999914884567,-0.9934735298156738,0.012918281368911266,0.08285816013813019,0.7751964330673218,-0.12407839298248291
1.4477696545354108,-1.798995860286666,1.6924421468696764,1.4175578355789185,-0.11468803137540817,0.5573378801345825,-0.11953660845756531,-0.9924417734146118,0.027761777862906456,0.06703108549118042,0.8255867958068848,-0.11804783344268799
1.4391799198212623,-1.8948051369142431,1.7887090672950854,1.4032922983169556,0.04054248332977295,0.42517992854118347,-0.12440871447324753,-0.9913510680198669,0.041781969368457794,0.04692456126213074,0.8572262525558472,-0.13629472255706787
1.4304876621000278,-1.9832126352839639,1.8785755864561158,1.495774507522583,0.06878237426280975,0.3249169588088989,-0.12812431156635284,-0.9901728630065918,0.056055281311273575,0.04188159108161926,0.8755487203598022,-0.15619850158691406
1.4208322172591483,-2.0698188830788333,1.9664812169774426,1.6246246099472046,-0.0007161982357501984,0.2960200309753418,-0.1311836838722229,-0.988776445388794,0.07149957120418549,0.05733111500740051,0.8996040225028992,-0.16627168655395508
1.4094919434987874,-2.152216585034588,2.0492118247518105,1.7209745645523071,-0.14167705178260803,0.3352382779121399,-0.13421614468097687,-0.9870186448097229,0.08820687979459763,0.09265117347240448,0.9326515197753906,-0.14858567714691162
1.3962390986448623,-2.2263603884224827,2.121759742187963,1.7690540552139282,-0.38957902789115906,0.419412225484848,-0.13767120242118835,-0.9848035573959351,0.10587209463119507,0.12497586011886597,0.9597943425178528,-0.10309470444917679
1.3813034160181028,-2.2896982345880526,2.1807393086603506,1.7548860311508179,-0.6735367178916931,0.5366693735122681,-0.14174753427505493,-0.9820998907089233,0.12404708564281464,0.15139105916023254,0.9807265400886536,-0.05060626566410065
1.3651474575281697,-2.3409364167371876,2.2246763333066877,1.685312271118164,-0.9445580840110779,0.6672472357749939,-0.14658010005950928,-0.9789286851882935,0.14217393100261688,0.1783946305513382,0.9991463422775269,-0.009361132979393005
1.3483645546973775,-2.380402361595461,2.254219065011632,1.565382957458496,-1.1576359272003174,0.8014196753501892,-0.15216833353042603,-0.9753638505935669,0.15971995890140533,0.19397738575935364,1.0143804550170898,0.01813673973083496
1.3315516691111946,-2.4086259426969288,2.2705006369534826,1.3930209875106812,-1.3033119440078735,0.9340677261352539,-0.15855129063129425,-0.9715172648429871,0.17611439526081085,0.20568564534187317,1.0335593223571777,0.04098796844482422
1.315259249567365,-2.426630190102817,2.2750127904087076,1.1817768812179565,-1.4067063331604004,1.0501868724822998,-0.1657106578350067,-0.9675276875495911,0.19086815416812897,0.21965043246746063,1.0465831756591797,0.061970144510269165
1.299964887618424,-2.4360891823322772,2.2699576924419222,0.9572578072547913,-1.4397504329681396,1.1325643062591553,-0.1734732687473297,-0.9635487794876099,0.2036692351102829,0.22642123699188232,1.0406360626220703,0.08351659774780273
1.2860480651377892,-2.4386240576260696,2.257753717987647,0.723788857460022,-1.3950039148330688,1.1685113906860352,-0.18160873651504517,-0.9597324132919312,0.21431902050971985,0.22022868692874908,1.033187985420227,0.09293225407600403
1.2738817452671491,-2.4355192478198755,2.2404397012402293,0.484587699174881,-1.2846828699111938,1.152282953262329,-0.18983542919158936,-0.9562437534332275,0.2226223349571228,0.20796284079551697,1.02742600440979,0.09224294126033783
1.263724019900401,-2.428180070249322,2.2200196421419096,0.2649703919887543,-1.1379538774490356,1.0791510343551636,-0.19781093299388885,-0.9532226324081421,0.22855634987354279,0.18577170372009277,1.0210020542144775,0.08011388778686523
1.2558119279913766,-2.418412655964005,2.198668830661169,0.07012857496738434,-0.9663587808609009,0.9297102689743042,-0.2050182819366455,-0.9508011937141418,0.2322600930929184,0.14337274432182312,1.0126755237579346,0.04975305497646332
1.2503636975782573,-2.408245243099263,2.1786646933675207,-0.08113311231136322,-0.7939540147781372,0.7188501954078674,-0.2108338326215744,-0.9490992426872253,0.23400917649269104,0.09715577960014343,0.9984764456748962,0.007812410593032837
1.247153902174497,-2.399266112840425,2.1617793286026457,-0.14992375671863556,-0.6090596914291382,0.5027563571929932,-0.21498462557792664,-0.9480833411216736,0.23435017466545105,0.060275718569755554,0.9803555607795715,-0.051946401596069336
1.2454285224202704,-2.392787994929109,2.149367641027863,-0.1226644366979599,-0.44943755865097046,0.31230124831199646,-0.21761123836040497,-0.9475331902503967,0.23415015637874603,0.04900158941745758,0.9675984978675842,-0.12215043604373932
1.2444691482464045,-2.3895764737741643,2.1420233141667775,-0.05683816969394684,-0.2931597828865051,0.16820204257965088,-0.21898332238197327,-0.9472261071205139,0.23411424458026886,0.05887278914451599,0.9572814702987671,-0.17404016852378845
1.2438921009076802,-2.3886314968603295,2.1386828910894673,-0.006268734112381935,-0.15257605910301208,0.06573531776666641,-0.2195783257484436,-0.9470409750938416,0.23430614173412323,0.09352540969848633,0.9657174944877625,-0.18999430537223816
1.2436400520017714,-2.3890422525067625,2.137810429172304,-0.004130299668759108,-0.10771331191062927,0.011928217485547066,-0.21964457631111145,-0.9469600319862366,0.23456987738609314,0.13007546961307526,0.9814754128456116,-0.1696591079235077
1.2439015853690392,-2.38989829155442,2.137356818807866,-0.05884041264653206,-0.15898261964321136,-0.0247602891176939,-0.2192748486995697,-0.9470440149307251,0.23457717895507812,0.14928275346755981,0.9806132912635803,-0.14221550524234772
1.2449429540461712,-2.390447969568826,2.135901404644213,-0.1621495932340622,-0.2219543159008026,-0.04759495332837105,-0.21847234666347504,-0.9473779201507568,0.233976349234581,0.14439092576503754,0.9526575207710266,-0.11948947608470917
1.2469819018853556,-2.389574346456486,2.1324451283874755,-0.28780314326286316,-0.25487738847732544,-0.06659900397062302,-0.2173575460910797,-0.9480286240577698,0.2323751300573349,0.13708096742630005,0.9212948679924011,-0.10371273756027222
1.2501166662125809,-2.386309703837021,2.126073292298483,-0.4540541470050812,-0.30232080817222595,-0.06279336661100388,-0.21607618033885956,-0.9490213990211487,0.22949883341789246,0.14175060391426086,0.8958444595336914,-0.08145774900913239
1.2545982328776912,-2.3786907127608248,2.1148551948256378,-0.6777402758598328,-0.29589033126831055,-0.04452408477663994,-0.2148776650428772,-0.9504244923591614,0.2247697412967682,0.17656278610229492,0.8630676865577698,-0.05144485831260681
1.2605155737660736,-2.3647999567561495,2.0977183819679937,-0.9097093939781189,-0.17443501949310303,-0.015598251484334469,-0.21403227746486664,-0.9522478580474854,0.2177480310201645,0.18934355676174164,0.8150866627693176,-0.051396533846855164
1.267925066078252,-2.3422163971169034,2.0730905054648887,-1.1926385164260864,0.005297458730638027,0.013437927700579166,-0.21383079886436462,-0.9544840455055237,0.2079349309206009,0.19085103273391724,0.7403420805931091,-0.03488481044769287
1.2771680925074735,-2.3079112593027933,2.0386160758688776,-1.5554977655410767,0.2747502028942108,0.024650869891047478,-0.21429561078548431,-0.9572000503540039,0.194540336728096,0.20918387174606323,0.6587380170822144,0.007623553276062012
1.2886157842054733,-2.2593673009692457,1.9920766509724186,-1.9568923711776733,0.49118688702583313,-0.019168782979249954,-0.21500751376152039,-0.9604505300521851,0.176937535405159,0.201152503490448,0.571824312210083,0.028949499130249023
1.3021532897237125,-2.1926559620773367,1.9283644952756118,-2.405442237854004,0.5587934255599976,-0.019974205642938614,-0.215735524892807,-0.9641319513320923,0.15462200343608856,0.16461855173110962,0.5029807686805725,0.05498825013637543
1.3166948899448778,-2.107301010463569,1.845269800229785,-2.7591397762298584,0.4378107488155365,-0.06135972961783409,-0.21605795621871948,-0.9678895473480225,0.12848713994026184,0.1382075995206833,0.4035736918449402,0.07108281552791595
1.3308426073388397,-2.0033444663554727,1.741845928734304,-2.9975879192352295,0.2919689118862152,-0.0751841738820076,-0.21577031910419464,-0.9713490009307861,0.09962304681539536,0.08460573852062225,0.3523455262184143,0.004869341850280762
1.3426360556971955,-1.8813846551093212,1.6186295987598545,-3.153421401977539,0.13147854804992676,-0.041109826415777206,-0.21536466479301453,-0.9740841388702393,0.06912695616483688,0.05829066038131714,0.2755519151687622,-0.09582972526550293
1.3506230946718152,-1.7432510396646999,1.4779416622336983,-3.2720508575439453,0.08073734492063522,-0.01850740611553192,-0.2151595503091812,-0.9758596420288086,0.03747755289077759,0.035121068358421326,0.16334432363510132,-0.17706477642059326
1.3542013885807136,-1.5932864787212289,1.3254358564064517,-3.3350253105163574,0.13954633474349976,-0.05088531970977783,-0.21485167741775513,-0.9766348600387573,0.004832861945033073,-0.01744815707206726,0.04088956117630005,-0.2521775960922241
1.3530800762137942,-1.4400849504693416,1.1704678775949973,-3.3029775619506836,0.22195333242416382,-0.08378111571073532,-0.21415796875953674,-0.9763932824134827,-0.028153402730822563,-0.07493507862091064,-0.10475301742553711,-0.34155160188674927
1.3474096238127509,-1.295275176718196,1.0244302027552041,-3.141771078109741,0.220089390873909,-0.09385718405246735,-0.2131781280040741,-0.9751527905464172,-0.06026787310838699,-0.10032898187637329,-0.26915574073791504,-0.4183849096298218
1.338132813455976,-1.1682587301624916,0.8958935704255001,-2.9314892292022705,0.13340987265110016,-0.08768009394407272,-0.21214112639427185,-0.9730557203292847,-0.09032706916332245,-0.11665529012680054,-0.4370853900909424,-0.46071338653564453
1.3263349937434006,-1.0605432213981245,0.7859693791310199,-2.7577474117279053,0.050107527524232864,-0.08735465258359909,-0.2112039476633072,-0.9702678322792053,-0.11820896714925766,-0.1468435525894165,-0.604637622833252,-0.4550788402557373
1.3128788340097561,-0.9678654673326006,0.6911043306368181,-2.645972490310669,0.14214637875556946,-0.1258922815322876,-0.21009330451488495,-0.9669232368469238,-0.144638329744339,-0.18420907855033875,-0.7712969779968262,-0.4120020866394043
1.298494943206563,-0.8849071321023793,0.6079411784512383,-2.5552284717559814,0.3952271044254303,-0.19236743450164795,-0.2081282138824463,-0.9631544947624207,-0.17034220695495605,-0.22264274954795837,-0.9383655190467834,-0.37500667572021484
1.2834982480648265,-0.8095821137665894,0.5343313396535134,-2.4534952640533447,0.48032259941101074,-0.24726714193820953,-0.20515403151512146,-0.9590129852294922,-0.195463627576828,-0.2509922385215759,-1.1067066192626953,-0.3248456120491028
1.2682590580866167,-0.7439692194964164,0.47036027033726985,-2.3041763305664062,0.38982093334198,-0.26258352398872375,-0.20177128911018372,-0.9545835852622986,-0.21922260522842407,-0.28644895553588867,-1.2732301950454712,-0.2767794132232666
1.2532799877053982,-0.6886997623963886,0.41617699996907115,-2.1062963008880615,0.3609977662563324,-0.266205370426178,-0.19841881096363068,-0.9500137567520142,-0.2410474568605423,-0.312277615070343,-1.443800449371338,-0.25013279914855957
1.2391414001090084,-0.641410424092325,0.3702283364233696,-1.9201139211654663,0.3811943829059601,-0.29807862639427185,-0.19482001662254333,-0.9455047845840454,-0.2608945965766907,-0.34509700536727905,-1.6146759986877441,-0.2414856255054474
1.2261297007258845,-0.5996463043642736,0.33006607038221386,-1.724979043006897,0.3942449390888214,-0.35871797800064087,-0.19068460166454315,-0.9411881566047668,-0.2789345681667328,-0.39111781120300293,-1.778340220451355,-0.240031898021698
1.214816398036915,-0.5624374545719909,0.29484892591420436,-1.4667141437530518,0.4283360540866852,-0.41476207971572876,-0.18584245443344116,-0.9373054504394531,-0.29482409358024597,-0.4351750314235687,-1.9177666902542114,-0.2697814404964447
1.2060102021427237,-0.5303759812145957,0.2652828296435645,-1.0932599306106567,0.44207054376602173,-0.4422682225704193,-0.18046455085277557,-0.9342001080513,-0.3077382743358612,-0.445786714553833,-2.0198404788970947,-0.3336646854877472
1.200853992341382,-0.5057541772227271,0.2434162367391817,-0.5581129193305969,0.38605839014053345,-0.39790183305740356,-0.17516489326953888,-0.9323481917381287,-0.3162976801395416,-0.4385588765144348,-2.0862982273101807,-0.42080849409103394
1.200274247028381,-0.4916131190860827,0.23168406203305006,0.055457424372434616,0.24040980637073517,-0.2871600091457367,-0.1709299236536026,-0.9321384429931641,-0.31921952962875366,-0.406950980424881,-2.096212387084961,-0.5077609419822693
1.2046008957969094,-0.48974771752045504,0.2311174606896377,0.6904106736183167,0.020134147256612778,-0.14982986450195312,-0.16843554377555847,-0.9336963891983032,-0.3159761130809784,-0.3656526207923889,-2.030949115753174,-0.5681637525558472
1.2139702122028135,-0.5017239492966151,0.2430703871194704,1.3546704053878784,-0.1668248027563095,0.0005051451735198498,-0.16799263656139374,-0.9370101690292358,-0.3062524199485779,-0.32817745208740234,-1.8923814296722412,-0.6219242811203003
1.2281460758771583,-0.5279705018665896,0.26853053598545823,1.9458316564559937,-0.2862926125526428,0.1157238781452179,-0.1692628562450409,-0.9418675303459167,-0.29023420810699463,-0.300387442111969,-1.718578815460205,-0.649401843547821
1.246192269918204,-0.5674446212350074,0.30697933570812025,2.4154844284057617,-0.332798570394516,0.13754476606845856,-0.17142029106616974,-0.9477770924568176,-0.2689497470855713,-0.29903873801231384,-1.5650709867477417,-0.6188827157020569
1.267109632891294,-0.6179416253643172,0.3565504899273597,2.722736120223999,-0.32780835032463074,0.05362217128276825,-0.17325164377689362,-0.9542405009269714,-0.24373966455459595,-0.3261990547180176,-1.4045089483261108,-0.550739586353302
1.2896577279629398,-0.6760884291516878,0.4141237171727297,2.8340671062469482,-0.2667537331581116,-0.13283032178878784,-0.17361338436603546,-0.9607401490211487,-0.21641826629638672,-0.34632986783981323,-1.260146141052246,-0.45147401094436646
1.3128447268711239,-0.738630193388127,0.4767643609131465,2.8263731002807617,-0.1582760065793991,-0.33827775716781616,-0.17175300419330597,-0.9669145345687866,-0.18861918151378632,-0.3384398818016052,-1.1331373453140259,-0.3470556437969208
1.3359885962395261,-0.8053086055172197,0.5447224129133209,2.779353618621826,0.010313811711966991,-0.5042871236801147,-0.16775600612163544,-0.9725590944290161,-0.16120536625385284,-0.28173744678497314,-0.984960675239563,-0.2913854122161865
1.3585829533384817,-0.8778151910461187,0.6203139112099575,2.703105926513672,0.23619888722896576,-0.616870641708374,-0.16204343736171722,-0.9775671362876892,-0.1345544457435608,-0.19345586001873016,-0.8450038433074951,-0.2813694477081299
1.3798701948374335,-0.9586838639419678,0.7065813941942084,2.606260061264038,0.49780383706092834,-0.6569027304649353,-0.15531358122825623,-0.9818289279937744,-0.10904067754745483,-0.09422869980335236,-0.7290018796920776,-0.28889310359954834
1.3991624275107812,-1.051811393570334,0.807507786196662,2.5110971927642822,0.720067024230957,-0.6341246962547302,-0.14830313622951508,-0.9853070378303528,-0.08471294492483139,0.002017110586166382,-0.599074125289917,-0.3174780011177063
1.4155027491008663,-1.1621759093276356,0.9274247196838113,2.428658962249756,0.8518321514129639,-0.5251020193099976,-0.1419365108013153,-0.9879661798477173,-0.061457373201847076,0.09216232597827911,-0.4547218680381775,-0.3645983338356018
1.4278959580710873,-1.2975755535488422,1.0730322918970345,2.4677610397338867,0.8447281718254089,-0.3502963185310364,-0.13713359832763672,-0.98980712890625,-0.03842876851558685,0.16888709366321564,-0.3176730275154114,-0.4389727711677551
1.4351973100548152,-1.4648304512141095,1.2499035493048023,2.6159868240356445,0.7245631217956543,-0.15107755362987518,-0.134426549077034,-0.9908205270767212,-0.014298183843493462,0.22146263718605042,-0.19049978256225586,-0.5203085541725159
1.4359596335569538,-1.6578600274048068,1.4511068823166722,2.7811989784240723,0.5371444821357727,0.04886806011199951,-0.13391977548599243,-0.990923285484314,0.011689101345837116,0.25643259286880493,-0.050153374671936035,-0.5726020336151123
1.4291594390875888,-1.8538727421152996,1.6532366537180536,2.9071903228759766,0.295211523771286,0.2612687349319458,-0.13554592430591583,-0.9899862408638,0.039428696036338806,0.27250880002975464,0.09722501039505005,-0.5806272029876709
1.414961944570698,-2.02794543143933,1.8309180589434182,2.9937312602996826,0.03493867069482803,0.46830129623413086,-0.13926729559898376,-0.9878823757171631,0.06850600987672806,0.2844088673591614,0.22147917747497559,-0.5390410423278809
1.3948308264370788,-2.1682972800558136,1.9724107711793737,3.0301568508148193,-0.1786838322877884,0.6443554162979126,-0.1447288691997528,-0.9845579862594604,0.09848427772521973,0.2886344790458679,0.32574450969696045,-0.4725685119628906
1.3710195076263085,-2.2740878806456157,2.0776226434343354,2.9410266876220703,-0.29091718792915344,0.7457393407821655,-0.15136227011680603,-0.9801108837127686,0.12834472954273224,0.28020745515823364,0.4307028651237488,-0.39886748790740967
1.3461243173568243,-2.3503000036884485,2.1525154110005063,2.706677198410034,-0.29228177666664124,0.7851250767707825,-0.15846000611782074,-0.9748672246932983,0.15660284459590912,0.25300344824790955,0.5311874151229858,-0.3170182704925537
1.3222388432719139,-2.402644083027553,2.203519396829973,2.3696625232696533,-0.2493113875389099,0.7869775891304016,-0.1656883955001831,-0.9692683219909668,0.18184269964694977,0.22420582175254822,0.6176446676254272,-0.23910868167877197
1.3007093764153237,-2.4376119844256268,2.237736248409958,2.0104331970214844,-0.11169601231813431,0.7244681119918823,-0.1726987361907959,-0.9637476801872253,0.20338648557662964,0.20300263166427612,0.6813836097717285,-0.16859623789787292
1.2821800851421141,-2.4607310491074847,2.261752683847225,1.6828335523605347,0.11486868560314178,0.6137551665306091,-0.17916184663772583,-0.9586386680603027,0.22116360068321228,0.17421796917915344,0.7416585683822632,-0.13452398777008057
1.266575456895963,-2.4756102362386048,2.2797616188617718,1.4129536151885986,0.34245336055755615,0.5043426156044006,-0.18507175147533417,-0.9540806412696838,0.23553946614265442,0.15286041796207428,0.8040562272071838,-0.13089445233345032
1.2533811353828095,-2.4856177023583674,2.2947890129673203,1.2371684312820435,0.505272626876831,0.3914905786514282,-0.19036713242530823,-0.9500453472137451,0.247334286570549,0.14015045762062073,0.8561580777168274,-0.13583819568157196
1.2418101985892873,-2.493132072758892,2.3085975954719937,1.128422498703003,0.6029965281486511,0.3164233863353729,-0.19513005018234253,-0.9463704228401184,0.25750285387039185,0.13050906360149384,0.8920795321464539,-0.15349867939949036
1.2313510061586144,-2.4987021552540805,2.321459469754962,1.0523724555969238,0.7061700224876404,0.269118994474411,-0.1996159702539444,-0.9429395198822021,0.26649346947669983,0.1400914043188095,0.9137188792228699,-0.15519574284553528
1.2214374598402284,-2.5031012248717817,2.3339269209803364,1.0452513694763184,0.7472237944602966,0.2426253706216812,-0.204003244638443,-0.9395923614501953,0.27486228942871094,0.1553276628255844,0.937654435634613,-0.17148375511169434
1.2113819917302944,-2.5076895370555,2.3466850356471167,1.095044493675232,0.7121454477310181,0.241018146276474,-0.20832590758800507,-0.9361029863357544,0.2833942472934723,0.1578650027513504,0.9688479900360107,-0.20046240091323853
1.200795340446715,-2.5133680299863648,2.359815309769981,1.155086636543274,0.5906820297241211,0.2519034445285797,-0.21252557635307312,-0.9323269724845886,0.2925741374492645,0.15956228971481323,0.9997097253799438,-0.2070026695728302
1.1897125451706327,-2.519902519810173,2.3724834143268163,1.1735540628433228,0.4534352421760559,0.29371321201324463,-0.21661438047885895,-0.9282621145248413,0.30233830213546753,0.16548210382461548,1.0226680040359497,-0.18786653876304626
1.1782460681798317,-2.5261882483375047,2.3832352605939517,1.1542940139770508,0.2636762857437134,0.37963056564331055,-0.220839723944664,-0.9239364862442017,0.3123644292354584,0.18514937162399292,1.0319228172302246,-0.149446040391922
1.166393986586171,-2.532087886624268,2.3909672845315297,1.1159071922302246,-0.023800507187843323,0.4893040657043457,-0.22524620592594147,-0.9193377494812012,0.32261818647384644,0.20009969174861908,1.0374712944030762,-0.102754145860672
1.1545170165696113,-2.537898633406776,2.3952670947992467,1.0138657093048096,-0.34614744782447815,0.5780500769615173,-0.22955037653446198,-0.9145997762680054,0.3328874409198761,0.19927692413330078,1.0578187704086304,-0.050294429063797
1.1433020328192172,-2.5429289463911458,2.3956458596771975,0.8370596766471863,-0.5737180113792419,0.6592884659767151,-0.2336389422416687,-0.9100074768066406,0.3424902856349945,0.2006799280643463,1.0626106262207031,-0.003973871469497681
1.1333904150765608,-2.5458795678319563,2.391866963257208,0.6192005276679993,-0.6841193437576294,0.7064232230186462,-0.23767690360546112,-0.9058535695075989,0.3506273925304413,0.20584702491760254,1.0445406436920166,0.02753150463104248
1.125087637790852,-2.546644688518698,2.385099696256086,0.4353899657726288,-0.6788590550422668,0.692313015460968,-0.2416156679391861,-0.9023053646087646,0.35702580213546753,0.19916567206382751,1.0315929651260376,0.03582727909088135
1.1182388357899329,-2.5454927083277727,2.3767102917126417,0.28561052680015564,-0.5880548357963562,0.6795912981033325,-0.24549052119255066,-0.8993317484855652,0.3618527352809906,0.1925424337387085,1.0236907005310059,0.022409588098526
1.1127373023450098,-2.541369860655049,2.3663156343441893,0.10719311237335205,-0.45088714361190796,0.6885160803794861,-0.2497711181640625,-0.8969125151634216,0.3649149537086487,0.21086111664772034,1.0067908763885498,0.017241746187210083
1.1087282419385505,-2.5338979379192095,2.353637686103533,-0.08342964947223663,-0.3264957070350647,0.688611626625061,-0.2545416057109833,-0.8951324820518494,0.36598730087280273,0.224313884973526,0.9967101812362671,0.04500842094421387
1.106224118395901,-2.5237112787517235,2.3389570973300287,-0.2583378255367279,-0.26609230041503906,0.670680046081543,-0.2595542073249817,-0.8940132856369019,0.36520129442214966,0.2230398952960968,0.9916238188743591,0.07530495524406433
1.1050701112699304,-2.511584251467925,2.322696548231463,-0.39936137199401855,-0.20885561406612396,0.6479614973068237,-0.26457148790359497,-0.8934956789016724,0.3628603518009186,0.21749809384346008,0.9785939455032349,0.09018859267234802
1.104975036748824,-2.4973817902502136,2.3048853384918497,-0.5348910093307495,-0.12724997103214264,0.6443930864334106,-0.2697494328022003,-0.8934530019760132,0.35913461446762085,0.22382041811943054,0.9647418260574341,0.09864452481269836
1.1058900481017226,-2.480496069169323,2.2851076366716097,-0.6872014999389648,-0.03627023845911026,0.6512784361839294,-0.2752724587917328,-0.8938635587692261,0.35388273000717163,0.2388039231300354,0.9694709181785583,0.11541673541069031
1.1079597783200696,-2.460801178202252,2.262875474340115,-0.8690157532691956,-0.011433864012360573,0.6363287568092346,-0.28102365136146545,-0.8947896361351013,0.3469550907611847,0.24556216597557068,0.9865557551383972,0.13948014378547668
1.111588504167586,-2.439026032821184,2.238415039468693,-1.07472562789917,-0.011988886632025242,0.5703137516975403,-0.28641119599342346,-0.8964039087295532,0.33827346563339233,0.2152441442012787,0.996486246585846,0.161757230758667
1.1171622563960741,-2.4148950607478925,2.211584010842039,-1.3143078088760376,0.028526846319437027,0.4794387221336365,-0.29116588830947876,-0.8988604545593262,0.32752516865730286,0.17281866073608398,1.0036578178405762,0.18578076362609863
1.1251492906010974,-2.3870314846484386,2.1814681106522116,-1.629791498184204,0.12449496239423752,0.37017014622688293,-0.2952507436275482,-0.9023319482803345,0.31404557824134827,0.16390305757522583,1.00221586227417,0.21770823001861572
1.1357816555326188,-2.3538149942935847,2.146726064558401,-1.9387767314910889,0.22265134751796722,0.2678898572921753,-0.29870036244392395,-0.9068638682365417,0.29728221893310547,0.16143223643302917,1.0027499198913574,0.21967056393623352
1.1485505619995684,-2.316052712302371,2.107834323313707,-2.135228395462036,0.24440161883831024,0.11790146678686142,-0.3011752963066101,-0.9121708869934082,0.2779169976711273,0.11953464150428772,0.9951939582824707,0.156684011220932
1.1629411559121943,-2.2763023019750057,2.066953097129733,-2.2129814624786377,0.2229040563106537,-0.09392716735601425,-0.3019569218158722,-0.9179736375808716,0.25719016790390015,0.05517646670341492,0.9811754822731018,0.05669867992401123
1.178684832477694,-2.236589467695429,2.0261703900609174,-2.2112138271331787,0.1977292150259018,-0.3319079577922821,-0.30052608251571655,-0.9241042137145996,0.2360420674085617,-0.010463356971740723,0.9638685584068298,-0.06105399131774902
1.1954634508895954,-2.1982614355563777,1.986229163457844,-2.182857036590576,0.04025490581989288,-0.5295358300209045,-0.2967555820941925,-0.9303856492042542,0.21521884202957153,-0.06986740231513977,0.9449118971824646,-0.17257022857666016
1.2127782989436513,-2.1608355422060717,1.9460160862748384,-2.146812677383423,-0.041088446974754333,-0.6460368633270264,-0.29117000102996826,-0.9365931749343872,0.19497105479240417,-0.06753367185592651,0.9180231094360352,-0.25351881980895996
1.2298953728594595,-2.1219054197843175,1.904788619162322,-2.0537350177764893,0.10184207558631897,-0.6977999210357666,-0.284836083650589,-0.9424538016319275,0.17506945133209229,-0.005538672208786011,0.861383855342865,-0.3278096914291382
1.2461418960310249,-2.0798652014146892,1.862517823700338,-1.9688602685928345,0.3076312243938446,-0.6957899332046509,-0.27853429317474365,-0.9477609992027283,0.15546026825904846,0.07208284735679626,0.7154917120933533,-0.354007363319397
1.2613583313161731,-2.032065326124689,1.8161687405263338,-2.0129759311676025,0.43202826380729675,-0.6392960548400879,-0.2726978659629822,-0.9525048732757568,0.13553909957408905,0.1691364049911499,0.5378317832946777,-0.2851361036300659
1.2755412609457324,-1.9725660153874236,1.758807103712124,-2.308983325958252,0.49917587637901306,-0.4945209324359894,-0.26781338453292847,-0.9567279815673828,0.11378876864910126,0.2073122262954712,0.41014277935028076,-0.17728042602539062
1.2884710507238346,-1.891883462844144,1.6793278179912507,-2.833695650100708,0.35607701539993286,-0.3225694000720978,-0.2643522024154663,-0.9604102373123169,0.0879225805401802,0.21080905199050903,0.29991817474365234,-0.03996396064758301
1.298938394623886,-1.7873588425097764,1.5721595927313916,-3.333221912384033,-0.09245440363883972,-0.13021636009216309,-0.2622498869895935,-0.9632736444473267,0.057698335498571396,0.17112436890602112,0.1571516990661621,0.06444847583770752
1.3044854528745258,-1.6644547423581624,1.4416371625085058,-3.64219331741333,-0.4505568742752075,0.10508724302053452,-0.26202157139778137,-0.9647483229637146,0.024612532928586006,0.1395544707775116,0.036204993724823,0.01649487391114235
1.3035884317021307,-1.5321378860260482,1.2994461618578033,-3.8089027404785156,-0.4842856228351593,0.2605983018875122,-0.2638428211212158,-0.9645118713378906,-0.01020483672618866,0.11723631620407104,-0.09737789630889893,-0.13002318143844604
1.2966604333794531,-1.3980519778431457,1.156359511307737,-3.903853416442871,-0.25492727756500244,0.2886539101600647,-0.26668623089790344,-0.962659478187561,-0.04653231427073479,0.04253461956977844,-0.27159345149993896,-0.2581092119216919
1.2847682123256405,-1.268524215224408,1.0204736019985112,-3.9222278594970703,0.04603343456983566,0.24795536696910858,-0.26935261487960815,-0.9593721032142639,-0.08399155735969543,-0.03722700476646423,-0.45876461267471313,-0.3535388112068176
1.2686641154079281,-1.147923143026043,0.8964747142660013,-3.907031774520874,0.31223875284194946,0.20979945361614227,-0.27134624123573303,-0.954704225063324,-0.12211209535598755,-0.08966147899627686,-0.5995408892631531,-0.4235725402832031
1.2490936680186295,-1.0405339796723805,0.7872120571022306,-3.811005115509033,0.32969149947166443,0.1893344521522522,-0.2727631628513336,-0.9486984610557556,-0.15991272032260895,-0.13643184304237366,-0.7437151670455933,-0.4751579165458679
1.2271451018004131,-0.9491404029538048,0.6936002982709544,-3.676238775253296,0.25810253620147705,0.15126803517341614,-0.273893266916275,-0.9415307641029358,-0.19622038304805756,-0.19867148995399475,-0.9321876168251038,-0.4999616742134094
1.2040940756316232,-0.8703380370348561,0.6127479390958716,-3.572247266769409,0.3760014772415161,0.019136901944875717,-0.2741202414035797,-0.9335147738456726,-0.23110313713550568,-0.29686373472213745,-1.1429166793823242,-0.5173097848892212
1.1811586314707718,-0.7978027657291877,0.5402552578017136,-3.4367220401763916,0.6482583284378052,-0.22605209052562714,-0.2719081938266754,-0.9250467419624329,-0.2652446925640106,-0.413394570350647,-1.3664114475250244,-0.5605303049087524
1.1595865253373636,-0.730217097414334,0.4746832790264887,-3.173917055130005,0.7626208066940308,-0.4762111306190491,-0.26662516593933105,-0.9166378974914551,-0.29780253767967224,-0.5093454122543335,-1.610492467880249,-0.6308624744415283
1.1404025680378307,-0.6692817324572369,0.4163228551636018,-2.806647777557373,0.7670353055000305,-0.6868274807929993,-0.25885841250419617,-0.9088015556335449,-0.327219158411026,-0.5698617696762085,-1.8405425548553467,-0.7192742824554443
1.1241210596612687,-0.6150677724713878,0.3652077737099917,-2.372810125350952,0.8116021752357483,-0.8240513801574707,-0.2492523044347763,-0.9018882513046265,-0.3528042137622833,-0.5962677001953125,-2.0106635093688965,-0.8166444301605225
1.1114423376417812,-0.5681585950372866,0.32198887483577165,-1.810059905052185,0.77866131067276,-0.8854170441627502,-0.23856864869594574,-0.8963391184806824,-0.3737131655216217,-0.5781581401824951,-2.1184468269348145,-0.9176228046417236
1.1034521001317297,-0.530881453512119,0.2883878069772917,-1.0919915437698364,0.6552017331123352,-0.813737690448761,-0.22809404134750366,-0.8927679061889648,-0.3885085880756378,-0.5396672487258911,-2.1809170246124268,-0.9895278215408325
1.101250867904076,-0.5064491271398964,0.2672904088356481,-0.2190476357936859,0.4468706548213959,-0.6043128371238708,-0.21948738396167755,-0.89177405834198,-0.39568233489990234,-0.47394829988479614,-2.205012559890747,-1.035744547843933
1.1055945411954453,-0.4975355580534748,0.2606885001378053,0.6906341314315796,0.15157026052474976,-0.3307945430278778,-0.21410110592842102,-0.8937310576438904,-0.3942154347896576,-0.41919973492622375,-2.1612465381622314,-1.058955192565918
1.1165737328402678,-0.5047105861057053,0.2689745045132892,1.573042392730713,-0.09122826904058456,-0.08444308489561081,-0.21216614544391632,-0.8986024260520935,-0.3840564489364624,-0.3837658762931824,-2.0025055408477783,-1.0542062520980835
1.1336483495566831,-0.5272465157845685,0.2919361890872385,2.3356921672821045,-0.26743394136428833,0.11003787815570831,-0.21301472187042236,-0.9059627652168274,-0.36586374044418335,-0.37486064434051514,-1.7823917865753174,-0.9910391569137573
1.1552165876972076,-0.5638852999324399,0.32839643895220133,2.8729190826416016,-0.4054695665836334,0.2158133089542389,-0.21577809751033783,-0.9148824214935303,-0.3412184417247772,-0.38230541348457336,-1.5948221683502197,-0.8378738164901733
1.1795381474300453,-0.6123227009397786,0.3761864560856935,3.2069413661956787,-0.47464224696159363,0.19092118740081787,-0.21918946504592896,-0.9244299530982971,-0.312065988779068,-0.40231627225875854,-1.4017419815063477,-0.6533573865890503
1.2050473312247099,-0.6686840765613759,0.4318594614775276,3.291644334793091,-0.4378727972507477,0.04535067826509476,-0.22172589600086212,-0.9338561296463013,-0.28062501549720764,-0.4359431862831116,-1.2078981399536133,-0.48156657814979553
1.2304474108181185,-0.7277103661782887,0.4908179233324847,3.1770823001861572,-0.2840867042541504,-0.19485989212989807,-0.22204166650772095,-0.9426382780075073,-0.24926023185253143,-0.45644038915634155,-1.0620920658111572,-0.32237961888313293
1.2551899116209342,-0.7845951898834739,0.5491823102700014,2.9786412715911865,-0.031765762716531754,-0.46223941445350647,-0.21930484473705292,-0.9506083130836487,-0.2196573168039322,-0.44405579566955566,-0.9202260971069336,-0.22493784129619598
1.2793944967158706,-0.83755674907654,0.6058939882797535,2.8034090995788574,0.2579196095466614,-0.700568437576294,-0.21346372365951538,-0.9578420519828796,-0.19228142499923706,-0.3954993486404419,-0.7561779022216797,-0.2118474543094635
1.3034438488518965,-0.8893714219811197,0.6636543857287132,2.7391605377197266,0.46467918157577515,-0.8680200576782227,-0.2051815241575241,-0.9644737243652344,-0.16640648245811462,-0.3227421045303345,-0.6013069748878479,-0.25354570150375366
1.3274304992838952,-0.9467480503364596,0.7283085735046374,2.7554879188537598,0.5556069016456604,-0.9391576647758484,-0.19555224478244781,-0.9705324172973633,-0.14080511033535004,-0.23459303379058838,-0.45466893911361694,-0.31341829895973206
1.350675241602682,-1.0173083724185181,0.8066718867234959,2.7989516258239746,0.571692943572998,-0.9118991494178772,-0.1857476681470871,-0.9758710265159607,-0.11477619409561157,-0.1300177425146103,-0.3109942078590393,-0.3563234806060791
1.3721340124321006,-1.108417844385894,0.9052125460959274,2.846177577972412,0.4601190388202667,-0.8306778073310852,-0.17663519084453583,-0.9803314805030823,-0.08803755789995193,-0.034927964210510254,-0.16563427448272705,-0.36855101585388184
1.3905125259649513,-1.2272630283136765,1.0296100675843052,2.8831748962402344,0.19543570280075073,-0.699562132358551,-0.16883303225040436,-0.9837928414344788,-0.060394495725631714,0.04001830518245697,-0.023226380348205566,-0.36929285526275635
1.404280012122156,-1.378015513136598,1.183270538225918,2.932583808898926,-0.06492101401090622,-0.5400624871253967,-0.16267810761928558,-0.9861681461334229,-0.031755588948726654,0.1004679799079895,0.09935778379440308,-0.37531816959381104
1.412019375537522,-1.5570748757621042,1.3631917933940896,2.994570255279541,-0.2159438282251358,-0.3975554406642914,-0.15809594094753265,-0.9874213933944702,-0.0021694418974220753,0.14335592091083527,0.20781934261322021,-0.3852052092552185
1.413009832924812,-1.7499867880131734,1.5561297337058801,3.012117385864258,-0.24174433946609497,-0.30363956093788147,-0.15461687743663788,-0.987577497959137,0.028006264939904213,0.1562037616968155,0.31626707315444946,-0.38399362564086914
1.4076586971768161,-1.9348660510513624,1.7414267159064847,2.9382779598236084,-0.12867850065231323,-0.2598332166671753,-0.15177106857299805,-0.9867225289344788,0.05783332139253616,0.15474647283554077,0.41935473680496216,-0.35774457454681396
1.3975142351652141,-2.0954746979294097,1.9039156824037007,2.8202359676361084,0.04581339657306671,-0.24962764978408813,-0.14922401309013367,-0.9850242137908936,0.08636946231126785,0.15493078529834747,0.5029074549674988,-0.32237696647644043
1.38407739313152,-2.229374244133712,2.040974329348277,2.727107524871826,0.1349446028470993,-0.26309314370155334,-0.1468128114938736,-0.9826186299324036,0.1136079803109169,0.1558002233505249,0.5719587802886963,-0.2912811040878296
1.3685667537880482,-2.3388140390971173,2.1543419729963356,2.581383228302002,0.23121176660060883,-0.2538485825061798,-0.1444728970527649,-0.979621171951294,0.13953618705272675,0.1523769050836563,0.6370612382888794,-0.25016212463378906
1.3522566763499302,-2.4245724387622047,2.244911507662539,2.3640196323394775,0.32052168250083923,-0.24897180497646332,-0.1424712836742401,-0.976215124130249,0.163420170545578,0.16351313889026642,0.7082402110099792,-0.19975115358829498
1.336352108868047,-2.4922599483106116,2.3177696741211506,2.1565561294555664,0.3227046728134155,-0.28011152148246765,-0.1404629945755005,-0.9726436138153076,0.18502618372440338,0.1525937169790268,0.7736079096794128,-0.15911664068698883
1.3210867136945457,-2.547834020468025,2.3777626305729487,1.9939700365066528,0.19278129935264587,-0.26969295740127563,-0.138260617852211,-0.9689842462539673,0.20482657849788666,0.12431403994560242,0.8146719932556152,-0.13982391357421875
1.3059687384912577,-2.5947736593020974,2.4271159705798038,1.9058072566986084,-0.040895409882068634,-0.2057291865348816,-0.1360994279384613,-0.9651376605033875,0.22357675433158875,0.13349014520645142,0.8445931077003479,-0.14395618438720703
1.2903580268106771,-2.63564155294899,2.4680497652226325,1.8921180963516235,-0.23465076088905334,-0.12886637449264526,-0.13413745164871216,-0.9609342217445374,0.24210135638713837,0.15174604952335358,0.887508749961853,-0.1756490170955658
1.2739510121194095,-2.671303630891903,2.5021756648387568,1.907793641090393,-0.3448225259780884,-0.05143432691693306,-0.13254709541797638,-0.9562640190124512,0.26075032353401184,0.15728157758712769,0.9360613226890564,-0.22356441617012024
1.2566083684823386,-2.702802977392888,2.5310504219675094,1.96433687210083,-0.44120845198631287,0.012613632716238499,-0.13129577040672302,-0.9510476589202881,0.2797676920890808,0.16069942712783813,0.9674508571624756,-0.2570623457431793
1.2381838726876218,-2.7312587414445035,2.555928920449862,2.0239081382751465,-0.5239567756652832,0.06318150460720062,-0.13025154173374176,-0.9451925754547119,0.2994093596935272,0.15475711226463318,0.9846516847610474,-0.267106294631958
1.2191080275468287,-2.7565070129344997,2.5769044654777025,2.016183376312256,-0.5634818077087402,0.11502446234226227,-0.12940147519111633,-0.9387924671173096,0.3192561864852905,0.15515825152397156,1.012476921081543,-0.24993523955345154
1.200196703070867,-2.7779015770344544,2.5937709309727364,1.9151612520217896,-0.5512206554412842,0.15778358280658722,-0.12883500754833221,-0.9321103692054749,0.3384847640991211,0.16905717551708221,1.0374418497085571,-0.20597726106643677
1.1823819287542792,-2.795209812170643,2.606522857726307,1.7323414087295532,-0.5445361137390137,0.193401500582695,-0.1285753697156906,-0.9255107045173645,0.3562288284301758,0.17584703862667084,1.0574380159378052,-0.1540190875530243
1.166523650981659,-2.8089734503607486,2.6154203030990546,1.4658339023590088,-0.5590106844902039,0.210491344332695,-0.12843692302703857,-0.9193887114524841,0.37179169058799744,0.1680639535188675,1.0696723461151123,-0.09397456049919128
1.1534971606588909,-2.8193837839523566,2.6208923671977735,1.1247656345367432,-0.5022986531257629,0.2073000818490982,-0.12834110856056213,-0.9141868948936462,0.3844359219074249,0.16307009756565094,1.074190616607666,-0.03977018594741821
1.1439159063301803,-2.8265330428875837,2.623731142622819,0.7637939453125,-0.4047926068305969,0.1685548722743988,-0.1282978504896164,-0.9102618098258972,0.39365386962890625,0.1588917225599289,1.0730425119400024,-0.006934911012649536
1.1378192118372221,-2.831042629004184,2.6248399032258267,0.4234981834888458,-0.29025962948799133,0.11565198004245758,-0.12821482121944427,-0.9077206254005432,0.3995051980018616,0.14875313639640808,1.0643672943115234,-0.0014796555042266846
1.1350093149532507,-2.833283399843753,2.6248761108679126,0.11436210572719574,-0.14259272813796997,0.05236424133181572,-0.128092959523201,-0.9065381288528442,0.40222081542015076,0.1466781198978424,1.0634745359420776,-0.012389004230499268
1.135184691896229,-2.8333253226951793,2.624266068785658,-0.15695860981941223,0.02445724606513977,-0.013370564207434654,-0.1280277818441391,-0.9066120982170105,0.4020744264125824,0.1482303887605667,1.0696521997451782,-0.03157544136047363
1.1379455797514508,-2.831499251033522,2.6232548081176335,-0.38735345005989075,0.14942499995231628,-0.07210828363895416,-0.12799736857414246,-0.9077736735343933,0.39945438504219055,0.14804740250110626,1.071683645248413,-0.05651301145553589
1.14283606363125,-2.8282967126089433,2.621730137461207,-0.5722995400428772,0.20827420055866241,-0.10012286901473999,-0.12790648639202118,-0.909814178943634,0.3948151469230652,0.1446605771780014,1.0727319717407227,-0.07700470089912415
1.1493005987941884,-2.823710385426686,2.619186024499762,-0.7132757902145386,0.24468712508678436,-0.098124198615551,-0.12787477672100067,-0.9124780297279358,0.3886290192604065,0.1532958745956421,1.076601266860962,-0.09570580720901489
1.156923200204377,-2.817411687368272,2.6150457140318526,-0.827186107635498,0.2510814070701599,-0.06081198528409004,-0.12810085713863373,-0.915570080280304,0.3812117278575897,0.17387717962265015,1.0844541788101196,-0.11201578378677368
1.1651486814244292,-2.8091969757766244,2.60866745344342,-0.8861633539199829,0.20896747708320618,0.014969762414693832,-0.12876589596271515,-0.9188470244407654,0.3730141222476959,0.17939455807209015,1.0910730361938477,-0.1383642554283142
1.173643627850051,-2.799308628601627,2.5995165825962085,-0.9508025646209717,0.07376305013895035,0.09712162613868713,-0.12982355058193207,-0.9221660494804382,0.3643568754196167,0.17514213919639587,1.089387059211731,-0.15360227227210999
1.1824239651469113,-2.7882875020134574,2.58758756317622,-1.0044629573822021,-0.07095924019813538,0.1673930436372757,-0.13102439045906067,-0.9255266189575195,0.35529282689094543,0.16030600666999817,1.0948841571807861,-0.1470254361629486
1.1915668965039927,-2.775068278873478,2.572018031325625,-1.1182172298431396,-0.16941604018211365,0.27425476908683777,-0.13267146050930023,-0.9289501905441284,0.34561556577682495,0.14046867191791534,1.0922801494598389,-0.15419375896453857
1.2016152819724573,-2.7585464389642165,2.5520697115956197,-1.2806135416030884,-0.2323889136314392,0.3388670086860657,-0.13486751914024353,-0.9326232075691223,0.3347010612487793,0.13228876888751984,1.07546067237854,-0.14312675595283508
1.2129963452025119,-2.738082731095198,2.5281370762552027,-1.4663457870483398,-0.11380607634782791,0.349298357963562,-0.13751156628131866,-0.9366695880889893,0.3220888674259186,0.09442070126533508,1.0476313829421997,-0.1387695074081421
1.2259653461962765,-2.712413997549791,2.5011374983563854,-1.6367547512054443,0.18711572885513306,0.2894747257232666,-0.1406659036874771,-0.9411326050758362,0.30738091468811035,0.07735715806484222,1.000870704650879,-0.15006256103515625
1.240267134163279,-2.6820872244212235,2.472605512979692,-1.7496190071105957,0.4795103073120117,0.19327683746814728,-0.14393678307533264,-0.9458707571029663,0.2908795475959778,0.05986084043979645,0.939446747303009,-0.17140308022499084
1.255977278012355,-2.6463877580418385,2.441198557975995,-1.9644473791122437,0.693200945854187,0.13391299545764923,-0.1471468210220337,-0.9508524537086487,0.2724474370479584,0.05608236789703369,0.8583689332008362,-0.15113979578018188
1.2738311184769742,-2.6022912837945276,2.4029698708276817,-2.270294189453125,0.7906939387321472,0.09558610618114471,-0.1502712219953537,-0.9562289118766785,0.2510879635810852,0.08006550371646881,0.7710176706314087,-0.09698918461799622
1.2939926296997297,-2.5486946796176015,2.354609731677377,-2.6162445545196533,0.62729811668396,0.06780899316072464,-0.15270179510116577,-0.9619338512420654,0.22664090991020203,0.05339755117893219,0.6758008003234863,-0.060670703649520874
1.3165705198717963,-2.4798898433615206,2.28895381817049,-3.036190986633301,0.4651243984699249,0.05915851145982742,-0.15453490614891052,-0.9678583145141602,0.1984175145626068,0.025826990604400635,0.5710076689720154,-0.0023266226053237915
1.3412258172351166,-2.389194165941662,2.1997089492841386,-3.4581382274627686,0.3593748211860657,-0.016313964501023293,-0.15551240742206573,-0.9737642407417297,0.16613036394119263,0.009012743830680847,0.43528151512145996,0.036567553877830505
1.3670268120765074,-2.266666044367373,2.07805154216083,-3.8629157543182373,0.3923783004283905,-0.14259281754493713,-0.15531274676322937,-0.9793107509613037,0.12972532212734222,-0.03920632600784302,0.29730385541915894,0.02797447144985199
1.3922806507305527,-2.0936120364660304,1.9065777110378443,-4.329380035400391,0.5458405613899231,-0.257111519575119,-0.1538495272397995,-0.9841083288192749,0.08866450935602188,-0.06020079553127289,0.12551146745681763,0.01569056510925293
1.4130674376442853,-1.84672997158764,1.6624018936113827,-4.734360218048096,0.6499204039573669,-0.3723347783088684,-0.15113520622253418,-0.9875865578651428,0.04279496893286705,-0.0492890328168869,-0.06194370985031128,-0.0003294907510280609
1.4229181272988378,-1.5275637423548343,1.3457173469914832,-4.974788665771484,0.5381246209144592,-0.4290958046913147,-0.1472037434577942,-0.9890859127044678,-0.006367966067045927,-0.055860280990600586,-0.24904298782348633,-0.07128381729125977
1.4163375865033132,-1.1925385711128649,1.0113760063329145,-5.045673847198486,0.35833755135536194,-0.38173413276672363,-0.14297081530094147,-0.9880949258804321,-0.0568157322704792,-0.030414849519729614,-0.4310183525085449,-0.1688004732131958
1.3943358001059265,-0.9182011373481813,0.7364284414566722,-4.908763885498047,0.257533460855484,-0.27407106757164,-0.13947394490242004,-0.9844712018966675,-0.10660098493099213,0.027596473693847656,-0.6074478626251221,-0.31228309869766235
1.3633225970619587,-0.7269582191709156,0.5437776603641311,-4.6210551261901855,0.15924763679504395,-0.19979549944400787,-0.13690020143985748,-0.9785544276237488,-0.15391479432582855,0.02943253517150879,-0.8523630499839783,-0.4643559455871582
1.329426291204751,-0.6000524697300811,0.41470189898337856,-4.19296932220459,0.054160114377737045,-0.16188493371009827,-0.13497866690158844,-0.9710114002227783,-0.1972755640745163,-0.031708359718322754,-1.1505248546600342,-0.5917409658432007
1.29698562062172,-0.5155466231606192,0.32759826664265695,-3.618826150894165,0.01143368799239397,-0.1757538765668869,-0.1333114355802536,-0.9627474546432495,-0.23525677621364594,-0.10739602148532867,-1.4103301763534546,-0.7278625965118408
1.268393082954008,-0.45610824710999226,0.2660075747347498,-3.0581417083740234,0.07877324521541595,-0.25896599888801575,-0.13117510080337524,-0.9546235203742981,-0.26737090945243835,-0.16864486038684845,-1.6501891613006592,-0.8247309923171997
1.2441576659998148,-0.4083638226554174,0.21758489180383905,-2.5846235752105713,0.2776013910770416,-0.4414178431034088,-0.12741684913635254,-0.9471262097358704,-0.2944778800010681,-0.23055438697338104,-1.896868109703064,-0.8316968679428101
1.224550047829373,-0.36417284702679165,0.17508503997116806,-2.0810961723327637,0.5303835868835449,-0.6717837452888489,-0.12087535858154297,-0.9406532049179077,-0.3171129822731018,-0.29202747344970703,-2.0982413291931152,-0.8113658428192139
1.2099298447327078,-0.3226083888091569,0.13731889364532546,-1.5282992124557495,0.6797032952308655,-0.7751237154006958,-0.11194276064634323,-0.9355912208557129,-0.33487045764923096,-0.29792362451553345,-2.213060140609741,-0.804030179977417
1.2004878384838058,-0.2874243206070124,0.10725163601305898,-0.9067607522010803,0.721947193145752,-0.6849802136421204,-0.10259345173835754,-0.9322157502174377,-0.34705689549446106,-0.22202205657958984,-2.270085334777832,-0.770832359790802
1.1963952542522684,-0.2616839011195694,0.08710987499867465,-0.27768823504447937,0.6594198942184448,-0.48724985122680664,-0.09461339563131332,-0.9307268261909485,-0.3532651960849762,-0.13564175367355347,-2.2994980812072754,-0.7236083745956421
1.1976172557946583,-0.24755081887400254,0.07825278534379294,0.35465532541275024,0.5062447190284729,-0.18667468428611755,-0.08933255821466446,-0.9311730265617371,-0.3534637987613678,-0.06755834072828293,-2.2260994911193848,-0.6970121264457703
1.2042158271657806,-0.2474454098532552,0.0827134614123778,0.9968129396438599,0.34796103835105896,0.1818879097700119,-0.08778845518827438,-0.933558464050293,-0.34750840067863464,0.006718471646308899,-2.063847780227661,-0.6803692579269409
1.2159437131356197,-0.262658308749344,0.10200712052759679,1.5969706773757935,0.21756738424301147,0.5368499159812927,-0.09021559357643127,-0.93769770860672,-0.3355361223220825,0.04338634014129639,-1.8704078197479248,-0.6496932506561279
1.2318755486106243,-0.29332651424990713,0.13610943485735466,2.065664529800415,0.05882619321346283,0.7979057431221008,-0.09612970799207687,-0.9431140422821045,-0.3182690441608429,0.02845694124698639,-1.662889003753662,-0.5739579796791077
1.2504508565176464,-0.33782064581532995,0.1828640620094166,2.3700084686279297,-0.10499309748411179,0.8976176381111145,-0.10436616092920303,-0.949126660823822,-0.2970968186855316,-0.04530733823776245,-1.4827277660369873,-0.45983046293258667
1.2702665872345664,-0.3923191282476275,0.23852641278342976,2.5064849853515625,-0.17926067113876343,0.8425729870796204,-0.11318051069974899,-0.9551798105239868,-0.2735358476638794,-0.1519104540348053,-1.3272604942321777,-0.3526693880558014
1.2901516317963548,-0.45222426246183706,0.2993245190530598,2.517456293106079,-0.14580683410167694,0.6920861601829529,-0.12102926522493362,-0.9608770608901978,-0.24913327395915985,-0.22398725152015686,-1.1819300651550293,-0.2626311182975769
1.3096428347236762,-0.5145399648183997,0.3628205217904589,2.4886069297790527,-0.07323862612247467,0.4993428885936737,-0.12706679105758667,-0.9660927653312683,-0.22476394474506378,-0.2537926137447357,-1.035936713218689,-0.1988808959722519
1.3285197549728178,-0.5767852841035173,0.42756611557887914,2.3842382431030273,0.20382384955883026,0.293123722076416,-0.1308327168226242,-0.9707943201065063,-0.20110057294368744,-0.23644638061523438,-0.8778539299964905,-0.16811615228652954
1.3466368988146413,-0.6339512334355148,0.4908350334021814,2.2412238121032715,0.6687268018722534,0.0453924797475338,-0.13166846334934235,-0.9749813079833984,-0.17909592390060425,-0.20188872516155243,-0.7464697360992432,-0.16498960554599762
1.3643759306809882,-0.6833618235955047,0.5500472021918449,2.0979185104370117,0.9770795702934265,-0.21052286028862,-0.1294112205505371,-0.9787708520889282,-0.15893560647964478,-0.19016888737678528,-0.6362804770469666,-0.1868741363286972
1.3819814215517037,-0.7281429988293165,0.60622319435805,2.008871078491211,1.0570886135101318,-0.37398502230644226,-0.12490852177143097,-0.9822273850440979,-0.14009812474250793,-0.16864009201526642,-0.5111351609230042,-0.23180411756038666
1.3994124279728724,-0.7772040409074276,0.6668018788890596,2.0189266204833984,1.041142463684082,-0.406709760427475,-0.11960265785455704,-0.985349714756012,-0.12157896906137466,-0.10293155908584595,-0.36648762226104736,-0.3173856735229492
1.416536839237725,-0.8427188086977979,0.7435120349544155,2.146028757095337,0.986148476600647,-0.35291123390197754,-0.11469226330518723,-0.9881255626678467,-0.10224372148513794,-0.005119785666465759,-0.22880876064300537,-0.41657018661499023
1.4332041256607788,-0.9395256784106123,0.8507122362999935,2.364036798477173,0.8453502655029297,-0.27150896191596985,-0.11072579026222229,-0.9905490875244141,-0.08094749599695206,0.05840335786342621,-0.10535252094268799,-0.4983217120170593
1.4483736640679994,-1.0857790322174943,1.0053795087994883,2.6222031116485596,0.5609287023544312,-0.17004013061523438,-0.10803429782390594,-0.9925156831741333,-0.05693459138274193,0.08867085725069046,0.01194000244140625,-0.536952555179596
1.459790993514674,-1.2966753448999868,1.2217423666890135,2.8566203117370605,0.24909840524196625,-0.0770120695233345,-0.10664348304271698,-0.9938452243804932,-0.029988130554556847,0.1009519100189209,0.12462812662124634,-0.5375317931175232
1.4644638977789501,-1.5627832851068968,1.4910641780481382,3.009323835372925,0.10830241441726685,-0.0240471214056015,-0.10613022744655609,-0.9943520426750183,-0.0008504441357217729,0.10490947961807251,0.23449474573135376,-0.5037575364112854
1.4604442928770884,-1.8397886849780298,1.7709985040739953,3.0413572788238525,0.17980000376701355,0.02592325210571289,-0.1061694547533989,-0.9939174056053162,0.029268117621541023,0.11122007668018341,0.33756041526794434,-0.46717989444732666
1.448565818353404,-2.0753997558045296,2.0113400391240335,2.974198341369629,0.46268975734710693,0.04973963648080826,-0.10673143714666367,-0.9925391674041748,0.058947231620550156,0.13328169286251068,0.40802061557769775,-0.41098248958587646
1.4316930997717057,-2.2532264520100695,2.1970611429874394,2.8941006660461426,0.7904804348945618,0.03421582654118538,-0.10760324448347092,-0.9903407096862793,0.08744792640209198,0.14065372943878174,0.47074830532073975,-0.3679804801940918
1.411933779683961,-2.3818870806945065,2.3360767473565023,2.789734363555908,0.9357452392578125,0.0618988536298275,-0.10895106941461563,-0.9874078631401062,0.11469846963882446,0.12210410088300705,0.5415917038917542,-0.33099162578582764
1.3905835265055515,-2.4738428644510213,2.4383197095384195,2.6735289096832275,0.7950019836425781,0.12383606284856796,-0.11098883301019669,-0.9838055968284607,0.14074194431304932,0.1213190108537674,0.6258648633956909,-0.2594856023788452
1.3686745270793996,-2.5407560860211835,2.513230883394498,2.5178823471069336,0.5306693911552429,0.1749866008758545,-0.11348997801542282,-0.9796428084373474,0.16559042036533356,0.10535700619220734,0.7053354978561401,-0.19328488409519196
1.3471902187368168,-2.590571828252439,2.568547536504194,2.3419506549835205,0.32989177107810974,0.19612835347652435,-0.11609801650047302,-0.9751041531562805,0.18892759084701538,0.07581476122140884,0.7731539607048035,-0.165993332862854
1.3264508308752516,-2.6299891879268,2.6116646466584115,2.240722417831421,0.17000916600227356,0.1797105073928833,-0.118439219892025,-0.9702958464622498,0.2109464704990387,0.040405742824077606,0.820759654045105,-0.1694728285074234
1.3060526945117388,-2.663663838270397,2.6472023523802246,2.1824252605438232,-0.024107621982693672,0.18820738792419434,-0.12034923583269119,-0.9651595950126648,0.2323428988456726,0.021380700170993805,0.8523361086845398,-0.18432320654392242
1.2857361351621805,-2.692193786521667,2.6757091567686633,2.1315550804138184,-0.18659134209156036,0.24648188054561615,-0.12216674536466599,-0.9596447348594666,0.2532930374145508,0.0473833829164505,0.877262532711029,-0.18467405438423157
1.2653225999069402,-2.715741992258625,2.697565612704495,2.0929336547851562,-0.33949270844459534,0.3315296769142151,-0.1242368221282959,-0.9537045955657959,0.2738856077194214,0.07673615217208862,0.9180140495300293,-0.1841636598110199
1.244994131183057,-2.7345502008123805,2.7130226084180764,1.987694263458252,-0.4686890244483948,0.43465954065322876,-0.12671399116516113,-0.9473942518234253,0.29391852021217346,0.09682196378707886,0.961386501789093,-0.17099344730377197
1.2255694001990884,-2.7479795267696026,2.7220779858040536,1.8023775815963745,-0.49329978227615356,0.5256079435348511,-0.12979011237621307,-0.9409986734390259,0.3125327229499817,0.1207873523235321,0.987842857837677,-0.1272449791431427
1.207719515823954,-2.756247554817897,2.725816032577916,1.5871467590332031,-0.4535720646381378,0.5799148678779602,-0.1334945261478424,-0.9348084926605225,0.32910916209220886,0.13302144408226013,0.9953551888465881,-0.09371146559715271
1.1916999273283544,-2.7607722227768705,2.726112139075827,1.3827801942825317,-0.396677166223526,0.5877659916877747,-0.13755272328853607,-0.9289994239807129,0.3435688614845276,0.11008687317371368,0.9914689064025879,-0.0793016254901886
1.1777112401591758,-2.7627936036928817,2.7243317662023294,1.1540263891220093,-0.33446332812309265,0.5706679821014404,-0.1416502445936203,-0.9237317442893982,0.3558864891529083,0.08389568328857422,0.9992168545722961,-0.06322276592254639
1.1661231087849226,-2.7625399002733575,2.7207332897121232,0.8884521126747131,-0.27662429213523865,0.5450708866119385,-0.14569182693958282,-0.919231116771698,0.3657706081867218,0.07182401418685913,1.0162160396575928,-0.03653150796890259
1.1571172237884702,-2.760202254872548,2.7151461704488833,0.6148740649223328,-0.2994545102119446,0.533754289150238,-0.14962205290794373,-0.9156481027603149,0.37309831380844116,0.06495097279548645,1.0309433937072754,-0.010640710592269897
1.1506823757526752,-2.7571144310254345,2.707763276554743,0.3554303050041199,-0.43166953325271606,0.4950234293937683,-0.15298019349575043,-0.9130424857139587,0.3780885636806488,0.05303506553173065,1.041322946548462,0.008371055126190186
1.1467144882084424,-2.754329335980839,2.6994471955752317,0.12322395294904709,-0.510281503200531,0.43050917983055115,-0.15539951622486115,-0.9114169478416443,0.3810124397277832,0.029026195406913757,1.0513705015182495,0.004272192716598511
1.145001615289978,-2.7513873595606095,2.690718667387147,-0.07544860243797302,-0.47762155532836914,0.36518192291259766,-0.15711349248886108,-0.9107107520103455,0.38199716806411743,0.024896040558815002,1.0539906024932861,-0.01287156343460083
1.1452334245614,-2.747524129678554,2.6817108748545184,-0.25030508637428284,-0.38285642862319946,0.3047550618648529,-0.15850690007209778,-0.9108064770698547,0.381192147731781,0.0429978221654892,1.0514771938323975,-0.02668452262878418
1.1472591320282763,-2.7421874227083447,2.672253096026272,-0.42438220977783203,-0.2753051817417145,0.25694718956947327,-0.15982124209403992,-0.9116408824920654,0.37864047288894653,0.06434693932533264,1.052006483078003,-0.030220985412597656
1.1509519278047127,-2.7354182376348186,2.662109801675173,-0.5759943723678589,-0.22784125804901123,0.21554645895957947,-0.16104941070079803,-0.9131523966789246,0.3744547367095947,0.06768082082271576,1.0630698204040527,-0.03902050852775574
1.1559142532315518,-2.727769416237928,2.651330769701729,-0.6786964535713196,-0.20967552065849304,0.19452084600925446,-0.1620846837759018,-0.9151638746261597,0.3690585196018219,0.06860928237438202,1.0653102397918701,-0.04148253798484802
1.1618210429909654,-2.7186226746098843,2.639145778316616,-0.7990372180938721,-0.191336989402771,0.21958598494529724,-0.16323180496692657,-0.9175288081169128,0.3626248836517334,0.0874565988779068,1.0631890296936035,-0.02336069941520691
1.1688899938552624,-2.706687427548961,2.6241255490204853,-0.9789109230041504,-0.1865508258342743,0.26848751306533813,-0.16481107473373413,-0.9203169345855713,0.3547593951225281,0.11525049805641174,1.0788862705230713,0.019187897443771362
1.1774653013567078,-2.6911311210156605,2.6052228379719446,-1.1978610754013062,-0.1910257339477539,0.3141641914844513,-0.1668674796819687,-0.9236375093460083,0.34503525495529175,0.1308719664812088,1.0985183715820312,0.07676360011100769
1.1878565789213362,-2.6712530760717934,2.5816265371206595,-1.4462217092514038,-0.20402942597866058,0.35953646898269653,-0.1693338304758072,-0.9275702238082886,0.33307650685310364,0.1304849088191986,1.1068761348724365,0.12332940101623535
1.199950922709817,-2.646332392685958,2.552469308230468,-1.684653401374817,-0.2320682555437088,0.4121898114681244,-0.17223647236824036,-0.9320213198661804,0.3188595473766327,0.12626168131828308,1.0947561264038086,0.1432073414325714
1.2136113130865882,-2.6155270906930554,2.5168925194205425,-1.9336851835250854,-0.25339406728744507,0.45853352546691895,-0.17556583881378174,-0.9368847608566284,0.3023639917373657,0.12513548135757446,1.0832011699676514,0.16370069980621338
1.2288717729844416,-2.5767231568535225,2.472993119647486,-2.231813430786133,-0.22194264829158783,0.5332780480384827,-0.17948880791664124,-0.9421111345291138,0.28321531414985657,0.12742576003074646,1.0937223434448242,0.20436429977416992
1.2458691370175885,-2.5260288018158343,2.4171918040031097,-2.6183879375457764,-0.19053304195404053,0.6018893718719482,-0.18433544039726257,-0.9476739764213562,0.2606431543827057,0.14119881391525269,1.1142997741699219,0.25379180908203125
1.264947468640806,-2.460836776862887,2.346682543735295,-3.0662410259246826,-0.16768977046012878,0.5753336548805237,-0.18950867652893066,-0.9535917043685913,0.23398666083812714,0.1336309164762497,1.1401760578155518,0.3024820387363434
1.2863693087393198,-2.3761415537014554,2.2571646103557303,-3.5402019023895264,-0.011702064424753189,0.4718870520591736,-0.19442304968833923,-0.9598225951194763,0.2023383229970932,0.07531286776065826,1.165388822555542,0.2544032633304596
1.3090045019177217,-2.2693596152841553,2.147067434223081,-3.838960886001587,0.1571974754333496,0.2727731466293335,-0.1981898695230484,-0.96592777967453,0.16644686460494995,-0.008215799927711487,1.1378942728042603,0.15746699273586273
1.3313301284604147,-2.138134082248203,2.0139570670826843,-4.089398384094238,0.28857144713401794,0.026593172922730446,-0.2000260055065155,-0.9714646935462952,0.12746036052703857,-0.06633147597312927,1.089704990386963,0.08301961421966553
1.3523217330353834,-1.975651414142499,1.8509436003697224,-4.3905181884765625,0.4693872928619385,-0.27507534623146057,-0.1992196887731552,-0.976229190826416,0.08537121117115021,-0.10250763595104218,1.043001651763916,0.055330269038677216
1.3701943986301892,-1.7706560864066783,1.6475934003987986,-4.7085394859313965,0.7212099432945251,-0.5999914407730103,-0.19529296457767487,-0.9799467921257019,0.03955933079123497,-0.15555240213871002,0.9816557765007019,-0.015328172594308853
1.3814314143807496,-1.5193868648166569,1.3987916862257836,-4.993865966796875,0.6534618139266968,-0.899256706237793,-0.18798737227916718,-0.9821239709854126,-0.009672853164374828,-0.2028055191040039,0.8945231437683105,-0.13501077890396118
1.3817729373946852,-1.243892746339844,1.1230704353562693,-5.093496322631836,0.24790769815444946,-1.0824944972991943,-0.17794930934906006,-0.9821882247924805,-0.06033706292510033,-0.22022880613803864,0.7813061475753784,-0.24439597129821777
1.3689549860831494,-0.9862172673844627,0.8613194858139096,-5.091345310211182,-0.0425582081079483,-1.071690559387207,-0.16718412935733795,-0.9796990752220154,-0.11063122004270554,-0.14266087114810944,0.6727379560470581,-0.39808136224746704
1.3440949041455457,-0.7765850165246903,0.6459364621727414,-5.066108226776123,-0.13198712468147278,-0.9087501168251038,-0.15752649307250977,-0.9744130969047546,-0.16032786667346954,0.01255267858505249,0.5056475400924683,-0.554042637348175
1.3107301902934183,-0.623848249281689,0.48626140757532627,-4.922180652618408,-0.3475005030632019,-0.6735303997993469,-0.15021462738513947,-0.9663729667663574,-0.20870836079120636,0.14253941178321838,0.26051652431488037,-0.6727917194366455
1.2732340096810346,-0.5224940623297054,0.3751626285379135,-4.639963150024414,-0.7552209496498108,-0.39817750453948975,-0.14631487429141998,-0.9560540318489075,-0.2540725767612457,0.1783735454082489,0.01684492826461792,-0.7658857703208923
1.2347497492526938,-0.45998562332614296,0.29961301802954954,-4.3350830078125,-1.0718201398849487,-0.12989410758018494,-0.14639106392860413,-0.9440656900405884,-0.295482337474823,0.17162907123565674,-0.16569089889526367,-0.8465310335159302
1.1968657415879136,-0.4222061979040805,0.2472162329115176,-4.03432035446167,-1.1628704071044922,0.05589597299695015,-0.1496811807155609,-0.9308987855911255,-0.33320140838623047,0.14406590163707733,-0.33521461486816406,-0.91283118724823
