attitudeX,attitudeY,attitudeZ,gyroX,gyroY,gyroZ,gravityX,gravityY,gravityZ,accX,accY,accZ
1.4420548414277827,2.922728080955897,3.073411804683982,-0.18024222552776337,0.25470834970474243,-0.12160833179950714,0.027875211089849472,-0.9917242527008057,0.12532266974449158,0.006502803415060043,-0.0018669366836547852,0.02662418782711029
1.4436136757767333,2.913030600716865,3.085645029201216,-0.18772225081920624,0.2208862155675888,-0.1032588928937912,0.028739167377352715,-0.9919231534004211,0.12354178726673126,0.011788159608840942,-0.0031482577323913574,0.023232460021972656
1.4453333314270458,2.9057130814408,3.094701346149136,-0.1956082433462143,0.10055887699127197,-0.036698974668979645,0.029243696480989456,-0.9921398162841797,0.12166932225227356,0.03179145231842995,0.009107530117034912,0.028492465615272522
1.4472114621163341,2.903010931920775,3.0975736556363302,-0.19323936104774475,-0.07307788729667664,0.05298670381307602,0.029132192954421043,-0.9923731088638306,0.11978007107973099,0.042767200618982315,0.011354923248291016,0.0382857471704483
1.449207175429836,2.9055342787366536,3.093425244246286,-0.18640968203544617,-0.23496365547180176,0.14242962002754211,0.028366446495056152,-0.992617130279541,0.1179267019033432,0.05491596460342407,0.012941837310791016,0.043572306632995605
1.4514193098898045,2.9132058776775462,3.0828941610870917,-0.18390071392059326,-0.3094554543495178,0.1971200406551361,0.0269637331366539,-0.992883026599884,0.11600181460380554,0.0554337240755558,0.014718294143676758,0.041850343346595764
1.4537179656723154,2.923129279296631,3.0697682944933535,-0.19536712765693665,-0.3043200373649597,0.20030494034290314,0.025316232815384865,-0.9931541681289673,0.11403374373912811,0.029279675334692,0.013036489486694336,0.042429789900779724
1.4562096669568108,2.9322812783971917,3.0576888255834516,-0.22999541461467743,-0.26173532009124756,0.1754073053598404,0.023757465183734894,-0.9934421181678772,0.11184054613113403,0.0005345046520233154,0.009936928749084473,0.04523336887359619
1.4590232324582766,2.9390200194039187,3.0484448578701575,-0.27673429250717163,-0.22961463034152985,0.14323796331882477,0.022440843284130096,-0.9937598705291748,0.10925978422164917,-0.018488824367523193,0.008682966232299805,0.048714399337768555
1.4622562464074038,2.942370581760085,3.042963980553934,-0.32999616861343384,-0.17789018154144287,0.10348682850599289,0.0214388445019722,-0.9941152930259705,0.10618532449007034,-0.024170219898223877,0.007222592830657959,0.0474705696105957
1.4658503331105546,2.9419858043495997,3.042101006188604,-0.3650232255458832,-0.05917908251285553,0.05534901097416878,0.020771164447069168,-0.9944981932640076,0.10267467051744461,-0.022663293406367302,0.0031498074531555176,0.028718724846839905
1.4696048751226223,2.9374449702752363,3.0467558813332385,-0.3800141513347626,0.07543598115444183,-0.000546745490282774,0.020479626953601837,-0.9948844909667969,0.09892019629478455,-0.021090002730488777,0.0004540681838989258,0.00033818185329437256
1.4731961113113365,2.927811020981677,3.0576899421631247,-0.35677841305732727,0.16482333838939667,-0.05979856476187706,0.020673800259828568,-0.9952408671379089,0.09522748738527298,-0.02364930510520935,-0.011335670948028564,-0.027173280715942383
1.4761650224192409,2.9145542024451228,3.0728608811488964,-0.2769155204296112,0.1937604546546936,-0.08966458588838577,0.021269237622618675,-0.9955257773399353,0.09206600487232208,-0.014631656929850578,-0.018161416053771973,-0.05356811732053757
1.4781355438487158,2.902049595331613,3.0871854446624662,-0.1679820418357849,0.14843815565109253,-0.07368506491184235,0.021953469142317772,-0.9957100749015808,0.0898875966668129,0.00772482343018055,0.0009742379188537598,-0.07557486742734909
1.479091373558761,2.8949477086647724,3.095414592001364,-0.053949203342199326,0.07120354473590851,-0.025240305811166763,0.022358637303113937,-0.9957980513572693,0.08880539238452911,0.03437352180480957,0.016641557216644287,-0.08106923848390579
1.4792098214497482,2.8949252630417477,3.095817034507466,0.026429159566760063,0.009700662456452847,0.02233744040131569,0.022331593558192253,-0.9958088994026184,0.08868957310914993,0.04228934645652771,0.016621947288513184,-0.06937206536531448
1.4788582366780478,2.8995036064166664,3.0912174302380206,0.05948697775602341,-0.006322778295725584,0.041023507714271545,0.02200925722718239,-0.9957766532897949,0.08913084864616394,0.028756706044077873,0.010394692420959473,-0.042103298008441925
1.4784724286170805,2.9054741677047384,3.0852236852829127,0.03755320981144905,0.009013162925839424,0.04502786323428154,0.021566597744822502,-0.9957411885261536,0.08963426202535629,0.01847243309020996,-0.0005813837051391602,-0.007343769073486328
1.478475180041388,2.9106493284220933,3.080302240356355,-0.022600408643484116,0.04619169235229492,0.04388510063290596,0.021101735532283783,-0.9957414269447327,0.08974167704582214,0.006043640896677971,-0.008622527122497559,0.022150985896587372
1.4791307451500249,2.9135122605123693,3.0780162766738255,-0.0938577950000763,0.06595879793167114,0.026994965970516205,0.020696954801678658,-0.9958016276359558,0.0891651138663292,-0.008428905159235,-0.012361645698547363,0.03476665914058685
1.4804407424880976,2.912879314885855,3.079393062369951,-0.14981719851493835,0.07975290715694427,0.0021423478610813618,0.020457975566387177,-0.995920717716217,0.08788297325372696,-0.02158716320991516,-0.018239378929138184,0.02895355224609375
1.4821058841790655,2.907331178965161,3.0859677291759433,-0.17689485847949982,0.12012195587158203,-0.03513481467962265,0.020559925585985184,-0.9960695505142212,0.08615349233150482,-0.023916874080896378,-0.021218478679656982,0.0038733333349227905
1.4837589215086822,2.8991767545877525,3.0955986712757375,-0.15298660099506378,0.16833902895450592,-0.038351647555828094,0.02086658962070942,-0.9962146282196045,0.08438487350940704,-0.0022203344851732254,-0.016389012336730957,-0.03406143933534622
1.4848245058614307,2.8936718363870955,3.102928454288676,-0.05755147710442543,0.17952598631381989,-0.01821780949831009,0.02107034996151924,-0.9963067173957825,0.08323979377746582,0.017397044226527214,-0.0008245706558227539,-0.07895208150148392
1.4848888664423388,2.8942260667519424,3.103652848263549,0.054823536425828934,0.06091916933655739,0.02173280343413353,0.021008647978305817,-0.9963122010231018,0.08318982273340225,0.020220547914505005,0.008702397346496582,-0.1061086654663086
1.48394106048099,2.902587831747941,3.094929426807623,0.16408270597457886,-0.12887181341648102,0.08679845184087753,0.020535629242658615,-0.99623042345047,0.08427909761667252,0.023760614916682243,0.004088878631591797,-0.10060609132051468
1.4821592671498747,2.9193209504497117,3.0761002039138,0.2475975751876831,-0.26755115389823914,0.15136757493019104,0.01951421983540058,-0.9960743188858032,0.08634383231401443,0.029023975133895874,0.0025287866592407227,-0.07847034931182861
1.479771915922948,2.9412501682899648,3.0510581950608544,0.2981043756008148,-0.32380813360214233,0.17976027727127075,0.018089350312948227,-0.9958601593971252,0.08908087015151978,0.022468477487564087,0.009333610534667969,-0.04292309284210205
1.4771163729435153,2.9634857840933564,3.025441093855185,0.2981312870979309,-0.3217353820800781,0.17328080534934998,0.01657254993915558,-0.9956152439117432,0.09206236153841019,0.009062198922038078,0.0073950886726379395,0.0011687204241752625
1.4746203001419997,2.9827432627730337,3.003187402617621,0.26093772053718567,-0.24868033826351166,0.15120887756347656,0.01519001554697752,-0.9953786730766296,0.09481960535049438,-0.0018080752342939377,0.0001392960548400879,0.036909475922584534
1.4725817274292319,2.998103615808458,2.985744160237376,0.20294126868247986,-0.15251439809799194,0.11767115443944931,0.014021765440702438,-0.9951808452606201,0.09704853594303131,-0.009840876795351505,-0.008374452590942383,0.052106134593486786
1.4709559663723888,3.0081707904277573,2.974600281052617,0.17408974468708038,-0.05163427069783211,0.056235384196043015,0.013259276747703552,-0.9950200915336609,0.09878819435834885,-0.029433609917759895,-0.016164541244506836,0.04134844243526459
1.469158145040715,3.0112500648549267,2.971499436936034,0.2272017002105713,0.048861440271139145,-0.04028582572937012,0.013187508098781109,-0.9948393106460571,0.10060212761163712,-0.052845120429992676,-0.02144181728363037,0.0028829574584960938
1.4662898537179183,3.0069866640475036,2.976788984143041,0.3569144010543823,0.15570813417434692,-0.13510876893997192,0.013999298214912415,-0.9945441484451294,0.10337315499782562,-0.05628141760826111,-0.021004557609558105,-0.04131579399108887
1.4617611465794753,3.00005834876398,2.9861252013153186,0.5076512098312378,0.33043307065963745,-0.17592863738536835,0.015350449830293655,-0.9940615296363831,0.10773227363824844,-0.02886977605521679,0.0014466643333435059,-0.06093357503414154
1.4557941903010563,2.9985207052312375,2.992249925698655,0.6532595157623291,0.5818614959716797,-0.1163613423705101,0.016361303627490997,-0.9933945536613464,0.11357582360506058,0.03699865937232971,0.03909468650817871,-0.05937672406435013
1.448392883628424,3.0099015062473846,2.9878552284449613,0.8262256979942322,0.8030412793159485,0.024109482765197754,0.016032950952649117,-0.9925180673599243,0.12104199081659317,0.11412447690963745,0.061365604400634766,-0.06479810178279877
1.4393531159902013,3.035866383771667,2.9699650472933303,1.014124870300293,0.7991008758544922,0.22152318060398102,0.013831241987645626,-0.9913737773895264,0.13033343851566315,0.1623314619064331,0.06063342094421387,-0.087074875831604
1.428762090728208,3.0738840087969694,2.93875328837752,1.1547116041183472,0.5995624661445618,0.44022998213768005,0.009577285498380661,-0.9899300932884216,0.14123226702213287,0.18935152888298035,0.049851417541503906,-0.08689571917057037
1.4169717926737273,3.1191334528406203,2.8978809514593027,1.2459696531295776,0.3763619065284729,0.6500182747840881,0.0034408741630613804,-0.9881923198699951,0.15317977964878082,0.18628686666488647,0.03335833549499512,-0.06168818473815918
1.403736267601405,-3.1141053135473142,2.8511028381040693,1.4004825353622437,0.3780903220176697,0.8364068269729614,-0.0045701428316533566,-0.9860779047012329,0.16622167825698853,0.1730118989944458,0.03406679630279541,-0.0751878023147583
1.388101509830825,-3.0655903323404483,2.8051319081340647,1.6396085023880005,0.26144492626190186,0.9049189686775208,-0.013794858008623123,-0.9833576679229736,0.18115612864494324,0.13496488332748413,0.04459106922149658,-0.12808607518672943
1.3695526219409173,-3.0252837687396554,2.766642764824011,1.9004042148590088,0.25950905680656433,0.9046755433082581,-0.023196417838335037,-0.9798187613487244,0.1985379308462143,0.07445064187049866,0.03093564510345459,-0.11240220069885254
1.3483430773785645,-2.9937000268138547,2.73730768928587,2.125444173812866,0.3164210617542267,0.8689901828765869,-0.03250964358448982,-0.9753591418266296,0.2182142436504364,0.05257491022348404,0.03018409013748169,-0.12890462577342987
1.3250249361912196,-2.970584526677374,2.7169194747265246,2.3111183643341064,0.3340594470500946,0.7970512509346008,-0.041404545307159424,-0.9699499011039734,0.2397555410861969,0.03040289878845215,0.035074472427368164,-0.12803077697753906
1.300170196309439,-2.955227711993076,2.7045397329172594,2.446509599685669,0.3380120098590851,0.7021782994270325,-0.04953385517001152,-0.963603675365448,0.2627052962779999,-0.0021934770047664642,0.04537564516067505,-0.11748746037483215
1.2743753384184162,-2.946083949859743,2.698501623967163,2.5350537300109863,0.3285212814807892,0.6042088270187378,-0.0567447692155838,-0.9563880562782288,0.2865341603755951,-0.024004727602005005,0.06483227014541626,-0.12082386016845703
1.248079170430961,-2.9414589574417493,2.696991760035632,2.5817112922668457,0.30169790983200073,0.5167731046676636,-0.06304845213890076,-0.9483771920204163,0.31081435084342957,-0.03483670949935913,0.07862621545791626,-0.12845659255981445
1.2217121487785836,-2.9397909207750432,2.6983531848247853,2.585446357727051,0.2987007796764374,0.4465905427932739,-0.06855615228414536,-0.9396863579750061,0.33509618043899536,-0.050218306481838226,0.08578932285308838,-0.11265364289283752
1.1956262727978886,-2.9399585171735323,2.7017413248188293,2.555063009262085,0.3040826916694641,0.35589855909347534,-0.0733853355050087,-0.9304453134536743,0.35900717973709106,-0.06282991170883179,0.10444128513336182,-0.11372220516204834
1.1703097395452744,-2.9421479394979366,2.7073075772354516,2.4673852920532227,0.2977648675441742,0.2347412407398224,-0.07724229246377945,-0.920871376991272,0.38213789463043213,-0.07969438284635544,0.13318222761154175,-0.09162595868110657
1.1464246846538328,-2.9454427137626586,2.71478221582389,2.316652774810791,0.39850977063179016,0.1127362996339798,-0.08024755120277405,-0.911297619342804,0.4038529396057129,-0.10122523456811905,0.1481596827507019,-0.032331883907318115
1.12524801125575,-2.9513267472025437,2.723816778709708,1.8659095764160156,-0.22373569011688232,-0.0624120831489563,-0.0815017893910408,-0.9023745059967041,0.42317578196525574,-0.1152603030204773,0.1619265079498291,0.028896331787109375
1.1112234042623104,-2.9622704368782062,2.7328036754876126,1.0846986770629883,-0.13222426176071167,-0.16548429429531097,-0.07911550253629684,-0.8962420225143433,0.43645262718200684,-0.11113109439611435,0.10200685262680054,0.4676458537578583
1.1048514790030115,-2.970107965936033,2.7398686436078186,0.252166748046875,-0.1911318004131317,-0.2375584989786148,-0.07666535675525665,-0.8933974504470825,0.4426773190498352,-0.08841948956251144,0.14173436164855957,0.34931474924087524
1.1064870909877556,-2.9764579993047877,2.7455657629634738,-0.44056156277656555,-0.06384486705064774,-0.31870049238204956,-0.0736125260591507,-0.8941311240196228,0.4417133331298828,-0.0847279354929924,0.16729402542114258,0.4179515242576599
1.113599988146252,-2.9818335511998364,2.75086353346021,-0.8454714417457581,-0.07326579838991165,-0.3695908486843109,-0.07022348046302795,-0.8972936272621155,0.4358125627040863,-0.07487236708402634,0.24687260389328003,0.29874545335769653
1.1235299005326456,-2.9872892153698203,2.7558671018605034,-1.0145577192306519,-0.11964412778615952,-0.3602534234523773,-0.06647210568189621,-0.9016327261924744,0.4273638427257538,-0.05126473307609558,0.35059207677841187,0.12772035598754883
1.1343200576825454,-2.9923252638727225,2.7598851147756798,-1.0444239377975464,-0.15319250524044037,-0.29642918705940247,-0.06286852806806564,-0.9062469601631165,0.41804784536361694,-0.016706101596355438,0.42605286836624146,-0.0021543800830841064
1.1448209865366445,-2.9959805103815347,2.7622775968557542,-0.992794930934906,-0.1405884027481079,-0.20887491106987,-0.05995587259531021,-0.9106361269950867,0.4088362753391266,0.0030405521392822266,0.45882338285446167,-0.08330535888671875
1.1544434962904957,-2.998131385695553,2.763239784200019,-0.888935387134552,-0.11442045122385025,-0.15177381038665771,-0.057820841670036316,-0.9145700335502625,0.4002726674079895,-0.015131432563066483,0.481891930103302,-0.13696712255477905
1.162333569910802,-2.9995090459485105,2.765728163134459,-0.6139755845069885,0.2749626934528351,-0.2979185879230499,-0.05624573677778244,-0.9177324771881104,0.3931961953639984,-0.09991272538900375,0.5130695104598999,-0.20012682676315308
1.167622720207193,-3.004036190279274,2.7739289898611186,-0.3573203682899475,0.2813532054424286,-0.47318682074546814,-0.05379878729581833,-0.9198204874992371,0.3886334002017975,-0.23793399333953857,0.5385796427726746,-0.27819037437438965
1.1712300730199703,-3.012379660212032,2.785365059267888,-0.2555506229400635,0.16556230187416077,-0.48655858635902405,-0.05012645944952965,-0.9212298393249512,0.38577526807785034,-0.07975634187459946,0.560527503490448,-0.1561611294746399
1.174357211061988,-3.0203705524012197,2.7960120031541558,-0.2715628743171692,0.22113820910453796,-0.4089588522911072,-0.04669368267059326,-0.922441840171814,0.38330256938934326,0.02847468852996826,0.5544456243515015,-0.11410713195800781
1.1777163089303497,-3.026277954668459,2.80553327635977,-0.305591344833374,0.3466721773147583,-0.40524178743362427,-0.04407177492976189,-0.9237337112426758,0.3804914355278015,-0.010981947183609009,0.5071992874145508,-0.11761307716369629
1.1813515102607532,-3.0322056398335397,2.8158045708769968,-0.3272830843925476,0.3351505398750305,-0.4505237936973572,-0.04144874960184097,-0.9251199960708618,0.3774058520793915,-0.07904991507530212,0.44454431533813477,-0.1362254023551941
1.1852700418313307,-3.0396921353098114,2.8265488515284773,-0.3682287037372589,0.14688295125961304,-0.42444875836372375,-0.0382530614733696,-0.9266006350517273,0.3740959167480469,-0.047562386840581894,0.42104655504226685,-0.13750842213630676
1.1896311633693644,-3.0472702719791958,2.835468035755524,-0.43380609154701233,0.009563447907567024,-0.31373581290245056,-0.035036128014326096,-0.9282318353652954,0.37034863233566284,0.0348835289478302,0.4332519769668579,-0.11804461479187012
1.1944877441111792,-3.0523898749682705,2.8410270875245773,-0.48651376366615295,0.016796864569187164,-0.1872342824935913,-0.032737672328948975,-0.9300275444984436,0.36602890491485596,0.07503500580787659,0.45712709426879883,-0.11201596260070801
1.1995409171207245,-3.054553458035556,2.843882181622146,-0.49273064732551575,0.08146294206380844,-0.11590524762868881,-0.03153672069311142,-0.9318726062774658,0.3614123463630676,0.06071150302886963,0.4813416004180908,-0.1180957555770874
1.204352976160607,-3.0550538036404267,2.8456923739067768,-0.4426147937774658,0.15611368417739868,-0.10201706737279892,-0.03096793405711651,-0.9336075782775879,0.3569563329219818,0.030250757932662964,0.5106949806213379,-0.13066864013671875
1.2082941227585315,-3.0550697799094797,2.84785747746269,-0.32110780477523804,0.24210314452648163,-0.12023601680994034,-0.03064403310418129,-0.9350124597549438,0.3532883822917938,0.014668047428131104,0.5256496071815491,-0.1481950283050537
1.2107903825562405,-3.0555632855167665,2.8511464086478746,-0.15221907198429108,0.2566923499107361,-0.15466681122779846,-0.03026905469596386,-0.9358947277069092,0.3509771525859833,0.026042338460683823,0.5202909708023071,-0.16353818774223328
1.2116831039633673,-3.0575595889481524,2.8557527345202343,-0.002665013074874878,0.19801916182041168,-0.17946802079677582,-0.02949824184179306,-0.9362088441848755,0.3502047061920166,0.04039298743009567,0.5063074827194214,-0.16424575448036194
1.211431771076484,-3.0609577583197414,2.8610990508860352,0.07133597135543823,0.13626544177532196,-0.18391536176204681,-0.02832694724202156,-0.9361205101013184,0.35053715109825134,0.05202382430434227,0.48532992601394653,-0.14559635519981384
1.2110396739328406,-3.0641562759102396,2.8660730397797622,0.005890117026865482,0.12367669492959976,-0.15422219038009644,-0.027233988046646118,-0.9359825253486633,0.35099178552627563,0.05761420354247093,0.4688956141471863,-0.11751708388328552
1.212217172067815,-3.066956997041556,2.869641229838521,-0.23418301343917847,-0.0038761943578720093,-0.11379153281450272,-0.026168610900640488,-0.9363964200019836,0.34996679425239563,0.052688393741846085,0.4688061475753784,-0.006003290414810181
1.2161151806744943,-3.0687815199540713,2.8713736470406883,-0.5366528034210205,-0.04599381983280182,-0.06393609941005707,-0.025264320895075798,-0.9377572536468506,0.3463709056377411,0.03139832988381386,0.44256389141082764,0.09120532870292664
1.2234932281909385,-3.0700089320837582,2.8710631693919226,-0.9409381747245789,-0.25090283155441284,-0.020193658769130707,-0.02434365078806877,-0.940294086933136,0.3394913673400879,-0.008905287832021713,0.41383540630340576,0.15779253840446472
1.2351805066556472,-3.0703006914904787,2.868437404679211,-1.407080888748169,-0.2783682942390442,0.02750089392066002,-0.023460224270820618,-0.9442076683044434,0.32851481437683105,-0.04850024729967117,0.38511013984680176,0.2609780728816986
1.2519468693378495,-3.067853122160333,2.8632198467302516,-1.9560647010803223,-0.21462690830230713,0.06173694506287575,-0.023094533011317253,-0.9495967030525208,0.3126228153705597,-0.056235939264297485,0.3635064959526062,0.27633586525917053
1.2742245284301708,-3.0621473479108063,2.8554512656278117,-2.501304864883423,-0.11584042757749557,0.06357638537883759,-0.02319294773042202,-0.956343948841095,0.2913215756416321,-0.029556721448898315,0.37864625453948975,0.26298439502716064
1.3014713552404569,-3.053379937072958,2.8458364955042836,-2.9364118576049805,0.028361592441797256,0.009510431438684464,-0.02344127558171749,-0.9639507532119751,0.2650461494922638,-0.02521902322769165,0.4008556604385376,0.16982924938201904
1.332206737964396,-3.043137478438826,2.8362267343625045,-3.183835983276367,0.15525881946086884,-0.10576502978801727,-0.023230601102113724,-0.9716722965240479,0.23518817126750946,-0.03778931498527527,0.4059830904006958,0.006007462739944458
1.364446508323491,-3.0340836709158854,2.8290130976474313,-3.21809720993042,0.24567529559135437,-0.23947356641292572,-0.021984940394759178,-0.9787853360176086,0.20370551943778992,-0.03198543190956116,0.41179925203323364,-0.169449582695961
1.396259542961764,-3.0286292913214856,2.8262533960940206,-3.0770344734191895,0.295799195766449,-0.3486756980419159,-0.019574664533138275,-0.9848070740699768,0.17254559695720673,-0.020891636610031128,0.39629077911376953,-0.2882988452911377
1.4261078138620296,-3.0284055251902355,2.828950064705971,-2.8167977333068848,0.27468252182006836,-0.3989749848842621,-0.016284972429275513,-0.9895508885383606,0.1432616114616394,-0.021434782072901726,0.3438752293586731,-0.3354766368865967
1.4533211104829804,-3.034299916358803,2.8374121849225693,-2.556858777999878,0.22245369851589203,-0.4103115499019623,-0.012551216408610344,-0.9931077361106873,0.11653181910514832,-0.041876912117004395,0.27653968334198,-0.3558354377746582
1.4783607438319848,-3.047951738849949,2.8530163138257496,-2.391885757446289,0.15059518814086914,-0.41308239102363586,-0.008630838245153427,-0.9957308769226074,0.09189996123313904,-0.08394426107406616,0.20622587203979492,-0.363201379776001
1.5023319828132624,-3.0755057383097864,2.8817051488320033,-2.3447318077087402,0.06038858741521835,-0.4325450360774994,-0.004517748020589352,-0.9976572394371033,0.06826115399599075,-0.11549264192581177,0.12900495529174805,-0.3443080186843872
1.5260310329733993,3.137081043997808,2.952627744185705,-2.3553574085235596,-0.01922965981066227,-0.5200597643852234,0.00020189053611829877,-0.99899822473526,0.044748809188604355,-0.13013049960136414,0.04765850305557251,-0.3433939218521118
1.548945642105665,2.8573040146728537,-3.0512362882636586,-2.387160539627075,-0.08853070437908173,-0.6620875000953674,0.006128520704805851,-0.9997612833976746,0.020973477512598038,-0.12806156277656555,-0.02071601152420044,-0.3664935827255249
1.556824077991199,1.3459441505581973,-1.5406354257819068,-2.410630941390991,-0.08741701394319534,-0.8283635377883911,0.01362281758338213,-0.9999023675918579,-0.0031158081255853176,-0.09573039412498474,-0.03433835506439209,-0.38145148754119873
1.5354475788490871,0.6873569439886618,-0.8824204614420046,-2.4110665321350098,-0.003057657741010189,-0.9144065380096436,0.02242519147694111,-0.9993752837181091,-0.02731773443520069,-0.03537994623184204,-0.017958760261535645,-0.39422160387039185
1.5105317028880016,0.5495607482311771,-0.7438885038946063,-2.3900015354156494,0.11848434060811996,-0.8681167364120483,0.03145897760987282,-0.9981846213340759,-0.05136151239275932,0.05672154203057289,-0.018996894359588623,-0.38230860233306885
1.4858737993891304,0.48494850723950184,-0.6777413697795596,-2.3515946865081787,0.12943285703659058,-0.7230207920074463,0.03953951224684715,-0.9963962435722351,-0.07503937184810638,0.13141995668411255,-0.07280224561691284,-0.341586709022522
1.4620316534181153,0.43663627848914727,-0.628496368183162,-2.333228588104248,0.006578091531991959,-0.5385372638702393,0.04590553790330887,-0.9940909743309021,-0.09836666285991669,0.15428978204727173,-0.19838345050811768,-0.3039160966873169
1.4387905948618624,0.3923212428808834,-0.5844175867811204,-2.3325624465942383,-0.11230648308992386,-0.3677673637866974,0.05032424256205559,-0.9912998676300049,-0.12162342667579651,0.13183516263961792,-0.36105620861053467,-0.2812086343765259
1.4158688346244475,0.3519416394366326,-0.5450808350530385,-2.3269402980804443,-0.16521085798740387,-0.2574148178100586,0.05319361016154289,-0.9880227446556091,-0.14485077559947968,0.09954681992530823,-0.5239249467849731,-0.2642221450805664
1.3932211186159467,0.3181433985022848,-0.512329616197282,-2.2862143516540527,-0.12888747453689575,-0.21029844880104065,0.05525472015142441,-0.9842749238014221,-0.1677790880203247,0.09266394376754761,-0.6545953154563904,-0.25797170400619507
1.3711776560519227,0.2915843325751288,-0.48623291564382914,-2.18796706199646,-0.048134781420230865,-0.17392486333847046,0.057003892958164215,-0.9801422357559204,-0.189924955368042,0.1247587725520134,-0.73708176612854,-0.2685864269733429
1.3505091703195637,0.2705990458800325,-0.4645363187920649,-2.014320135116577,0.09847863018512726,-0.09377250075340271,0.05840960890054703,-0.9758347272872925,-0.21055854856967926,0.17793378233909607,-0.78852379322052,-0.2931188941001892
1.3318856957581564,0.252248844466757,-0.4441472707070159,-1.807307481765747,0.185318723320961,0.03155133128166199,0.05906229466199875,-0.971596360206604,-0.22915564477443695,0.22470536828041077,-0.8558114767074585,-0.32119840383529663
1.315458812246136,0.23377269728126726,-0.4234608047154136,-1.6212987899780273,0.10788892209529877,0.15821020305156708,0.05850799381732941,-0.967578113079071,-0.2457013875246048,0.2318667620420456,-0.9493223428726196,-0.3191484808921814
1.3007465482330316,0.21409788805165664,-0.40268834518138935,-1.481530785560608,-0.02235271781682968,0.23169955611228943,0.05668153241276741,-0.9637576341629028,-0.26068833470344543,0.1887255311012268,-1.0615870952606201,-0.29097798466682434
1.2872913303688844,0.19517393510170383,-0.38343966266247737,-1.3574098348617554,-0.047096412628889084,0.24108001589775085,0.05424856022000313,-0.9600809216499329,-0.27441152930259705,0.12273812294006348,-1.1761037111282349,-0.25181838870048523
1.2750099702654976,0.1797016633258415,-0.3675840912736114,-1.2142915725708008,-0.00394549872726202,0.17846736311912537,0.052100181579589844,-0.9565732479095459,-0.2867984175682068,0.08937931060791016,-1.2716524600982666,-0.2216092348098755
1.2641432842729297,0.16993949753841248,-0.356972459860623,-1.0204997062683105,0.08535002917051315,0.0581422820687294,0.05105298012495041,-0.953349232673645,-0.29752102494239807,0.0767240822315216,-1.3425796031951904,-0.22132357954978943
1.2553780888086257,0.1668514013229084,-0.35232960348656467,-0.7405512928962708,0.17886929214000702,-0.06863736361265182,0.05151985585689545,-0.9506667256355286,-0.30590617656707764,0.06670522689819336,-1.3844316005706787,-0.24876612424850464
1.2495985807560763,0.16943488019089067,-0.35283230469997284,-0.38376304507255554,0.23557624220848083,-0.14765840768814087,0.053235553205013275,-0.9488579630851746,-0.3111823499202728,0.06553885340690613,-1.4046118259429932,-0.27809691429138184
1.2473043686111551,0.1755707947203737,-0.3567201307469116,-0.02767804265022278,0.24749639630317688,-0.1639796495437622,0.055524032562971115,-0.9481312036514282,-0.31299251317977905,0.07484704256057739,-1.4150127172470093,-0.2763019800186157
1.2482616486995695,0.18310545276866405,-0.36211494864720745,0.2684532105922699,0.23031768202781677,-0.13382653892040253,0.05771543085575104,-0.9484350681304932,-0.3116726577281952,0.08718198537826538,-1.4308373928070068,-0.23419532179832458
1.2518866945915046,0.19083711017842792,-0.36787924089270313,0.5013380646705627,0.22580474615097046,-0.08310066163539886,0.059470903128385544,-0.9495778679847717,-0.30783945322036743,0.10540032386779785,-1.437583327293396,-0.17674919962882996
1.2577052648129488,0.19813139423377774,-0.3731735356703153,0.7011387944221497,0.22314292192459106,-0.011242449283599854,0.06062615290284157,-0.9513860940933228,-0.3019751310348511,0.13494575023651123,-1.4181360006332397,-0.1328698992729187
1.2655899260474197,0.20453779071108216,-0.3776491102161676,0.8895663619041443,0.2037774622440338,0.05878310278058052,0.06103396788239479,-0.9537849426269531,-0.2942265570163727,0.1625378131866455,-1.3720359802246094,-0.10813248157501221
1.275266140110755,0.21023388052170916,-0.3815501692733921,1.0404738187789917,0.19433309137821198,0.10843721777200699,0.06077999621629715,-0.9566478729248047,-0.284834623336792,0.16373783349990845,-1.3240680694580078,-0.09117245674133301
1.2862342368354445,0.2161087022622251,-0.3855348280057229,1.1438148021697998,0.2183094024658203,0.12426217645406723,0.060198575258255005,-0.9597846865653992,-0.27420687675476074,0.149762362241745,-1.303337812423706,-0.06850558519363403
1.298147956518395,0.22389020500398704,-0.39116342166901635,1.2412800788879395,0.2514079511165619,0.08549081534147263,0.059787362813949585,-0.9630610942840576,-0.2625618577003479,0.12720909714698792,-1.2943089008331299,-0.06447982788085938
1.3108764033040354,0.2349783920615798,-0.39997108190964953,1.3303614854812622,0.26949548721313477,0.04540058970451355,0.059836044907569885,-0.9664105772972107,-0.24994081258773804,0.11042150855064392,-1.2764482498168945,-0.09344303607940674
1.324301343839775,0.2487183352199942,-0.4111860309437348,1.399930477142334,0.30559784173965454,0.05829827859997749,0.06006501615047455,-0.9697736501693726,-0.23649773001670837,0.12044641375541687,-1.236158847808838,-0.1413862556219101
1.338429397739154,0.26297302717212073,-0.42261323019390845,1.464887261390686,0.31928330659866333,0.14141912758350372,0.05986221507191658,-0.973124086856842,-0.22236458957195282,0.14283552765846252,-1.1923421621322632,-0.19766411185264587
1.353587553508176,0.27464081031023535,-0.4314664097074311,1.5569242238998413,0.27585193514823914,0.29048824310302734,0.05844517797231674,-0.9765027761459351,-0.20742830634117126,0.14535117149353027,-1.1462082862854004,-0.2563779354095459
1.370139360776955,0.2803564308704315,-0.43498286548447973,1.6581991910934448,0.17222091555595398,0.47991910576820374,0.05514953285455704,-0.9799358248710632,-0.19153116643428802,0.11822080612182617,-1.0919482707977295,-0.31261926889419556
1.3882086763336006,0.2775621490831875,-0.43108482561007155,1.7615413665771484,0.031553808599710464,0.6532813310623169,0.049753665924072266,-0.9833771586418152,-0.17462529242038727,0.08257055282592773,-1.03981614112854,-0.3551599383354187
1.4075814521219887,0.26497923277351415,-0.4186140260372002,1.8424843549728394,-0.08349396288394928,0.7864572405815125,0.04255475103855133,-0.9867100119590759,-0.1568201333284378,0.054079145193099976,-0.9860530495643616,-0.38378357887268066
1.4277774653268047,0.24275758640187037,-0.39737040923308764,1.8895245790481567,-0.15265625715255737,0.8407122492790222,0.03426187485456467,-0.9897902011871338,-0.13835276663303375,0.028146564960479736,-0.9187027812004089,-0.4153582453727722
1.4483055415873831,0.2119119294519462,-0.3677718819814633,1.9260286092758179,-0.1328602135181427,0.835517942905426,0.025699174031615257,-0.9925073981285095,-0.11945212632417679,0.010494649410247803,-0.8307347893714905,-0.4687132239341736
1.469393318203975,0.17250091916365387,-0.3290462533215589,2.049534797668457,-0.041795019060373306,0.8101031184196472,0.017375655472278595,-0.9948630928993225,-0.09972681105136871,0.018131494522094727,-0.7178748846054077,-0.549580454826355
1.4919018138804583,0.12135876680987663,-0.2775007216895014,2.259249210357666,0.07645817846059799,0.7593900561332703,0.009541032835841179,-0.9968894124031067,-0.0782320573925972,0.010493754409253597,-0.5926185250282288,-0.6287077069282532
1.5163464693105233,0.045343227936411705,-0.2002789749386535,2.5102362632751465,0.11917980760335922,0.6639077663421631,0.0024668159894645214,-0.9985179901123047,-0.054365891963243484,-0.032816559076309204,-0.47786134481430054,-0.6660168170928955
1.542575098625272,-0.12653988125675833,-0.02716018391626042,2.7489044666290283,0.09156438708305359,0.5429789423942566,-0.0035607635509222746,-0.9996017813682556,-0.0279891025274992,-0.08695438504219055,-0.38462966680526733,-0.6606096029281616
1.5624707356626357,-1.621926828893231,1.469008275099492,2.9042935371398926,0.03807292878627777,0.40539872646331787,-0.008299983106553555,-0.9999653697013855,0.0004247525066602975,-0.11718833446502686,-0.30432528257369995,-0.6071906089782715
1.5386794230193022,-2.7669616666896766,2.614330026507534,2.9566922187805176,0.0020296182483434677,0.28109386563301086,-0.011749420315027237,-0.9994843006134033,0.02988150157034397,-0.11015307903289795,-0.23019087314605713,-0.5156756639480591
1.509712430344287,-2.9090499076768865,2.7565549414919985,2.927644968032837,0.004191040992736816,0.18418969213962555,-0.014068459160625935,-0.998134970664978,0.0594039224088192,-0.07905593514442444,-0.14416849613189697,-0.4208693504333496
1.4810464172526698,-2.9680694782109964,2.8158717027559845,2.8433306217193604,0.024565722793340683,0.09569526463747025,-0.015475105494260788,-0.9959751963615417,0.08828487992286682,-0.04348486661911011,-0.03696870803833008,-0.346433162689209
1.4532517125774522,-3.0038179754351737,2.8521655650795625,2.7423667907714844,0.04386937990784645,0.02062687650322914,-0.016106368973851204,-0.993099570274353,0.11616307497024536,-0.029700517654418945,0.07474935054779053,-0.3021678924560547
1.4265904244209102,-3.02982839570801,2.8788779229015455,2.613737106323242,0.052688539028167725,-0.04810560122132301,-0.016027906909585,-0.9896203279495239,0.14281053841114044,-0.042611658573150635,0.18012619018554688,-0.278430700302124
1.4013445184120414,-3.0508638453382444,2.9008034763198673,2.458498477935791,0.07113172858953476,-0.12065170705318451,-0.015279652550816536,-0.9856773614883423,0.16794779896736145,-0.061166912317276,0.26822447776794434,-0.26099586486816406
1.3778334263600869,-3.0693591738364057,2.92040318980793,2.26758074760437,0.08976145088672638,-0.19694872200489044,-0.013839967548847198,-0.9814403653144836,0.19126710295677185,-0.0619351863861084,0.3343762159347534,-0.24163652956485748
1.3562851365746569,-3.0860159014954247,2.9385773853811217,2.0655579566955566,0.14371097087860107,-0.2599865198135376,-0.01182451844215393,-0.9770805835723877,0.21254105865955353,-0.03843796253204346,0.3872520923614502,-0.2343611717224121
1.3366539198538145,-3.1007072526969157,2.9555526148417246,1.8806334733963013,0.227089524269104,-0.3019089996814728,-0.009483100846409798,-0.9727136492729187,0.2318142056465149,-0.0016710739582777023,0.435207724571228,-0.23874180018901825
1.3187450389997744,-3.113104118053938,2.9711822509668107,1.719340205192566,0.32782623171806335,-0.31951087713241577,-0.007103821728378534,-0.9684028625488281,0.24928975105285645,0.036507487297058105,0.4836769700050354,-0.25107502937316895
1.3021925662324692,-3.12228905064414,2.9847016507640434,1.604817509651184,0.4436606466770172,-0.2927040457725525,-0.005122572649270296,-0.964142382144928,0.2653357684612274,0.07545030117034912,0.5336920022964478,-0.2672889530658722
1.2864776510932208,-3.127438901504899,2.9952686926141863,1.5446494817733765,0.551682710647583,-0.2257806658744812,-0.003970040008425713,-0.9598529934883118,0.28047508001327515,0.10527312755584717,0.5803365111351013,-0.2721896767616272
1.2712094174545063,-3.1285101376397972,3.0024039579167083,1.5084060430526733,0.5875303149223328,-0.13972236216068268,-0.003860865719616413,-0.9554584622383118,0.2950996160507202,0.11100807785987854,0.6265707015991211,-0.24424222111701965
1.2562372042260812,-3.1267719260994222,3.006417006164474,1.4778920412063599,0.5042607188224792,-0.059793442487716675,-0.004585313145071268,-0.9509328603744507,0.3093625009059906,0.09029391407966614,0.68527752161026,-0.20163565874099731
1.2416591882168804,-3.1240091879370584,3.0077998148121035,1.4261342287063599,0.29285088181495667,0.019031483680009842,-0.0056831445544958115,-0.9463216066360474,0.3231762647628784,0.05240553617477417,0.7620108127593994,-0.16308119893074036
1.2277833928243973,-3.1215371110055092,3.006749323312356,1.3321555852890015,-0.006900966167449951,0.10300148278474808,-0.006744746584445238,-0.9417456388473511,0.33625826239585876,0.021637320518493652,0.8378943204879761,-0.1400761604309082
1.2151186084793206,-3.1201191452989274,3.0035231252739423,1.1775577068328857,-0.30677497386932373,0.16720710694789886,-0.0074770632199943066,-0.9374107122421265,0.34814590215682983,-0.004195929504930973,0.8862631320953369,-0.12260577082633972
1.2043176708951406,-3.119747936223498,2.9987810283153196,0.9616065621376038,-0.49109262228012085,0.21032394468784332,-0.00782699789851904,-0.9335949420928955,0.3582446575164795,-0.02020341157913208,0.8816235065460205,-0.11593508720397949
1.19585443887925,-3.1197364096285565,2.99312957036072,0.7188625335693359,-0.5347761511802673,0.2331959456205368,-0.008003520779311657,-0.9305288791656494,0.36613088846206665,-0.01621219515800476,0.8415549397468567,-0.12292113900184631
1.1897857823853177,-3.118963624423904,2.9869861475233166,0.48591184616088867,-0.43663087487220764,0.24818475544452667,-0.008414085954427719,-0.9282893538475037,0.3717636168003082,0.01695898175239563,0.8083552122116089,-0.1564774513244629
1.1857591809675732,-3.1164927500748734,2.980629650471675,0.31809622049331665,-0.22804145514965057,0.24509339034557343,-0.009426365606486797,-0.9267844557762146,0.3754750192165375,0.04830574989318848,0.7968254685401917,-0.20730796456336975
1.1828968389412498,-3.111905284795629,2.9746943901591347,0.25793009996414185,0.04293093457818031,0.21264703571796417,-0.011227426119148731,-0.92570561170578,0.37807753682136536,0.06966856122016907,0.8015602827072144,-0.2757827639579773
1.1800610849834228,-3.1060307797962885,2.9700112432610095,0.30920958518981934,0.25830191373825073,0.15869338810443878,-0.013541544787585735,-0.924629271030426,0.38062775135040283,0.08359465003013611,0.794029176235199,-0.3222019076347351
1.176376903257485,-3.0998249218881777,2.9670048932351456,0.4170180559158325,0.40569618344306946,0.10369616746902466,-0.01604551635682583,-0.9232197999954224,0.38393718004226685,0.0818261206150055,0.7943440675735474,-0.3379777669906616
1.1714836564955153,-3.0941929145566025,2.9653898473567715,0.5527738332748413,0.40902620553970337,0.06729310005903244,-0.01842140033841133,-0.9213284254074097,0.38834819197654724,0.06219884753227234,0.8159055709838867,-0.3305174708366394
1.165339566709306,-3.089681735397248,2.964637555869067,0.657920241355896,0.3416924476623535,0.054700616747140884,-0.02046646922826767,-0.9189223051071167,0.3939071595668793,0.02306044101715088,0.8530501127243042,-0.31584322452545166
1.158651615804172,-3.086835453038539,2.9643208682172935,0.6577805876731873,0.1525343656539917,0.03777376934885979,-0.021923428401350975,-0.9162638187408447,0.3999750316143036,-0.009647011756896973,0.8999826908111572,-0.2731897830963135
1.152648435505953,-3.0867896023394676,2.964552271089321,0.526448130607605,-0.09637665748596191,0.007474719546735287,-0.02224268764257431,-0.9138426184654236,0.405459463596344,-0.03664097189903259,0.9281399250030518,-0.1957884430885315
1.1483898745218006,-3.0893359080393052,2.9653142939729196,0.3150014281272888,-0.257397323846817,-0.02293013408780098,-0.021413234993815422,-0.9121050238609314,0.4093967080116272,-0.06749975681304932,0.926295816898346,-0.12544602155685425
1.146521399604644,-3.093206853920507,2.9662933294215197,0.058730240911245346,-0.3235750198364258,-0.03489651530981064,-0.019910704344511032,-0.9113374352455139,0.41117772459983826,-0.07950034737586975,0.9026248455047607,-0.06002742052078247
1.1472737391032581,-3.0968862492301037,2.967002736492356,-0.19989940524101257,-0.27032655477523804,-0.031474776566028595,-0.018367083743214607,-0.9116469025611877,0.4105640947818756,-0.06547999382019043,0.8713330030441284,-0.016048133373260498
1.1503730040212323,-3.0994091762339093,2.9673218328993807,-0.40521126985549927,-0.17584320902824402,-0.021352898329496384,-0.01721193827688694,-0.9129162430763245,0.40778353810310364,-0.0471649132668972,0.832258403301239,-0.029747188091278076
1.1550857435910873,-3.1005192256142347,2.9670357261790476,-0.519153356552124,-0.09854014962911606,0.007000620011240244,-0.01658245548605919,-0.9148296117782593,0.4035000205039978,-0.0178566612303257,0.8024178743362427,-0.09144249558448792
1.1603463341476192,-3.0999930926296684,2.965709097469396,-0.5177823305130005,-0.03938255459070206,0.0578899011015892,-0.016594355925917625,-0.9169413447380066,0.39867687225341797,0.019829213619232178,0.8068186640739441,-0.16736888885498047
1.1650070963479506,-3.0976442333715575,2.9631368270743126,-0.4067099094390869,0.03867210075259209,0.10160265862941742,-0.01734280213713646,-0.9187911152839661,0.39436307549476624,0.04346582293510437,0.824903666973114,-0.23901337385177612
1.1681606389554482,-3.094000256889602,2.959915122786989,-0.22095254063606262,0.09170202910900116,0.11482258886098862,-0.018641814589500427,-0.9200314283370972,0.3914015293121338,0.041240062564611435,0.8357874155044556,-0.2888776361942291
1.1693821888428229,-3.090427996119048,2.957151589490714,-0.029096849262714386,0.11052644997835159,0.0783500000834465,-0.01998232491314411,-0.920509397983551,0.39020851254463196,0.016289686784148216,0.8375018239021301,-0.29355955123901367
1.1688266884750167,-3.08802185749595,2.95579540830743,0.12791167199611664,0.11873138695955276,0.02982667088508606,-0.020948566496372223,-0.9202921986579895,0.39067038893699646,-0.012758104130625725,0.8311351537704468,-0.2504269480705261
1.167096480938045,-3.0870255119406607,2.9560540090106313,0.2049926072359085,0.12346281856298447,-0.03226613253355026,-0.02142459899187088,-0.9196138978004456,0.39223843812942505,-0.03861874341964722,0.8116733431816101,-0.1604880690574646
1.1651135866323192,-3.087550925163963,2.957883704182645,0.18745435774326324,0.10253702849149704,-0.08903834223747253,-0.021317001432180405,-0.9188331961631775,0.3940703868865967,-0.0661311149597168,0.7870123386383057,-0.0669676661491394
1.1637829167177411,-3.089659005606967,2.9610483024063403,0.07968202233314514,0.056503720581531525,-0.14592690765857697,-0.02054964378476143,-0.9183071851730347,0.39533454179763794,-0.09140411019325256,0.7752714157104492,0.0036216378211975098
1.163898257439163,-3.0932801110643444,2.9654263892733543,-0.09314195066690445,0.023695703595876694,-0.20274652540683746,-0.01911284774541855,-0.9183528423309326,0.3953005373477936,-0.11148715019226074,0.7768124341964722,0.04932516813278198
1.1659989189668483,-3.098524692077543,2.971174763507067,-0.3066859841346741,-0.018906602635979652,-0.26443609595298767,-0.016956303268671036,-0.9191821813583374,0.39346691966056824,-0.12163928151130676,0.7786489129066467,0.0592765212059021
1.1702714219569694,-3.1050232456066613,2.978021980656314,-0.5172594785690308,-0.008615615777671337,-0.3006018102169037,-0.014255300164222717,-0.9208564758300781,0.389641135931015,-0.10096383094787598,0.7802619934082031,0.0381847620010376
1.176356703853444,-3.111413577431395,2.985352317669949,-0.6683464050292969,0.08912397176027298,-0.2999561131000519,-0.01159579586237669,-0.9232120513916016,0.3841162919998169,-0.04123017191886902,0.772333025932312,0.00222092866897583
1.1836442415788404,-3.1166622362212113,2.9926462897850463,-0.762330949306488,0.2082546353340149,-0.2948492467403412,-0.009411581791937351,-0.9259880781173706,0.3774358034133911,0.012387036345899105,0.736138105392456,-0.02005976438522339
1.1916262401665039,-3.1210078411940745,3.0001467239946495,-0.8128790259361267,0.31081968545913696,-0.3013562858104706,-0.007618927862495184,-0.9289721250534058,0.3700714707374573,0.011769293807446957,0.6798570156097412,-0.03266915678977966
1.1998953727248294,-3.1252333786361066,3.008508933345649,-0.8238829374313354,0.3927784562110901,-0.34590670466423035,-0.005929242819547653,-0.9320011734962463,0.3624068796634674,-0.028326749801635742,0.6184177994728088,-0.04626011848449707
1.2081068947176392,-3.1312614806095387,3.019249325821664,-0.8033576011657715,0.39072173833847046,-0.45123836398124695,-0.003665328025817871,-0.9349460005760193,0.3547707200050354,-0.09339582920074463,0.5426121950149536,-0.046665340662002563
1.2160615468099223,3.1414444479296955,3.0341268119366815,-0.7784525156021118,0.28388237953186035,-0.6037349700927734,5.147798219695687e-05,-0.9377386569976807,0.34734153747558594,-0.16821861267089844,0.47377997636795044,-0.028356581926345825
1.2239953775950707,3.1241730004248156,3.054375389587121,-0.8286460041999817,0.04547645151615143,-0.7649734020233154,0.005920483730733395,-0.9404648542404175,0.3398394286632538,-0.22192391753196716,0.4477890729904175,-0.009547710418701172
1.2329183090936606,3.09940882912137,3.079739005411107,-1.016904354095459,-0.2047126144170761,-0.8642280697822571,0.013979199342429638,-0.9434601664543152,0.3311910927295685,-0.2192557156085968,0.4634033441543579,0.009186655282974243
1.2439730668652624,3.069867611105969,3.10841331672236,-1.291909098625183,-0.26351192593574524,-0.8572620749473572,0.02300659939646721,-0.9470669627189636,0.3202107846736908,-0.1438104510307312,0.4893338084220886,-0.017034053802490234
1.2574584987600734,3.0396711699871477,3.1378302809191263,-1.5385977029800415,-0.17306406795978546,-0.7339313626289368,0.03136143460869789,-0.9513100385665894,0.30663570761680603,-0.01822364702820778,0.49636930227279663,-0.09836867451667786
1.2728318373078422,3.0132543814999857,-3.11855716295787,-1.6709593534469604,0.0028070546686649323,-0.4985021948814392,0.03757355734705925,-0.9559360146522522,0.29116055369377136,0.12407803535461426,0.474032998085022,-0.15300750732421875
1.2887651939224762,2.9946352793433366,-3.098289667545184,-1.6087311506271362,0.14817330241203308,-0.21078626811504364,0.04075223580002785,-0.9604921340942383,0.2753073573112488,0.21852511167526245,0.4103517532348633,-0.15668559074401855
1.3037532536420937,2.9851916808272434,-3.086719342699326,-1.4340689182281494,0.17192938923835754,0.03147338703274727,0.04110310599207878,-0.9645553827285767,0.2606595754623413,0.18802285194396973,0.29460299015045166,-0.17467641830444336
1.31732346680286,2.9823367224834216,-3.082512564075102,-1.2800778150558472,0.05036701261997223,0.16801711916923523,0.039767518639564514,-0.9680473804473877,0.24759359657764435,0.044079508632421494,0.18467652797698975,-0.19466093182563782
1.3299371978753605,2.9818718184651964,-3.0827914785257935,-1.217116117477417,-0.2101903259754181,0.23786304891109467,0.03793745115399361,-0.9711334109306335,0.2355002611875534,-0.10324511677026749,0.1470521092414856,-0.19155506789684296
1.3427225793616,2.9802779956635534,-3.085072036988541,-1.3007285594940186,-0.5571064949035645,0.27037596702575684,0.036315642297267914,-0.9741037487983704,0.22316686809062958,-0.1737973690032959,0.1743294596672058,-0.18187662959098816
1.356993391978303,2.975117884894442,-3.0871660916834096,-1.5070244073867798,-0.8589701652526855,0.28390029072761536,0.03515927493572235,-0.9772310853004456,0.20924416184425354,-0.17589113116264343,0.22707849740982056,-0.1689000129699707
1.373806669378679,2.96644553525294,-3.0875015703378152,-1.7988935708999634,-0.8879123330116272,0.30056264996528625,0.03410448506474495,-0.9806602001190186,0.19272388517856598,-0.11522018909454346,0.25968241691589355,-0.15471434593200684
1.3935113543068642,2.956876831924873,-3.085378090265732,-2.0670487880706787,-0.5730323791503906,0.32129669189453125,0.032391175627708435,-0.9843261241912842,0.17335787415504456,-0.013088852167129517,0.2554442882537842,-0.14030742645263672
1.4151083271157532,2.9465683168566734,-3.0786945237103676,-2.1798653602600098,-0.17313745617866516,0.2667596638202667,0.030049066990613937,-0.9879050850868225,0.15212014317512512,0.06806492805480957,0.20279467105865479,-0.15836109220981598
1.4366848224843007,2.930515114168739,-3.0626951110649134,-2.108856201171875,0.10635744780302048,0.14153404533863068,0.028013925999403,-0.9910205006599426,0.13074173033237457,0.06657525897026062,0.11325877904891968,-0.18889309465885162
1.456745704681452,2.899390157468076,-3.0296451354352656,-1.9691102504730225,0.20285868644714355,-0.04305204376578331,0.027294639497995377,-0.9935032725334167,0.11048118770122528,-0.021206410601735115,0.031131505966186523,-0.19138336181640625
1.4747491057236812,2.8384491985012428,-2.9665941786225107,-1.8473373651504517,0.13391633331775665,-0.26312509179115295,0.028627684339880943,-0.9953910112380981,0.09152545034885406,-0.1352103054523468,-0.026489973068237305,-0.15439176559448242
1.4906274953506689,2.7259123189877386,-2.8531371587223195,-1.8262567520141602,-0.04728540778160095,-0.4846803843975067,0.032338906079530716,-0.9967882037162781,0.07326417416334152,-0.2128656506538391,-0.057121098041534424,-0.09462642669677734
1.5043793424368697,2.5295188568612166,-2.6577618825588005,-1.9703649282455444,-0.25773823261260986,-0.6443930864334106,0.038132671266794205,-0.9977952241897583,0.05431925877928734,-0.2002267837524414,-0.0531843900680542,-0.027830123901367188
1.5148213035178766,2.203033147362879,-2.3339697814217923,-2.2654924392700195,-0.3817427456378937,-0.7116134166717529,0.045132607221603394,-0.9984338283538818,0.03306172415614128,-0.11129474639892578,-0.034967660903930664,0.03233742713928223
1.5179151669109912,1.7274755051037018,-1.8617882797791883,-2.6582162380218506,-0.40859830379486084,-0.6709237098693848,0.052210815250873566,-0.9986020922660828,0.008247949182987213,0.018513686954975128,-0.02456080913543701,0.051261186599731445
1.5089760604103737,1.2322401345037595,-1.3693183634932753,-3.038623571395874,-0.28609928488731384,-0.5342297554016113,0.05827343463897705,-0.9980897307395935,-0.020518846809864044,0.14637744426727295,-0.02931499481201172,-0.003696916624903679
1.4890917701779596,0.8748821096246233,-1.0132998255263046,-3.2649781703948975,-0.16620337963104248,-0.34962156414985657,0.0626354068517685,-0.9966640472412109,-0.05232109874486923,0.2237567901611328,-0.07111543416976929,-0.11682260036468506
1.4634219674676545,0.652345827508706,-0.7911156085531464,-3.267346143722534,-0.10655922442674637,-0.15556231141090393,0.06505676358938217,-0.994240939617157,-0.08516258001327515,0.23830318450927734,-0.16867715120315552,-0.25053083896636963
1.4363059431907037,0.5114378130560173,-0.6504036143777626,-3.0772347450256348,-0.147958904504776,0.011638705618679523,0.06562551110982895,-0.9909697771072388,-0.1169278547167778,0.19697821140289307,-0.28512269258499146,-0.3694308400154114
1.4102219819309074,0.41565884009515447,-0.5556435922712126,-2.8092596530914307,-0.2683441638946533,0.14425240457057953,0.06456055492162704,-0.9871355891227722,-0.146271213889122,0.13372740149497986,-0.395676851272583,-0.44377100467681885
1.3858931175474474,0.3446417382864184,-0.4872335084419347,-2.5710690021514893,-0.45806607604026794,0.2253698855638504,0.06211608275771141,-0.9829540252685547,-0.17304068803787231,0.1087060272693634,-0.4808673858642578,-0.44355177879333496
1.3629172828189924,0.2880905326279282,-0.43518700142138333,-2.4253275394439697,-0.6279515624046326,0.2687072455883026,0.05863858759403229,-0.9784708619117737,-0.19787974655628204,0.11724942922592163,-0.5293568968772888,-0.3824731111526489
1.340441424047654,0.24030823226246883,-0.3931576724164024,-2.3861818313598633,-0.6987390518188477,0.3227968215942383,0.054341260343790054,-0.9735854268074036,-0.2217617630958557,0.15439894795417786,-0.5505385994911194,-0.3172092139720917
1.317696066225047,0.19832554692036555,-0.356787979152761,-2.418649196624756,-0.6069209575653076,0.3844950795173645,0.04933708906173706,-0.968140721321106,-0.24549801647663116,0.21120667457580566,-0.571974515914917,-0.2849433124065399
1.2944459794387273,0.1628468580318929,-0.32490653704388966,-2.4320244789123535,-0.3079015910625458,0.41521283984184265,0.04423600807785988,-0.9620576500892639,-0.2692362666130066,0.22598189115524292,-0.6438535451889038,-0.2898000478744507
1.2712640999254052,0.13596852087357617,-0.29832449364713637,-2.344283103942871,0.016930561512708664,0.3766268193721771,0.039997149258852005,-0.9554746150970459,-0.29234975576400757,0.2015647292137146,-0.7344667315483093,-0.3278895318508148
1.2493635762027655,0.11796981196018212,-0.27813225320430207,-2.1251728534698486,0.21130383014678955,0.2900751829147339,0.037183377891778946,-0.9487837553024292,-0.31373047828674316,0.15181195735931396,-0.8191757798194885,-0.3640954792499542
1.229828395524762,0.10687115833280704,-0.2637389582227301,-1.849365472793579,0.2760804295539856,0.20700399577617645,0.03566966578364372,-0.9424314498901367,-0.33249160647392273,0.07874071598052979,-0.8921175003051758,-0.36698663234710693
1.2127831314547366,0.09924726407215563,-0.2529681469659775,-1.6168408393859863,0.2083839327096939,0.18172550201416016,0.03472055494785309,-0.9365949034690857,-0.3486895263195038,0.02831348404288292,-0.9631853103637695,-0.325108140707016
1.1977124511288275,0.09184790572532993,-0.2433824462923904,-1.4426411390304565,0.10714679211378098,0.22012215852737427,0.03343047574162483,-0.9312077164649963,-0.36295241117477417,0.035935964435338974,-1.0502679347991943,-0.24805530905723572
1.184086242451718,0.0832821489537649,-0.2333452182891926,-1.3353796005249023,0.04868535324931145,0.278818815946579,0.03137302026152611,-0.9261548519134521,-0.3758362829685211,0.0849294662475586,-1.1679003238677979,-0.18716725707054138
1.1713267798919005,0.07443009109983324,-0.2231519902626348,-1.2593226432800293,0.07458753138780594,0.28807249665260315,0.028921347111463547,-0.9212674498558044,-0.38785281777381897,0.12369704246520996,-1.3040742874145508,-0.19341549277305603
1.159575516108749,0.06756488712635018,-0.21441756341424148,-1.1132111549377441,0.15932250022888184,0.2243417352437973,0.026987086981534958,-0.9166334867477417,-0.3988167345523834,0.10742756724357605,-1.4417190551757812,-0.27316510677337646
1.1498543031263329,0.06419450583243301,-0.20856268345381018,-0.8294149041175842,0.23455840349197388,0.11835165321826935,0.02621317282319069,-0.9127044081687927,-0.4077787399291992,0.05597063899040222,-1.5543670654296875,-0.39214807748794556
1.1436703251691307,0.06452451151575533,-0.2060695166780191,-0.40109941363334656,0.2795534133911133,0.005430012475699186,0.026711156591773033,-0.9101600646972656,-0.4133944809436798,-0.0052725691348314285,-1.6305197477340698,-0.5133481025695801
1.1420028770674886,0.06807041238721603,-0.20681104431475733,0.07533636689186096,0.29072511196136475,-0.08778169006109238,0.02828003093600273,-0.9094680547714233,-0.41481074690818787,-0.061925679445266724,-1.670884609222412,-0.5851739645004272
1.1450056213307984,0.07400537512873909,-0.21043939998468875,0.5355052947998047,0.22570882737636566,-0.16653749346733093,0.03053935617208481,-0.9107124209403992,-0.41191041469573975,-0.0859898030757904,-1.676384687423706,-0.6018072962760925
1.1522068187947618,0.08103513015894846,-0.21621194629291962,0.9213272929191589,0.12490178644657135,-0.18333430588245392,0.03290248289704323,-0.9136631488800049,-0.4051382541656494,-0.07014921307563782,-1.6389949321746826,-0.5628030896186829
1.1628291883680053,0.08773232641914895,-0.22274347433574457,1.2214033603668213,0.02338084951043129,-0.15303261578083038,0.03476264700293541,-0.9179292321205139,-0.39521822333335876,-0.015200883150100708,-1.5641416311264038,-0.4913022518157959
1.1761811339924235,0.09346890988971401,-0.22898743888902845,1.4695689678192139,-0.015334054827690125,-0.0867963433265686,0.035882096737623215,-0.9231445789337158,-0.3827747702598572,0.025595571845769882,-1.4899566173553467,-0.4328990876674652
1.1918737577870258,0.09835062477719851,-0.23443021698753252,1.6794891357421875,-0.016748156398534775,-0.019905680790543556,0.03632320091128349,-0.9290637373924255,-0.36813196539878845,0.043907493352890015,-1.4185314178466797,-0.3991105556488037
1.2096472243544092,0.10229496170002977,-0.23897167804992056,1.8754929304122925,-0.04546209052205086,0.04649677872657776,0.03608284518122673,-0.9354913830757141,-0.35150212049484253,0.04935109242796898,-1.338571548461914,-0.38883909583091736
1.2294737227166959,0.10530861014297618,-0.24285095618771144,2.0808565616607666,-0.07191149890422821,0.09646916389465332,0.03518522158265114,-0.9423127770423889,-0.33287930488586426,0.040345754474401474,-1.2494901418685913,-0.38585546612739563
1.251263884493792,0.10814507525386832,-0.2465467160874686,2.259014368057251,-0.05505954846739769,0.12151273339986801,0.03390466049313545,-0.9493823647499084,-0.31228774785995483,0.032028526067733765,-1.1546062231063843,-0.38342154026031494
1.2746301832295321,0.11224696577302107,-0.2512918943725641,2.3987958431243896,-0.02891146019101143,0.10127389430999756,0.03269112855195999,-0.9564624428749084,-0.2900186777114868,0.034188151359558105,-1.0597881078720093,-0.37515777349472046
1.2991621769544255,0.1191394473251133,-0.25856501981334123,2.502808094024658,0.016609951853752136,0.05923749506473541,0.031890254467725754,-0.9633337259292603,-0.26640403270721436,0.037323590368032455,-0.9713128209114075,-0.3710777461528778
1.3244791880046132,0.130182725119361,-0.2694079851242618,2.570160388946533,0.10142740607261658,0.022670019418001175,0.03165333345532417,-0.9698169827461243,-0.24177028238773346,0.05809884890913963,-0.8873911499977112,-0.37689733505249023
1.350248776529941,0.14631114917924856,-0.28426887366265224,2.6087992191314697,0.23525844514369965,0.013060000725090504,0.03189346566796303,-0.975777804851532,-0.21642614901065826,0.09989669919013977,-0.804266631603241,-0.39357447624206543
1.3763281050607035,0.16746100842574668,-0.3027307302997605,2.6510167121887207,0.37736624479293823,0.05663163959980011,0.03220990672707558,-0.9811505675315857,-0.19054138660430908,0.13801711797714233,-0.709538459777832,-0.42357921600341797
1.4030127024435128,0.19320717516891486,-0.3245474456371818,2.7271034717559814,0.46986979246139526,0.12906669080257416,0.03206470236182213,-0.9859573245048523,-0.16389000415802002,0.13933724164962769,-0.6163222789764404,-0.46371930837631226
1.4306432215945806,0.2244071090700148,-0.35118251715500837,2.833954334259033,0.4955190420150757,0.21699874103069305,0.03108593262732029,-0.9901946187019348,-0.13619157671928406,0.10013964772224426,-0.5347076058387756,-0.4968498945236206
1.459417511632011,0.265219290056465,-0.3875420678040253,2.9490928649902344,0.4414856731891632,0.2881685495376587,0.029134148731827736,-0.9938037991523743,-0.10726147890090942,0.04052218422293663,-0.4647074341773987,-0.5075151920318604
1.4890681879462804,0.32941671725584665,-0.4480421365399116,3.032047986984253,0.35285645723342896,0.3255353569984436,0.026408571749925613,-0.9966621398925781,-0.07724666595458984,-0.017207534983754158,-0.4135093092918396,-0.48307138681411743
1.5185470617477845,0.46354828141581156,-0.5793208274598014,3.0415520668029785,0.2739219665527344,0.32163888216018677,0.02335098572075367,-0.9986352920532227,-0.04671357199549675,-0.04912310838699341,-0.3639134168624878,-0.4279264211654663
1.5445686361687632,0.8904967707296919,-1.0041058974511305,2.9661123752593994,0.2183205485343933,0.2849196791648865,0.02038154937326908,-0.999656081199646,-0.01649187132716179,-0.05749094858765602,-0.2998890280723572,-0.375094473361969
1.5491110915050288,2.1855457767135453,-2.297299380043524,2.795891761779785,0.20818296074867249,0.2493196278810501,0.01771540194749832,-0.9997648596763611,0.012507285922765732,-0.047897279262542725,-0.21640640497207642,-0.3426007032394409
1.5284675381654504,2.7721979700194943,-2.882030076922652,2.5687997341156006,0.23199641704559326,0.22655394673347473,0.01527862623333931,-0.9991042613983154,0.039462629705667496,-0.025059521198272705,-0.11835789680480957,-0.319644570350647
1.5053567881000638,2.942860399885089,-3.05018995336369,2.3498079776763916,0.31752222776412964,0.21514442563056946,0.012910669669508934,-0.9978595972061157,0.06410762667655945,-0.005601702257990837,-0.03200197219848633,-0.32665038108825684
1.4831485452002233,3.019741157831886,-3.1238154963879645,2.2063333988189697,0.36204949021339417,0.18377891182899475,0.010639816522598267,-0.9961614012718201,0.08688531070947647,-0.008335770107805729,0.006415426731109619,-0.3699207305908203
1.4616717109148185,3.062348698517442,3.1199549990502224,2.143251419067383,0.2989293932914734,0.15563569962978363,0.008621358312666416,-0.9940518140792847,0.10856733471155167,-0.019287288188934326,0.014925718307495117,-0.4115307331085205
1.44038914118569,3.088908315668016,3.0956911576361037,2.13204026222229,0.19190959632396698,0.14414013922214508,0.006847789511084557,-0.9915090203285217,0.12985742092132568,-0.020458638668060303,0.03133445978164673,-0.44284582138061523
1.419046428376754,3.107241527183587,3.0786471449950525,2.139660120010376,0.10004119575023651,0.15056687593460083,0.005191777367144823,-0.9885080456733704,0.15107904374599457,-0.009632080793380737,0.06410008668899536,-0.4672260284423828
1.3976057703173537,3.121225152507416,3.0650984228870337,2.1461021900177,0.026442617177963257,0.16952595114707947,0.0035095985513180494,-0.9850399494171143,0.17228981852531433,0.010848909616470337,0.10959756374359131,-0.4774351119995117
1.3761056747739495,3.132994584023083,3.0530641531235214,2.140063524246216,-0.03824130445718765,0.2133866250514984,0.0016633833292871714,-0.9811075925827026,0.19345532357692719,0.034026920795440674,0.1757792830467224,-0.47328639030456543
1.3549177466313587,-3.1384069236769525,3.040521195247377,2.07981538772583,-0.048202138394117355,0.2890569567680359,-0.0006824018782936037,-0.9767885804176331,0.21420510113239288,0.05453065037727356,0.2634095549583435,-0.4460471570491791
1.3345236703858954,-3.125159046130262,3.0265292962163635,1.97526216506958,-0.03190945088863373,0.37394413352012634,-0.003846609964966774,-0.9722172021865845,0.23404864966869354,0.058228909969329834,0.36212509870529175,-0.423944354057312
1.3152351240284081,-3.111182149122572,3.0116703504608,1.8516055345535278,-0.05924251675605774,0.4347469210624695,-0.007686259225010872,-0.967521607875824,0.2526722252368927,0.03869211673736572,0.44239020347595215,-0.4015063941478729
1.297156396521438,-3.097711638313852,2.996762010866177,1.7192389965057373,-0.12867432832717896,0.47304612398147583,-0.011854485608637333,-0.9627936482429504,0.26997724175453186,0.012846292927861214,0.5045570135116577,-0.3679387867450714
1.2803499196253585,-3.085746472180894,2.982567843134712,1.5918419361114502,-0.19383160769939423,0.4761601388454437,-0.015984870493412018,-0.9581161141395569,0.2859326899051666,-0.02374904975295067,0.5582597851753235,-0.32751303911209106
1.2645923880270773,-3.075604379570737,2.969999937881153,1.5086064338684082,-0.16280631721019745,0.44223493337631226,-0.019877174869179726,-0.9534847140312195,0.30078548192977905,-0.06360366940498352,0.5999996066093445,-0.29929018020629883
1.2492053512121037,-3.067825325445322,2.9606406083160275,1.5241177082061768,-0.06262284517288208,0.33616113662719727,-0.023294968530535698,-0.9487337470054626,0.3152167797088623,-0.09247347712516785,0.6188235282897949,-0.3193366825580597
1.233313451554381,-3.0640441088808816,2.956414131403793,1.6226415634155273,0.01847599819302559,0.16999268531799316,-0.02565162256360054,-0.9435911178588867,0.3301181197166443,-0.09773096442222595,0.6107969284057617,-0.36181068420410156
1.216314897506609,-3.0649237358735872,2.957999526680119,1.765293836593628,0.10962533205747604,-0.015970434993505478,-0.02658604271709919,-0.9378266334533691,0.3460845947265625,-0.07210782170295715,0.6250061988830566,-0.3657684326171875
1.1980713613041303,-3.0694068430111314,2.964611070868317,1.8909436464309692,0.2271498292684555,-0.173960879445076,-0.026263970881700516,-0.9313384890556335,0.36320623755455017,-0.04046273231506348,0.6695587038993835,-0.35133492946624756
1.1789472829964842,-3.075823048324474,2.9745364961636165,1.9531714916229248,0.32133162021636963,-0.29681989550590515,-0.025099191814661026,-0.9242044687271118,0.3810725510120392,-0.008409112691879272,0.7317606210708618,-0.3087306022644043
1.159644285666569,-3.083256610267694,2.9863999885456525,1.9367802143096924,0.3723612427711487,-0.3850989043712616,-0.02330167591571808,-0.9166610240936279,0.39898553490638733,0.006105007603764534,0.7932174801826477,-0.24864080548286438
1.1408160521894521,-3.0911155866236437,2.999383733615576,1.8679264783859253,0.41959822177886963,-0.46329885721206665,-0.021032560616731644,-0.9089739918708801,0.41632163524627686,-0.007455585524439812,0.8394855260848999,-0.20750528573989868
1.1227683370877597,-3.0993194984277648,3.013206638695232,1.7815815210342407,0.43659693002700806,-0.539259672164917,-0.018306802958250046,-0.9013031125068665,0.4328017830848694,-0.0273932795971632,0.8737152814865112,-0.17187660932540894
1.1055091522533682,-3.1080640198783813,3.027821138754111,1.7054204940795898,0.43011051416397095,-0.6140022873878479,-0.015040778554975986,-0.8936927318572998,0.44842690229415894,-0.03654920682311058,0.9068917632102966,-0.13487419486045837
1.0890149294318776,-3.117659173312756,3.0431613895782252,1.6182595491409302,0.3697299659252167,-0.6841626763343811,-0.011088734492659569,-0.8861709237098694,0.4632262885570526,-0.03799879923462868,0.943833589553833,-0.09715259075164795
1.073531462805078,-3.1284314241152966,3.0590558748678673,1.4908760786056519,0.280627965927124,-0.7487043142318726,-0.0062780375592410564,-0.8788905739784241,0.4769824147224426,-0.039223700761795044,0.9859308004379272,-0.06444579362869263
1.0594620114751694,-3.140392897664611,3.0754320409406284,1.3190358877182007,0.19532319903373718,-0.8051790595054626,-0.0005870898021385074,-0.8720923662185669,0.48934078216552734,-0.03543892502784729,1.021613359451294,-0.04868236184120178
1.0472400258549566,3.129856575842063,3.0920713820962527,1.1029272079467773,0.11441469937562943,-0.8452938199043274,0.005867477040737867,-0.866046667098999,0.49992915987968445,-0.02202656678855419,1.03969144821167,-0.036977410316467285
1.0372589720389698,3.116585291993249,3.1084922518010747,0.8530967235565186,0.05481155961751938,-0.8220374584197998,0.012716976925730705,-0.8610134124755859,0.5084233283996582,0.004845857620239258,1.0380611419677734,-0.029678821563720703
1.0297497906640822,3.104556629928396,3.122821554528728,0.5974312424659729,0.010479480028152466,-0.6757141947746277,0.01907043531537056,-0.8571701645851135,0.5146803855895996,0.030352773144841194,1.0434798002243042,-0.027467191219329834
1.0247698113231742,3.0955502445811414,3.1334693078710587,0.34943634271621704,0.014254510402679443,-0.4537176489830017,0.02390119433403015,-0.8545946478843689,0.5187457203865051,0.05541396513581276,1.0337936878204346,-0.051429927349090576
1.022246706726867,3.090745620289867,3.139294352190775,0.1291629523038864,0.011646179482340813,-0.16837118566036224,0.02650277502834797,-0.8532817363739014,0.5207763314247131,0.07568532228469849,1.0096079111099243,-0.08120113611221313
1.0218501072512696,3.0903360226651655,3.1395952261957847,-0.04477342590689659,-0.052959710359573364,0.13101498782634735,0.026733411476016045,-0.853074848651886,0.5211032629013062,0.066925048828125,0.9753892421722412,-0.1014714241027832
1.0230482499884084,3.0935688662732446,3.1345237555671335,-0.1614324152469635,-0.16544637084007263,0.40108683705329895,0.024999529123306274,-0.8536993861198425,0.5201653242111206,0.031091775745153427,0.9337929487228394,-0.10570633411407471
1.025317134006805,3.0994543284264497,3.1249351745101914,-0.23811200261116028,-0.29501232504844666,0.5989306569099426,0.021856065839529037,-0.8548787832260132,0.5183672308921814,-0.022741079330444336,0.8908437490463257,-0.12031126022338867
1.0282054255013642,3.1067079680405376,3.1123312008599946,-0.2854263186454773,-0.4025067687034607,0.7084619402885437,0.018009277060627937,-0.8563737273216248,0.5160422325134277,-0.07916653156280518,0.8566789627075195,-0.1423240303993225
1.031500618417516,3.1142212232805924,3.098471873563581,-0.3242802321910858,-0.46356719732284546,0.7234310507774353,0.014054346829652786,-0.8580705523490906,0.5133395195007324,-0.11651712656021118,0.8439714312553406,-0.15468168258666992
1.0350214421606416,3.120843552280713,3.0851355767712496,-0.338885098695755,-0.49372440576553345,0.6444475054740906,0.010591818951070309,-0.8598732948303223,0.5103979706764221,-0.13014444708824158,0.8480628132820129,-0.16033077239990234
1.0384891666787202,3.1256161936983746,3.0739194561123684,-0.3274388313293457,-0.46944302320480347,0.5014762282371521,0.008108073845505714,-0.8616384267807007,0.5074580907821655,-0.12141984701156616,0.8551228046417236,-0.1606869101524353
1.0417217129798817,3.1284612807686982,3.065657198473686,-0.3038634955883026,-0.3770908713340759,0.34228938817977905,0.00662767281755805,-0.8632745146751404,0.504691481590271,-0.09602892398834229,0.8641746044158936,-0.14800196886062622
1.044679844003536,3.1296921908610433,3.06060283016821,-0.2810026705265045,-0.2428763508796692,0.17520855367183685,0.005976018030196428,-0.8647637963294983,0.502143144607544,-0.06728583574295044,0.8677087426185608,-0.11321204900741577
1.0474305321409616,3.129496988484789,3.058811284576895,-0.2668200433254242,-0.10254424065351486,0.010414442978799343,0.006045246031135321,-0.8661418557167053,0.49976179003715515,-0.052966028451919556,0.8523326516151428,-0.07454514503479004
1.050084851536512,3.1279561694016103,3.0602619904811665,-0.2682168781757355,0.045992765575647354,-0.1453501284122467,0.006783909630030394,-0.8674654364585876,0.4974514842033386,-0.04772326350212097,0.8233826756477356,-0.05169647932052612
1.0528893544132336,3.125083461099743,3.064695928427379,-0.30531710386276245,0.14117306470870972,-0.2815646827220917,0.00817271787673235,-0.8688572645187378,0.49499544501304626,-0.04494640231132507,0.799353301525116,-0.03413426876068115
1.0563002740192728,3.1206065172608994,3.071700126551499,-0.3977234661579132,0.1736638993024826,-0.3893952965736389,0.010326436720788479,-0.8705407977104187,0.4919877052307129,-0.04127126932144165,0.7885249257087708,-0.019423067569732666
1.060865914798373,3.114388919348512,3.080835105045536,-0.5388296842575073,0.17671319842338562,-0.47824355959892273,0.01327695231884718,-0.8727784752845764,0.4879358410835266,-0.04005613923072815,0.7908235192298889,-0.013311266899108887
1.0669317339565303,3.106735865357303,3.091761786113333,-0.7009064555168152,0.208398699760437,-0.5369513630867004,0.016825906932353973,-0.8757232427597046,0.48251986503601074,-0.032908711582422256,0.8025116920471191,-0.014715999364852905
1.0744155464253358,3.0983635185003915,3.1040762927454413,-0.8300965428352356,0.2761830687522888,-0.5765914916992188,0.020581301301717758,-0.8793119788169861,0.4758012890815735,-0.015423834323883057,0.8066190481185913,-0.010011672973632812
1.0828649021828944,3.0898410651673793,3.1171460444109282,-0.9051303267478943,0.3159528374671936,-0.5710965991020203,0.024250296875834465,-0.8833044767379761,0.46817198395729065,0.010158270597457886,0.7904242277145386,0.0057506561279296875
1.0919171739509295,3.0813254717334733,3.1303428079676947,-0.9674001932144165,0.31197622418403625,-0.5451518297195435,0.027753422036767006,-0.8875119686126709,0.45994871854782104,0.02453843504190445,0.7626795172691345,0.02103888988494873
1.101646818864153,3.0728047000668606,-3.1398999349104457,-1.0472733974456787,0.28745409846305847,-0.5083277821540833,0.031076418235898018,-0.89195317029953,0.45105844736099243,0.02066612057387829,0.73118656873703,0.020285457372665405
1.1121942514146523,3.0640118794423254,-3.126944997758825,-1.136869192123413,0.2729526162147522,-0.4905658960342407,0.03431016579270363,-0.896672248840332,0.44136324524879456,-0.0010155178606510162,0.7002459168434143,-0.014575034379959106
1.1235990567183227,3.054559682152934,-3.113515599323898,-1.225938320159912,0.24806615710258484,-0.49126631021499634,0.037589047104120255,-0.9016626477241516,0.4308032691478729,-0.023993462324142456,0.6831873059272766,-0.07942390441894531
1.1358049158614056,3.043899579252639,-3.0991450918824333,-1.3052624464035034,0.21793775260448456,-0.5031290054321289,0.041102681308984756,-0.9068736433982849,0.41939347982406616,-0.04041605815291405,0.6885660886764526,-0.15433305501937866
1.148488577916324,3.0317429956586173,-3.083688475193614,-1.3318055868148804,0.15478089451789856,-0.5077381730079651,0.044933173805475235,-0.9121454954147339,0.4073958098888397,-0.034282539039850235,0.6962490081787109,-0.23483425378799438
1.1609948439234998,3.0184576635998726,-3.0675834537577593,-1.2842528820037842,0.15571261942386627,-0.48276078701019287,0.04893647879362106,-0.9171999096870422,0.39541077613830566,0.002104133367538452,0.6784456372261047,-0.30619263648986816
1.1726684999555683,3.006633313070992,-3.0524719816810233,-1.1710442304611206,0.25244849920272827,-0.382111132144928,0.05216415598988533,-0.9217884540557861,0.38416802883148193,0.04982558637857437,0.6450701951980591,-0.3369268774986267
1.1833357936228674,2.998331786271514,-3.040606686755937,-1.069292664527893,0.26628822088241577,-0.21361760795116425,0.05394453555345535,-0.9258715510368347,0.3739680051803589,0.07189470529556274,0.6080766916275024,-0.33516502380371094
1.1937975768337001,2.9938984221355267,-3.0333395745156917,-1.097830057144165,0.1817733347415924,-0.01994827389717102,0.054173488169908524,-0.9297736883163452,0.36412397027015686,0.031153656542301178,0.5676367282867432,-0.32291004061698914
1.2057765529659945,2.9918386580226852,-3.0301254807803155,-1.3206990957260132,-0.010958307422697544,0.13316480815410614,0.0532577745616436,-0.9341167211532593,0.3529725670814514,-0.05055698752403259,0.5239146947860718,-0.3123537302017212
1.2208618014141945,2.9889866964398797,-3.0287161280168045,-1.6798266172409058,-0.29426059126853943,0.2137129157781601,0.052115991711616516,-0.9393951892852783,0.3388517498970032,-0.1375347077846527,0.4722931981086731,-0.30111685395240784
1.2399941032115682,2.982783014280886,-3.0265935129576107,-2.1134889125823975,-0.5340694785118103,0.23125967383384705,0.05136517807841301,-0.9457820653915405,0.3207149803638458,-0.1882365345954895,0.4148218631744385,-0.2992764413356781
1.263424450501995,2.9721693982526975,-3.021544052471642,-2.5379366874694824,-0.5935420989990234,0.2178535908460617,0.0510149784386158,-0.9531320333480835,0.298223078250885,-0.17557251453399658,0.36273884773254395,-0.3164573609828949
1.2905240305745422,2.95863621443636,-3.0128652015522164,-2.8459928035736084,-0.43359795212745667,0.2425267994403839,0.050327133387327194,-0.9609801769256592,0.2720010280609131,-0.09205994009971619,0.3169981837272644,-0.3324410915374756
1.3198963268714352,2.9454485256011798,-3.0025973684281864,-2.9857397079467773,-0.22159141302108765,0.3433505892753601,0.048386137932538986,-0.9686893820762634,0.24351495504379272,0.025329045951366425,0.2641758918762207,-0.3563537895679474
1.35009622630099,2.9358390486039663,-2.9941781291331404,-2.98130202293396,-0.07852035015821457,0.4709625542163849,0.044724855571985245,-0.9757444262504578,0.21429482102394104,0.059645261615514755,0.19376206398010254,-0.4111790657043457
1.3800010272428598,2.9299326696134034,-2.9888899016655706,-2.8908846378326416,-0.08790373802185059,0.5410524010658264,0.03983999416232109,-0.981853723526001,0.1854071170091629,-0.025985006242990494,0.09511983394622803,-0.485471248626709
1.4090760617700002,2.9229476954611524,-2.9836158527084744,-2.8172569274902344,-0.29427215456962585,0.5032779574394226,0.034925613552331924,-0.9869517683982849,0.15718306601047516,-0.145124614238739,-0.016954541206359863,-0.548220157623291
1.4374711140695682,2.9045503423427657,-2.9695989462537895,-2.7979390621185303,-0.6043780446052551,0.3643661141395569,0.031215984374284744,-0.9911253452301025,0.12921370565891266,-0.22620806097984314,-0.10573744773864746,-0.5726799964904785
1.4653804074183923,2.858281053777649,-2.9299725817486677,-2.8294098377227783,-0.7480157017707825,0.14855292439460754,0.029413240030407906,-0.9944489002227783,0.10102671384811401,-0.25133711099624634,-0.18160712718963623,-0.5561354160308838
1.4926604388209963,2.7504371746589666,-2.8288935008877276,-2.9126627445220947,-0.6493631601333618,-0.08758476376533508,0.029759515076875687,-0.9969489574432373,0.07216067612171173,-0.1923571527004242,-0.2526543140411377,-0.5023059844970703
1.5177410225177896,2.498127162126938,-2.5812741451934933,-2.9907281398773193,-0.3802836835384369,-0.24481724202632904,0.031815484166145325,-0.9985929131507874,0.0424237921833992,-0.049973491579294205,-0.3025696873664856,-0.4478040933609009
1.5341198024222205,1.9159958317109769,-2.0010292776174676,-2.969820737838745,-0.10710620135068893,-0.25579798221588135,0.03450208529829979,-0.9993274807929993,0.01240687444806099,0.09655565023422241,-0.3516550660133362,-0.40567171573638916
1.5305100100962805,1.1365443979162189,-1.2211187690080727,-2.878666400909424,0.07337412238121033,-0.14100424945354462,0.03653499111533165,-0.9991886019706726,-0.016944101080298424,0.15909793972969055,-0.41368359327316284,-0.3932732343673706
1.5121181454319135,0.6903080159082685,-0.7736323709089805,-2.7723634243011475,0.048378489911556244,-0.020579567179083824,0.037343528121709824,-0.9982789158821106,-0.04521807283163071,0.10654681921005249,-0.5058561563491821,-0.41684865951538086
1.4892091019500457,0.47236431700598175,-0.5554157418639738,-2.6961817741394043,-0.11005899310112,0.0690203383564949,0.03707997873425484,-0.996673583984375,-0.0725715383887291,0.009749229997396469,-0.605666995048523,-0.42147761583328247
1.4649819615199613,0.3473168579891783,-0.4319334651941606,-2.6466007232666016,-0.31291383504867554,0.11023195832967758,0.03594944253563881,-0.9944068789482117,-0.09931037575006485,-0.0495603121817112,-0.662346601486206,-0.4083191156387329
1.4401953563554402,0.26821821180652905,-0.3562770952814354,-2.595729351043701,-0.45849594473838806,0.0762195959687233,0.03451249375939369,-0.9914838075637817,-0.12557266652584076,-0.07426166534423828,-0.7044389247894287,-0.4078594446182251
1.415380609648253,0.2184358644301521,-0.3107493466381245,-2.511324405670166,-0.4617740213871002,-0.019756201654672623,0.033543482422828674,-0.9879472851753235,-0.15111197531223297,-0.05392924323678017,-0.7293224930763245,-0.3892170190811157
1.3911708099063642,0.18931381870292485,-0.28541094956053054,-2.3784828186035156,-0.35231390595436096,-0.13375186920166016,0.03362119197845459,-0.9839106798171997,-0.1754682958126068,0.016030870378017426,-0.720404326915741,-0.37798330187797546
1.3682731359275855,0.17423775796302302,-0.2727042182400355,-2.1910879611968994,-0.1602208912372589,-0.2116120457649231,0.03486937656998634,-0.9795621633529663,-0.19809596240520477,0.09458616375923157,-0.6896730065345764,-0.3609555959701538
1.3471932138169829,0.1669125486756631,-0.2658130159797445,-2.0032873153686523,0.036713339388370514,-0.20146937668323517,0.03684030845761299,-0.975104808807373,-0.21866272389888763,0.1481267213821411,-0.6630482077598572,-0.31864506006240845
1.327837592245737,0.16112750559737699,-0.25891849725903554,-1.8683528900146484,0.13610251247882843,-0.10651356726884842,0.038595885038375854,-0.970630407333374,-0.23745973408222198,0.16994595527648926,-0.6606867909431458,-0.25488045811653137
1.3095143758207655,0.153494293980182,-0.24954195382683347,-1.8209670782089233,0.1397940218448639,-0.010777203366160393,0.03949498385190964,-0.9660596251487732,-0.255281925201416,0.12098172307014465,-0.701786994934082,-0.1929602324962616
1.2915301373137107,0.14451075132545993,-0.23924655660125735,-1.8011579513549805,0.03621888533234596,0.005615351255983114,0.03969592601060867,-0.9612579941749573,-0.2727770209312439,0.012367069721221924,-0.7744750380516052,-0.16620314121246338
1.2738100146156344,0.13714113513876627,-0.23181572756469018,-1.7494319677352905,-0.07391393184661865,-0.10191982239484787,0.04000726714730263,-0.9562227725982666,-0.28989213705062866,-0.07226434350013733,-0.8498685359954834,-0.1491338014602661
1.2564188706071309,0.1352970226504092,-0.23069712504061493,-1.6967191696166992,-0.06101863831281662,-0.3121873140335083,0.041709642857313156,-0.9509890675544739,-0.3063986897468567,-0.09622931480407715,-0.9295040369033813,-0.09904265403747559
1.2391427838572187,0.1418406589879095,-0.2371191536054972,-1.659066915512085,0.1787598431110382,-0.5658031105995178,0.04602961987257004,-0.9455052018165588,-0.32233721017837524,-0.011849939823150635,-1.0133265256881714,-0.02554798126220703
1.2218652757102884,0.15756674922138267,-0.25009433919220764,-1.614883542060852,0.5179033279418945,-0.7899049520492554,0.05364842712879181,-0.9397386908531189,-0.33765822649002075,0.1363997757434845,-1.0838360786437988,0.026745080947875977
1.2049704019996446,0.1793917724306704,-0.2665217788273631,-1.5044058561325073,0.7521134614944458,-0.8823716044425964,0.06382846087217331,-0.9338286519050598,-0.3519798517227173,0.2339620590209961,-1.1632477045059204,0.022771447896957397
1.1893027852437226,0.20144580931786416,-0.28181482484431414,-1.3468353748321533,0.7753034830093384,-0.7764701843261719,0.07449343055486679,-0.9281095862388611,-0.36477819085121155,0.3011169135570526,-1.2783417701721191,-0.028974860906600952
1.1757007846140233,0.2181173993134697,-0.292138886930555,-1.1423842906951904,0.6297916769981384,-0.5402695536613464,0.0832885205745697,-0.9229598045349121,-0.37577691674232483,0.3544251024723053,-1.4318528175354004,-0.08125436305999756
1.1647978228417797,0.22693964602457517,-0.2959473937503257,-0.9082269072532654,0.43729734420776367,-0.22375579178333282,0.08885934203863144,-0.9187085032463074,-0.3848098814487457,0.38614675402641296,-1.6049120426177979,-0.12906044721603394
1.156979135829094,0.227822133892902,-0.2927964379664206,-0.6657953262329102,0.3227214515209198,0.11528761684894562,0.09081852436065674,-0.9155925512313843,-0.39171701669692993,0.41896235942840576,-1.7201189994812012,-0.15242671966552734
1.1523608502236427,0.22188145271802764,-0.2831976447692942,-0.4001138210296631,0.24393852055072784,0.42526546120643616,0.089419424533844,-0.9137257933616638,-0.3963700830936432,0.4105195105075836,-1.742539405822754,-0.1757887601852417
1.1510192800611105,0.21100268169558953,-0.26886879464949215,-0.10803144425153732,0.20339450240135193,0.6371992230415344,0.0853588879108429,-0.9131798148155212,-0.39851778745651245,0.3464037775993347,-1.7079291343688965,-0.23354709148406982
1.1528574371887932,0.1983001223496942,-0.25275414236383614,0.203153595328331,0.20068207383155823,0.6999363899230957,0.07995912432670593,-0.913927435874939,-0.3979235589504242,0.24113157391548157,-1.6770758628845215,-0.3173322379589081
1.1578239156826018,0.18701947245004152,-0.23812022727954568,0.547958493232727,0.22151395678520203,0.6330358386039734,0.07462043315172195,-0.9159319400787354,-0.3943355083465576,0.12133294343948364,-1.6617810726165771,-0.41386157274246216
1.1661486283688507,0.17954391861297456,-0.22745683450243276,0.933577835559845,0.23247233033180237,0.4978785514831543,0.07030633091926575,-0.9192411303520203,-0.3873661756515503,0.013449154794216156,-1.6442657709121704,-0.5069209337234497
1.1781852054149462,0.17661776485637684,-0.221976815980597,1.3594062328338623,0.21345286071300507,0.3362632393836975,0.06722355633974075,-0.9239131808280945,-0.3766501843929291,-0.052056342363357544,-1.6088168621063232,-0.5823037624359131
1.1942187183626,0.1795324272236776,-0.222963038812098,1.7904434204101562,0.16760121285915375,0.1655666083097458,0.06566718965768814,-0.9299286007881165,-0.36182957887649536,-0.10465341806411743,-1.5287810564041138,-0.6330282688140869
1.2137323132529594,0.1870778523155131,-0.22967099677305602,2.1018543243408203,0.08926542848348618,0.08527647703886032,0.06500764936208725,-0.936927080154419,-0.34342649579048157,-0.08838412165641785,-1.371453046798706,-0.6089203357696533
1.2355493054849085,0.19764252618094064,-0.24026555683140224,2.2891757488250732,0.02839355170726776,0.04475647956132889,0.06460240483283997,-0.9443290829658508,-0.3225977420806885,-0.040005236864089966,-1.2315285205841064,-0.5643194317817688
1.2586030328834434,0.2107149756540296,-0.25420615537085506,2.3807785511016846,-0.058439597487449646,0.0236246045678854,0.06424249708652496,-0.9516621828079224,-0.30035296082496643,-0.03743281960487366,-1.1208932399749756,-0.5195934176445007
1.2821928324059335,0.2255344604181484,-0.27070624177263164,2.4201178550720215,-0.12667351961135864,0.049046605825424194,0.06364744901657104,-0.958642303943634,-0.2774060070514679,-0.009249888360500336,-0.989249050617218,-0.5153491497039795
1.30605545366008,0.24079391540208955,-0.28858537510352844,2.4141361713409424,-0.31484493613243103,0.1104639321565628,0.06239888072013855,-0.9651603102684021,-0.2541102170944214,0.016122817993164062,-0.8473243713378906,-0.5270940661430359
1.329130570302829,0.25214332098804887,-0.3047083852200388,2.231606960296631,-0.4691319763660431,0.22917033731937408,0.059705622494220734,-0.9709406495094299,-0.2317528873682022,0.03431904315948486,-0.7116154432296753,-0.430020809173584
1.350603176718199,0.26154682644403215,-0.31865435545038434,2.082641839981079,-0.3568904995918274,0.22291871905326843,0.056477487087249756,-0.97585529088974,-0.21098999679088593,-0.0068711936473846436,-0.6508689522743225,-0.40194034576416016
1.3709058358746522,0.2752545319472581,-0.3363409661715451,2.026139259338379,-0.38662365078926086,0.1520932912826538,0.053967393934726715,-0.9800883531570435,-0.1910868138074875,-0.046017564833164215,-0.6487414836883545,-0.5373373031616211
1.3909865270438408,0.29222690979600974,-0.35782358442827494,2.050576686859131,-0.41958075761795044,0.2057284414768219,0.05152171105146408,-0.9838777184486389,-0.17125973105430603,0.055198244750499725,-0.5503170490264893,-0.6217396259307861
1.4118101660925504,0.3106521553432786,-0.38040388254373736,2.1482090950012207,-0.3356850743293762,0.2921408414840698,0.048394206911325455,-0.9873883128166199,-0.15073882043361664,0.11641597747802734,-0.4041978716850281,-0.6905241012573242
1.4337817944452884,0.33576725248971123,-0.40881025914506447,2.274096965789795,-0.26939883828163147,0.2957220673561096,0.04500414803624153,-0.990628182888031,-0.12895852327346802,0.05051582679152489,-0.2933530807495117,-0.7461788654327393
1.4567178700661925,0.37730369221341586,-0.4533930717069246,2.3978002071380615,-0.27526313066482544,0.2599872350692749,0.04193708300590515,-0.9935001134872437,-0.10582432895898819,-0.03185105696320534,-0.18600422143936157,-0.7573501467704773
1.4802430890390017,0.4475091247705315,-0.5269392126128277,2.4915459156036377,-0.3187602162361145,0.25007912516593933,0.03913070261478424,-0.9959028363227844,-0.0815245658159256,-0.060874491930007935,-0.0500718355178833,-0.7251924276351929
1.5035663273980209,0.5721298522631847,-0.6554161939399372,2.53700590133667,-0.3747856616973877,0.2526509463787079,0.036373067647218704,-0.9977409243583679,-0.05648189038038254,-0.0543937087059021,0.08167952299118042,-0.6706604957580566
1.5247573291790013,0.8239218459179964,-0.9116691968404239,2.515005111694336,-0.4336749315261841,0.22747062146663666,0.033770859241485596,-0.9989404082298279,-0.031264230608940125,-0.05000624433159828,0.18750858306884766,-0.6082621812820435
1.5384441575312036,1.3647028386415858,-1.4577136151638792,2.424750566482544,-0.5238288640975952,0.16648823022842407,0.03166082501411438,-0.9994767308235168,-0.006619070190936327,-0.05721932649612427,0.28506022691726685,-0.5400881767272949
1.5357680448614177,2.079663424377826,-2.1783876609182338,2.335604667663574,-0.5423282384872437,0.05566571652889252,0.030584441497921944,-0.9993865489959717,0.017062213271856308,-0.08624851703643799,0.35140687227249146,-0.48866569995880127
1.5203862853746863,2.4878524426191344,-2.592155299056552,2.281238079071045,-0.4991925060749054,-0.035453006625175476,0.030644522979855537,-0.9987297058105469,0.03999948501586914,-0.10289490222930908,0.4041557312011719,-0.4701906442642212
1.5006101149085957,2.6753575436509567,-2.785211003776488,2.265700578689575,-0.5783339142799377,-0.08318936824798584,0.03152463212609291,-0.9975379705429077,0.06264351308345795,-0.0389404296875,0.4695228338241577,-0.44664621353149414
1.4805501305184967,2.7572977798623355,-2.874917268399695,1.992150902748108,-0.6148993968963623,-0.23239536583423615,0.03378850594162941,-0.995930552482605,0.08355191349983215,-0.1045282781124115,0.5859267711639404,-0.25583887100219727
1.4618536708104406,2.7867400858763105,-2.9096440942471338,1.6853902339935303,-0.49278563261032104,-0.49505650997161865,0.03777750954031944,-0.9940716028213501,0.10195328295230865,-0.22219523787498474,0.7404400110244751,-0.129175066947937
1.4463981459185271,2.7688868146754775,-2.896772073557692,1.0506888628005981,-0.5008962750434875,-0.8908664584159851,0.04518136382102966,-0.9922724962234497,0.11555946618318558,-0.23869332671165466,0.7585078477859497,0.10508251190185547
1.4362576887627345,2.702538202680916,-2.8349620918622325,0.14880627393722534,-0.6039206981658936,-1.3809152841567993,0.057017624378204346,-0.990963339805603,0.12141072750091553,-0.24640974402427673,0.7491878867149353,0.3785586357116699
1.4315873558752212,2.585463170701864,-2.7214785037983953,-0.7800377607345581,-0.1754167526960373,-1.7339993715286255,0.0732514038681984,-0.9903260469436646,0.11784888058900833,-0.3096558451652527,0.8014986515045166,0.5867714881896973
1.429683934228286,2.4373162701809488,-2.570713532020203,-1.321532130241394,0.300554096698761,-1.854443073272705,0.09106481075286865,-0.9900601506233215,0.1071823388338089,-0.28649938106536865,1.0341122150421143,0.41437816619873047
1.4262998509854228,2.282155738291918,-2.4113486864354727,-1.3235307931900024,0.15847474336624146,-1.8066893815994263,0.10907189548015594,-0.9895785450935364,0.09400853514671326,-0.16642969846725464,1.1775362491607666,0.2550361156463623
1.4194974560495648,2.1507806158166822,-2.2790425776644994,-0.9238750338554382,-0.25208476185798645,-1.5859326124191284,0.12607522308826447,-0.9885761141777039,0.08259768038988113,-0.05016276240348816,1.1370899677276611,0.1266307830810547
1.4108357646806409,2.067004848777774,-2.1981297125736012,-0.32757967710494995,-0.5004274845123291,-1.1550675630569458,0.14006975293159485,-0.987233579158783,0.0758323147892952,0.02286359667778015,1.0646260976791382,-0.053493499755859375
1.4027102309012767,2.0329477301869185,-2.167989680871816,0.18910624086856842,-0.31685107946395874,-0.7644076943397522,0.14974531531333923,-0.9859067797660828,0.07459279894828796,0.10393203794956207,1.030569314956665,-0.21144890785217285
1.3948106259115818,2.0349647538653013,-2.171563913548126,0.6211783289909363,0.01812877506017685,-0.6137758493423462,0.15655477344989777,-0.9845544695854187,0.07837933301925659,0.20100438594818115,0.9158593416213989,-0.32137560844421387
1.3859629905222244,2.0629790316285543,-2.1983281818141567,1.0473850965499878,0.3026564121246338,-0.49810707569122314,0.16196899116039276,-0.9829668998718262,0.0868469774723053,0.25931090116500854,0.7467607259750366,-0.33271193504333496
1.3763915364571089,2.1150329303495035,-2.247199817176978,1.491041898727417,0.49134162068367004,-0.2318493127822876,0.16527210175991058,-0.9811628460884094,0.10002321004867554,0.2744404077529907,0.6993024945259094,-0.2910480499267578
1.3665429137075906,2.1875675690589347,-2.315974253040491,1.8331785202026367,0.5080500841140747,0.08041239529848099,0.1654638797044754,-0.9792127013206482,0.11732147634029388,0.23924501240253448,0.7931316494941711,-0.24726532399654388
1.3565085546516593,2.270426609012963,-2.3957243170525486,1.9804502725601196,0.46465206146240234,0.354166716337204,0.1626950055360794,-0.9771280884742737,0.1369333267211914,0.1878146231174469,0.894059419631958,-0.1514597237110138
1.3465975582386003,2.3550562666704007,-2.4778016069580797,1.964264154434204,0.4332314729690552,0.5899862051010132,0.15738682448863983,-0.9749725461006165,0.1570289582014084,0.15851588547229767,0.9081237316131592,-0.05494771897792816
1.337213235593703,2.4371749558855504,-2.557722070520163,1.8545914888381958,0.42557409405708313,0.790918231010437,0.14989417791366577,-0.9728432893753052,0.17637339234352112,0.13326312601566315,0.8510324358940125,0.027804359793663025
1.3287190253988053,2.5118966088271213,-2.6335208391757763,1.6822413206100464,-0.22296102344989777,0.9589218497276306,0.1411706656217575,-0.9708421230316162,0.19374296069145203,0.028262868523597717,0.8196428418159485,0.1385018676519394
1.3212663845257124,2.580744975001301,-2.7047565892727086,1.4548184871673584,0.1069822609424591,0.9998530149459839,0.13135294616222382,-0.9690285921096802,0.2091171145439148,-0.2725730240345001,0.8501778841018677,0.24423670768737793
1.31447544884233,2.633805633594111,-2.759183153031227,1.0980809926986694,-0.05535127967596054,0.6326951384544373,0.12327437102794647,-0.9673292636871338,0.22153443098068237,-0.2934861481189728,0.7216627597808838,0.23096489906311035
1.3081640926147617,2.666837184527655,-2.7936018954045725,0.8524827361106873,0.06022990867495537,0.3424699902534485,0.11867918819189072,-0.965709924697876,0.23091000318527222,-0.2907830774784088,0.5356562733650208,0.287064790725708
1.3024933123641407,2.6890924852756606,-2.8147299323607875,0.6500454545021057,0.2957809269428253,0.14448314905166626,0.11590408533811569,-0.9642221331596375,0.23841592669487,-0.20309282839298248,0.5033608078956604,0.2418239414691925
1.298190184577214,2.7017660334120888,-2.82474421195416,0.33086296916007996,0.28135058283805847,-0.03229030221700668,0.11463846266269684,-0.9630724787712097,0.24361681938171387,-0.08628763258457184,0.49182015657424927,0.22961923480033875
1.2971142358003003,2.7015737583463593,-2.8225027560810805,-0.22162765264511108,0.09559476375579834,-0.16078026592731476,0.11512705683708191,-0.9627822637557983,0.24453307688236237,-0.023574307560920715,0.3801558017730713,0.3343396484851837
1.3019004090682686,2.6860455587895027,-2.806532103626036,-1.0337109565734863,-0.11761870980262756,-0.1834845095872879,0.11688126623630524,-0.9640647768974304,0.23857459425926208,-0.008559152483940125,0.23228371143341064,0.47802379727363586
1.3145818217228435,2.6527264778040047,-2.774695878936573,-1.9718831777572632,-0.4109806716442108,-0.12138912081718445,0.1190127432346344,-0.9673562049865723,0.2237364947795868,-0.005121141672134399,0.17177820205688477,0.5527374744415283
1.3353462808860148,2.5979492707116907,-2.723797179122461,-2.8110644817352295,-0.624466598033905,0.02218642085790634,0.12066619098186493,-0.9724094271659851,0.19964855909347534,0.006164819002151489,0.2035037875175476,0.5474979877471924
1.3615340779791893,2.5214898113763273,-2.6510703016829837,-3.242954969406128,-0.4437263011932373,0.1687748283147812,0.12072064727544785,-0.9781844615936279,0.1690613180398941,-0.03635483980178833,0.29701685905456543,0.36936020851135254
1.388350336902482,2.424577250447106,-2.5556068509578154,-3.1832239627838135,-0.238856241106987,0.22326897084712982,0.11922837793827057,-0.9834028482437134,0.13676097989082336,-0.13640980422496796,0.38937807083129883,0.11096538603305817
1.411398399957656,2.309473033315389,-2.441306866316609,-2.7737321853637695,-0.26856565475463867,0.21409374475479126,0.1173541322350502,-0.9873230457305908,0.10687040537595749,-0.1429583728313446,0.3858673572540283,-0.058286428451538086
1.4288225254129734,2.186692799952355,-2.3201614798639643,-2.2143256664276123,-0.3241575360298157,0.22775444388389587,0.11549724638462067,-0.9899386167526245,0.08174110949039459,-0.07005658000707626,0.28650861978530884,-0.16648854315280914
1.4414730138319085,2.0731139326365264,-2.2089880814138025,-1.6690908670425415,-0.3593268096446991,0.32841238379478455,0.11303159594535828,-0.9916493892669678,0.06209002062678337,0.02176453173160553,0.18014132976531982,-0.23065388202667236
1.4514537054964174,1.9797467743063928,-2.1188350677732766,-1.2183945178985596,-0.42844676971435547,0.47596535086631775,0.10924044996500015,-0.9928871393203735,0.04734305664896965,0.09478480368852615,0.11016637086868286,-0.24524962902069092
1.4603792798734478,1.908000715225322,-2.051326928376236,-0.8747885823249817,-0.5065757036209106,0.6070882081985474,0.10398736596107483,-0.9939102530479431,0.036457404494285583,0.11238223314285278,0.057341039180755615,-0.23244142532348633
1.468760212946553,1.8541877949743315,-2.002983897568383,-0.6120131611824036,-0.6261130571365356,0.654560923576355,0.09779547899961472,-0.9947988390922546,0.028480960056185722,0.061445221304893494,0.016069650650024414,-0.22747087478637695
1.4760495887374103,1.81591737772601,-1.970909288950559,-0.37187066674232483,-0.6391187906265259,0.5599356293678284,0.09177617728710175,-0.9955148696899414,0.022957928478717804,-0.027338363230228424,-0.03497207164764404,-0.23221707344055176
1.4808845530978474,1.7941289060987693,-1.9562247094544674,-0.1050109937787056,-0.818574845790863,0.29799267649650574,0.08756125718355179,-0.9959606528282166,0.01988702267408371,-0.11083095520734787,-0.08123362064361572,-0.2628680467605591
1.482196289387116,1.7947866715623844,-1.96606367824212,0.23278018832206726,-0.968874990940094,0.008452392183244228,0.08627434819936752,-0.9960775971412659,0.019654422998428345,-0.15173456072807312,-0.060318946838378906,-0.3003857135772705
1.480560540238392,1.8287628325796346,-2.00977727798188,0.597900927066803,-0.930461049079895,-0.10754771530628204,0.08713186532258987,-0.9959315061569214,0.022989334538578987,-0.10457268357276917,-0.05344593524932861,-0.2821599245071411
1.4781332970869863,1.8949141188352157,-2.0853869910422307,0.8355732560157776,-0.9004921317100525,0.07024432718753815,0.08771245926618576,-0.9957098364830017,0.02946837618947029,0.04755669832229614,-0.015673160552978516,-0.18967044353485107
1.476960887081353,1.9794788293046992,-2.17977790685958,0.8702793121337891,-0.9987241625785828,0.3284290134906769,0.08598064631223679,-0.995600700378418,0.03723527118563652,0.14187881350517273,0.056651175022125244,-0.05395889654755592
1.477177791606534,2.0678367387537637,-2.279455901220811,0.7697100639343262,-1.1602195501327515,0.516420304775238,0.08217069506645203,-0.9956209659576416,0.0445747934281826,0.09908843040466309,0.0255739688873291,0.07473361492156982
1.4785596540587598,2.149256167569996,-2.373690797408409,0.5819971561431885,-1.3115992546081543,0.59742271900177,0.07712149620056152,-0.9957492351531982,0.05035797506570816,0.04371282458305359,-0.03447842597961426,0.13744711875915527
1.4806692762081937,2.215361767404412,-2.453428246754146,0.359218567609787,-1.312400221824646,0.5653743147850037,0.07194770872592926,-0.9959412813186646,0.054080527275800705,-0.030275993049144745,-0.0697021484375,0.20476961135864258
1.4831682343409998,2.2615473371223587,-2.511979617825735,0.14865198731422424,-1.0788979530334473,0.4584902822971344,0.06745339184999466,-0.9961631298065186,0.055756937712430954,-0.09304244071245193,-0.057944416999816895,0.2231888771057129
1.485830370481831,2.284881627263288,-2.5444289264351165,-0.0669088363647461,-0.7080939412117004,0.3017785847187042,0.06413019448518753,-0.996392548084259,0.05557889863848686,-0.13560238480567932,-0.034750521183013916,0.19359707832336426
1.4887085662634387,2.2813022856447103,-2.5461077661202878,-0.2898135483264923,-0.3396730422973633,0.15890638530254364,0.06215543672442436,-0.9966326951980591,0.05347908288240433,-0.13522979617118835,-0.04365050792694092,0.15410137176513672
1.4922792609590203,2.2493647813521753,-2.515974485634295,-0.5438506007194519,-0.05803421884775162,0.08653778582811356,0.06106126680970192,-0.9969190955162048,0.04923348128795624,-0.08820664137601852,-0.06271231174468994,0.12227524071931839
1.4970542777127687,2.1846733743919575,-2.45080421058684,-0.814535915851593,0.1054852083325386,0.08144795149564743,0.06022435799241066,-0.9972822666168213,0.04244043678045273,-0.04466041922569275,-0.06054854393005371,0.12029457092285156
1.502901410120873,2.081854819121735,-2.346223790099657,-1.0429153442382812,0.18593955039978027,0.1159527525305748,0.05917486548423767,-0.997696042060852,0.033182259649038315,-0.02014288306236267,-0.04476916790008545,0.13170409202575684
1.5088224437972286,1.9351775505682878,-2.1972321060258224,-1.1932544708251953,0.21319086849689484,0.12827439606189728,0.05786820501089096,-0.9980802536010742,0.02207169122993946,-0.026328325271606445,-0.02737140655517578,0.1333085298538208
1.5132435576668382,1.7409580590845704,-2.000326135134802,-1.2929917573928833,0.258749395608902,0.09333610534667969,0.05669024586677551,-0.9983443021774292,0.009740706533193588,-0.04292681813240051,-0.0126420259475708,0.12977027893066406
1.5144966332330565,1.5102317673269965,-1.7661994822715095,-1.3681209087371826,0.34782999753952026,0.0011449269950389862,0.05616489425301552,-0.9984155893325806,-0.003405767260119319,-0.0721561387181282,-0.009915590286254883,0.11917412281036377
1.511392458499423,1.2757324757714095,-1.5274526322570952,-1.4419089555740356,0.4195656180381775,-0.1175292432308197,0.056803882122039795,-0.9982361197471619,-0.01726474240422249,-0.0910598561167717,-0.01343691349029541,0.09007960557937622
1.504163165289888,1.0732123458809129,-1.3200648340948744,-1.5068813562393188,0.46687453985214233,-0.19202718138694763,0.05851038545370102,-0.9977808594703674,-0.03178105875849724,-0.0705496072769165,-0.012579917907714844,0.06298524141311646
1.49408130767962,0.914451335375764,-1.156243930070257,-1.5391454696655273,0.4509437680244446,-0.20689156651496887,0.060717590153217316,-0.9970588684082031,-0.04676862806081772,-0.02342512458562851,0.004413485527038574,0.036590930074453354
1.482396175798825,0.7937080467099915,-1.0309084658790677,-1.539775013923645,0.3732641637325287,-0.18947875499725342,0.06294462084770203,-0.9960952401161194,-0.061907097697257996,0.021207578480243683,0.02307271957397461,0.012560121715068817
1.4699682653442765,0.699949031989914,-0.9336294036462681,-1.5189893245697021,0.24432863295078278,-0.14508280158042908,0.06484204530715942,-0.9949211478233337,-0.07699114829301834,0.0571671798825264,0.01420813798904419,-0.011845596134662628
1.4574672900398538,0.6251168042317953,-0.8562378669411898,-1.4537150859832764,0.18066975474357605,-0.09095139801502228,0.06617733836174011,-0.9935851097106934,-0.09170128405094147,0.08139034360647202,0.004418909549713135,-0.046039871871471405
1.445423606530539,0.566100929896413,-0.7950767025885873,-1.3408366441726685,0.1640932559967041,-0.05541716143488884,0.06706736981868744,-0.992151141166687,-0.10553791373968124,0.07035326957702637,0.01828944683074951,-0.07492786645889282
1.4342860760265266,0.5204009928229625,-0.7472348600753919,-1.1985399723052979,0.1867402344942093,-0.028001248836517334,0.06766624748706818,-0.990696907043457,-0.11807173490524292,0.06636691093444824,0.03320789337158203,-0.10107505321502686
1.4242926656464325,0.48559426964813196,-0.7099119003450238,-1.0499427318572998,0.23759470880031586,-0.014334006235003471,0.06813376396894455,-0.9892874956130981,-0.12910425662994385,0.07003455609083176,0.029494524002075195,-0.11737100780010223
1.4155270625920329,0.45918843751942195,-0.6807056217146684,-0.9054548740386963,0.2430155724287033,-0.0015042282175272703,0.06854214519262314,-0.9879699349403381,-0.13862626254558563,0.06849699467420578,0.02471315860748291,-0.11758409440517426
1.4081296113544362,0.437762535450512,-0.6569795303579307,-0.7500028610229492,0.14066819846630096,0.04094540327787399,0.06865330785512924,-0.9867989420890808,-0.14667941629886627,0.06226706504821777,0.024472832679748535,-0.1023288369178772
1.402245500686312,0.4175811153611874,-0.6361094346882551,-0.605656087398529,-0.06932205706834793,0.0978371798992157,0.06803253293037415,-0.9858289361000061,-0.15333886444568634,0.04700347036123276,0.02293837070465088,-0.08443890511989594
1.397714987692835,0.39654754834215267,-0.6165697501025554,-0.4886914789676666,-0.2800500988960266,0.15284523367881775,0.06651676446199417,-0.9850587844848633,-0.15885376930236816,0.02959831804037094,0.015225529670715332,-0.07649783790111542
1.3942615405714116,0.37448640662315086,-0.5975500918913272,-0.39716848731040955,-0.36475351452827454,0.19254924356937408,0.06424074620008469,-0.9844581484794617,-0.1634485274553299,0.024779021739959717,0.00679701566696167,-0.08600223064422607
1.3915456788078757,0.35429645419368616,-0.5807253763356539,-0.31902357935905457,-0.3500705063343048,0.16134901344776154,0.06185503304004669,-0.9839775562286377,-0.1672186553478241,-0.0042226314544677734,-0.006622970104217529,-0.09736883640289307
1.3893309578890705,0.3395296303167608,-0.5689353404331097,-0.23895055055618286,-0.26665788888931274,0.08309868723154068,0.0601046122610569,-0.9835802912712097,-0.17016787827014923,-0.04025295749306679,-0.017152011394500732,-0.09319888055324554
1.3875866310871654,0.33200051763892263,-0.5632710997103783,-0.16093190014362335,-0.12221989035606384,-0.006302759982645512,0.05938076972961426,-0.9832639694213867,-0.17223717272281647,-0.06797150522470474,-0.02871406078338623,-0.08632300794124603
1.386202824538374,0.3317399546539172,-0.563810285500905,-0.09357095509767532,-0.04851105064153671,-0.09870965778827667,0.059779003262519836,-0.9830109477043152,-0.17353901267051697,-0.08497127890586853,-0.022451579570770264,-0.0764152854681015
1.3851037777852035,0.3369716416490175,-0.5695673803302099,-0.04215683415532112,-0.03858863189816475,-0.16488556563854218,0.06104320287704468,-0.9828086495399475,-0.1742432713508606,-0.07785843312740326,-0.02831488847732544,-0.06449577212333679
1.3843242881632996,0.345181442420563,-0.5782962482463581,-0.001382770948112011,-0.03756038472056389,-0.18980982899665833,0.06273104250431061,-0.9826644062995911,-0.17445768415927887,-0.0472891628742218,-0.042329490184783936,-0.061031222343444824
1.3837611336876185,0.3549217955915883,-0.5886649080880201,0.0256756991147995,-0.04548586905002594,-0.2058153599500656,0.06461971253156662,-0.982559859752655,-0.17435750365257263,-0.020537108182907104,-0.03623896837234497,-0.06319141387939453
1.383420986038579,0.3653820486832729,-0.5996902432162532,0.059050701558589935,-0.019088882952928543,-0.1960282325744629,0.06655917316675186,-0.9824965596199036,-0.173983633518219,0.01841699331998825,-0.03273165225982666,-0.05981157720088959
1.3834713514365113,0.3758223811945754,-0.6101446880496253,0.09049534052610397,0.05074308067560196,-0.16183021664619446,0.06835387647151947,-0.9825059175491333,-0.17323344945907593,0.05695127695798874,-0.027122318744659424,-0.043410882353782654
1.3838002857354004,0.38532604589627145,-0.6191348411024781,0.09003834426403046,0.07113943248987198,-0.12343781441450119,0.06987558305263519,-0.9825671315193176,-0.1722763627767563,0.06945237517356873,-0.022987008094787598,-0.014292895793914795
1.3840617806569058,0.39201964603460254,-0.6254811171551924,0.04341858625411987,0.008466744795441628,-0.07079759985208511,0.07092881202697754,-0.9826157093048096,-0.171566903591156,0.06492017209529877,-0.035816729068756104,0.029873758554458618
1.384029269495966,0.39391579261139803,-0.6278994681926133,-0.015144327655434608,-0.10381265729665756,-0.012960396707057953,0.07126634567975998,-0.9826096892356873,-0.171461820602417,0.06168343871831894,-0.05655956268310547,0.06434507668018341
1.3836378564824865,0.39069049889605767,-0.6260650538877934,-0.08530089259147644,-0.17556771636009216,0.041701458394527435,0.0708594024181366,-0.9825369119644165,-0.17204633355140686,0.06236504018306732,-0.05499953031539917,0.08693280816078186
1.3826610075364014,0.38373792160977394,-0.6209588278798223,-0.1685345321893692,-0.2001284509897232,0.057527560740709305,0.07002104818820953,-0.9823547005653381,-0.17342527210712433,0.05639800429344177,-0.049246251583099365,0.09095144271850586
1.3809063707450275,0.37493984990879736,-0.6138746174437597,-0.24347950518131256,-0.15339060127735138,0.0544000007212162,0.06912373751401901,-0.9820250272750854,-0.17563839256763458,0.053465336561203,-0.04959118366241455,0.07346546649932861
1.3785413385213316,0.36581194331701344,-0.6057753979739832,-0.2939884662628174,-0.08083250373601913,0.060011811554431915,0.06834805756807327,-0.9815758466720581,-0.17842984199523926,0.06034453958272934,-0.039954185485839844,0.052895739674568176
1.3759871637510532,0.35750843583202946,-0.5976236451855494,-0.28035488724708557,0.021375935524702072,0.05953989177942276,0.06774141639471054,-0.9810846447944641,-0.18133966624736786,0.05364224314689636,-0.03025263547897339,0.04413259029388428
1.3737865862042802,0.35090485930897186,-0.5903326758404986,-0.2289433479309082,0.07805413007736206,0.06524704396724701,0.06728433072566986,-0.9806562662124634,-0.18380971252918243,0.04404377192258835,-0.023356735706329346,0.04062117636203766
1.372050061056319,0.34505284313359613,-0.5836004242758837,-0.20812755823135376,0.05788600072264671,0.08296927809715271,0.06678357720375061,-0.9803149104118347,-0.18580298125743866,0.038730911910533905,-0.027299225330352783,0.04645968973636627
1.3704041680636188,0.33702950983135815,-0.5750998650768596,-0.2370082139968872,-0.002213018946349621,0.1436893492937088,0.06582402437925339,-0.9799885749816895,-0.18785491585731506,0.04684683680534363,-0.012427747249603271,0.051624417304992676
1.3687711721331324,0.3250248381783255,-0.5630686370016419,-0.2485424280166626,-0.039425089955329895,0.21344517171382904,0.06407523155212402,-0.9796622395515442,-0.19014808535575867,0.062297992408275604,0.004091620445251465,0.027489319443702698
1.3675375715129552,0.3120415827946069,-0.5500144904136183,-0.16742892563343048,0.007450275123119354,0.21611472964286804,0.0619719997048378,-0.9794139862060547,-0.19211356341838837,0.05738222226500511,-0.003099381923675537,-0.02060924470424652
1.3673638224831508,0.30241473136233926,-0.5399088606994397,-0.013880143873393536,0.02347598969936371,0.1732359528541565,0.06017058715224266,-0.979378879070282,-0.1928643137216568,0.015558786690235138,-0.011603236198425293,-0.06468883156776428
1.3683181418012673,0.29610794533960677,-0.5338283440928182,0.10204219818115234,-0.11118834465742111,0.13413861393928528,0.05868026241660118,-0.9795712232589722,-0.19234582781791687,-0.01847335696220398,-0.011471867561340332,-0.06568038463592529
1.3701178413620836,0.2905809086728676,-0.5302251047804498,0.18721672892570496,-0.28907185792922974,0.12234942615032196,0.05711092799901962,-0.9799315333366394,-0.19097736477851868,-0.03463474288582802,-0.019778430461883545,-0.05243085324764252
1.3726283112843345,0.28468065907732226,-0.5278588356881324,0.257674902677536,-0.421784907579422,0.12012062221765518,0.05529201775789261,-0.9804288744926453,-0.18894928693771362,-0.028634939342737198,0.0037596821784973145,-0.05773960053920746
1.3758571738406944,0.27805643690076404,-0.5258557467584865,0.3419329822063446,-0.4912453591823578,0.13553710281848907,0.0531698539853096,-0.9810594320297241,-0.1862659901380539,0.0032418593764305115,0.011226236820220947,-0.065061554312706
1.3798795504619787,0.2718078790973127,-0.5242787442274639,0.4090723395347595,-0.4291604161262512,0.13560129702091217,0.05094534531235695,-0.9818306565284729,-0.1827927678823471,0.030979067087173462,0.015354275703430176,-0.07012176513671875
1.3841522472067316,0.2671956724853128,-0.5234724734404246,0.39259281754493713,-0.3284691870212555,0.11880828440189362,0.04899369552731514,-0.9826325178146362,-0.1789780706167221,0.029848463833332062,0.02331233024597168,-0.047508254647254944
1.3880135821381565,0.2638683440566351,-0.5228319759295711,0.3432828187942505,-0.20928741991519928,0.10222052037715912,0.04740802198648453,-0.9833416938781738,-0.17547611892223358,0.02586463838815689,0.013157248497009277,-0.011108413338661194
1.3913744495543143,0.2624768367271339,-0.5228526142451259,0.30423831939697266,-0.07569050788879395,0.06896581500768661,0.046305663883686066,-0.9839470386505127,-0.17234797775745392,0.005696233361959457,0.018264174461364746,-0.005645856261253357
1.3942392971461464,0.26352053779628193,-0.5243605787278443,0.2593398094177246,-0.02193273976445198,0.03479479253292084,0.04575134068727493,-0.9844542741775513,-0.16957831382751465,-0.028234239667654037,0.011813163757324219,-0.002205207943916321
1.39659349195163,0.2653704310796915,-0.5265195889156279,0.21390549838542938,-0.04112933576107025,0.021544501185417175,0.045456673949956894,-0.9848650097846985,-0.1672552227973938,-0.03610307350754738,0.0036029815673828125,0.010379567742347717
1.3985616920149275,0.26566992108796694,-0.5275140231099986,0.17126455903053284,-0.09646289795637131,0.05278950184583664,0.04499780386686325,-0.9852042198181152,-0.1653711199760437,-0.021865490823984146,0.013570427894592285,0.01746763288974762
1.4002236893616256,0.2620185007501253,-0.5249911323410106,0.12851405143737793,-0.12858270108699799,0.11875186860561371,0.04396964982151985,-0.985487699508667,-0.1639532595872879,0.0023559890687465668,0.018980801105499268,0.015057936310768127
1.401784688964179,0.25448209122836574,-0.5185495237318728,0.1197381317615509,-0.10316042602062225,0.1663966029882431,0.042345352470874786,-0.9857515096664429,-0.16279052197933197,0.021451618522405624,0.035037457942962646,-0.013524815440177917
1.4035290418810122,0.24487793138644642,-0.5097881828963964,0.152247354388237,-0.09496849775314331,0.2021733820438385,0.04036302864551544,-0.986043393611908,-0.16152127087116241,0.031048085540533066,0.03142315149307251,-0.04993508756160736
1.405900234456314,0.23422050501588473,-0.5000277844390784,0.23802244663238525,-0.11901125311851501,0.22028154134750366,0.03809664398431778,-0.9864354133605957,-0.15966762602329254,0.03212427720427513,0.013886034488677979,-0.08747898042201996
1.409344138249982,0.22354779463919827,-0.49088309863310775,0.3671995997428894,-0.21662069857120514,0.22042518854141235,0.035637203603982925,-0.9869948625564575,-0.15675204992294312,0.022742867469787598,0.01203453540802002,-0.11042940616607666
1.4140948459882146,0.21332786956664845,-0.48333347389858977,0.5037262439727783,-0.3276175260543823,0.21955619752407074,0.0330401249229908,-0.9877474308013916,-0.15252292156219482,0.034373220056295395,-0.010192573070526123,-0.10963837802410126
1.4199771880551508,0.20270681908223323,-0.4762070324449039,0.5878862142562866,-0.38336044549942017,0.23645856976509094,0.030248109251260757,-0.9886483550071716,-0.1471715271472931,0.04830411076545715,-0.021071434020996094,-0.0796503871679306
1.4261809422396623,0.18979220262764904,-0.467196538175364,0.5608724355697632,-0.4114093780517578,0.2656167149543762,0.027187328785657883,-0.9895613789558411,-0.14152374863624573,0.04455950856208801,0.0033401846885681152,-0.013063058257102966
1.4317679251641664,0.1723985345450978,-0.45392026804141966,0.4619196951389313,-0.4402724802494049,0.3020658493041992,0.023773036897182465,-0.9903510808944702,-0.136526957154274,0.04515090584754944,0.0038704276084899902,0.04920089244842529
1.4362430844457295,0.14878602745248823,-0.43482360417335547,0.3409131169319153,-0.49591392278671265,0.3525937497615814,0.019885672256350517,-0.9909613728523254,-0.13266512751579285,0.05096086859703064,0.003488898277282715,0.07282008230686188
1.4397573485321564,0.11989539128812529,-0.41055806556487523,0.27842044830322266,-0.45088744163513184,0.3676549792289734,0.015628529712557793,-0.9914266467094421,-0.12972618639469147,0.04298043251037598,0.003206491470336914,0.0531269907951355
1.4427150031275833,0.09100727367395657,-0.3854477159749497,0.2366112321615219,-0.3421598970890045,0.333272248506546,0.011608466506004333,-0.9918087720870972,-0.12720301747322083,-0.0005153417587280273,0.004198908805847168,0.020223617553710938
1.4449610751182749,0.06555508357423542,-0.3626166670937074,0.1589290350675583,-0.21761548519134521,0.27467432618141174,0.008221473544836044,-0.9920932054519653,-0.1252335011959076,-0.04009711742401123,-0.0017879605293273926,0.0261734277009964
1.4460174219635387,0.045798903426440815,-0.3441883011033428,0.019805239513516426,-0.0639289915561676,0.19472144544124603,0.005697892513126135,-0.9922252297401428,-0.12432412058115005,-0.07359954714775085,-0.0024951696395874023,0.09876561909914017
1.4455046816452108,0.032882689356947,-0.33081851357690806,-0.13072702288627625,0.13290704786777496,0.13111650943756104,0.004108380060642958,-0.9921612739562988,-0.12489547580480576,-0.07820507884025574,-0.010203719139099121,0.11245955526828766
1.44363012289603,0.02641494065481932,-0.3223704867735213,-0.24015125632286072,0.23203550279140472,0.07111096382141113,0.003349664621055126,-0.9919252395629883,-0.1267799735069275,-0.06563606858253479,-0.01845073699951172,0.10528028011322021
1.4409263982355913,0.02347201339042929,-0.31699991448356574,-0.28841274976730347,0.2317735105752945,0.05611779913306236,0.0030394550412893295,-0.9915787577629089,-0.12946894764900208,-0.04844963550567627,-0.008634805679321289,0.06252862513065338
1.4382779300186959,0.020198471326203015,-0.3118720745959822,-0.2318674623966217,0.11538539081811905,0.0659153014421463,0.0026686682831496,-0.9912322759628296,-0.1321043223142624,-0.03248438239097595,0.0013183355331420898,-0.004492402076721191
1.4365445003379782,0.014281616854596313,-0.3055671270127474,-0.1102900505065918,-0.046207014471292496,0.09632980823516846,0.0019115194445475936,-0.9910017251968384,-0.13383564352989197,-0.027592062950134277,0.009358048439025879,-0.06252974271774292
1.4361644629358452,0.00558725733462517,-0.29779364058270463,0.03330732509493828,-0.13541465997695923,0.10718618333339691,0.0007499491912312806,-0.9909508228302002,-0.13422353565692902,-0.023195654153823853,0.013381242752075195,-0.10495805740356445
1.4370691144516352,-0.002667575153410542,-0.29067014344216613,0.1422380954027176,-0.08974450826644897,0.07970722019672394,-0.0003556634474080056,-0.9910718202590942,-0.13332805037498474,-0.028864920139312744,0.012022256851196289,-0.11738918721675873
1.438885516693702,-0.007357262399419463,-0.2863262483669184,0.21704229712486267,0.016279928386211395,0.034858256578445435,-0.0009676787885837257,-0.9913123846054077,-0.13152465224266052,-0.04190954566001892,0.00963824987411499,-0.10756538808345795
1.4412554741048926,-0.00762179180565824,-0.28543049455538116,0.247837096452713,0.09410785138607025,-0.012657678686082363,-0.0009845660533756018,-0.9916213154792786,-0.12917527556419373,-0.0494915246963501,0.01072537899017334,-0.08554649353027344
1.443645099743541,-0.005200513647980229,-0.2868820766017704,0.2230563759803772,0.09978251159191132,-0.020471392199397087,-0.0006594691076315939,-0.9919271469116211,-0.126807302236557,-0.032909899950027466,0.007704794406890869,-0.022225305438041687
1.4456232969926326,-0.003351933474885636,-0.28764714349125375,0.16725042462348938,0.12353598326444626,-0.0027166646905243397,-0.00041847690590657294,-0.9921760559082031,-0.1248459592461586,-0.00409814715385437,0.008716583251953125,0.03018033504486084
1.446877326112565,-0.0014648077531680846,-0.288083410096693,0.07890404760837555,0.1644301414489746,-0.012970367446541786,-0.00018105303752236068,-0.992331862449646,-0.12360181659460068,-0.007341563701629639,-0.009834885597229004,0.05153453350067139
1.4472067556923882,0.002041069487212136,-0.28974687693780427,-0.009318618103861809,0.20617201924324036,-0.025531921535730362,0.0002516138192731887,-0.9923725128173828,-0.12327530235052109,-0.0004194676876068115,-0.028867661952972412,0.0555415153503418
1.4467906830815047,0.006034029761010864,-0.29142406223252,-0.057137805968523026,0.2549089193344116,-0.014819091185927391,0.0007463295478373766,-0.9923211336135864,-0.12368524819612503,0.02572762966156006,-0.03128409385681152,0.03162886202335358
1.4460817416988327,0.00876208257967056,-0.29146916189552197,-0.06595714390277863,0.27999237179756165,0.011032845824956894,0.0010899158660322428,-0.9922332167625427,-0.12438686192035675,0.04010879993438721,-0.018631041049957275,0.0012025833129882812
1.4454597214620657,0.009665180475895594,-0.2895239814387457,-0.042254213243722916,0.28090184926986694,0.027421673759818077,0.0012082167668268085,-0.9921556711196899,-0.12500326335430145,0.029873907566070557,-0.010026335716247559,-0.02656233310699463
1.4452171414136872,0.010287677173408408,-0.2873805746516216,0.007547996938228607,0.26723408699035645,0.014080101624131203,0.0012884980533272028,-0.9921252727508545,-0.12524232268333435,-0.009162038564682007,-0.006699681282043457,-0.04846380650997162
1.4456257352029471,0.01268169322188046,-0.28713651840435506,0.07933856546878815,0.2620167136192322,-0.01650523953139782,0.0015831869095563889,-0.9921764135360718,-0.12483365088701248,-0.03922662138938904,-0.006297647953033447,-0.061476223170757294
1.446855016103765,0.018666773658254414,-0.2904535773168771,0.16146479547023773,0.2760566473007202,-0.06862232834100723,0.00230752513743937,-0.9923291206359863,-0.12360235303640366,-0.05272257328033447,-0.0046038031578063965,-0.06357728689908981
1.4489240573695112,0.03044946650453273,-0.2994736983924013,0.24712643027305603,0.2876296937465668,-0.1480918526649475,0.0037011904641985893,-0.9925827383995056,-0.12151432782411575,-0.07326602935791016,-0.007096767425537109,-0.059668540954589844
1.4517785419482598,0.04947596359127082,-0.3157503963518157,0.3222656548023224,0.27918127179145813,-0.2179054468870163,0.0058722123503685,-0.992925763130188,-0.11859133094549179,-0.08262395858764648,-0.015359759330749512,-0.054046630859375
