attitudeX,attitudeY,attitudeZ,gyroX,gyroY,gyroZ,gravityX,gravityY,gravityZ,accX,accY,accZ
1.51516927780589,2.688311945032762,2.940771451038399,-0.021038884297013283,0.31971585750579834,-0.2256147712469101,0.024348171427845955,-0.9984531998634338,0.04998518526554108,0.07983887195587158,-0.06810569763183594,0.07123076915740967
1.515231563735221,2.6580046418061727,2.97363358847556,-0.1485898643732071,0.187367245554924,-0.09644846618175507,0.02582310326397419,-0.9984566569328308,0.04917001724243164,0.15165188908576965,-0.06924664974212646,0.12349855899810791
1.5166675680795363,2.634451748559118,2.9987406038377182,-0.2251000851392746,0.12151073664426804,-0.017299054190516472,0.026277510449290276,-0.9985353946685791,0.047294795513153076,0.17814451456069946,-0.07217395305633545,0.11035919189453125
1.5186151454981425,2.6116400268889555,3.022650704064802,-0.22698673605918884,0.09371417760848999,-0.01965358480811119,0.026365898549556732,-0.9986388683319092,0.045004259794950485,0.15248242020606995,-0.0775178074836731,0.05945754051208496
1.5200415433884413,2.583965983423942,3.0513587462356755,-0.1645348072052002,0.11017251759767532,-0.09075120091438293,0.026846645399928093,-0.9987122416496277,0.04304773733019829,0.11379364132881165,-0.08067923784255981,-0.007082704454660416
1.5203156786991177,2.54960389622083,3.087147198387114,-0.07925469428300858,0.1754968911409378,-0.18447242677211761,0.028157804161310196,-0.9987261295318604,0.04187408834695816,0.09112021327018738,-0.08634167909622192,-0.07437515258789062
1.5193229907819314,2.5098713876893815,3.1294280426469983,-0.012739845551550388,0.3286430239677429,-0.27864739298820496,0.030385427176952362,-0.998675525188446,0.04152408242225647,0.07993564009666443,-0.07954108715057373,-0.12108325958251953
1.5173818756707957,2.4666991709740955,-3.1063829785698402,0.012923810631036758,0.49451929330825806,-0.34175416827201843,0.0333595797419548,-0.9985737800598145,0.04168643802404404,0.08558270335197449,-0.0676647424697876,-0.1261131763458252
1.5150030581713063,2.423155676102026,-3.0571204491734942,0.005350046791136265,0.6256557106971741,-0.36685261130332947,0.03670747950673103,-0.9984439611434937,0.041984692215919495,0.11212679743766785,-0.052337467670440674,-0.10416412353515625
1.5125999937976644,2.3814769066062507,-3.0086689003748934,-0.021380150690674782,0.6994110941886902,-0.3554239869117737,0.04007670655846596,-0.9983070492744446,0.042156197130680084,0.14757591485977173,-0.040465593338012695,-0.07760226726531982
1.5104248086455436,2.3452020291290756,-2.965214597013808,-0.028190119192004204,0.7054633498191833,-0.30951908230781555,0.04313139244914055,-0.9981781840324402,0.042193423956632614,0.19035863876342773,-0.02644968032836914,-0.05665862187743187
1.5085943446919343,2.3185133081050497,-2.931688947497644,-0.014583086594939232,0.6359738707542419,-0.23544642329216003,0.045582473278045654,-0.9980660676956177,0.04227050021290779,0.23937544226646423,-0.01591116189956665,-0.050632234662771225
1.507150419419205,2.304115681071196,-2.9114117515955273,0.024802137166261673,0.5249456167221069,-0.15000155568122864,0.047254908829927444,-0.9979752898216248,0.042572565376758575,0.27839818596839905,-0.01206505298614502,-0.0600285530090332
1.5059916292446354,2.303535476069802,-2.9060054195166125,0.08413135260343552,0.4424394965171814,-0.06829044967889786,0.04813895374536514,-0.9979009032249451,0.04331844300031662,0.29735058546066284,0.0037602782249450684,-0.07716226577758789
1.5049821616791341,2.318452001135827,-2.9166961167453125,0.1567283272743225,0.40868258476257324,0.010915151797235012,0.048225950449705124,-0.9978350400924683,0.04471640661358833,0.30840250849723816,0.02835261821746826,-0.1013263463973999
1.5039940303595878,2.3480343686784932,-2.942133643949816,0.21461200714111328,0.4440782070159912,0.07625439018011093,0.04758612439036369,-0.9977695345878601,0.04681577533483505,0.3173583745956421,0.04685699939727783,-0.1299607753753662
1.5029594176576397,2.386467859820481,-2.975479516736993,0.24153576791286469,0.6006262302398682,0.0918157771229744,0.04645772650837898,-0.9976999759674072,0.04935931786894798,0.308721125125885,0.0538981556892395,-0.14803779125213623
1.5016733932683388,2.4262558822833493,-3.0082626367189085,0.24666132032871246,0.8111426830291748,0.06105939671397209,0.045298751443624496,-0.997611939907074,0.0521363839507103,0.28770911693573,0.056510984897613525,-0.15690316259860992
1.500012391170661,2.4607720716604824,-3.0337782156713904,0.2413182109594345,0.993586540222168,-0.006014442071318626,0.044516731053590775,-0.9974958896636963,0.05495760589838028,0.2668083906173706,0.06738108396530151,-0.15244591236114502
1.4978499720280056,2.4877495312036735,-3.050136191373307,0.24414196610450745,1.119258999824524,-0.07798171788454056,0.04433140903711319,-0.9973406195640564,0.057852279394865036,0.2638656497001648,0.07293248176574707,-0.1403564214706421
1.4952137557767429,2.508198133741033,-3.0592871907996324,0.25754058361053467,1.1251463890075684,-0.12312150001525879,0.04469536989927292,-0.9971449971199036,0.06086577847599983,0.28655773401260376,0.07172977924346924,-0.1267073154449463
1.4921769204131106,2.526207656223542,-3.0664882368313795,0.29987549781799316,1.0216622352600098,-0.1354564130306244,0.04533834755420685,-0.9969111084938049,0.0641309842467308,0.32601484656333923,0.08396244049072266,-0.11358452588319778
1.4887104508947027,2.5454112322604883,-3.076317671579849,0.3595678508281708,0.8504566550254822,-0.12419603019952774,0.04603850096464157,-0.9966328740119934,0.067848801612854,0.3562137186527252,0.08891803026199341,-0.10662127286195755
1.4847732432721783,2.5679938778384996,-3.0911936627578296,0.431611031293869,0.7028431296348572,-0.09822358191013336,0.046625178307294846,-0.9963023066520691,0.0721687600016594,0.37547874450683594,0.08736658096313477,-0.11487793177366257
1.4804263058338212,2.5951588115902644,-3.1117223726005947,0.4898383617401123,0.6505373120307922,-0.05030479282140732,0.046896565705537796,-0.995919406414032,0.07710597664117813,0.3782896101474762,0.09620016813278198,-0.14445817470550537
1.4758968702530992,2.6289246351881297,-3.1387728423863743,0.5401744246482849,0.7290811538696289,0.027585186064243317,0.04647887125611305,-0.9955004453659058,0.08257526904344559,0.36675968766212463,0.10672169923782349,-0.17917859554290771
1.471307596433513,2.671203296735153,3.1100943977734072,0.572601318359375,0.8931145668029785,0.1272777020931244,0.04501734673976898,-0.995055079460144,0.08853738009929657,0.3524283766746521,0.11414992809295654,-0.21196556091308594
1.4668736263885043,2.720782041391595,3.070161708375319,0.5697447657585144,1.0689277648925781,0.21967612206935883,0.04237648844718933,-0.9946048855781555,0.09468650072813034,0.33350855112075806,0.10861849784851074,-0.2255152463912964
1.4626075285283795,2.7745926350967025,3.027688834922695,0.5571847558021545,1.238781213760376,0.2726093828678131,0.0387442521750927,-0.9941533207893372,0.10078733414411545,0.3060738742351532,0.09447985887527466,-0.22072124481201172
1.4583844223827187,2.8276251661257485,2.9876144665178663,0.5304893851280212,1.3830463886260986,0.2708251476287842,0.03464334085583687,-0.9936884045600891,0.10669086128473282,0.270044207572937,0.07991600036621094,-0.20927563309669495
1.454152834226483,2.8755432363118856,2.9536796484163887,0.49554526805877686,1.4342362880706787,0.22573676705360413,0.030598625540733337,-0.9932048320770264,0.1122845858335495,0.22159865498542786,0.07288628816604614,-0.18358886241912842
1.4499271668548215,2.9149190058627408,2.928338423437829,0.46713072061538696,1.392099380493164,0.14463332295417786,0.027097826823592186,-0.9927042126655579,0.11749105155467987,0.17868223786354065,0.06371861696243286,-0.15713322162628174
1.44561889599833,2.9441847542173583,2.912511384113304,0.454648494720459,1.310941457748413,0.05452261120080948,0.024486741051077843,-0.9921755194664001,0.12242584675550461,0.1451299786567688,0.05133390426635742,-0.13962234556674957
1.4411992631615738,2.965365673505341,2.90384749721263,0.44935619831085205,1.1681585311889648,0.011715403757989407,0.022657081484794617,-0.991614043712616,0.12723390758037567,0.12375101447105408,0.04799520969390869,-0.13190293312072754
1.4367839421311182,2.9835534894108884,2.8968058552931772,0.45614486932754517,1.097451090812683,0.031288839876651764,0.021028125658631325,-0.9910337924957275,0.13194681704044342,0.11027377843856812,0.07211893796920776,-0.12123501300811768
1.4322148069497491,3.005613770085138,2.886186020386998,0.49068987369537354,1.205572247505188,0.13102023303508759,0.018726108595728874,-0.9904129505157471,0.13686352968215942,0.14126229286193848,0.07732701301574707,-0.1404339224100113
1.4274436941517334,3.036269944926703,2.8679679763371073,0.5116998553276062,1.3144277334213257,0.2614714503288269,0.015018933452665806,-0.9897425770759583,0.14207153022289276,0.15551331639289856,0.05543160438537598,-0.20182490348815918
1.4225450097438508,3.0737696686097027,2.844333944069107,0.5195114612579346,1.5126782655715942,0.32455456256866455,0.010010414756834507,-0.9890308976173401,0.14736981689929962,0.07885679602622986,0.08110237121582031,-0.20091283321380615
1.4174863154210304,3.1122095316323173,2.821906424650495,0.516494631767273,1.7229150533676147,0.2875499427318573,0.00448645930737257,-0.9882709980010986,0.15264436602592468,-0.010269522666931152,0.09348040819168091,-0.20058728754520416
1.4123845255402137,-3.1371160135098632,2.8059047116134077,0.5043179988861084,1.8647972345352173,0.19365788996219635,-0.0007061840151436627,-0.9874790906906128,0.15774761140346527,-0.09772823750972748,0.07459169626235962,-0.190965935587883
1.4074332732459456,-3.1097259216404547,2.7974524862504575,0.47518089413642883,1.915723204612732,0.09190516173839569,-0.00518186017870903,-0.9866859316825867,0.1625552922487259,-0.13913574814796448,0.054831624031066895,-0.15678739547729492
1.4028124616527038,-3.08983712220114,2.796432122659543,0.4409691393375397,1.8377408981323242,-0.020049918442964554,-0.008649413473904133,-0.9859238862991333,0.1669713258743286,-0.16307298839092255,0.0444871187210083,-0.11359597742557526
1.3988903505976906,-3.0783470312080987,2.802901594387224,0.3448535203933716,1.7255661487579346,-0.1535472571849823,-0.010811646468937397,-0.985260546207428,0.1707189679145813,-0.19046702980995178,0.0502781867980957,-0.07344402372837067
1.3962902292706523,-3.0746113547564957,2.8162095891818577,0.19880181550979614,1.6385668516159058,-0.2617291510105133,-0.011620771139860153,-0.9848124384880066,0.17323322594165802,-0.21695587038993835,0.06403595209121704,-0.01934814453125
1.3951927694393973,-3.075351650084187,2.8332965722108976,0.06056458503007889,1.5674923658370972,-0.3043501079082489,-0.011564018204808235,-0.9846212863922119,0.17431952059268951,-0.22168181836605072,0.10035920143127441,0.021176204085350037
1.3951836312479877,-3.076891262766793,2.8502359497029714,-0.013356951996684074,1.4441814422607422,-0.2763560712337494,-0.011296218261122704,-0.984619677066803,0.17434634268283844,-0.20652297139167786,0.1437077522277832,0.021958112716674805
1.3954969338634586,-3.076424833850557,2.8638602385605485,-0.0067515126429498196,1.3274755477905273,-0.19196340441703796,-0.011357421986758709,-0.9846743941307068,0.17403282225131989,-0.19584165513515472,0.1794833540916443,-0.0061249881982803345
1.3953059437908664,-3.070810053859111,2.8713108797029245,0.07029367238283157,1.257565975189209,-0.05772720277309418,-0.012347719632089138,-0.9846410155296326,0.17415426671504974,-0.1924557387828827,0.20763295888900757,-0.055104970932006836
1.3940859626593884,-3.0582321733159987,2.871197501812895,0.17118008434772491,1.2314256429672241,0.07898110896348953,-0.014637153595685959,-0.9844273328781128,0.17518174648284912,-0.21276457607746124,0.2309941053390503,-0.09777380526065826
1.3918245748953584,-3.039544548423223,2.8648311874523316,0.25034400820732117,1.2512083053588867,0.18001112341880798,-0.018134955316781998,-0.9840272665023804,0.1770925521850586,-0.2501603364944458,0.2560761570930481,-0.10989272594451904
1.3889070060346036,-3.018007688207764,2.85586906274611,0.28431713581085205,1.277192234992981,0.19738824665546417,-0.022298214957118034,-0.9835036993026733,0.17950871586799622,-0.2874246835708618,0.28309470415115356,-0.07980763912200928
1.3859496545304983,-2.9983349003752786,2.848787519171463,0.25737088918685913,1.2415614128112793,0.12662214040756226,-0.026240132749080658,-0.9829644560813904,0.18191252648830414,-0.31198614835739136,0.29509836435317993,-0.02425864338874817
1.3837295879564306,-2.985113476152299,2.8474019364483234,0.1641908884048462,1.1168469190597534,-0.012744014151394367,-0.0289829820394516,-0.9825539588928223,0.1837051957845688,-0.3357020616531372,0.3011423349380493,0.044459566473960876
1.3830032079683392,-2.9795475720031765,2.852554045741939,0.0016301586292684078,1.0117285251617432,-0.14917917549610138,-0.030120357871055603,-0.9824186563491821,0.18424659967422485,-0.3491520881652832,0.3094601035118103,0.12495769560337067
1.384287420334732,-2.9790517560388143,2.862157090875272,-0.19599024951457977,0.975342869758606,-0.23813433945178986,-0.03000735491514206,-0.9826575517654419,0.18298549950122833,-0.33133602142333984,0.32489699125289917,0.1796092838048935
1.3877484709335812,-2.9811142391614442,2.8743103604483915,-0.41573238372802734,1.0021876096725464,-0.3071461319923401,-0.02908628061413765,-0.9832934737205505,0.1796887218952179,-0.29291993379592896,0.36134517192840576,0.19000136852264404
1.3935237917999639,-2.984343222956945,2.888229811518756,-0.6392669677734375,1.0919069051742554,-0.3635753393173218,-0.02761618047952652,-0.9843283295631409,0.17417030036449432,-0.2616904377937317,0.4147939682006836,0.1777433156967163
1.4014501664566714,-2.9880936185498292,2.9037709147359645,-0.8329493999481201,1.2084317207336426,-0.40266841650009155,-0.025768985971808434,-0.9856951832771301,0.16655661165714264,-0.22592473030090332,0.46884942054748535,0.1689232587814331
1.411193219896758,-2.9922088418856516,2.9206320072008536,-1.0030633211135864,1.283432126045227,-0.4207102954387665,-0.02365279756486416,-0.9872904419898987,0.15715621411800385,-0.1812116950750351,0.517487645149231,0.15136133134365082
1.422619067745613,-2.9954892697115474,2.9371764193671854,-1.1760156154632568,1.3103491067886353,-0.3978996276855469,-0.021493567153811455,-0.989041805267334,0.14606378972530365,-0.1175902932882309,0.5477423071861267,0.14307522773742676
1.4356394700891395,-2.9946172574798395,2.949259344591078,-1.335510015487671,1.231544017791748,-0.3077138066291809,-0.019733194261789322,-0.9908801913261414,0.1332937330007553,-0.04645942896604538,0.5652362108230591,0.15799665451049805
1.449888236655854,-2.985511933111987,2.9516838117416917,-1.4578591585159302,1.0534868240356445,-0.17852333188056946,-0.018749263137578964,-0.9926995038986206,0.1191483736038208,0.005245238542556763,0.5871971845626831,0.16797637939453125
1.4649010364747086,-2.9652154140917384,2.9408684920268815,-1.5240919589996338,0.854885458946228,-0.08234486728906631,-0.018546240404248238,-0.9943983554840088,0.10405834019184113,0.021323340013623238,0.593671977519989,0.1508551836013794
1.4800242351769317,-2.9330674287308467,2.9163993577598037,-1.5163171291351318,0.7065055966377258,-0.028525281697511673,-0.018765831366181374,-0.995883047580719,0.08868491649627686,0.006497770547866821,0.5910978317260742,0.1137230396270752
1.4946569723584755,-2.887245945868917,2.8770828791445036,-1.475277066230774,0.6300135254859924,-0.014662463217973709,-0.01913938857614994,-0.9971027970314026,0.07361948490142822,-0.01864137500524521,0.5938434600830078,0.05312013626098633
1.50862151508039,-2.8221441933120763,2.818299084385261,-1.4368764162063599,0.670172929763794,0.007907175458967686,-0.01951289176940918,-0.9980677962303162,0.05899100378155708,-0.05227971076965332,0.5796718001365662,0.004729863256216049
1.5221984235374806,-2.7164646178389718,2.7195005467167017,-1.486563801765442,0.7312203049659729,0.025250479578971863,-0.020036326721310616,-0.9988193511962891,0.044255953282117844,-0.06945647299289703,0.5876254439353943,-0.012258172035217285
1.5357221520391482,-2.510138408110823,2.5207205557524146,-1.6828083992004395,0.8126354217529297,0.05803671106696129,-0.0207020565867424,-0.9993849396705627,0.02830684743821621,-0.0846903994679451,0.5765486359596252,0.03614640235900879
1.5468657275952804,-1.9906099255226013,2.0096058754883726,-1.984009861946106,0.9055868983268738,0.14549200236797333,-0.02185508981347084,-0.999713659286499,0.009754996746778488,-0.07445839047431946,0.5644108057022095,0.12871861457824707
1.543990267934728,-1.111817480965121,1.1398076493638991,-2.2738633155822754,0.9232645034790039,0.2997850477695465,-0.024031125009059906,-0.9996407628059387,-0.011875643394887447,-0.041551150381565094,0.5608437061309814,0.19345533847808838
1.5255259484443244,-0.660568938204775,0.6973288532131963,-2.4142234325408936,0.866919219493866,0.4879075288772583,-0.027767188847064972,-0.9989754557609558,-0.03573562949895859,-0.015354150906205177,0.5508553385734558,0.18984955549240112
1.502239622616832,-0.5034660873118967,0.5480749911116006,-2.357753038406372,0.7325112819671631,0.6328998804092407,-0.0330507755279541,-0.9976509213447571,-0.06000377610325813,-0.027740243822336197,0.5135200023651123,0.11345547437667847
1.4789659207330024,-0.44214467857971346,0.49281471698236734,-2.165980577468872,0.5033643841743469,0.6771860718727112,-0.03923827037215233,-0.9957865476608276,-0.08288551867008209,-0.07508058845996857,0.45747143030166626,0.019653238356113434
1.4573773503155585,-0.41298386736103115,0.4673234529464797,-1.9670673608779907,0.2636125683784485,0.6238113045692444,-0.04542243108153343,-0.9935749769210815,-0.10366078466176987,-0.16125786304473877,0.38535964488983154,-0.034614257514476776
1.4377059347163816,-0.3942536812364786,0.45033131204266097,-1.8140435218811035,0.12655963003635406,0.5365895628929138,-0.05097193643450737,-0.9911565184593201,-0.12251807004213333,-0.24369055032730103,0.3208225965499878,-0.041040778160095215
1.4193031491073338,-0.38046818593987375,0.43741408084717287,-1.7290146350860596,0.0771898403763771,0.5254098773002625,-0.056043270975351334,-0.9885468482971191,-0.14012369513511658,-0.26437604427337646,0.2704527974128723,-0.03484870493412018
1.401240218853116,-0.37377116015140854,0.4310314827110104,-1.6955567598342896,-0.010262776166200638,0.6227291822433472,-0.06161363795399666,-0.9856597781181335,-0.15709428489208221,-0.22642652690410614,0.22423094511032104,-0.018808886408805847
1.382908865429471,-0.3770081816964037,0.4336139175546495,-1.6701258420944214,-0.12929946184158325,0.8110427856445312,-0.06876301765441895,-0.9824010133743286,-0.17366689443588257,-0.17318035662174225,0.1824893355369568,-0.0028466731309890747
1.3639429766157736,-0.3908844660254654,0.44580159962327115,-1.6596338748931885,-0.25727578997612,1.0507934093475342,-0.07825168967247009,-0.9786820411682129,-0.18989017605781555,-0.11382594704627991,0.12820285558700562,0.008997336030006409
1.3439643179982181,-0.4134723887518321,0.46557910203735664,-1.675203800201416,-0.40582403540611267,1.2780674695968628,-0.09035969525575638,-0.9743837118148804,-0.2059406042098999,-0.08606242388486862,0.07138383388519287,0.01598401367664337
1.3232296189332695,-0.44039593772675756,0.4880940253871019,-1.6423507928848267,-0.5992121696472168,1.373455286026001,-0.10446234792470932,-0.9695115685462952,-0.22166402637958527,-0.14478996396064758,0.022932589054107666,0.016891196370124817
1.3028528631698024,-0.4676758721118897,0.5091171295304864,-1.5304741859436035,-0.7808709144592285,1.3571197986602783,-0.11935219168663025,-0.9643173813819885,-0.2363196611404419,-0.26303306221961975,-0.053413331508636475,0.0011513382196426392
1.283926938754912,-0.49399996799948254,0.5275888104398377,-1.335652232170105,-0.9235526919364929,1.2761684656143188,-0.13416163623332977,-0.9591343998908997,-0.24912235140800476,-0.3408749997615814,-0.16328692436218262,-0.0615922212600708
1.2673064231085334,-0.5199012805961445,0.5443666853969257,-1.0856660604476929,-1.0344027280807495,1.1835362911224365,-0.14846839010715485,-0.9542993307113647,-0.2593647837638855,-0.38745081424713135,-0.26287907361984253,-0.15236300230026245
1.2530570032677963,-0.5462575311929814,0.5606293158327945,-0.8700042963027954,-1.1277116537094116,1.118711233139038,-0.16230015456676483,-0.9499441385269165,-0.2669551968574524,-0.42002105712890625,-0.33303022384643555,-0.19527918100357056
1.2402898283939716,-0.5727381494501742,0.576239454407593,-0.7779321670532227,-1.1966769695281982,1.0713560581207275,-0.17587001621723175,-0.9458780884742737,-0.27273499965667725,-0.43373388051986694,-0.4209127426147461,-0.1781010627746582
1.2280111870620987,-0.5971407858826532,0.5892422312028083,-0.7936466932296753,-1.2179508209228516,0.9978339672088623,-0.18898905813694,-0.9418222308158875,-0.2779465317726135,-0.4566866159439087,-0.5080832839012146,-0.11399060487747192
1.2159181741743939,-0.6188588501342176,0.5989601998520308,-0.8380841612815857,-1.317406415939331,0.8854799270629883,-0.20157308876514435,-0.9376888275146484,-0.28303366899490356,-0.5107682347297668,-0.5703220963478088,-0.049623042345047
1.2030037328837024,-0.6314067331534176,0.5983745154854849,-1.327702522277832,-1.2443875074386597,0.6143951416015625,-0.2122393697500229,-0.9331232905387878,-0.2902333438396454,-0.5507458448410034,-0.6168645024299622,-0.0065805017948150635
1.1871162967897244,-0.6296972816821501,0.5845010961027892,-1.7912557125091553,-0.9983358383178711,0.4249225854873657,-0.22044610977172852,-0.9272933602333069,-0.30253997445106506,-0.6365485191345215,-0.7827743887901306,0.19723919034004211
1.1702095710724552,-0.6188254870289317,0.562687405100016,-1.8678079843521118,-0.8776382207870483,0.20122665166854858,-0.22620688378810883,-0.9208323359489441,-0.31764501333236694,-0.6529892683029175,-0.7469381093978882,0.1248655915260315
1.1547086082409268,-0.6060136360542561,0.5388058283650321,-1.7301369905471802,-0.9515637755393982,0.03594040870666504,-0.2302221655845642,-0.9146772027015686,-0.33221012353897095,-0.6398034691810608,-0.7320971488952637,-0.09656178951263428
1.141485878637459,-0.5948180637883701,0.5155487509880766,-1.520723581314087,-1.0355342626571655,-0.12174881994724274,-0.23324571549892426,-0.9092530012130737,-0.34475430846214294,-0.6000520586967468,-0.737445056438446,-0.1875942349433899
1.130698718003431,-0.583718095335474,0.4918666455815962,-1.3930829763412476,-1.0165791511535645,-0.34428665041923523,-0.23479685187339783,-0.904710054397583,-0.3554859161376953,-0.5911003947257996,-0.7108905911445618,-0.21311748027801514
1.1214114368295454,-0.5691704153152489,0.4653200367241646,-1.4091564416885376,-0.8472420573234558,-0.5493530035018921,-0.23411907255649567,-0.9007144570350647,-0.3659261167049408,-0.622463583946228,-0.7116055488586426,-0.19362884759902954
1.1125699188382123,-0.5504350483427785,0.43603442384367425,-1.4389348030090332,-0.6755551695823669,-0.669940173625946,-0.2313791662454605,-0.8968384861946106,-0.37702080607414246,-0.6263631582260132,-0.710736095905304,-0.15126889944076538
1.10390811723855,-0.530410897442075,0.4063778838659903,-1.3928810358047485,-0.640953779220581,-0.6976961493492126,-0.22770512104034424,-0.8929732441902161,-0.3882644772529602,-0.5494402647018433,-0.6569535732269287,-0.15339189767837524
1.0957196463550463,-0.5121915246122613,0.37827046048435786,-1.2856438159942627,-0.7233017086982727,-0.6949738264083862,-0.22416988015174866,-0.8892576694488525,-0.39870890974998474,-0.46087348461151123,-0.588434100151062,-0.1683991551399231
1.0884966628763102,-0.496366514591612,0.3518906377049307,-1.1449602842330933,-0.7814491987228394,-0.7367036938667297,-0.22088567912578583,-0.8859306573867798,-0.4078437387943268,-0.4390111565589905,-0.53176349401474,-0.19023963809013367
1.0826869400014654,-0.4816935313223104,0.32631491654782063,-0.9919809699058533,-0.8016687035560608,-0.8201858997344971,-0.2172587364912033,-0.8832210302352905,-0.4155951738357544,-0.486949622631073,-0.46934860944747925,-0.22484666109085083
1.0785903139459834,-0.4673658538707894,0.3010487259557836,-0.814990758895874,-0.7798092365264893,-0.9100587964057922,-0.2129105180501938,-0.8812925219535828,-0.4218919575214386,-0.5425063371658325,-0.4104861617088318,-0.26185429096221924
1.0763488790775841,-0.45333251871513025,0.2764111236190268,-0.6188479065895081,-0.7525304555892944,-0.974247395992279,-0.20783381164073944,-0.8802310824394226,-0.4266129434108734,-0.5630097389221191,-0.34445470571517944,-0.3047559857368469
1.076003167753259,-0.44012609039134293,0.25273505094091575,-0.4073604345321655,-0.7715533971786499,-1.015181541442871,-0.2023114264011383,-0.8800669312477112,-0.42959561944007874,-0.5556536912918091,-0.2654104232788086,-0.3101656436920166
1.0776112299640006,-0.42824602796689826,0.2301787136094958,-0.20070143043994904,-0.8197792768478394,-1.048796534538269,-0.19660566747188568,-0.880829393863678,-0.43068069219589233,-0.5451698303222656,-0.1941065788269043,-0.280790776014328
1.0808314651487974,-0.4179993469739424,0.2089406705510005,-0.04235440120100975,-0.8704158067703247,-1.0325506925582886,-0.19102993607521057,-0.8823493719100952,-0.43007805943489075,-0.523294985294342,-0.11742174625396729,-0.2383788526058197
1.0849725451401127,-0.409636301259694,0.1892967409145603,0.04971770569682121,-0.9201255440711975,-0.979404628276825,-0.18596969544887543,-0.8842905759811401,-0.42830535769462585,-0.47391191124916077,-0.03798121213912964,-0.16910666227340698
1.089389275816583,-0.403048739904488,0.17109059467180765,0.08948376774787903,-0.9839370250701904,-0.915069580078125,-0.18161046504974365,-0.886344313621521,-0.4259241223335266,-0.43780481815338135,0.026893019676208496,-0.09288978576660156
1.093811979979847,-0.39850791731106816,0.15425445651564917,0.11964830011129379,-1.0957132577896118,-0.8550170063972473,-0.17815172672271729,-0.8883834481239319,-0.42312753200531006,-0.4116920232772827,0.07905721664428711,-0.02619791030883789
1.098240377315194,-0.39617167628114686,0.1384705428954722,0.13086020946502686,-1.235508918762207,-0.8161606788635254,-0.17564281821250916,-0.8904078006744385,-0.41990897059440613,-0.39849963784217834,0.1127740740776062,0.001818239688873291
1.1022838770792565,-0.39521157823401115,0.12298256863104606,0.0668959766626358,-1.3172355890274048,-0.7870202660560608,-0.17385201156139374,-0.8922410011291504,-0.4167512059211731,-0.40732473134994507,0.12699741125106812,0.02235734462738037
1.105406200207972,-0.39434102766249246,0.1071225648638898,-0.038328979164361954,-1.3238085508346558,-0.7639586329460144,-0.17241798341274261,-0.8936465382575989,-0.41432833671569824,-0.4043947756290436,0.1401064395904541,0.06490212678909302
1.1074611852877743,-0.39289226765453933,0.09059699244157589,-0.15423037111759186,-1.3377488851547241,-0.7615041136741638,-0.17111411690711975,-0.8945668935775757,-0.41288039088249207,-0.40501201152801514,0.15614819526672363,0.07595115900039673
1.1084997724894954,-0.3906027803239064,0.07274201128681394,-0.2530011534690857,-1.4009333848953247,-0.7888215184211731,-0.16981449723243713,-0.8950305581092834,-0.412411630153656,-0.4180760979652405,0.15879398584365845,0.07378867268562317
1.109042286810106,-0.3884243149528726,0.053744314962521966,-0.2734946310520172,-1.5634115934371948,-0.8110204339027405,-0.16873173415660858,-0.895272433757782,-0.41233110427856445,-0.4156188368797302,0.1452723741531372,0.07761439681053162
1.1098298039942476,-0.3880016498400377,0.0347483844753195,-0.21701695024967194,-1.7400106191635132,-0.8054195046424866,-0.16829074919223785,-0.895622968673706,-0.41174986958503723,-0.39764249324798584,0.14298301935195923,0.03313356637954712
1.1110940800426397,-0.390234456332393,0.01685437166110455,-0.1491626501083374,-1.8973798751831055,-0.7555546164512634,-0.1687786877155304,-0.8961846232414246,-0.4103252589702606,-0.3645159602165222,0.13623589277267456,-0.014631897211074829
1.11266322782245,-0.3953532536163975,0.0005059052193418043,-0.11952806264162064,-2.0401363372802734,-0.6983088850975037,-0.1703350991010666,-0.8968797326087952,-0.4081578254699707,-0.3307635188102722,0.14124912023544312,-0.03257697820663452
1.1142093914684223,-0.4031905327060121,-0.014426742229195749,-0.11054586619138718,-2.1957318782806396,-0.6326319575309753,-0.17298433184623718,-0.8975625038146973,-0.40553420782089233,-0.31007838249206543,0.12835168838500977,-0.026152074337005615
1.1156962321433495,-0.41390509962939404,-0.02793021002877236,-0.08957986533641815,-2.356222152709961,-0.5804174542427063,-0.17678260803222656,-0.8982170224189758,-0.40243545174598694,-0.30269429087638855,0.10253214836120605,-0.0272367000579834
1.1172936653529004,-0.42669157431808785,-0.04095059916148043,-0.08643022924661636,-2.5230579376220703,-0.6038996577262878,-0.18131956458091736,-0.8989180326461792,-0.3988351821899414,-0.31372129917144775,0.0712965726852417,-0.05200082063674927
1.1191152065102836,-0.439720702710581,-0.055374103658920384,-0.11427251249551773,-2.6473848819732666,-0.6923171281814575,-0.18580317497253418,-0.8997145891189575,-0.39495667815208435,-0.34096071124076843,0.03707420825958252,-0.05691695213317871
1.1209608031544371,-0.4515388208145138,-0.07197272135499014,-0.18341602385044098,-2.6806561946868896,-0.7633308172225952,-0.18973290920257568,-0.9005186557769775,-0.3912386894226074,-0.34600314497947693,0.010534405708312988,-0.0777553915977478
1.122243584789796,-0.461721979491037,-0.09050401663190044,-0.2954208254814148,-2.665069818496704,-0.7798557281494141,-0.193192258477211,-0.9010756611824036,-0.38825178146362305,-0.3149864375591278,0.006330728530883789,-0.1012347936630249
1.1225687976409269,-0.47067864668338455,-0.10986904366209811,-0.39382749795913696,-2.5970709323883057,-0.7399438619613647,-0.19652901589870453,-0.9012166261672974,-0.3862447142601013,-0.2540324926376343,0.009508192539215088,-0.1235971450805664
1.1221134530445969,-0.47918569096490304,-0.12913471365091256,-0.44490188360214233,-2.563889741897583,-0.7044644355773926,-0.19999684393405914,-0.9010192155838013,-0.38492298126220703,-0.20022591948509216,0.01689434051513672,-0.17939269542694092
1.1213983842207231,-0.48774990976056654,-0.14828748448079684,-0.4482133686542511,-2.5910086631774902,-0.6998010277748108,-0.20358794927597046,-0.900708794593811,-0.38376519083976746,-0.17420437932014465,0.01759105920791626,-0.23348325490951538
1.1208785733080422,-0.49698038617310714,-0.16739298020479634,-0.42526358366012573,-2.684157133102417,-0.7109785676002502,-0.20734480023384094,-0.9004828929901123,-0.38228121399879456,-0.14755934476852417,-0.0001672506332397461,-0.2779207229614258
1.1207469637612641,-0.5072192615535145,-0.18646842817127654,-0.39157581329345703,-2.779972553253174,-0.7285580635070801,-0.21130555868148804,-0.9004256129264832,-0.38024184107780457,-0.11439326405525208,-0.012004256248474121,-0.31183570623397827
1.1211688289602098,-0.5182846108861957,-0.20544124479630554,-0.34113845229148865,-2.8150229454040527,-0.7470569014549255,-0.2153117060661316,-0.9006090760231018,-0.3775501847267151,-0.07686352729797363,-0.023112237453460693,-0.36172276735305786
1.1222617910830237,-0.5293777831170818,-0.22406669242353366,-0.27537861466407776,-2.7220537662506104,-0.7597991824150085,-0.2189895510673523,-0.9010835886001587,-0.37428897619247437,-0.03853300213813782,-0.04148244857788086,-0.44904470443725586
1.1240594015526377,-0.5395159098790959,-0.242257506185015,-0.22599296271800995,-2.5702803134918213,-0.7770711183547974,-0.22194026410579681,-0.9018616080284119,-0.370659202337265,-0.0032946765422821045,-0.04815065860748291,-0.5484081506729126
1.1261624467033842,-0.5481539569451707,-0.2606207870903613,-0.23829235136508942,-2.46065616607666,-0.7876352667808533,-0.22414478659629822,-0.9027681946754456,-0.3671085834503174,0.04927912354469299,-0.06499004364013672,-0.5879389643669128
1.12799362617559,-0.5553373204653264,-0.2794527433914823,-0.2987799346446991,-2.3626139163970947,-0.7731282114982605,-0.225904181599617,-0.9035543203353882,-0.36408382654190063,0.1456429660320282,-0.11168926954269409,-0.5789397954940796
1.129194800349482,-0.5613208477348676,-0.29849292793374654,-0.3549576699733734,-2.2614641189575195,-0.7315486669540405,-0.22750064730644226,-0.9040683507919312,-0.3618064224720001,0.24460574984550476,-0.16062897443771362,-0.5765174627304077
1.1299329512373126,-0.566424840709286,-0.3174820866331112,-0.3797173500061035,-2.1747870445251465,-0.7209346294403076,-0.2289862334728241,-0.9043835997581482,-0.360077440738678,0.3101782500743866,-0.20680731534957886,-0.6008294820785522
1.1306809360869936,-0.569960008263456,-0.33687452358733294,-0.38001954555511475,-2.018984794616699,-0.7533515095710754,-0.22989264130592346,-0.9047024846076965,-0.3586960434913635,0.35028451681137085,-0.28166836500167847,-0.6442030668258667
1.1317240917035751,-0.5709891010939464,-0.35707189821232427,-0.3665487468242645,-1.8290190696716309,-0.7988165020942688,-0.22975142300128937,-0.9051464200019836,-0.35766497254371643,0.37602221965789795,-0.35678601264953613,-0.6799173355102539
1.1331354167649874,-0.5695433318540283,-0.37798296251645247,-0.35098791122436523,-1.6576296091079712,-0.8401190638542175,-0.2285449504852295,-0.9057455062866211,-0.3569205403327942,0.38769418001174927,-0.4262400269508362,-0.6821571588516235
1.1350104602619007,-0.5660217451088626,-0.3992607650652778,-0.29250621795654297,-1.4858375787734985,-0.8745222687721252,-0.2263755351305008,-0.9065386056900024,-0.35628923773765564,0.4039421081542969,-0.5043959617614746,-0.6671329140663147
1.1379150986155677,-0.5610524895400938,-0.4202534618401516,-0.14702223241329193,-1.3118687868118286,-0.9274482131004333,-0.2232002317905426,-0.9077608585357666,-0.35517871379852295,0.3988899290561676,-0.5800626873970032,-0.6665039658546448
1.142664790672193,-0.5547040486982927,-0.44059358759205514,0.057000670582056046,-1.1066099405288696,-1.0136864185333252,-0.21866756677627563,-0.909743070602417,-0.35291942954063416,0.3626343011856079,-0.6551373600959778,-0.6914225816726685
1.1496343267813147,-0.5461730000009657,-0.4609217139445537,0.24679087102413177,-0.8820576667785645,-1.141516089439392,-0.2123502641916275,-0.9126145243644714,-0.3493453860282898,0.3138670325279236,-0.7366164922714233,-0.6999404430389404
1.158652989238075,-0.5340020029957966,-0.4827777596230591,0.37436988949775696,-0.687910795211792,-1.2968963384628296,-0.20388510823249817,-0.9162643551826477,-0.344804972410202,0.27305322885513306,-0.7955580949783325,-0.6483895778656006
1.1690700757577672,-0.5173281015307343,-0.5078713765392944,0.4214634299278259,-0.5916199088096619,-1.4538569450378418,-0.1933765858411789,-0.9203873872756958,-0.3398418128490448,0.2524434030056,-0.8308485150337219,-0.5447558760643005
1.1803417525595532,-0.4963108320249118,-0.5366745739082639,0.4737870991230011,-0.5137485861778259,-1.5633360147476196,-0.18124011158943176,-0.9247361421585083,-0.3346865475177765,0.24193964898586273,-0.8378065824508667,-0.44461020827293396
1.192542362790901,-0.47231399975544125,-0.5675037365714402,0.6110493540763855,-0.3920842111110687,-1.601728916168213,-0.16801169514656067,-0.9293108582496643,-0.32886698842048645,0.25198084115982056,-0.804865837097168,-0.4457453489303589
1.2060560867565158,-0.4468063545216717,-0.5984689783602167,0.8152849674224854,-0.277423232793808,-1.6023871898651123,-0.15412858128547668,-0.9342164397239685,-0.3216894567012787,0.2602992653846741,-0.7461119890213013,-0.5241509079933167
1.2212940291397538,-0.42055054905903494,-0.6290273014438867,1.0442782640457153,-0.19715672731399536,-1.6088002920150757,-0.13980160653591156,-0.9395432472229004,-0.3125922977924347,0.26501524448394775,-0.6833968162536621,-0.5775290727615356
1.2380687982893952,-0.3931761427431134,-0.6598867748912274,1.1952089071273804,-0.1375328153371811,-1.600853681564331,-0.12513677775859833,-0.9451549649238586,-0.3016997277736664,0.2623438835144043,-0.6222430467605591,-0.5880401134490967
1.2553024693122383,-0.3635150531296409,-0.6922189216646503,1.2265104055404663,-0.05424761772155762,-1.576059341430664,-0.11032593250274658,-0.9506432414054871,-0.29000991582870483,0.25829046964645386,-0.5531104803085327,-0.5331406593322754
1.2720461737000253,-0.32948388256836897,-0.7279218166392459,1.1734871864318848,0.05564532428979874,-1.5890097618103027,-0.09523062407970428,-0.9557051062583923,-0.2784942090511322,0.24812373518943787,-0.48820364475250244,-0.44962459802627563
1.2878094982483355,-0.28869421458211086,-0.7694547287825106,1.103378176689148,0.139631450176239,-1.6314115524291992,-0.0794956237077713,-0.9602257013320923,-0.2676699161529541,0.20626571774482727,-0.4258827567100525,-0.39700281620025635
1.3029407388447882,-0.24084251633261972,-0.8171853486353894,1.1457732915878296,0.24469847977161407,-1.647886037826538,-0.06312793493270874,-0.9643406867980957,-0.25702524185180664,0.19116449356079102,-0.3451228737831116,-0.4002316892147064
1.3183140701035125,-0.18813593367444253,-0.8687004348765791,1.2924000024795532,0.3318144977092743,-1.5710456371307373,-0.04672117158770561,-0.9682953357696533,-0.24540039896965027,0.210249662399292,-0.25288087129592896,-0.5040959715843201
1.334351625668847,-0.13401825560811015,-0.9208016315833935,1.45889151096344,0.3749435842037201,-1.421633243560791,-0.031299613416194916,-0.9721769094467163,-0.2321474552154541,0.2415352761745453,-0.16164273023605347,-0.5673214197158813
1.351193684775219,-0.0787092077760566,-0.9735358432549023,1.6255093812942505,0.4201197326183319,-1.303999900817871,-0.017128463834524155,-0.9759840965270996,-0.217167466878891,0.26265770196914673,-0.09635788202285767,-0.5587112903594971
1.3688555025109777,-0.018246298663365537,-1.0308187119535248,1.7722338438034058,0.4586713910102844,-1.2554209232330322,-0.0036594748962670565,-0.9796791672706604,-0.20053759217262268,0.21203354001045227,-0.0400504469871521,-0.5271081924438477
1.3870125776560538,0.05119310494141063,-1.09708854173145,1.8802348375320435,0.4057958424091339,-1.2134921550750732,0.009351496584713459,-0.9831592440605164,-0.18251141905784607,0.1579306423664093,0.019551515579223633,-0.46829116344451904
1.405033934328821,0.13160969568319392,-1.175103217560695,1.9312210083007812,0.31540414690971375,-1.1494791507720947,0.02165360376238823,-0.986292839050293,-0.16357789933681488,0.15693530440330505,0.04937261343002319,-0.40009695291519165
1.4221058384481704,0.22617828671933854,-1.2677314206901453,1.9197113513946533,0.312814325094223,-1.0929255485534668,0.03322199732065201,-0.9889659285545349,-0.14437083899974823,0.16418099403381348,0.07870280742645264,-0.3570023775100708
1.437347107383569,0.3404366896248149,-1.3794048094160984,1.861841082572937,0.4338078796863556,-1.0680437088012695,0.044426724314689636,-0.9911088347434998,-0.12541835010051727,0.12873008847236633,0.12866675853729248,-0.33611416816711426
1.4498927476611454,0.4789664267013577,-1.5139508067744731,1.7765642404556274,0.5688060522079468,-1.052181363105774,0.0555851012468338,-0.9927000403404236,-0.1070389598608017,0.08046231418848038,0.17603421211242676,-0.31109756231307983
1.4591804368370993,0.6384192925259434,-1.6685248769596042,1.6826523542404175,0.5981961488723755,-0.9895247220993042,0.06637725234031677,-0.9937773942947388,-0.08944639563560486,0.054380863904953,0.225802481174469,-0.2548832893371582
1.4652511492920606,0.8090487813530219,-1.83436109457913,1.5957472324371338,0.545112133026123,-0.8911261558532715,0.07623325288295746,-0.9944352507591248,-0.07270999997854233,0.06274379789829254,0.2649279236793518,-0.186918243765831
1.468480106912291,0.983344921768627,-2.0046264618086536,1.5575569868087769,0.4349627196788788,-0.8040053844451904,0.08501505851745605,-0.9947702884674072,-0.05660904571413994,0.057120583951473236,0.3021433353424072,-0.1358346939086914
1.4691559573464497,1.1579330007611073,-2.176547688102011,1.569550633430481,0.2639857232570648,-0.7565743327140808,0.0929400622844696,-0.994839072227478,-0.04071143642067909,0.035691581666469574,0.349117636680603,-0.10157668590545654
1.4670555019167175,1.3284802417947295,-2.346355347745436,1.5764836072921753,0.061943940818309784,-0.7555831074714661,0.1005302369594574,-0.9946237206459045,-0.024848347529768944,0.001657932996749878,0.38358545303344727,-0.07837724685668945
1.462128373848381,1.486727639553384,-2.505645758743297,1.5841646194458008,-0.08304858952760696,-0.7588534355163574,0.1080731451511383,-0.9941014647483826,-0.009107031859457493,-0.024042919278144836,0.40537142753601074,-0.055346012115478516
1.4546519383823648,1.628067745359741,-2.64914881504039,1.6029460430145264,-0.16040383279323578,-0.7754904627799988,0.1156938374042511,-0.9932628273963928,0.006633204407989979,-0.04806682467460632,0.44109296798706055,-0.05410325527191162
1.4448570020009075,1.7496764365285793,-2.773239567282709,1.5836271047592163,-0.1411733329296112,-0.8098706007003784,0.12360429763793945,-0.9920800924301147,0.022349238395690918,-0.0846332460641861,0.4730522632598877,-0.06768298149108887
1.433334629711096,1.848497014110782,-2.8739668104517757,1.4962763786315918,-0.05836847051978111,-0.8229957222938538,0.1317794770002365,-0.9905670285224915,0.037565916776657104,-0.09946133196353912,0.49873048067092896,-0.05427420511841774
1.4211768624230738,1.9252662063792083,-2.9517143910721813,1.3601672649383545,0.016059882938861847,-0.7790492177009583,0.13979454338550568,-0.9888278841972351,0.051738280802965164,-0.08515278995037079,0.5363438129425049,-0.015162952244281769
1.409642269620105,1.9843092150470936,-3.0112216427816527,1.2021504640579224,0.027345294132828712,-0.6524977087974548,0.14693300426006317,-0.9870427846908569,0.06447627395391464,-0.04582825303077698,0.5700659155845642,0.023338064551353455
1.3996770657554196,2.031397515895856,-3.0588321297859675,1.0656132698059082,-0.010150555521249771,-0.4763898551464081,0.15253904461860657,-0.9853947758674622,0.07568953186273575,0.002368226647377014,0.6043676137924194,0.046594493091106415
1.3915441333073977,2.0720233364830567,-3.100670336221168,0.9781963229179382,-0.11028754711151123,-0.2909869849681854,0.15636251866817474,-0.9839773178100586,0.08567051589488983,0.03858382999897003,0.6385183334350586,0.04830168932676315
1.384963663974084,2.109356979694087,-3.140358688609765,0.9210657477378845,-0.2251664400100708,-0.14366364479064941,0.15861135721206665,-0.9827827215194702,0.0947662889957428,0.04672624170780182,0.6519263982772827,0.028982631862163544
1.3793391170123006,2.14362824123354,3.10510024274236,0.8669582605361938,-0.32890933752059937,-0.0763985887169838,0.15991395711898804,-0.9817279577255249,0.10313989222049713,0.02462589740753174,0.6397479772567749,0.004037976264953613
1.3740310399487934,2.1730069191054695,3.0714700302671245,0.7933988571166992,-0.3832668662071228,-0.09402738511562347,0.16110646724700928,-0.9807040691375732,0.11074248701334,-0.013721808791160583,0.6265782713890076,-0.0094393789768219
1.368712883529725,2.19599053925451,3.0440915158942703,0.7017472982406616,-0.3759079575538635,-0.1512669324874878,0.16274665296077728,-0.9796505570411682,0.1174672394990921,-0.0454828143119812,0.6084346771240234,-0.027364015579223633
1.363320838696337,2.213038882547851,3.023409352504765,0.6115556955337524,-0.24763692915439606,-0.21246126294136047,0.16494785249233246,-0.9785540699958801,0.12338683009147644,-0.05766323208808899,0.5934679508209229,-0.05682790279388428
1.3580761212557468,2.226873641622484,3.00771944252634,0.5407052040100098,-0.05575724318623543,-0.21023379266262054,0.1672891080379486,-0.9774602651596069,0.12878559529781342,-0.03903894126415253,0.5909551978111267,-0.11239756643772125
1.3535846627564567,2.240584331215966,2.993875695233146,0.47049614787101746,0.08760908246040344,-0.12581484019756317,0.16894769668579102,-0.9765021800994873,0.1337912231683731,0.015820994973182678,0.5987709164619446,-0.14967550337314606
1.3502936395898681,2.255029214803712,2.9805138108603453,0.39246419072151184,0.1849912852048874,-0.02022024244070053,0.16948744654655457,-0.9757876396179199,0.13824860751628876,0.0779339075088501,0.5952638983726501,-0.15152359008789062
1.348207988819278,2.270921660514085,2.966431418597677,0.3526074290275574,0.23500210046768188,0.09460123628377914,0.16882510483264923,-0.9753293395042419,0.14223560690879822,0.12393006682395935,0.5867031812667847,-0.14516520500183105
1.3470681152810173,2.2891116606700805,2.9500724465858132,0.34617671370506287,0.20025770366191864,0.20333702862262726,0.16704629361629486,-0.9750770330429077,0.1460137814283371,0.16184169054031372,0.5819039940834045,-0.1520867645740509
1.3465697923314839,2.309291365211917,2.9309733424876976,0.35526683926582336,0.10298523306846619,0.27942386269569397,0.16442576050758362,-0.9749664068222046,0.14968229830265045,0.19621573388576508,0.5493987798690796,-0.1519709974527359
1.3462587521632399,2.330442808203065,2.909847035189308,0.37688878178596497,0.016721710562705994,0.30893754959106445,0.16144274175167084,-0.9748971462249756,0.15333490073680878,0.22091205418109894,0.49247539043426514,-0.1503594070672989
1.3457489981149933,2.3521895006121034,2.887808441778117,0.39508432149887085,0.05230860784649849,0.2945013642311096,0.15842361748218536,-0.9747835397720337,0.1571597009897232,0.225151926279068,0.4348818063735962,-0.18857741355895996
1.3448980890653626,2.3736336228465627,2.8672132423019607,0.36365634202957153,0.23867101967334747,0.23394747078418732,0.15559327602386475,-0.9745932817459106,0.16111698746681213,0.21487492322921753,0.37612831592559814,-0.2435142993927002
1.3438615264269196,2.3924766199561383,2.8517727840978258,0.24911992251873016,0.5245789289474487,0.12098638713359833,0.15321795642375946,-0.9743606448173523,0.16475993394851685,0.21367967128753662,0.3145400285720825,-0.270243763923645
1.3430819919505557,2.4053491675967296,2.8454754154654265,0.05287078395485878,0.8151902556419373,-0.01943224109709263,0.15159393846988678,-0.9741849303245544,0.16728076338768005,0.22435212135314941,0.2459593415260315,-0.2642503082752228
1.342883078889462,2.410519581612462,2.849912268316537,-0.15220874547958374,1.0693739652633667,-0.14739184081554413,0.15085667371749878,-0.9741399884223938,0.16820690035820007,0.2535775899887085,0.1926000714302063,-0.2445312887430191
1.343383663374439,2.4093126798250712,2.8631825088958056,-0.31311267614364624,1.2589194774627686,-0.22166740894317627,0.15073347091674805,-0.9742529988288879,0.16766197979450226,0.30147606134414673,0.16723090410232544,-0.2544386386871338
1.3446089864642383,2.4043945855154956,2.88186395204341,-0.42229729890823364,1.3786972761154175,-0.22720706462860107,0.15075384080410004,-0.9745284914970398,0.16603492200374603,0.36351317167282104,0.1598922610282898,-0.2853280305862427
1.3465287840475093,2.3987188675753295,2.9020584409154555,-0.4566139876842499,1.4009238481521606,-0.17765575647354126,0.1504283994436264,-0.974957287311554,0.1637987643480301,0.43026018142700195,0.16151106357574463,-0.31483006477355957
1.3487640995726617,2.394961198432735,2.9201133789798726,-0.39636051654815674,1.3544131517410278,-0.10104788839817047,0.14956185221672058,-0.9754519462585449,0.16163185238838196,0.4822741746902466,0.15883207321166992,-0.35042881965637207
1.3507495522733268,2.3965565961701816,2.932250280720545,-0.24988585710525513,1.3306388854980469,-0.022188495844602585,0.14799003303050995,-0.9758872389793396,0.1604459136724472,0.5133106708526611,0.14640432596206665,-0.40997281670570374
1.3519635495206361,2.4055001448483306,2.937164207680427,-0.07478652149438858,1.4260081052780151,0.024328583851456642,0.1457541286945343,-0.9761515259742737,0.16088545322418213,0.5020883083343506,0.1468973159790039,-0.4857907295227051
1.3521535570376881,2.4215000612966233,2.936193876500465,0.07020474970340729,1.5742934942245483,0.030968379229307175,0.14303867518901825,-0.9761927127838135,0.163056880235672,0.45623505115509033,0.14403951168060303,-0.5332654714584351
1.3513895204584905,2.4425020424644655,2.931647436815228,0.16474981606006622,1.7230308055877686,0.021041829138994217,0.1400628387928009,-0.976026713848114,0.1665956974029541,0.4165625274181366,0.14340049028396606,-0.5143738985061646
1.3501201619700793,2.4659522791591986,2.925882159821897,0.18530674278736115,1.8200254440307617,0.013158870860934258,0.13689306378364563,-0.975749671459198,0.17080116271972656,0.40181851387023926,0.13090097904205322,-0.468438982963562
1.3487708842662784,2.48991471900319,2.9203898655926017,0.17253029346466064,1.8837462663650513,0.006771339103579521,0.13356012105941772,-0.9754534363746643,0.17507921159267426,0.38999950885772705,0.12506568431854248,-0.4017026424407959
1.3473416025649183,2.512752544770842,2.9164378933236415,0.16163583099842072,1.893757939338684,-0.03988830745220184,0.1303468495607376,-0.9751377105712891,0.17921040952205658,0.36965319514274597,0.12470430135726929,-0.3538776636123657
1.3456839723906127,2.5330029530979394,2.914994720549028,0.14448437094688416,1.8570959568023682,-0.0953301414847374,0.1276150643825531,-0.9747690558433533,0.18313875794410706,0.3439273238182068,0.12549537420272827,-0.3204677104949951
1.343935533565419,2.550433942638734,2.915841515820719,0.12284033000469208,1.7833589315414429,-0.12556181848049164,0.12535323202610016,-0.9743772745132446,0.1867501139640808,0.33064043521881104,0.13816511631011963,-0.287106990814209
1.3423325449743497,2.566339334122819,2.9176200061008104,0.10138241201639175,1.7378956079483032,-0.10700192302465439,0.12321729958057404,-0.974015474319458,0.19003130495548248,0.33242547512054443,0.1500558853149414,-0.26574525237083435
1.3411205148897616,2.5829861508203864,2.918559800141394,0.07552018761634827,1.7747873067855835,-0.055350977927446365,0.12066207081079483,-0.97374027967453,0.19305622577667236,0.32974693179130554,0.15650999546051025,-0.2641162872314453
1.3404699704629137,2.6014248980746513,2.91846372102965,0.037580475211143494,1.8893710374832153,-0.011563755571842194,0.11740764230489731,-0.9735919237136841,0.1957911103963852,0.3001033663749695,0.16428107023239136,-0.2840326130390167
1.3403201074977358,2.621346596927522,2.9181252260249617,-0.0022465642541646957,2.012600898742676,0.004596572369337082,0.11355674266815186,-0.973557710647583,0.19821783900260925,0.23878401517868042,0.172776460647583,-0.2936767339706421
1.3403810319818035,2.641284178903074,2.918680627664343,-0.017664935439825058,2.0537056922912598,-0.02417755126953125,0.10955414175987244,-0.9735716581344604,0.20039056241512299,0.17795199155807495,0.1669309139251709,-0.28948652744293213
1.3402307547715016,2.6597451017655254,2.920468553917744,0.011275103315711021,1.9520094394683838,-0.05999280512332916,0.10590386390686035,-0.9735373258590698,0.20250798761844635,0.11843090504407883,0.14715182781219482,-0.2656639814376831
1.3395108679950456,2.676919044153682,2.921706877428784,0.10165287554264069,1.7036173343658447,-0.04759075865149498,0.10272487252950668,-0.9733725190162659,0.2049238532781601,0.09682959318161011,0.1202993392944336,-0.2297954559326172
1.3377841894636475,2.6944883995553717,2.9200144089302893,0.2483978271484375,1.4855064153671265,-0.037926945835351944,0.09983520209789276,-0.9729752540588379,0.20821183919906616,0.08606266975402832,0.07395792007446289,-0.23845458030700684
1.3346463663074366,2.7126354355693203,2.916283930241472,0.38735759258270264,1.4350011348724365,-0.06905622035264969,0.09731021523475647,-0.9722459316253662,0.21276526153087616,0.020167246460914612,0.01841890811920166,-0.28748735785484314
1.3303942705422351,2.731954338904767,2.9121063739034287,0.4545685946941376,1.6365318298339844,-0.08716704696416855,0.0948273316025734,-0.9712423086166382,0.21839487552642822,-0.04836428165435791,-0.003168761730194092,-0.31292295455932617
1.3260459188376426,2.754037637308026,2.9080657537632137,0.4069812297821045,1.9885386228561401,-0.061635296791791916,0.09157703071832657,-0.970197856426239,0.22434371709823608,-0.09546797722578049,-0.017396926879882812,-0.3157742917537689
1.3227008641535494,2.7787885534050076,2.904551437003358,0.2768719792366028,2.2455530166625977,-0.02266392856836319,0.08714793622493744,-0.9693818688392639,0.22957371175289154,-0.12340278178453445,-0.02871072292327881,-0.254903107881546
1.3205309709825428,2.8040241786846845,2.90216443121549,0.17726744711399078,2.295229196548462,-0.01610817387700081,0.08202384412288666,-0.9688467383384705,0.23368386924266815,-0.13701647520065308,-0.053873538970947266,-0.1582290232181549
1.3190983117806785,2.8275252599574388,2.9010859220389746,0.11507944762706757,2.1677770614624023,-0.026666009798645973,0.07693856954574585,-0.9684909582138062,0.23686660826206207,-0.16630923748016357,-0.09632837772369385,-0.10162784159183502
1.3180710193179281,2.848013114748234,2.9017594394806623,0.07425083965063095,2.0536797046661377,-0.06877212971448898,0.0723576620221138,-0.9682345986366272,0.23934504389762878,-0.21568343043327332,-0.11291158199310303,-0.07136097550392151
1.3171835052525982,2.8645655545639315,2.905480406152981,0.046302564442157745,1.9641708135604858,-0.16344189643859863,0.06862134486436844,-0.968012273311615,0.24133694171905518,-0.27949777245521545,-0.1256309151649475,-0.06291569769382477
1.316283282827788,2.8761607689300814,2.9136101960862364,0.015160379000008106,1.925328254699707,-0.27457258105278015,0.06604703515768051,-0.9677860140800476,0.24295727908611298,-0.33322837948799133,-0.13786590099334717,-0.054679036140441895
1.3156410272046317,2.8833867424295696,2.926238660043374,-0.06590491533279419,1.9606499671936035,-0.3646462857723236,0.06444840133190155,-0.9676241278648376,0.2440289855003357,-0.34792616963386536,-0.13380110263824463,-0.05543017387390137
1.3160507724737651,2.8876128764913007,2.9426894694960244,-0.22767992317676544,2.063514232635498,-0.3987361788749695,0.06331703066825867,-0.9677274227142334,0.2439158856868744,-0.3417136073112488,-0.09933507442474365,-0.04367455840110779
1.318338553577,2.892214168269181,2.9600513580902534,-0.4326665997505188,2.2046287059783936,-0.3135712146759033,0.06164725124835968,-0.9683014154434204,0.2420576959848404,-0.3162859082221985,-0.042700111865997314,-0.008720189332962036
1.3228833938480653,2.900091016342858,2.975260744480588,-0.621986448764801,2.2955539226531982,-0.1912076324224472,0.05868569016456604,-0.9694266319274902,0.23826058208942413,-0.27275121212005615,-0.004053592681884766,0.0007075071334838867
1.329241843295738,2.911440771880847,2.987475897837688,-0.7344509363174438,2.3187055587768555,-0.08921416848897934,0.05457061156630516,-0.9709672927856445,0.2329055815935135,-0.2687581777572632,0.006260693073272705,-0.004588097333908081
1.3363358431083525,2.9254562890366143,2.9966825850155767,-0.7236155867576599,2.2518837451934814,-0.021340100094676018,0.049822621047496796,-0.972639799118042,0.22691403329372406,-0.29875448346138,0.02355825901031494,-0.025360435247421265
1.3428668315002303,2.9415604803738686,3.002740175113935,-0.5980890989303589,2.1280629634857178,0.017049366608262062,0.044898610562086105,-0.9741363525390625,0.22145520150661469,-0.3474498391151428,0.037323057651519775,-0.07570317387580872
1.3479859987319978,2.958667462844624,3.006118625130029,-0.426636666059494,1.9282927513122559,0.030801810324192047,0.040196243673563004,-0.9752802848815918,0.21728497743606567,-0.3932541012763977,0.0379176139831543,-0.1106870174407959
1.3513448388238025,2.9762969329801905,3.0067947288221744,-0.23843450844287872,1.7214828729629517,0.060641463845968246,0.0358203761279583,-0.9760169982910156,0.21472755074501038,-0.4212116003036499,0.04118722677230835,-0.09195518493652344
1.3529547469496133,2.9950191674546183,3.004549431323203,-0.07021549344062805,1.5855118036270142,0.08473588526248932,0.03156471997499466,-0.9763662219047546,0.2138064205646515,-0.4428043067455292,0.03740119934082031,-0.06498727202415466
1.3531476061684673,3.013441759102606,3.001252158543805,0.04418351501226425,1.436816930770874,0.05772024393081665,0.027596620842814445,-0.9764078855514526,0.214164599776268,-0.4778224229812622,0.03326195478439331,-0.02521476149559021
1.352347197888247,3.0272227304937975,3.0009866766130338,0.13096819818019867,1.265175223350525,-0.06453559547662735,0.02473180927336216,-0.9762347340583801,0.2153003066778183,-0.5210086107254028,0.013084650039672852,0.06944406032562256
1.3504538512723872,3.0358924104660585,3.004640354999654,0.21711081266403198,1.172302484512329,-0.12380850315093994,0.023059284314513206,-0.9758226275444031,0.2173442840576172,-0.5878633260726929,0.014915645122528076,0.13795673847198486
1.3480257767075825,3.0432080501540013,3.008758999627258,0.24570894241333008,1.0952736139297485,-0.0815897136926651,0.021701304242014885,-0.9752891063690186,0.21986408531665802,-0.5715364813804626,0.04676133394241333,0.1627044379711151
1.3456540254280087,3.0533466511711054,3.0094815306019522,0.20695169270038605,1.071777105331421,-0.006829722784459591,0.019674990326166153,-0.9747623205184937,0.22237712144851685,-0.5235812067985535,0.06228667497634888,0.20196998119354248
1.3444157054541555,3.0635003787608017,3.010434263904452,0.016752200201153755,1.1532087326049805,-0.07292035222053528,0.017510222271084785,-0.9744851589202881,0.22376878559589386,-0.5099570751190186,0.11065441370010376,0.246003657579422
1.3456327016953142,3.0692579787359815,3.017182243153687,-0.2943718433380127,1.3031718730926514,-0.2136513739824295,0.016135819256305695,-0.9747576117515564,0.22268250584602356,-0.5564342737197876,0.13405930995941162,0.3395735025405884
1.3502568945380764,3.0694225309440855,3.0309728556605564,-0.6708992719650269,1.3977911472320557,-0.3165600001811981,0.015773925930261612,-0.9757795929908752,0.21818625926971436,-0.5658532381057739,0.1729385256767273,0.4154044985771179
1.3584632374212906,3.064943461161133,3.0497587570090983,-1.0058817863464355,1.3413039445877075,-0.3548232316970825,0.016137324273586273,-0.9775419235229492,0.21012236177921295,-0.5041744112968445,0.20500469207763672,0.4542912244796753
1.3692029356183824,3.0560050461338806,3.0716574738279725,-1.1734410524368286,1.136391282081604,-0.3645676076412201,0.017116326838731766,-0.9797487854957581,0.19949747622013092,-0.43333032727241516,0.24664032459259033,0.43755707144737244
1.380625641973788,3.042316979796755,3.0959801849222472,-1.1618573665618896,0.8882197737693787,-0.3623633086681366,0.018734995275735855,-0.9819719791412354,0.18809650838375092,-0.39445215463638306,0.2959520220756531,0.3497607707977295
1.391238203316301,3.024396974025635,3.1219970226996456,-1.0310553312301636,0.6454054713249207,-0.35219502449035645,0.020882710814476013,-0.9839227199554443,0.17737016081809998,-0.3547297418117523,0.35226982831954956,0.2332286834716797
1.4001356017193494,3.0041744437196316,-3.1349882192373135,-0.8377271294593811,0.4786742925643921,-0.31661519408226013,0.023264972493052483,-0.9854727983474731,0.1682334840297699,-0.31989580392837524,0.4116506576538086,0.12754309177398682
1.406900188292493,2.985717954976295,-3.1120746412457523,-0.6101574301719666,0.3476283848285675,-0.2304634004831314,0.02533031441271305,-0.9865990877151489,0.1611860692501068,-0.2796942889690399,0.4743155837059021,0.029045358300209045
1.411440441273806,2.971902534617973,-3.09516144005446,-0.3801231384277344,0.22748146951198578,-0.14535409212112427,0.026797838509082794,-0.9873297214508057,0.15640351176261902,-0.2325473427772522,0.5402318835258484,-0.038605570793151855
1.4142922129430087,2.962972140912773,-3.0844443973966076,-0.25595995783805847,0.10657745599746704,-0.08565665781497955,0.02769322134554386,-0.9877781867980957,0.15338705480098724,-0.19203037023544312,0.5793766379356384,-0.07481944561004639
1.4168663826636896,2.9563096050018522,-3.077048474457071,-0.31077924370765686,0.028588643297553062,-0.04989439249038696,0.028246084228157997,-0.988176167011261,0.15069977939128876,-0.16099753975868225,0.6087051630020142,-0.05109022557735443
1.4208090683419048,2.947558547054739,-3.068149800268733,-0.5317170023918152,-0.014585740864276886,-0.07280787825584412,0.028812065720558167,-0.988772988319397,0.1466214954853058,-0.13684427738189697,0.644717812538147,0.01574741303920746
1.4274481772030183,2.9321728674307375,-3.0525336333246855,-0.8612003326416016,0.047159116715192795,-0.10436074435710907,0.02969919517636299,-0.9897432327270508,0.13973727822303772,-0.11714731156826019,0.6662415862083435,0.06308257579803467
1.4373495648799512,2.9097062219234373,-3.028634866870158,-1.2030107975006104,0.19470685720443726,-0.09780117869377136,0.030576908960938454,-0.9911091923713684,0.12948960065841675,-0.07354564964771271,0.6990560293197632,0.038967475295066833
1.4501216715508656,2.8814954761843823,-2.9974203065901492,-1.4414560794830322,0.35164880752563477,-0.036668576300144196,0.03095937892794609,-0.9927276372909546,0.11633370816707611,-0.024398088455200195,0.7502349019050598,-0.019592761993408203
1.4645891350646074,2.852944742925169,-2.9646187094391703,-1.5075864791870117,0.4390590786933899,0.11946838349103928,0.03017641045153141,-0.9943653345108032,0.10162430256605148,0.038686517626047134,0.7968248128890991,-0.09564267098903656
1.4792799902876337,2.8387768187883258,-2.945949294581861,-1.380993366241455,0.4362401068210602,0.39170658588409424,0.02725277841091156,-0.9958152770996094,0.08723004162311554,0.13059939444065094,0.8153648972511292,-0.18781590461730957
1.4931998868421983,2.861158172700054,-2.9637985402494795,-1.1959540843963623,0.48977673053741455,0.6928920745849609,0.021455716341733932,-0.9969909191131592,0.07449260354042053,0.18630796670913696,0.8052793145179749,-0.2852621078491211
1.5062047366780318,2.941610428226261,-3.0392641564781506,-1.0759789943695068,0.5352526307106018,0.9468846917152405,0.012822553515434265,-0.9979146718978882,0.06326141208410263,0.20029696822166443,0.7603353261947632,-0.2945997714996338
1.5178297122761277,3.0977622379634284,3.092649526928336,-1.0049693584442139,0.47430717945098877,1.0709806680679321,0.002319849794730544,-0.9985976219177246,0.05289395898580551,0.1582331359386444,0.7183850407600403,-0.20285725593566895
1.52680233703405,-2.9414183473440465,2.8526234797640315,-0.9490775465965271,0.38391655683517456,1.0882118940353394,-0.008745331317186356,-0.9990324378013611,0.04310348257422447,0.08247581124305725,0.6416410207748413,-0.12177765369415283
1.5319154350045363,-2.609684560419554,2.524379312987927,-0.9745247960090637,0.3766351640224457,1.0713807344436646,-0.01971440203487873,-0.999244213104248,0.03350037336349487,0.023925835266709328,0.5558238625526428,-0.09406232833862305
1.5328091162191444,-2.2139352857416372,2.1322934012675856,-1.1703473329544067,0.41253912448883057,1.0358121395111084,-0.03039168193936348,-0.9992785453796387,0.022776568308472633,-0.012866972014307976,0.5061144828796387,-0.03327453136444092
1.5288704085027336,-1.7938031164358526,1.7162051695523286,-1.4992012977600098,0.4634477198123932,1.0603768825531006,-0.040873702615499496,-0.9991212487220764,0.009269285015761852,-0.004475407302379608,0.46166104078292847,0.092476487159729
1.5177234641168302,-1.4296096839948937,1.356578844727671,-1.7771368026733398,0.5187463760375977,1.2852020263671875,-0.05252024158835411,-0.998591959476471,-0.007464822847396135,0.07153269648551941,0.41379886865615845,0.1574893593788147
1.4990122245991786,-1.1959894800540076,1.1276673088735392,-1.8939826488494873,0.4900212585926056,1.565589427947998,-0.06674252450466156,-0.9974246025085449,-0.0262567438185215,0.13366758823394775,0.3695865869522095,0.11263687163591385
1.4758945845622173,-1.070588294237572,1.006261844188041,-1.8681542873382568,0.38142743706703186,1.7271192073822021,-0.08314944803714752,-0.9955002069473267,-0.0454472154378891,0.09869815409183502,0.29786837100982666,0.03658199682831764
1.4514129570073895,-1.0031726494830433,0.9414746256045647,-1.802075982093811,0.2109588086605072,1.7533742189407349,-0.10042308270931244,-0.992882251739502,-0.06403186917304993,0.00041697919368743896,0.19869279861450195,-0.00019227713346481323
1.4271745157985007,-0.96228556600452,0.9015364531305318,-1.7511935234069824,0.053640298545360565,1.6722314357757568,-0.11743704229593277,-0.9897041320800781,-0.08181890845298767,-0.09415658563375473,0.09393692016601562,0.011125095188617706
1.4039257497915565,-0.9324093947579233,0.8712388675989965,-1.7174568176269531,-0.06340692192316055,1.5394492149353027,-0.1333858072757721,-0.9861093759536743,-0.09897755086421967,-0.1607578545808792,-0.004613280296325684,0.023400910198688507
1.3817640596533955,-0.906311023664856,0.8436486131818918,-1.7395988702774048,-0.1364515721797943,1.3884471654891968,-0.1479286253452301,-0.9821865558624268,-0.1158750131726265,-0.2023063749074936,-0.10077559947967529,0.007095217704772949
1.3601984796892514,-0.8814197728067092,0.8167121267775729,-1.779868721961975,-0.1617608368396759,1.3029797077178955,-0.1613079160451889,-0.9779061079025269,-0.13296426832675934,-0.2270282506942749,-0.19383162260055542,-0.011948347091674805
1.3387198059432468,-0.8597720223651902,0.792513425053379,-1.7896335124969482,-0.22922936081886292,1.3003789186477661,-0.1742691993713379,-0.9731909036636353,-0.15010002255439758,-0.225556880235672,-0.2854457497596741,-0.020340517163276672
1.316822736389841,-0.8429033230668097,0.7726171098098945,-1.8061001300811768,-0.25040191411972046,1.3563697338104248,-0.18757928907871246,-0.9679216742515564,-0.16715757548809052,-0.21082769334316254,-0.3826184868812561,-0.053118154406547546
1.2943112219608097,-0.8298591049355656,0.7563739030309856,-1.818632960319519,-0.2829558551311493,1.3965483903884888,-0.20141169428825378,-0.9620208740234375,-0.18425334990024567,-0.2078900784254074,-0.4870606064796448,-0.08369088172912598
1.271591436229512,-0.8158290358063014,0.7385207322084106,-2.0188846588134766,-0.2927257716655731,1.2783924341201782,-0.21467235684394836,-0.955571174621582,-0.2019890695810318,-0.25532883405685425,-0.5943709015846252,-0.09734247624874115
1.247564779544557,-0.799110231299526,0.7184806817253206,-2.161088466644287,-0.19025826454162598,1.3115050792694092,-0.22765852510929108,-0.9482139348983765,-0.2214992642402649,-0.38745376467704773,-0.801313042640686,-0.047268956899642944
1.2232686027599102,-0.7825020588468955,0.6991903328172566,-2.106917142868042,-0.14365750551223755,1.2411307096481323,-0.2401238977909088,-0.9402175545692444,-0.2415187954902649,-0.4234655797481537,-0.8466171026229858,-0.10818204283714294
1.200731058935723,-0.7695215152909036,0.6833080270449583,-1.8582404851913452,-0.23867936432361603,1.1026910543441772,-0.2516513764858246,-0.9323037266731262,-0.2597717344760895,-0.4438747465610504,-0.9474570751190186,-0.20255416631698608
1.1815625673119057,-0.7604617767739332,0.6705009345463463,-1.5606513023376465,-0.32477453351020813,0.8403193354606628,-0.2615585923194885,-0.9252001047134399,-0.27493971586227417,-0.4929884970188141,-1.02084481716156,-0.29254981875419617
1.166377076423419,-0.7518125231290504,0.6571658448202659,-1.3632301092147827,-0.4024363160133362,0.49309369921684265,-0.2687360644340515,-0.9193310737609863,-0.2874220311641693,-0.576890766620636,-1.0817065238952637,-0.278450071811676
1.1542685437898856,-0.7417560923582098,0.6415219465744824,-1.2577826976776123,-0.4484919309616089,0.25572124123573303,-0.27333277463912964,-0.9144992828369141,-0.29829564690589905,-0.6337564587593079,-1.1309871673583984,-0.19776740670204163
1.1438409248690755,-0.7308386193477125,0.6244237079803638,-1.2354187965393066,-0.4777989387512207,0.10329204797744751,-0.2764105498790741,-0.9102307558059692,-0.30834630131721497,-0.611452579498291,-1.1300830841064453,-0.1385224461555481
1.134124998089084,-0.7171000679401098,0.604288004701768,-1.3385090827941895,-0.41472765803337097,-0.07796391099691391,-0.27794742584228516,-0.9061644673347473,-0.318765252828598,-0.5725774765014648,-1.08170485496521,-0.08272391557693481
1.1245477976119884,-0.6980657429631711,0.5796288662781869,-1.4687288999557495,-0.21034973859786987,-0.27480775117874146,-0.2773955762386322,-0.902072548866272,-0.33063146471977234,-0.5877930521965027,-1.03629732131958,-0.026103705167770386
1.115436867335363,-0.6727709162196143,0.5508484039981054,-1.508117914199829,0.08366750925779343,-0.5147565603256226,-0.2740546464920044,-0.8981029987335205,-0.34395521879196167,-0.6355980634689331,-0.9568775296211243,-0.05570286512374878
1.1077348206746178,-0.6422094853065361,0.5187278123810476,-1.4271104335784912,0.24331815540790558,-0.787580668926239,-0.2675517797470093,-0.89468914270401,-0.3576973080635071,-0.6650348901748657,-0.8642677664756775,-0.11057958006858826
1.1021200339779482,-0.6095944401169764,0.4849188665569617,-1.2405973672866821,0.22263500094413757,-0.9961103200912476,-0.2586173415184021,-0.8921669721603394,-0.3703446090221405,-0.6380043625831604,-0.7867575883865356,-0.12490978837013245
1.0986318542153777,-0.5786379857186853,0.45222737044430666,-0.9814862012863159,0.14231352508068085,-1.0444482564926147,-0.2487311214208603,-0.8905859589576721,-0.3807748854160309,-0.550692081451416,-0.6906518936157227,-0.1375965178012848
1.0970521919063139,-0.5521390480295537,0.4235545374357211,-0.6770685315132141,0.047131434082984924,-0.973016619682312,-0.2392924427986145,-0.8898663520812988,-0.38842883706092834,-0.4327351152896881,-0.5750994682312012,-0.15572994947433472
1.0973194879792056,-0.5316390476058293,0.40023648998540795,-0.3661258816719055,-0.09760524332523346,-0.871548593044281,-0.23115944862365723,-0.8899883031845093,-0.3930475413799286,-0.35830286145210266,-0.46097928285598755,-0.14834952354431152
1.0997667425934354,-0.5171684182567355,0.38200947273363206,-0.03904504328966141,-0.2530817985534668,-0.8088518977165222,-0.22437024116516113,-0.8911015391349792,-0.3944568634033203,-0.34113577008247375,-0.3546566963195801,-0.11051744222640991
1.1046885139952796,-0.5075354436859844,0.3676739832704816,0.24710549414157867,-0.36612582206726074,-0.8050609230995178,-0.21842585504055023,-0.8933242559432983,-0.3927622139453888,-0.37187570333480835,-0.25929439067840576,-0.08288446068763733
1.1116139396506681,-0.5005083873629795,0.3553048081746556,0.41131046414375305,-0.4347565174102783,-0.8288416862487793,-0.21268653869628906,-0.8964151740074158,-0.3888500928878784,-0.42233848571777344,-0.170815110206604,-0.03606128692626953
1.119412280777655,-0.4944158083323102,0.34323352689543435,0.4358064830303192,-0.515846312046051,-0.841262936592102,-0.2069900631904602,-0.899844229221344,-0.3839735984802246,-0.4405166804790497,-0.08408844470977783,0.07428127527236938
1.1270124075831796,-0.4885890698249006,0.330290915837816,0.36339351534843445,-0.6561282277107239,-0.8658890724182129,-0.20153315365314484,-0.9031334519386292,-0.3791230320930481,-0.43669620156288147,-0.00642770528793335,0.18835780024528503
1.1339763693892435,-0.4824698496851936,0.31524390015215814,0.2695232033729553,-0.8393545150756836,-0.9122840166091919,-0.19628667831420898,-0.9061015844345093,-0.3747687339782715,-0.454317569732666,0.04944252967834473,0.27262651920318604
1.1403773157727213,-0.47631598212060533,0.29844913771283316,0.22210893034934998,-0.9607680439949036,-0.9158788323402405,-0.19131335616111755,-0.9087910056114197,-0.370807409286499,-0.45697152614593506,0.1028369665145874,0.2963293492794037
1.1464273240145624,-0.4710582537386953,0.2815961190145921,0.21909289062023163,-1.050080418586731,-0.8683291673660278,-0.1868624985218048,-0.9112987518310547,-0.36690211296081543,-0.4419064521789551,0.16197001934051514,0.24580848217010498
1.1523649278052572,-0.46764230340973945,0.2658717762926728,0.26544222235679626,-1.1295619010925293,-0.8082978129386902,-0.1831657588481903,-0.9137274026870728,-0.36270204186439514,-0.4355018436908722,0.21386772394180298,0.1947638988494873
1.1585708730673476,-0.4669468768219731,0.2521099489372016,0.3395143151283264,-1.2455908060073853,-0.7357586026191711,-0.18035729229450226,-0.9162314534187317,-0.35775884985923767,-0.42852944135665894,0.2566700577735901,0.15457311272621155
1.1650734992761724,-0.469695550697385,0.24075860072607505,0.40773800015449524,-1.3766080141067505,-0.650917112827301,-0.1786394566297531,-0.9188173413276672,-0.35194140672683716,-0.4191541075706482,0.28141188621520996,0.1310705542564392
1.1717766753593915,-0.4760070789391416,0.231817105256732,0.46207502484321594,-1.5267192125320435,-0.5836730599403381,-0.178030863404274,-0.9214423298835754,-0.3453247547149658,-0.4157496392726898,0.2973424792289734,0.1300538182258606
1.1785790593089065,-0.4855836949137731,0.22466289140877532,0.4793877899646759,-1.700049638748169,-0.5320438146591187,-0.17840012907981873,-0.9240638017654419,-0.33805274963378906,-0.4454096853733063,0.3130255341529846,0.1435490846633911
1.1850779210946847,-0.49789422976823544,0.21857910217425192,0.4349782466888428,-1.8730353116989136,-0.490322470664978,-0.1796761304140091,-0.9265283942222595,-0.33054742217063904,-0.4525717496871948,0.3118433356285095,0.1632349193096161
1.1907463709303516,-0.5113802903649134,0.21207001897958574,0.314658522605896,-2.0177509784698486,-0.4866481423377991,-0.18154427409172058,-0.9286460876464844,-0.32350900769233704,-0.47058582305908203,0.3021354675292969,0.1884535849094391
1.1952641152212466,-0.5242831405984024,0.2035763305309846,0.1530885398387909,-2.120530843734741,-0.499652624130249,-0.1836012899875641,-0.9303125739097595,-0.31750476360321045,-0.4913559556007385,0.29942256212234497,0.21685785055160522
1.1982759869801771,-0.5358088030848671,0.19283060530741844,-0.034803763031959534,-2.1593387126922607,-0.47151026129722595,-0.18581700325012207,-0.9314129948616028,-0.31295669078826904,-0.49446558952331543,0.3090832233428955,0.2283315658569336
1.1994223159157944,-0.5463836157966007,0.1809212574924158,-0.21778449416160583,-2.159945249557495,-0.38683584332466125,-0.18856114149093628,-0.9318296313285828,-0.31006184220314026,-0.4725716710090637,0.307928204536438,0.20413541793823242
1.1985535032918666,-0.5562343047056173,0.16817831293959984,-0.4080891013145447,-2.1736507415771484,-0.3123389780521393,-0.19203369319438934,-0.9315139651298523,-0.3088768720626831,-0.45214658975601196,0.306681752204895,0.16388791799545288
1.1960610701447292,-0.5656471666369468,0.1544127633542279,-0.5352648496627808,-2.2692151069641113,-0.2687326669692993,-0.19617633521556854,-0.9306045770645142,-0.30901482701301575,-0.47151774168014526,0.2886061668395996,0.1458526849746704
1.1927261542579912,-0.5764130920767186,0.1406398875913384,-0.5637043714523315,-2.4402174949645996,-0.2254379689693451,-0.20118212699890137,-0.9293787479400635,-0.3094853162765503,-0.48866772651672363,0.2776604890823364,0.11379140615463257
1.18906010960785,-0.5896255542998684,0.12742560580317255,-0.5885902643203735,-2.6363494396209717,-0.1914810687303543,-0.20714670419692993,-0.9280192255973816,-0.3096300959587097,-0.49022573232650757,0.26511627435684204,0.04623293876647949
1.184955164766874,-0.6043786882795317,0.11392604728905995,-0.6592979431152344,-2.7909996509552,-0.18790842592716217,-0.21385489404201508,-0.9264822006225586,-0.30967241525650024,-0.49015510082244873,0.23976027965545654,0.014659106731414795
1.1802677055857755,-0.6190372563804771,0.09891197989669802,-0.7624115347862244,-2.901251792907715,-0.20579874515533447,-0.22088873386383057,-0.9247079491615295,-0.31003817915916443,-0.49999749660491943,0.2256874442100525,-0.0003255009651184082
1.1747648642216948,-0.6328673572823226,0.08160943972512437,-0.9013181328773499,-3.0441994667053223,-0.2182292640209198,-0.2281615436077118,-0.9225991368293762,-0.3110520541667938,-0.5014221668243408,0.2101660966873169,-0.0174390971660614
1.1681758624494798,-0.6461991428524941,0.0624654031221136,-1.032042384147644,-3.1095333099365234,-0.18067069351673126,-0.23594339191913605,-0.9200373888015747,-0.31282922625541687,-0.48453086614608765,0.19271183013916016,-0.04039639234542847
1.160431816547491,-0.6592692775192467,0.0428915923020919,-1.1290026903152466,-3.072476387023926,-0.10659321397542953,-0.24436886608600616,-0.9169754385948181,-0.3153412342071533,-0.45422428846359253,0.1904280185699463,-0.10889878869056702
1.1517436367640914,-0.6720478222850929,0.023351064494377034,-1.1991496086120605,-3.048981189727783,-0.06527294218540192,-0.25332900881767273,-0.9134747982025146,-0.31841540336608887,-0.4607212543487549,0.18598145246505737,-0.18454468250274658
1.1427574772994304,-0.6850582958676042,0.0036654309152299052,-1.1963043212890625,-3.133057117462158,-0.07579967379570007,-0.2626333236694336,-0.9097815752029419,-0.3214362859725952,-0.47616666555404663,0.15871340036392212,-0.22105929255485535
1.1344899459839168,-0.6993730012578625,-0.015833588575283317,-1.1047323942184448,-3.2542524337768555,-0.12728364765644073,-0.2720402479171753,-0.906318724155426,-0.32338887453079224,-0.48560431599617004,0.11978918313980103,-0.2753048837184906
1.1273273082007367,-0.7161199779297307,-0.03439375649012252,-1.0097750425338745,-3.4309074878692627,-0.13833075761795044,-0.28167203068733215,-0.9032686352729797,-0.3236767053604126,-0.47256988286972046,0.09821492433547974,-0.33907338976860046
1.1208861337001743,-0.735743157673335,-0.05162557741914563,-0.9366907477378845,-3.575244665145874,-0.12021620571613312,-0.291867733001709,-0.900486171245575,-0.3223939836025238,-0.41955801844596863,0.09752291440963745,-0.3562711179256439
1.1149286747719775,-0.7574042921846657,-0.068108557825197,-0.9232723116874695,-3.6938703060150146,-0.1354897916316986,-0.30246248841285706,-0.8978793621063232,-0.3198890686035156,-0.39794638752937317,0.06487154960632324,-0.38068756461143494
1.1092748672748207,-0.779032956048811,-0.0855767306507496,-0.9635875225067139,-3.7221691608428955,-0.19484952092170715,-0.31287169456481934,-0.8953760266304016,-0.3168802559375763,-0.4029791057109833,0.011846303939819336,-0.39776501059532166
1.1039170329813002,-0.7985628460157119,-0.1051727337992421,-1.03431236743927,-3.6615242958068848,-0.2812270522117615,-0.32243233919143677,-0.8929772973060608,-0.3140527307987213,-0.42183035612106323,-0.023770928382873535,-0.4307287037372589
1.098806454895237,-0.8149533661587307,-0.12755497853062403,-1.1343201398849487,-3.5760154724121094,-0.3819614052772522,-0.330852746963501,-0.8906653523445129,-0.31185194849967957,-0.43202564120292664,-0.05698174238204956,-0.47307536005973816
1.0938159638652651,-0.8274020436507679,-0.153139449876215,-1.2552354335784912,-3.431819200515747,-0.47325557470321655,-0.3379773497581482,-0.8883852958679199,-0.3107137680053711,-0.4051256775856018,-0.10046064853668213,-0.5016030073165894
1.0886706485266067,-0.8357187495612949,-0.18166466618954266,-1.3707894086837769,-3.26763916015625,-0.533804178237915,-0.34393584728240967,-0.8860113024711609,-0.3109535574913025,-0.35200223326683044,-0.10629826784133911,-0.5316519737243652
1.0835523825164564,-0.8404348592107279,-0.21258193692086189,-1.4355578422546387,-3.133319854736328,-0.6360370516777039,-0.34877222776412964,-0.8836265802383423,-0.31234949827194214,-0.315442830324173,-0.09818506240844727,-0.5815103054046631
1.0793492902461355,-0.8421954639401444,-0.24570259946671494,-1.4301286935806274,-3.048133134841919,-0.8136991858482361,-0.352089524269104,-0.8816509246826172,-0.3142050504684448,-0.3065102994441986,-0.11050617694854736,-0.6487312912940979
1.076688725009816,-0.84151196834475,-0.2808575360626458,-1.4009166955947876,-2.9893577098846436,-0.9974474906921387,-0.35362255573272705,-0.8803922533988953,-0.3160075843334198,-0.25987228751182556,-0.132501482963562,-0.7168598175048828
1.0753737674529562,-0.8380689101154581,-0.3183919638883922,-1.431318759918213,-2.900533437728882,-1.182812213897705,-0.35339245200157166,-0.879767894744873,-0.31799712777137756,-0.16539105772972107,-0.14113670587539673,-0.7643239498138428
1.0750120539011003,-0.8302746871298626,-0.35946286429736674,-1.5044056177139282,-2.738555908203125,-1.381240963935852,-0.35113823413848877,-0.8795958757400513,-0.32095667719841003,-0.03533637523651123,-0.134823739528656,-0.7669339179992676
1.075295294516078,-0.8174429811925424,-0.40414397709314276,-1.5571942329406738,-2.5369741916656494,-1.5323034524917603,-0.34680935740470886,-0.8797305822372437,-0.32526546716690063,0.10607147216796875,-0.12252789735794067,-0.7965759038925171
1.0758550833910037,-0.8006992863612334,-0.4508960866709215,-1.565226674079895,-2.3229353427886963,-1.5906400680541992,-0.3409612774848938,-0.8799965977668762,-0.33068352937698364,0.2405737042427063,-0.1031578779220581,-0.8695269823074341
1.0761188538659263,-0.7821245916122265,-0.4972978053132092,-1.510088324546814,-2.1251986026763916,-1.515468716621399,-0.33459678292274475,-0.8801218867301941,-0.3367946147918701,0.40175074338912964,-0.08881127834320068,-0.9515659213066101
1.075878299604064,-0.7651692428907229,-0.5399156692385707,-1.3256781101226807,-1.9716219902038574,-1.325959324836731,-0.3289850950241089,-0.8800076246261597,-0.34257182478904724,0.5633448958396912,-0.07151526212692261,-1.0155519247055054
1.0756609897745064,-0.7527196294741891,-0.5754740894114113,-1.0094841718673706,-1.7741509675979614,-1.092226505279541,-0.3248256742954254,-0.8799043893814087,-0.34678056836128235,0.6822323203086853,-0.07633346319198608,-1.1145840883255005
1.0766082677371154,-0.7452119599022691,-0.6027079595892704,-0.5986853241920471,-1.5007350444793701,-0.9355677366256714,-0.32164761424064636,-0.880354106426239,-0.3485966920852661,0.7215499877929688,-0.10687434673309326,-1.2150628566741943
1.0798443927207304,-0.7422299142912824,-0.6219187664124081,-0.15854045748710632,-1.2975702285766602,-0.8399272561073303,-0.3186793327331543,-0.8818844556808472,-0.34745296835899353,0.7108607292175293,-0.14405566453933716,-1.2556201219558716
1.0854704564357,-0.7441658817148221,-0.6338918776819763,0.2120593786239624,-1.2051832675933838,-0.7464392781257629,-0.3159855306148529,-0.8845229744911194,-0.343179851770401,0.7334202527999878,-0.2033829689025879,-1.2082726955413818
1.0926542171862481,-0.7503338171496874,-0.6402533352563555,0.41749003529548645,-1.1361682415008545,-0.6610910892486572,-0.3137551546096802,-0.8878512978553772,-0.33656764030456543,0.7878153324127197,-0.2741970419883728,-1.070414662361145
1.1002890720723177,-0.7579231152909262,-0.6435771479694219,0.46785634756088257,-0.9573639631271362,-0.6058157682418823,-0.3116316497325897,-0.8913384675979614,-0.3292441964149475,0.7993788719177246,-0.3313637971878052,-0.8922523260116577
1.1076905070256184,-0.7639802153541818,-0.6462083740772555,0.4280165433883667,-0.7171108722686768,-0.5870386362075806,-0.30904752016067505,-0.8946693539619446,-0.32257768511772156,0.7493704557418823,-0.3843986392021179,-0.733559250831604
1.1146732717919028,-0.7665466381453004,-0.6501644505010188,0.3319295644760132,-0.5055721998214722,-0.6407953500747681,-0.3055334985256195,-0.8977669477462769,-0.3172757923603058,0.6774970293045044,-0.4404442310333252,-0.6074525117874146
1.1216865281852941,-0.7636999094415243,-0.6573404772766871,0.24925945699214935,-0.19469553232192993,-0.781712532043457,-0.30026718974113464,-0.9008339643478394,-0.3135888874530792,0.5898332595825195,-0.5248253345489502,-0.5181218981742859
1.1292261800312755,-0.7545593507981625,-0.6678442988441465,0.22849304974079132,0.11106197535991669,-0.9042776823043823,-0.29272761940956116,-0.9040817618370056,-0.31136295199394226,0.48698732256889343,-0.5851303339004517,-0.48882317543029785
1.1374697944431331,-0.7412498518836278,-0.6803658925275617,0.2675483226776123,0.26347681879997253,-0.98476642370224,-0.2835156321525574,-0.9075739979743958,-0.3097231388092041,0.40454837679862976,-0.6124303340911865,-0.4671322703361511
1.1466324615520105,-0.7264233386446798,-0.6932906572039264,0.38246095180511475,0.34735754132270813,-1.0248546600341797,-0.27335765957832336,-0.9113831520080566,-0.30766305327415466,0.36571913957595825,-0.6573272347450256,-0.44685351848602295
1.156916432591033,-0.712590024969577,-0.7045231889930998,0.56422358751297,0.35536035895347595,-1.0109326839447021,-0.2629337012767792,-0.9155673384666443,-0.3043065667152405,0.33475685119628906,-0.676244854927063,-0.43981873989105225
1.1686253611583928,-0.701020842944028,-0.7133280855436053,0.7535297274589539,0.3437771499156952,-1.0475133657455444,-0.2524634003639221,-0.9202134013175964,-0.299114853143692,0.2814551591873169,-0.6882766485214233,-0.4371368885040283
1.182262548384331,-0.6893816044605983,-0.7219308240416049,0.8999401926994324,0.39629149436950684,-1.21477210521698,-0.2409600466489792,-0.9254655241966248,-0.2923218905925751,0.17012876272201538,-0.7233383655548096,-0.4259245693683624
1.1979442074752351,-0.6740085128999218,-0.733827346895366,0.9588963389396667,0.4662390351295471,-1.4465363025665283,-0.22735142707824707,-0.9312921762466431,-0.2846163809299469,0.04943394660949707,-0.749417781829834,-0.3788509964942932
1.2151581151727027,-0.6518301729864593,-0.752098437984762,0.9464114308357239,0.5637035965919495,-1.6888669729232788,-0.211226224899292,-0.9374244809150696,-0.27680152654647827,-0.02499505877494812,-0.7506250143051147,-0.30704548954963684
1.233493261998602,-0.6209858804709775,-0.7778921256102245,0.9615713953971863,0.7582070231437683,-1.876217246055603,-0.19255514442920685,-0.9436506032943726,-0.26915791630744934,-0.06434181332588196,-0.7194505929946899,-0.277762770652771
1.2525699221390165,-0.5823731507517533,-0.8094958608596912,1.0316152572631836,0.9743928909301758,-1.9274990558624268,-0.17208771407604218,-0.9497918486595154,-0.26130688190460205,-0.08125390112400055,-0.6544256806373596,-0.3254392445087433
1.2718390914326902,-0.539940829010666,-0.8430399962320504,1.1396217346191406,1.0945769548416138,-1.8183772563934326,-0.151410311460495,-0.9556441307067871,-0.2526245415210724,-0.04654191434383392,-0.5735917091369629,-0.37100204825401306
1.2907872974858916,-0.4990890211745415,-0.8742500552151226,1.2569475173950195,1.068700909614563,-1.5908849239349365,-0.1322753131389618,-0.9610529541969299,-0.24265345931053162,0.02729487419128418,-0.5037145614624023,-0.369864821434021
1.309197605689053,-0.4631952454334474,-0.9008581975451985,1.3349955081939697,0.974416196346283,-1.3737636804580688,-0.11555636674165726,-0.9659777283668518,-0.2313743382692337,0.07760779559612274,-0.4670058488845825,-0.3387550413608551
1.3271954083635251,-0.43171095946453864,-0.9238675567343283,1.4017863273620605,0.8572925329208374,-1.226410984992981,-0.10092389583587646,-0.9704757332801819,-0.2190694957971573,0.04364243149757385,-0.4309983253479004,-0.29933249950408936
1.3453783636371544,-0.40181248258057295,-0.9463719460013452,1.4931029081344604,0.7453458309173584,-1.2134360074996948,-0.0874134972691536,-0.9747007489204407,-0.20571205019950867,-0.039493829011917114,-0.3780367374420166,-0.27530592679977417
1.3645336094323928,-0.3667722072662426,-0.9747533554484454,1.5912235975265503,0.7347392439842224,-1.3582736253738403,-0.07344349473714828,-0.9788031578063965,-0.1911822259426117,-0.15015876293182373,-0.34262335300445557,-0.3040875196456909
1.3848254135484002,-0.3165148732923956,-1.0177647873129683,1.6507335901260376,0.8803473114967346,-1.5686557292938232,-0.05755176022648811,-0.9827572107315063,-0.17571662366390228,-0.2638440728187561,-0.2954411506652832,-0.3542516231536865
1.4052513559440216,-0.24327587097104592,-1.0824820605025123,1.6292972564697266,1.0037789344787598,-1.7103524208068848,-0.03969515115022659,-0.9863287210464478,-0.1599375605583191,-0.30542808771133423,-0.20599311590194702,-0.36047863960266113
1.4243319511029302,-0.1447294032967737,-1.1717425885907076,1.5628941059112549,1.0559382438659668,-1.7147231101989746,-0.02104836516082287,-0.9892932772636414,-0.1444156914949417,-0.2618342638015747,-0.12191283702850342,-0.3209315538406372
1.441117998731009,-0.022499955120528266,-1.2842894217598555,1.5092511177062988,1.0811458826065063,-1.630649209022522,-0.00290935137309134,-0.9916035532951355,-0.12928293645381927,-0.17505386471748352,-0.05682790279388428,-0.30019086599349976
1.4554550040940082,0.12214136866238602,-1.418955314413417,1.5083457231521606,1.1002967357635498,-1.4952527284622192,0.014021995477378368,-0.9933555722236633,-0.11422990262508392,-0.13694670796394348,0.014214158058166504,-0.3132144808769226
1.467584374259973,0.28892696496105524,-1.5758358533186427,1.5499149560928345,1.049688696861267,-1.3510832786560059,0.029355429112911224,-0.9946783781051636,-0.0987585037946701,-0.10575613379478455,0.0706365704536438,-0.3228722810745239
1.477366435295525,0.4821552281702207,-1.7595691139387386,1.6013596057891846,1.0277385711669922,-1.2528173923492432,0.043260086327791214,-0.9956386089324951,-0.08265943080186844,-0.09774917364120483,0.10409796237945557,-0.3305790424346924
1.4839896996678843,0.7072546757439685,-1.9752263504494714,1.6441744565963745,1.019788146018982,-1.2145360708236694,0.056332554668188095,-0.996234655380249,-0.06590404361486435,-0.12618720531463623,0.15701639652252197,-0.32395797967910767
1.4860123742283482,0.9547374126693936,-2.2136911545096214,1.6183565855026245,0.9465040564537048,-1.2360790967941284,0.06911452859640121,-0.9964079856872559,-0.04893142357468605,-0.15433478355407715,0.24289846420288086,-0.2775302529335022
1.482380341541765,1.19347930188292,-2.44425055876253,1.5151076316833496,0.8574212789535522,-1.2892919778823853,0.08208975195884705,-0.9960938692092896,-0.03253258392214775,-0.17368817329406738,0.3019257187843323,-0.2020406723022461
1.4734563984735092,1.3904839689357458,-2.6339648796597177,1.3618017435073853,0.757192075252533,-1.3834151029586792,0.09561143070459366,-0.9952661991119385,-0.017429223284125328,-0.1760099232196808,0.3438073992729187,-0.11877065896987915
1.460332951704636,1.5352304907908338,-2.7721063159581014,1.1888853311538696,0.721916913986206,-1.522921085357666,0.11016896367073059,-0.9939051270484924,-0.0039199041202664375,-0.193634495139122,0.3994837999343872,-0.07528841495513916
1.4442549890591327,1.6345772315500051,-2.8641801507879627,1.0294480323791504,0.8827601671218872,-1.6346031427383423,0.1259479969739914,-0.9920043349266052,0.008043987676501274,-0.2158527374267578,0.45054614543914795,-0.07139837741851807
1.4268759786128375,1.7042869139610561,-2.9243117181910665,0.9265581965446472,1.1254359483718872,-1.6377235651016235,0.14214910566806793,-0.9896613359451294,0.019089091569185257,-0.17898377776145935,0.5055151581764221,-0.0629274845123291
1.4096361635514574,1.757275454612801,-2.965849170516958,0.871897280216217,1.2324379682540894,-1.5471851825714111,0.15768174827098846,-0.9870417714118958,0.029750004410743713,-0.10636638104915619,0.5769312977790833,-0.03644847869873047
1.393352045353186,1.8008245391738102,-2.997715647667573,0.8501352071762085,1.1575064659118652,-1.4006456136703491,0.17186538875102997,-0.984298050403595,0.040246255695819855,-0.02124585211277008,0.62470942735672,0.0064305029809474945
1.3785674368917964,1.8373965126990797,-3.0244929769681157,0.8244194984436035,0.8642251491546631,-1.2090599536895752,0.18429842591285706,-0.9815808534622192,0.050332147628068924,0.0600559264421463,0.6663341522216797,0.06180477887392044
1.3657054519925342,1.867237829168956,-3.0479360224786722,0.7690539360046387,0.501416027545929,-0.9953557252883911,0.1947738081216812,-0.9790424704551697,0.05949200689792633,0.09868329763412476,0.7295306921005249,0.09933686256408691
1.3548982739426934,1.890175332373655,-3.0679275164745534,0.6724201440811157,0.1845753788948059,-0.8115754127502441,0.20339195430278778,-0.9767844080924988,0.06726179271936417,0.11040511727333069,0.7642141580581665,0.1028280258178711
1.3458376794869225,1.9067827670303672,-3.084196313115989,0.5842958688735962,-0.023879820480942726,-0.6764698028564453,0.21059353649616241,-0.9748033285140991,0.07354505360126495,0.09072187542915344,0.7748216390609741,0.08523797988891602
1.3379221985359055,1.9195424566855193,-3.09801769476053,0.542375922203064,-0.09549324214458466,-0.6032912135124207,0.21688298881053925,-0.9730071425437927,0.07886043190956116,0.06320743262767792,0.7826079726219177,0.019497863948345184
1.3305953981619913,1.9311865843974785,-3.1106154481583674,0.5208501219749451,-0.010170884430408478,-0.5621112585067749,0.22261522710323334,-0.9712901711463928,0.08389220386743546,0.03367146849632263,0.7721629738807678,-0.0900719165802002
1.3237372530175948,1.9435263725575038,-3.122570365827253,0.5080389380455017,0.16260267794132233,-0.5049915313720703,0.22776132822036743,-0.9696358442306519,0.08905632793903351,0.019156411290168762,0.7599496841430664,-0.18143297731876373
1.3175117411780466,1.9579822178892214,-3.1348053532421654,0.5140507221221924,0.3577737808227539,-0.4201250970363617,0.23203572630882263,-0.9680945873260498,0.09461700171232224,0.030140846967697144,0.7750403881072998,-0.23103047907352448
1.312126315770314,1.9757671882166332,3.134590200622877,0.542010486125946,0.5165935158729553,-0.2933884561061859,0.23510469496250153,-0.9667310118675232,0.1007811650633812,0.05694854259490967,0.7824812531471252,-0.26989424228668213
1.3079329974034646,1.9972371130877338,3.1179579081030626,0.5750653743743896,0.539549708366394,-0.12489984184503555,0.23657655715942383,-0.9656499028205872,0.10748150199651718,0.10842475295066833,0.7742434740066528,-0.28045499324798584
1.3049936490411898,2.021570415552715,3.0979045435039967,0.619907021522522,0.4449804425239563,0.035192593932151794,0.23644499480724335,-0.964881956577301,0.11444177478551865,0.15604165196418762,0.7570114135742188,-0.2692420482635498
1.3029350695181772,2.0483070837548754,3.074164016921097,0.6885457038879395,0.31497877836227417,0.14959533512592316,0.23506461083889008,-0.9643391370773315,0.12163441628217697,0.1830720603466034,0.7209765911102295,-0.25701022148132324
1.3008894792107109,2.0777901870463213,3.0463706692196384,0.8082972168922424,0.24045026302337646,0.17635637521743774,0.2331007719039917,-0.9637957215309143,0.12946851551532745,0.19217702746391296,0.672032356262207,-0.2733283042907715
1.2978255202081102,2.1105609054488568,3.015250439451984,0.9291141629219055,0.32998624444007874,0.11924435198307037,0.2312658131122589,-0.9629742503166199,0.13855357468128204,0.16697344183921814,0.6226420402526855,-0.3454474210739136
1.2933864765995233,2.144123896784604,2.9846686712910455,0.9266476631164551,0.5014345645904541,0.00027402304112911224,0.23007522523403168,-0.9617680311203003,0.14855341613292694,0.1434142291545868,0.5693118572235107,-0.3885740041732788
1.287997687394138,2.173933230222827,2.9601126983945094,0.7811154723167419,0.7402772307395935,-0.1419409066438675,0.2298099547624588,-0.9602782726287842,0.15828202664852142,0.14836396276950836,0.5097624659538269,-0.34529364109039307
1.282473499557883,2.1973272878551335,2.9448887940289015,0.5412772297859192,1.0126729011535645,-0.2587607800960541,0.2303384691476822,-0.9587221145629883,0.16672241687774658,0.17244786024093628,0.458310067653656,-0.28325366973876953
1.2777381849983243,2.2134669246721557,2.9402497222385535,0.22253383696079254,1.317639708518982,-0.3409818708896637,0.23124921321868896,-0.9573649168014526,0.17313700914382935,0.2185646891593933,0.41656291484832764,-0.25083470344543457
1.2745574072786756,2.2218413235296475,2.9466601146606464,-0.13463212549686432,1.5627541542053223,-0.38573789596557617,0.23221181333065033,-0.9564412236213684,0.1769116371870041,0.2712061405181885,0.36111968755722046,-0.2167370617389679
1.2732020577965506,2.22359968643853,2.9621790534714965,-0.4026246964931488,1.737473487854004,-0.37414222955703735,0.2329304814338684,-0.9560446739196777,0.1781073361635208,0.32416802644729614,0.3211568593978882,-0.18715570867061615
1.2731983278065058,2.222355087049701,2.982241077307357,-0.507267951965332,1.8300286531448364,-0.33666080236434937,0.233154758810997,-0.9560436010360718,0.1778194159269333,0.3704982399940491,0.293384850025177,-0.23992253839969635
1.2737067963135802,2.2219552265477645,3.0021617508744103,-0.4627287685871124,1.876979112625122,-0.2898416221141815,0.23283931612968445,-0.9561925530433655,0.1774316281080246,0.4086097478866577,0.2631840705871582,-0.3316216468811035
1.2738551208632247,2.2245752361315287,3.0191986775751394,-0.3391391336917877,1.8986750841140747,-0.2959056794643402,0.23226132988929749,-0.956235945224762,0.1779550164937973,0.42235609889030457,0.23309123516082764,-0.41219258308410645
1.2730153269003188,2.230355661416258,3.033432871337599,-0.22507886588573456,1.9681639671325684,-0.3467680811882019,0.23186294734477997,-0.9559898972511292,0.1797863095998764,0.391824871301651,0.20013046264648438,-0.46219587326049805
1.2711639722296149,2.2378331629886263,3.04650615451907,-0.15958358347415924,2.003538131713867,-0.4134296476840973,0.2319020926952362,-0.9554450511932373,0.18260954320430756,0.35641586780548096,0.1798102855682373,-0.4504927396774292
1.2687032018030853,2.245255676156426,3.0596893944424224,-0.1508857011795044,1.9846460819244385,-0.4443175494670868,0.2323758900165558,-0.9547158479690552,0.1857934296131134,0.3578035831451416,0.16629421710968018,-0.400545597076416
1.2664071992631047,2.2522542074030554,3.0732187816303114,-0.19198323786258698,1.997251033782959,-0.4062674641609192,0.23277178406715393,-0.9540302157402039,0.18879549205303192,0.39137375354766846,0.14615362882614136,-0.3745253086090088
1.265031774931024,2.260140522799906,3.0865299912346575,-0.2475130707025528,2.114176034927368,-0.30119645595550537,0.2322881668806076,-0.9536170959472656,0.19145984947681427,0.4110071659088135,0.16022104024887085,-0.3778306245803833
1.2649277906419436,2.27082630722879,3.0980506778469827,-0.26263219118118286,2.1938276290893555,-0.1594904512166977,0.23030486702919006,-0.9535858035087585,0.1939949095249176,0.4197043776512146,0.19342339038848877,-0.39419007301330566
1.2657046409808954,2.285213636521478,3.1061042604169886,-0.19468297064304352,2.1988003253936768,-0.0379784069955349,0.22693058848381042,-0.9538193941116333,0.1968030035495758,0.41573917865753174,0.18674474954605103,-0.40166735649108887
1.266580948658331,2.3044903994033357,3.1090386816741047,-0.04778550937771797,2.204798936843872,0.05233923718333244,0.22247348725795746,-0.9540822505950928,0.20058035850524902,0.39048731327056885,0.16828525066375732,-0.42436566948890686
1.2670429217570816,2.329551446481753,3.1060322952812305,0.11479514837265015,2.2159676551818848,0.13779181241989136,0.21705792844295502,-0.9542205333709717,0.20578931272029877,0.35952597856521606,0.1828581690788269,-0.44486379623413086
1.2670771911782523,2.359837534163909,3.097506380857516,0.23592524230480194,2.1865317821502686,0.2229359745979309,0.2107035517692566,-0.954230785369873,0.21224437654018402,0.3555654287338257,0.20082807540893555,-0.42435669898986816
1.2669293401509618,2.3931454700404586,3.084816371954413,0.3065916895866394,2.0178098678588867,0.3061847984790802,0.20361463725566864,-0.9541865587234497,0.21924690902233124,0.36173883080482483,0.2144404649734497,-0.35897159576416016
1.2668637905218583,2.427297438134058,3.0683823047163856,0.35620370507240295,1.6378614902496338,0.41706153750419617,0.19605036079883575,-0.9541669487953186,0.22611849009990692,0.3759559094905853,0.23361653089523315,-0.27238303422927856
1.2668338099478744,2.460373104478156,3.048468349313254,0.4142387807369232,1.1660990715026855,0.4823364019393921,0.1884838044643402,-0.9541580080986023,0.23250074684619904,0.38118788599967957,0.21691429615020752,-0.20784246921539307
1.2662814597456182,2.491199131223707,3.0265433053750925,0.4845540523529053,0.8487228751182556,0.479057252407074,0.18154728412628174,-0.9539925456047058,0.23861880600452423,0.31027406454086304,0.1697518229484558,-0.19224728643894196
1.2651329412627492,2.522094305991022,3.0034224933352967,0.5127806663513184,0.967355489730835,0.5140538811683655,0.1747257262468338,-0.9536475539207458,0.24500489234924316,0.2017849236726761,0.15733712911605835,-0.25647926330566406
1.2643340731398554,2.5567602671564535,2.979223650390017,0.43225520849227905,1.3564461469650269,0.5938128232955933,0.16654984652996063,-0.953406810760498,0.25154897570610046,0.11764514446258545,0.14376020431518555,-0.34378814697265625
1.2645726937991733,2.5947709546708237,2.955561395458093,0.28978461027145386,1.695488691329956,0.6284802556037903,0.15675170719623566,-0.9534788131713867,0.25750160217285156,0.03816407918930054,0.1211119294166565,-0.3510531783103943
1.2657483229143895,2.6328680526495534,2.9337782317663894,0.17658330500125885,1.7134226560592651,0.6208216547966003,0.1462843269109726,-0.9538325071334839,0.2623061537742615,-0.04443188011646271,0.08673655986785889,-0.30182626843452454
1.2670233577966203,2.668086934159788,2.9135953605788263,0.19304482638835907,1.446486473083496,0.5558458566665649,0.13640286028385162,-0.9542146921157837,0.26621213555336,-0.13693687319755554,0.022955477237701416,-0.23706769943237305
1.266498005484548,2.6989345139864396,2.894909275414911,0.419931560754776,1.1704033613204956,0.3902561068534851,0.12834210693836212,-0.9540574550628662,0.27074575424194336,-0.25848424434661865,-0.057615697383880615,-0.23355993628501892
1.2624558791600975,2.7263257198627784,2.8782047572024037,0.7243407368659973,1.1396981477737427,0.19850985705852509,0.1224333867430687,-0.9528385400772095,0.2776849567890167,-0.3961760401725769,-0.13030660152435303,-0.3125359117984772
1.255554966416581,2.751513156532521,2.8641892012054453,0.8535512685775757,1.2383776903152466,0.06665174663066864,0.1178988665342331,-0.9507215619087219,0.28675541281700134,-0.4673250913619995,-0.16202569007873535,-0.34020674228668213
1.2481630282466771,2.7755643039130558,2.853322526420161,0.7442697882652283,1.5163406133651733,0.034909531474113464,0.11348092555999756,-0.9484037756919861,0.2960621416568756,-0.4889233708381653,-0.15534090995788574,-0.20847651362419128
1.2427744774129423,2.7996300794340923,2.845387021330172,0.41650012135505676,1.7642067670822144,0.0768553763628006,0.10803580284118652,-0.9466814994812012,0.3035169243812561,-0.46036121249198914,-0.15738344192504883,-0.038105398416519165
1.2412767479679607,2.8229678070767394,2.8400743106870174,-0.02664748579263687,1.8768523931503296,0.14974555373191833,0.10136767476797104,-0.9461979269981384,0.30730149149894714,-0.44072312116622925,-0.14570575952529907,0.12638399004936218
1.2440738984385018,2.843893044793039,2.8380922781846936,-0.4478156864643097,1.9305733442306519,0.13061371445655823,0.09413900226354599,-0.9470993280410767,0.30682408809661865,-0.4879988133907318,-0.13401645421981812,0.24711596965789795
1.2500659971742947,2.8603720532302286,2.8413069505506567,-0.7307323217391968,1.9449833631515503,0.011431396938860416,0.0874936580657959,-0.9490054249763489,0.302875816822052,-0.5760190486907959,-0.13545197248458862,0.27447113394737244
1.2577533283808113,2.87124671021201,2.8499138217815214,-0.8698465824127197,1.852291464805603,-0.09623277932405472,0.08224395662546158,-0.951400876045227,0.2967696487903595,-0.6163320541381836,-0.14598065614700317,0.2395767867565155
1.265957238725706,2.879021826205679,2.8610190834562466,-0.8678926229476929,1.8204821348190308,-0.11366582661867142,0.07790561765432358,-0.9538952708244324,0.2898530960083008,-0.6053256392478943,-0.1521075963973999,0.17123711109161377
1.2736534571302935,2.8869693250130952,2.8720440315710665,-0.7733622193336487,1.8593175411224365,-0.12265464663505554,0.07374832034111023,-0.9561769366264343,0.2833503782749176,-0.5857111811637878,-0.1205902099609375,0.07170656323432922
1.2802101739837133,2.8950505253475103,2.882842100745639,-0.6457398533821106,1.8005940914154053,-0.15557532012462616,0.06992427259683609,-0.9580761194229126,0.27785012125968933,-0.5766381025314331,-0.10923033952713013,0.038098424673080444
1.2853650736835176,2.902435996544516,2.893520620560396,-0.49447694420814514,1.7199538946151733,-0.17624971270561218,0.06669966131448746,-0.9595403075218201,0.2735576629638672,-0.5830570459365845,-0.09189713001251221,0.06144917011260986
1.2890064508880748,2.911025893414406,2.9023951880141183,-0.32209476828575134,1.6955443620681763,-0.12596043944358826,0.06354857236146927,-0.9605592489242554,0.2707175016403198,-0.5784716010093689,-0.036068737506866455,0.060779839754104614
1.2910606254128603,2.9226273775244844,2.907781207838327,-0.14659617841243744,1.6338887214660645,-0.07132790237665176,0.05997483432292938,-0.9611284732818604,0.26950961351394653,-0.5392075777053833,0.0188981294631958,0.04427230358123779
1.2917689863551576,2.9358574771921004,2.910068622086506,-0.026062047109007835,1.429131269454956,-0.018924081698060036,0.05626499280333519,-0.9613237977027893,0.269613116979599,-0.4924221932888031,0.04254615306854248,0.06371524930000305
1.2917907340066375,2.9489785725803834,2.9101576249410583,0.009861176833510399,1.2210780382156372,0.014186139218509197,0.0527186319231987,-0.9613297581672668,0.27030763030052185,-0.4697413146495819,0.05895531177520752,0.1325550377368927
1.2919049279643706,2.9611917169979827,2.910003878510571,-0.03814603015780449,1.2070949077606201,-0.0015547408256679773,0.04939374327659607,-0.9613612294197083,0.2708231210708618,-0.4817667603492737,0.07883858680725098,0.18903112411499023
1.2928509996379418,2.97310481662787,2.9108103429494308,-0.15804828703403473,1.334463357925415,-0.001987472642213106,0.04601142928004265,-0.9616212248802185,0.27049553394317627,-0.49970096349716187,0.11211860179901123,0.21026325225830078
1.295107858381587,2.9857135756389774,2.9122510751959494,-0.28807634115219116,1.4568201303482056,-6.014271639287472e-05,0.042260196059942245,-0.9622380137443542,0.2689094543457031,-0.48764896392822266,0.12041062116622925,0.22797787189483643
1.2984388442987846,2.9983934912499026,2.9148749791564708,-0.38743993639945984,1.5704383850097656,-0.05257125571370125,0.03838951885700226,-0.9631394147872925,0.2662498354911804,-0.49445945024490356,0.1418197751045227,0.2245645523071289
1.3025230194465711,3.009392995005783,2.9201856782258107,-0.4473631978034973,1.634958267211914,-0.09552964568138123,0.03493988886475563,-0.9642300009727478,0.262754887342453,-0.5106021165847778,0.15360671281814575,0.2163255512714386
1.307102245407727,3.0197563866516566,2.9263961921303605,-0.49980083107948303,1.614546775817871,-0.12071036547422409,0.031677935272455215,-0.9654337167739868,0.2587163746356964,-0.4776770770549774,0.1995341181755066,0.21555742621421814
1.3121672536051008,3.027094252660195,2.9352217681947423,-0.5589067935943604,1.543891191482544,-0.20477597415447235,0.029219618067145348,-0.9667415022850037,0.25408056378364563,-0.4107045829296112,0.2645168900489807,0.22857028245925903
1.3180216029312148,3.030350134765441,2.947265260729477,-0.6754470467567444,1.4206947088241577,-0.2587932348251343,0.027763431891798973,-0.9682222008705139,0.24854537844657898,-0.397163450717926,0.29367703199386597,0.2476552426815033
1.3251315170472115,3.029450695894082,2.9622120031591987,-0.8141719102859497,1.2920589447021484,-0.3096729516983032,0.027216024696826935,-0.9699758291244507,0.24167440831661224,-0.38123518228530884,0.3355458378791809,0.2726536989212036
1.3334933465835648,3.0245769833361345,2.9800373315183566,-0.9292436838150024,1.1929696798324585,-0.32729828357696533,0.027445469051599503,-0.9719755053520203,0.2334737479686737,-0.3542582094669342,0.38130801916122437,0.2855997681617737
1.342629638959178,3.0189951444858227,2.9977312330439037,-0.9664016962051392,1.1276603937149048,-0.2409018874168396,0.027661217376589775,-0.9740827083587646,0.22449474036693573,-0.28472602367401123,0.44200873374938965,0.2339099645614624
1.3519039326772817,3.0171207789377967,3.011068560091123,-0.9304827451705933,1.1013392210006714,-0.09656579047441483,0.02695918083190918,-0.9761385917663574,0.21546882390975952,-0.20788262784481049,0.5014834403991699,0.14024421572685242
1.3606378311765481,3.0217141410307304,3.0174779295075904,-0.830694317817688,1.0550580024719238,0.03608066961169243,0.024948636069893837,-0.9779978394508362,0.20711810886859894,-0.1631932407617569,0.5631571412086487,0.04353819787502289
1.3686241485114143,3.0307999541530535,3.018539849495206,-0.7653030753135681,0.9626373052597046,0.09795829653739929,0.022201398387551308,-0.9796327352523804,0.19956624507904053,-0.17204269766807556,0.6099428534507751,-0.010357171297073364
1.3764329857907158,3.0403018077414097,3.0182031656630084,-0.7919057011604309,0.8701982498168945,0.07398904860019684,0.01953020691871643,-0.9811708331108093,0.19215328991413116,-0.21415604650974274,0.6306304931640625,0.008942514657974243
1.3848593600911572,3.047005632602659,3.0199914593123287,-0.8922654390335083,0.825612485408783,0.027943823486566544,0.017460107803344727,-0.9827634692192078,0.18404223024845123,-0.24641822278499603,0.6513271331787109,0.053857699036598206
1.3943843187736138,3.0517549058599647,3.023700788846341,-1.0129708051681519,0.8581182360649109,0.019461121410131454,0.015745308250188828,-0.9844797253608704,0.17479208111763,-0.24319280683994293,0.690564751625061,0.06477107107639313
1.4052836725815836,3.0566025466972726,3.0279231324727007,-1.170966386795044,0.9394422173500061,0.030002623796463013,0.01398596540093422,-0.9863340258598328,0.1641635149717331,-0.21116001904010773,0.7197477221488953,0.037801966071128845
1.4180810311302716,3.0619929068792,3.032429162405804,-1.387633204460144,1.0215224027633667,0.0377524234354496,0.012096173129975796,-0.988361656665802,0.1516413688659668,-0.17826437950134277,0.7345163822174072,0.036667466163635254
1.4331435648458923,3.068232659241003,3.036845520482273,-1.6135175228118896,1.0883688926696777,0.0684565082192421,0.010057334788143635,-0.9905408024787903,0.13684961199760437,-0.13743770122528076,0.7594617009162903,0.0633915513753891
1.4503492402758889,3.0787364290027797,3.037377204857594,-1.8006114959716797,1.1052663326263428,0.16012810170650482,0.007547594606876373,-0.9927549958229065,0.11991894245147705,-0.09122678637504578,0.799197256565094,0.06750499457120895
1.469207644817175,3.1021322750191933,3.024969760945152,-1.933195948600769,1.0983532667160034,0.31326863169670105,0.0040008737705647945,-0.9948443174362183,0.1013370156288147,-0.03555604815483093,0.8429581522941589,0.04684115946292877
1.4890736373864717,-3.1294613980301915,2.984029161448721,-2.006039619445801,1.0469366312026978,0.48542308807373047,-0.0009902933379635215,-0.9966625571250916,0.08162756264209747,0.01637117564678192,0.8702434301376343,0.003272414207458496
1.508648959383307,-3.0258088912653283,2.8900984951463706,-1.9573490619659424,0.9323909282684326,0.5954408049583435,-0.007175077684223652,-0.9980694651603699,0.06169247254729271,0.015903115272521973,0.8700329065322876,-0.03607285022735596
1.5260036183628412,-2.8278412109133213,2.7005476877376955,-1.8350309133529663,0.7972797155380249,0.6320624947547913,-0.013819747604429722,-0.9989969730377197,0.04259190335869789,-0.031071603298187256,0.8576700687408447,-0.07901453971862793
1.5386739481746776,-2.4462778697347627,2.3258405274711764,-1.7229163646697998,0.6127438545227051,0.6718170642852783,-0.02057393454015255,-0.999484121799469,0.02465980127453804,-0.047510772943496704,0.8304015398025513,-0.10386800765991211
1.5420076373936114,-1.8388517408298464,1.7232511347734354,-1.6542680263519287,0.41017183661460876,0.7505171895027161,-0.02775745466351509,-0.9995856285095215,0.007624021731317043,-0.020811257883906364,0.7863898277282715,-0.09598755836486816
1.5339080063280233,-1.3291467593415667,1.2168804301956921,-1.6038953065872192,0.3217269480228424,0.8648136258125305,-0.03580935671925545,-0.9993197321891785,-0.00882578082382679,0.012753341346979141,0.7411562204360962,-0.08962380886077881
1.5192536562004535,-1.0665458257524627,0.9572317623453388,-1.581129789352417,0.32182735204696655,0.9940405488014221,-0.045109182596206665,-0.9986719489097595,-0.02489279955625534,0.03613702207803726,0.7148278951644897,-0.11371791362762451
1.5013217890737653,-0.9334084348715808,0.8273259388886359,-1.6827360391616821,0.3717638850212097,1.1763228178024292,-0.05578790605068207,-0.9975876212120056,-0.041310474276542664,0.06611811369657516,0.6617112159729004,-0.12436932325363159
1.4797780236137648,-0.8547379598144446,0.7522316169702032,-1.9614819288253784,0.3745221197605133,1.421628713607788,-0.0685700997710228,-0.9958606958389282,-0.05966409295797348,0.1260347068309784,0.572291910648346,-0.048001762479543686
1.4538047963594383,-0.7974652512008582,0.6979199116237084,-2.3882710933685303,0.2608843743801117,1.5988073348999023,-0.08352774381637573,-0.9931643009185791,-0.08153580874204636,0.16354483366012573,0.5117340683937073,0.07186185568571091
1.4235075529685128,-0.7439083909696466,0.6457704377495842,-2.8967792987823486,0.10376158356666565,1.6028462648391724,-0.09937962889671326,-0.9891725778579712,-0.10798820853233337,0.10742100328207016,0.4368348717689514,0.1644458770751953
1.3895967721673235,-0.6892114772376775,0.590753858854481,-3.360452890396118,0.006660844199359417,1.4722756147384644,-0.11460063606500626,-0.9836282134056091,-0.13907653093338013,0.019843563437461853,0.27403348684310913,0.1875995546579361
1.3531654799525967,-0.6359676442283632,0.5368801948025266,-3.6492843627929688,0.08940392732620239,1.3181816339492798,-0.1282452791929245,-0.9764117002487183,-0.17370468378067017,-0.05585198104381561,0.08998286724090576,0.08167906105518341
1.31530966128078,-0.5883208193951949,0.4894274501602876,-3.783005475997925,0.21358144283294678,1.2127046585083008,-0.14024871587753296,-0.967540442943573,-0.2102280855178833,-0.10012298822402954,-0.06010854244232178,-0.09511540830135345
1.2766289466587295,-0.5482811422363157,0.45092553275797437,-3.8300907611846924,0.38227778673171997,1.1902129650115967,-0.15112467110157013,-0.9570438861846924,-0.2474440634250641,-0.10398703813552856,-0.21567046642303467,-0.21730798482894897
1.23722387296809,-0.5148860907025797,0.42036767524333074,-3.8995232582092285,0.46449804306030273,1.165614128112793,-0.161233589053154,-0.9448786973953247,-0.28497013449668884,-0.10733634233474731,-0.3786381483078003,-0.2811155617237091
1.1970651166541786,-0.4858345739490199,0.3938874918208943,-3.998908281326294,0.3328697085380554,1.0489565134048462,-0.17047828435897827,-0.930971622467041,-0.3228452801704407,-0.12482504546642303,-0.5620551705360413,-0.2371368706226349
1.1570881293675763,-0.45992985020665633,0.36752419948242515,-3.994324207305908,-0.038888152688741684,0.761493980884552,-0.1784452497959137,-0.915636420249939,-0.3602324426174164,-0.2193361222743988,-0.7730081081390381,-0.17161256074905396
1.1191203570666763,-0.436398551946299,0.3388749995072632,-3.8486568927764893,-0.4429575800895691,0.35642215609550476,-0.1844882369041443,-0.899716854095459,-0.3955678939819336,-0.3682003617286682,-0.9961726665496826,-0.23431485891342163
1.0836686584979676,-0.4124373990315635,0.3057963138193031,-3.8967978954315186,-0.564131498336792,-0.1717401146888733,-0.18763066828250885,-0.8836809992790222,-0.4288386106491089,-0.45964714884757996,-1.176316499710083,-0.4039401710033417
1.04866776356013,-0.38356129099761094,0.26849583193130394,-3.8807263374328613,-0.2115904688835144,-0.3956184685230255,-0.18663600087165833,-0.8667595982551575,-0.46248766779899597,-0.5763797760009766,-1.3475806713104248,-0.438497930765152
1.015442159787799,-0.3566976619024793,0.23508872783894333,-3.519179582595825,-0.17294339835643768,-0.3841431736946106,-0.1841040998697281,-0.8497137427330017,-0.4940570890903473,-0.5408562421798706,-1.298357605934143,-0.583991527557373
0.985426313859282,-0.33393727154373004,0.20634624362765264,-3.178734064102173,-0.09205494076013565,-0.5403298735618591,-0.18109296262264252,-0.8335077166557312,-0.5219869613647461,-0.3594191074371338,-1.2214545011520386,-0.7970284223556519
0.9583984596096858,-0.3095015484734411,0.17692754608500516,-2.9968223571777344,0.1257176548242569,-0.9026266932487488,-0.17508436739444733,-0.8182719945907593,-0.5475184917449951,-0.43622851371765137,-1.2479817867279053,-0.7595340013504028
0.9331449332969212,-0.28035800280647133,0.14426545087422155,-2.927403211593628,0.40595436096191406,-1.2672935724258423,-0.16472209990024567,-0.8034961223602295,-0.5720670223236084,-0.5702632665634155,-1.249558687210083,-0.6941987872123718
0.9089619641520386,-0.24812214385171502,0.10978036265753101,-2.794339895248413,0.49994033575057983,-1.4563246965408325,-0.1509273499250412,-0.7888662219047546,-0.5957441329956055,-0.5053378939628601,-1.1657084226608276,-0.6162461638450623
0.8862771273191983,-0.21839155312469727,0.0771623363235508,-2.5231409072875977,0.3277275860309601,-1.4159680604934692,-0.13699403405189514,-0.7747231721878052,-0.6172816753387451,-0.31179746985435486,-1.0217094421386719,-0.5818301439285278
0.8660303350674832,-0.19447385139772305,0.049136627628252195,-2.1569302082061768,0.15931841731071472,-1.2484431266784668,-0.12519831955432892,-0.7617631554603577,-0.6356431841850281,-0.11073306202888489,-0.8740705847740173,-0.6098858714103699
0.8486932749519435,-0.17549958462253643,0.026106597331239434,-1.7970603704452515,0.17585797607898712,-1.0676440000534058,-0.11540442705154419,-0.7504173517227173,-0.6508115530014038,-0.0043618157505989075,-0.7515511512756348,-0.6539063453674316
0.8343543136126131,-0.15883631870915638,0.007332958840226344,-1.4341931343078613,0.36698538064956665,-0.914945662021637,-0.10623537749052048,-0.7408629655838013,-0.6632013916969299,0.0025824233889579773,-0.657406747341156,-0.6775883436203003
0.8232342148876028,-0.1432905489739573,-0.0075078120686761915,-1.0533908605575562,0.5306824445724487,-0.7176262140274048,-0.09708348661661148,-0.7333484292030334,-0.6728854775428772,0.005088254809379578,-0.5638775825500488,-0.6725581884384155
0.8156053694482235,-0.1303325408282913,-0.017835648382979297,-0.6400287747383118,0.5301240682601929,-0.46157652139663696,-0.08908084779977798,-0.728140652179718,-0.6796144843101501,0.044891394674777985,-0.47435879707336426,-0.6167874336242676
0.8118471451451166,-0.12138947686469514,-0.023520740975277576,-0.20206210017204285,0.4193973243236542,-0.22194741666316986,-0.08333031088113785,-0.7255595326423645,-0.6830955147743225,0.09887903183698654,-0.3951375484466553,-0.5427344441413879
0.8120399658004614,-0.11661165789363935,-0.025372456290549145,0.20773348212242126,0.26368066668510437,-0.049561116844415665,-0.08004938066005707,-0.7256922125816345,-0.6833468079566956,0.10453974455595016,-0.34625303745269775,-0.4798610806465149
0.8158539249309963,-0.11486386409686163,-0.02488021754687477,0.5347446799278259,0.1688031554222107,0.013577105477452278,-0.07853712886571884,-0.7283110022544861,-0.6807312965393066,0.05203261971473694,-0.3078066110610962,-0.41050100326538086
0.821957784338402,-0.11383884448555379,-0.02379209679467213,0.6621624827384949,0.20939382910728455,-0.010354181751608849,-0.07733289897441864,-0.7324800491333008,-0.6763820648193359,-0.01937730610370636,-0.2902098298072815,-0.3258761763572693
0.8283112758282407,-0.11150710652821166,-0.023177562769790817,0.584977924823761,0.3561190962791443,-0.04654600843787193,-0.07523616403341293,-0.736790657043457,-0.6719220280647278,-0.07082096487283707,-0.28425133228302,-0.18946707248687744
0.8334301988719606,-0.10720576164563032,-0.022959225727379087,0.4283003807067871,0.5275150537490845,-0.028182649984955788,-0.07194079458713531,-0.7402420043945312,-0.668480634689331,-0.06073436886072159,-0.24878698587417603,-0.05396193265914917
0.8369893132331881,-0.10176687144183003,-0.02244530155960517,0.2918242812156677,0.619897186756134,0.02000964619219303,-0.06803587079048157,-0.7426302433013916,-0.6662368178367615,-0.029284678399562836,-0.20327746868133545,0.01560211181640625
0.8394798286290688,-0.09608047317730983,-0.02147968353562661,0.2262985110282898,0.6487734317779541,0.05860535427927971,-0.06406866759061813,-0.7442958354949951,-0.6647698283195496,-0.0023986101150512695,-0.16879016160964966,0.04166203737258911
0.8418282064220861,-0.09054725334529233,-0.0203213901492106,0.2679831385612488,0.6231609582901001,0.04315449297428131,-0.06023118272423744,-0.7458621263504028,-0.6633716821670532,0.014286965131759644,-0.13460057973861694,0.0317952036857605
0.8450965326045197,-0.08521503822067392,-0.01957398561744655,0.3947938084602356,0.5365437865257263,-0.0030705558601766825,-0.05648532137274742,-0.748035192489624,-0.6612510085105896,-0.00941738486289978,-0.10871541500091553,-0.009586334228515625
0.8497672780590286,-0.08094158090812363,-0.019246841411109064,0.5359794497489929,0.35391271114349365,-0.027310114353895187,-0.05337590351700783,-0.751126766204834,-0.657996654510498,-0.026030834764242172,-0.07289361953735352,-0.03406566381454468
0.8558002456612475,-0.0786819729154263,-0.018967847465442028,0.656606912612915,0.14224475622177124,-0.032241012901067734,-0.0515318363904953,-0.7550958395004272,-0.653586208820343,0.0137968510389328,-0.039612531661987305,-0.021538853645324707
0.8627577054902632,-0.07809923800688666,-0.018678177345244504,0.7182297706604004,0.03194727376103401,-0.034120671451091766,-0.0507398396730423,-0.7596389055252075,-0.6483626961708069,0.034412942826747894,-0.018925607204437256,0.0045182108879089355
0.8698904351355986,-0.07823128062195205,-0.018370136618054474,0.6963523626327515,-0.003158586099743843,-0.04613392427563667,-0.05040072277188301,-0.7642582654953003,-0.642937958240509,0.02473544329404831,0.0011966824531555176,0.03025186061859131
