attitudeX,attitudeY,attitudeZ,gyroX,gyroY,gyroZ,gravityX,gravityY,gravityZ,accX,accY,accZ
0.7512844244608192,0.4157571135729473,-0.26317574736318156,0.13716676831245422,0.2707882821559906,-0.21018217504024506,0.2951626181602478,-0.6825779676437378,-0.6685554385185242,-0.016308248043060303,0.05974465608596802,0.016150712966918945
0.7513526195548227,0.42041503708176525,-0.2661315342115939,0.05075623840093613,0.25133630633354187,-0.1776125133037567,0.29825448989868164,-0.6826278567314148,-0.6671308875083923,0.01323843002319336,0.046809256076812744,0.08734273910522461
0.7507441724973294,0.42399638999535255,-0.2681340466917662,-0.04192766547203064,0.1790831983089447,-0.1376618891954422,0.30081263184547424,-0.6821830868721008,-0.6664368510246277,0.015776753425598145,0.050316572189331055,0.13501906394958496
0.7494631569180974,0.4258719046562432,-0.26904594731749687,-0.13513962924480438,0.07157296687364578,-0.08540188521146774,0.30242279171943665,-0.6812458634376526,-0.6666668057441711,0.025564908981323242,0.04901307821273804,0.17034423351287842
0.7476333642441335,0.4258029643455875,-0.2686163626697782,-0.21954761445522308,-0.026313599199056625,-0.007492190692573786,0.30289116501808167,-0.6799052357673645,-0.6678217053413391,0.044734567403793335,0.04800820350646973,0.18857377767562866
0.7455089796738082,0.4237072688037518,-0.266770822563588,-0.27299246191978455,-0.14662376046180725,0.0782964825630188,0.30208414793014526,-0.6783458590507507,-0.6697702407836914,0.056146472692489624,0.05638229846954346,0.1893930435180664
0.7434133098513546,0.4196097588271288,-0.2638861680612763,-0.27277347445487976,-0.2841261327266693,0.12666407227516174,0.29991570115089417,-0.6768046021461487,-0.6722990870475769,0.051005929708480835,0.05502420663833618,0.17234498262405396
0.7417241351527197,0.41412434751870403,-0.2609606861429652,-0.2031552642583847,-0.40813809633255005,0.12242139875888824,0.2966829538345337,-0.6755601167678833,-0.6749797463417053,0.02028784155845642,0.045341551303863525,0.12790650129318237
0.7406381046867233,0.40811386418496776,-0.2585977514615627,-0.1384894847869873,-0.45926475524902344,0.1107390820980072,0.29291173815727234,-0.6747589707374573,-0.677423894405365,-0.01681917905807495,0.0431365966796875,0.06972742080688477
0.7399294953988094,0.4023488243095286,-0.2566617237123394,-0.11046984046697617,-0.4290975332260132,0.09150120615959167,0.2891886532306671,-0.6742358207702637,-0.6795410513877869,-0.030933618545532227,0.043010175228118896,0.04176950454711914
0.7390861226519477,0.39722500022940893,-0.2551691431180034,-0.1357446014881134,-0.3923116624355316,0.043208375573158264,0.2859228849411011,-0.6736127734184265,-0.681537926197052,-0.04236212372779846,0.03224003314971924,0.04282039403915405
0.737592502042542,0.3928011476437503,-0.2540549459110461,-0.20523178577423096,-0.34161731600761414,-0.006663044448941946,0.2832898795604706,-0.6725081205368042,-0.6837248802185059,-0.04732793569564819,0.012534856796264648,0.060571253299713135
0.7351648094977477,0.38902289032888615,-0.25319229592838727,-0.29143989086151123,-0.2997824251651764,-0.0632697343826294,0.28132301568984985,-0.6707094311714172,-0.6862990260124207,-0.048244982957839966,-0.0023100972175598145,0.07280421257019043
0.7317576461048213,0.38586779398478877,-0.25282141926741536,-0.35322335362434387,-0.28451210260391235,-0.14665037393569946,0.2800147235393524,-0.668178379535675,-0.6892964243888855,-0.05926579236984253,-0.010639488697052002,0.08124899864196777
0.7276078189710948,0.38339071817425835,-0.25329333781311786,-0.3837559223175049,-0.27127936482429504,-0.22701352834701538,0.2793412506580353,-0.6650851368904114,-0.6925534605979919,-0.07104349136352539,-0.016082584857940674,0.07057476043701172
0.7230818675608724,0.38158319075005276,-0.25445826267800337,-0.386478453874588,-0.24206823110580444,-0.2641561031341553,0.2792070806026459,-0.6616985201835632,-0.6958438158035278,-0.06431752443313599,-0.013792932033538818,0.04182165861129761
0.71860826629968,0.3801948969091324,-0.2558131649268199,-0.3652596175670624,-0.21678894758224487,-0.24990364909172058,0.27933651208877563,-0.6583377122879028,-0.6989725828170776,-0.04436638951301575,0.0005465149879455566,0.026273608207702637
0.7144630261992735,0.37874016991311327,-0.2569740157790115,-0.3376983106136322,-0.2345130890607834,-0.21796169877052307,0.27932605147361755,-0.655211865901947,-0.701907753944397,-0.02014020085334778,0.01241999864578247,0.03465622663497925
0.7107836572034151,0.37663620785503255,-0.2577529625094453,-0.29845094680786133,-0.289884090423584,-0.16123980283737183,0.27873340249061584,-0.6524278521537781,-0.7047308683395386,-0.009263187646865845,0.0121537446975708,0.05179208517074585
0.707730526349203,0.37351826860458087,-0.25804658635860717,-0.251400351524353,-0.37256884574890137,-0.10573473572731018,0.27726030349731445,-0.6501110196113586,-0.7074478268623352,-0.006462574005126953,0.014231443405151367,0.07220929861068726
0.7053485512168312,0.36921271263374844,-0.2581000399183627,-0.19194482266902924,-0.49655091762542725,-0.08113370835781097,0.2747698426246643,-0.6482992768287659,-0.710077166557312,-0.013676673173904419,0.01840108633041382,0.09665870666503906
0.7034628936736198,0.3638396776393701,-0.25839145435943667,-0.14804607629776,-0.6084401607513428,-0.09554167836904526,0.27138519287109375,-0.6468623876571655,-0.7126845121383667,-0.05202481150627136,0.013027429580688477,0.11502832174301147
0.7017916482881355,0.35762190531237276,-0.25905123944840586,-0.12882336974143982,-0.7132376432418823,-0.11606615781784058,0.267326682806015,-0.6455869674682617,-0.7153697609901428,-0.09320861101150513,0.009463250637054443,0.1349865198135376
0.7001011999467931,0.35060740899989135,-0.2600021829294774,-0.13996364176273346,-0.8040781021118164,-0.13915230333805084,0.2626766860485077,-0.6442950963973999,-0.7182512283325195,-0.1255306601524353,0.01953911781311035,0.1666918396949768
0.6981392763203592,0.34294632887028975,-0.2610083545021655,-0.17881205677986145,-0.8429592251777649,-0.13330592215061188,0.25759103894233704,-0.6427934169769287,-0.7214316129684448,-0.15973636507987976,0.03253328800201416,0.1929892897605896
0.6957355741085859,0.33496135361952356,-0.2615253708066987,-0.2500918209552765,-0.8086294531822205,-0.10027047991752625,0.25232943892478943,-0.6409502029418945,-0.7249225974082947,-0.18868499994277954,0.060154855251312256,0.21054887771606445
0.692675297164899,0.32705921500267476,-0.26137188676126677,-0.3400742709636688,-0.7436987161636353,-0.07726560533046722,0.2472221851348877,-0.6385982036590576,-0.7287479639053345,-0.2214653193950653,0.09059393405914307,0.23242539167404175
0.6886278349340292,0.31954330640085027,-0.2605702464695999,-0.47267305850982666,-0.6486422419548035,-0.06407018005847931,0.24254800379276276,-0.6354783177375793,-0.7330333590507507,-0.26612281799316406,0.1100265383720398,0.2537243366241455
0.6830578333559049,0.3126356922548288,-0.25922008617738734,-0.6525052785873413,-0.5688443183898926,-0.09115997701883316,0.23856373131275177,-0.6311677694320679,-0.7380478978157043,-0.3176957964897156,0.11313176155090332,0.2900499105453491
0.6755979564085615,0.30605990107631753,-0.25786414292898413,-0.8245382905006409,-0.5880275964736938,-0.16424430906772614,0.23511748015880585,-0.6253640055656433,-0.7440695762634277,-0.37969452142715454,0.09315270185470581,0.3279014825820923
0.6664323279769456,0.2990815256815891,-0.2571276637071676,-0.9423268437385559,-0.7248367071151733,-0.2740001082420349,0.23159858584403992,-0.6181856393814087,-0.7511382699012756,-0.43133610486984253,0.07079172134399414,0.3352295160293579
0.6562416330602387,0.29123398454350025,-0.2577489676308059,-0.9624922871589661,-0.9260784387588501,-0.41055527329444885,0.22749406099319458,-0.6101434230804443,-0.7589278817176819,-0.4820411503314972,0.04907768964767456,0.30677950382232666
0.6459292842818993,0.2821417589116756,-0.2601677181223809,-0.8894338011741638,-1.1761574745178223,-0.530316948890686,0.2223244309425354,-0.6019407510757446,-0.7669675946235657,-0.5267677307128906,0.034832537174224854,0.23558032512664795
0.6365389869271236,0.27153050784246363,-0.26408973931369156,-0.7393686771392822,-1.3999897241592407,-0.5749331712722778,0.21568012237548828,-0.5944157838821411,-0.7746948003768921,-0.5176820755004883,0.030679762363433838,0.1346038579940796
0.6287033787048758,0.2594604595142269,-0.2688657977672964,-0.5808343291282654,-1.5608946084976196,-0.5726363062858582,0.20750263333320618,-0.588096559047699,-0.7817193269729614,-0.4776442050933838,0.0329512357711792,0.0417138934135437
0.6222914306780769,0.24640613786918605,-0.27418903665530947,-0.46306270360946655,-1.6554006338119507,-0.5887724161148071,0.1981961578130722,-0.5828985571861267,-0.7880022525787354,-0.4697262644767761,0.021146178245544434,-0.00038880109786987305
0.6166027388958228,0.23326060417831088,-0.28033635062625795,-0.4282621741294861,-1.6659663915634155,-0.6598644852638245,0.18858405947685242,-0.5782668590545654,-0.7937528491020203,-0.49951237440109253,-0.0008042454719543457,-0.012231588363647461
0.6105661775799847,0.22114451917022432,-0.28788699568059833,-0.49363183975219727,-1.6100927591323853,-0.8242371678352356,0.17971567809581757,-0.5733314156532288,-0.7993705868721008,-0.5400214195251465,-0.028841495513916016,0.0040367841720581055
0.6030416138033836,0.2109330920017224,-0.2976693536389974,-0.6522217988967896,-1.5384845733642578,-1.072685718536377,0.17244212329387665,-0.5671502351760864,-0.8053597807884216,-0.5864740610122681,-0.062122344970703125,0.031800270080566406
0.5929756758711905,0.2030203771046404,-0.3102641881541506,-0.9021559953689575,-1.4492013454437256,-1.3757632970809937,0.16720685362815857,-0.5588311553001404,-0.8122497200965881,-0.6060953736305237,-0.0919104814529419,0.04618227481842041
0.5796954630190193,0.19762877529872092,-0.32580216527850947,-1.1856350898742676,-1.3396121263504028,-1.677148699760437,0.1642678678035736,-0.5477691888809204,-0.8203444480895996,-0.6133187413215637,-0.11057138442993164,0.07327419519424438
0.5631706744843186,0.19444062474779245,-0.3437767860483349,-1.4612541198730469,-1.2330256700515747,-1.908800482749939,0.16337846219539642,-0.5338699221611023,-0.8296326994895935,-0.5819880962371826,-0.10577863454818726,0.07981586456298828
0.5437261221414005,0.19287761958456526,-0.3631216418230151,-1.7059805393218994,-1.0993295907974243,-2.042884111404419,0.16404062509536743,-0.5173283219337463,-0.8399178981781006,-0.5035486817359924,-0.06917381286621094,0.06773167848587036
0.522004004562037,0.1925802246451201,-0.38293842067097433,-1.8713852167129517,-0.9710972905158997,-2.1425704956054688,0.165902778506279,-0.4986182451248169,-0.8507973551750183,-0.4212585985660553,-0.02036374807357788,0.046949148178100586
0.49911619150969266,0.1929591149454942,-0.40334868097504234,-1.9263674020767212,-0.9563080668449402,-2.2029316425323486,0.16836987435817719,-0.47864973545074463,-0.8617111444473267,-0.3677564263343811,0.022518694400787354,0.02787935733795166
0.47582043952153613,0.19244942931361064,-0.4234211318029029,-1.9556782245635986,-1.0241222381591797,-2.141871929168701,0.1700175702571869,-0.4580678939819336,-0.8725066184997559,-0.3132060170173645,0.05216878652572632,0.012994349002838135
0.4525544992776142,0.19007334743873047,-0.442307887185316,-1.9509762525558472,-1.1509032249450684,-2.059343099594116,0.16991183161735535,-0.4372642934322357,-0.8831364512443542,-0.21816009283065796,0.08669352531433105,0.04259079694747925
0.43006863700089853,0.18513720305417064,-0.4608770849675646,-1.8207011222839355,-1.4290127754211426,-2.076054334640503,0.1673184186220169,-0.41693317890167236,-0.8934043049812317,-0.17676356434822083,0.11364942789077759,0.08322370052337646
0.4089829023676181,0.17697390472158925,-0.48043574188348986,-1.6756937503814697,-1.7759451866149902,-2.1926167011260986,0.16153183579444885,-0.3976763188838959,-0.9031949043273926,-0.21493756771087646,0.11908125877380371,0.07235389947891235
0.3888138106523056,0.1662332923932165,-0.5016664015619104,-1.636148452758789,-1.9918729066848755,-2.3376216888427734,0.1531180590391159,-0.3790910243988037,-0.9126033782958984,-0.2639578580856323,0.10913246870040894,0.07091331481933594
0.3683387097115863,0.1541693764778582,-0.524448365283612,-1.740437626838684,-2.0663182735443115,-2.475121021270752,0.143259659409523,-0.3600660562515259,-0.9218617677688599,-0.2910562753677368,0.0964704155921936,0.09962666034698486
0.3463033498264913,0.14214997890592188,-0.5482615111266959,-1.9507604837417603,-1.9707649946212769,-2.5724124908447266,0.13326123356819153,-0.33942294120788574,-0.9311463832855225,-0.29964303970336914,0.09699121117591858,0.09443068504333496
0.32231696313453867,0.13138429239577995,-0.5727722252280627,-2.1560730934143066,-1.7608230113983154,-2.627035617828369,0.124260313808918,-0.31676506996154785,-0.940329372882843,-0.280144065618515,0.10596480965614319,0.04205971956253052
0.29722567326629185,0.12232247975166081,-0.5963749045321788,-2.199234962463379,-1.4855011701583862,-2.3928933143615723,0.11666751652956009,-0.29286864399909973,-0.9490082263946533,-0.2588030993938446,0.14255428314208984,-0.039105117321014404
0.27367161966360853,0.1138194139456597,-0.6174520231402351,-1.9368469715118408,-1.4464962482452393,-2.211050271987915,0.10934717953205109,-0.2702682316303253,-0.9565554261207581,-0.1419093906879425,0.20779868960380554,-0.15620702505111694
0.2546867062992308,0.1030001031931233,-0.6384707288801353,-1.3742094039916992,-1.8547582626342773,-2.2246949672698975,0.09950140118598938,-0.2519422471523285,-0.9626134037971497,-0.1056811735033989,0.2907758057117462,-0.25671637058258057
0.24180607041988433,0.08640630215887342,-0.6606652311014862,-0.777175784111023,-2.5506954193115234,-2.303711414337158,0.08378814160823822,-0.23945654928684235,-0.9672849178314209,-0.21370142698287964,0.29000887274742126,-0.2798768877983093
0.23505438279077479,0.06289275911075776,-0.6845610627963075,-0.2286013513803482,-3.255786418914795,-2.406135082244873,0.06112299859523773,-0.2328958660364151,-0.9705789685249329,-0.25651174783706665,0.21458527445793152,-0.24458521604537964
0.23295399264778016,0.03303755530755318,-0.7092209312801094,-0.013031501322984695,-3.780290365219116,-2.394841194152832,0.03213931992650032,-0.23085272312164307,-0.972457766532898,-0.23143431544303894,0.1681085228919983,-0.22344982624053955
0.23269501744229443,0.00029263543134606094,-0.7342751616086497,0.021254034712910652,-3.8551228046417236,-2.4755635261535645,0.00028474844293668866,-0.2306007444858551,-0.9730484485626221,-0.21891263127326965,0.16175302863121033,-0.16153407096862793
0.23249783015925293,-0.03126712077348541,-0.7600302387207448,-0.16795828938484192,-3.5736334323883057,-2.5052671432495117,-0.03042088821530342,-0.23040886223316193,-0.9726182818412781,-0.2864888608455658,0.14653125405311584,-0.19054394960403442
0.2301892392642951,-0.058381957918983735,-0.7857638193503197,-0.5358686447143555,-2.983738660812378,-2.4582648277282715,-0.056809745728969574,-0.2281617820262909,-0.971964418888092,-0.31558096408843994,0.15525522828102112,-0.26343291997909546
0.22432839324244408,-0.07940821828588876,-0.8113183066930181,-0.9796364903450012,-2.3697140216827393,-2.4146125316619873,-0.07733720541000366,-0.22245162725448608,-0.9718714952468872,-0.31077003479003906,0.16738261282444,-0.2636478543281555
0.21451447025294734,-0.09524344679317637,-0.8371122790083042,-1.3977493047714233,-1.9320957660675049,-2.4234020709991455,-0.09291981905698776,-0.21287305653095245,-0.9726515412330627,-0.31418463587760925,0.15531685948371887,-0.23982709646224976
0.20181298767969846,-0.10801611291986418,-0.8640404454427864,-1.6364598274230957,-1.754178762435913,-2.5584352016448975,-0.10561823844909668,-0.20044584572315216,-0.9739949703216553,-0.32805177569389343,0.11099877953529358,-0.22884005308151245
0.18835781559865328,-0.12037040142778901,-0.8930103984302934,-1.6612663269042969,-1.8378493785858154,-2.7688276767730713,-0.11795608699321747,-0.18724600970745087,-0.9752052426338196,-0.36980631947517395,0.06461109220981598,-0.27715981006622314
0.1760354901458071,-0.13390303767390432,-0.9239762220546731,-1.537580132484436,-1.9635248184204102,-2.9263012409210205,-0.13144005835056305,-0.17512771487236023,-0.9757324457168579,-0.38291841745376587,0.04764048755168915,-0.3819946050643921
0.16591669238503795,-0.14845681898795446,-0.9557307404666666,-1.3320339918136597,-2.0010085105895996,-2.9547150135040283,-0.14588087797164917,-0.1651564985513687,-0.9754189252853394,-0.33228373527526855,0.055995091795921326,-0.5064993500709534
0.1584565505251977,-0.1633145874996205,-0.9871765881368776,-1.1022427082061768,-1.957500696182251,-2.923576593399048,-0.16055265069007874,-0.1577942818403244,-0.9743325114250183,-0.2647708058357239,0.08745121955871582,-0.6083396077156067
0.1535222641645061,-0.17723463953963423,-1.0177975708166012,-0.8930269479751587,-1.7399590015411377,-2.8457844257354736,-0.17423458397388458,-0.1529199182987213,-0.9727578163146973,-0.24133849143981934,0.11704647541046143,-0.705495297908783
0.15081965929346242,-0.18868566607710716,-1.0470867286575976,-0.6902714967727661,-1.4293900728225708,-2.734459400177002,-0.1854388266801834,-0.15024854242801666,-0.9711013436317444,-0.2138989120721817,0.13509652018547058,-0.7772354483604431
0.15012546271276384,-0.19774534764014,-1.0752250140787014,-0.5173466205596924,-1.2357934713363647,-2.688613176345825,-0.19424940645694733,-0.14956218004226685,-0.9694835543632507,-0.1894175410270691,0.14483192563056946,-0.8045642971992493
0.15109012796810556,-0.20548136149006108,-1.1028480685187343,-0.39371490478515625,-1.1388884782791138,-2.6801681518554688,-0.2017139345407486,-0.15051592886447906,-0.9678101539611816,-0.19269521534442902,0.13315139710903168,-0.7768645286560059
0.15325258771691586,-0.21252416860797751,-1.1300293574627622,-0.3008861839771271,-1.0936634540557861,-2.6439146995544434,-0.20845583081245422,-0.15265339612960815,-0.966045081615448,-0.1476384848356247,0.09099259972572327,-0.7307170033454895
0.15642991689401392,-0.2193805851770886,-1.1565944713869873,-0.1994575709104538,-1.0934175252914429,-2.6037166118621826,-0.21496784687042236,-0.1557927131652832,-0.9641148447990417,-0.09342749416828156,0.06965681910514832,-0.7050440907478333
0.1608133284411598,-0.22625784009955127,-1.1825774985174127,-0.07809358835220337,-1.088047742843628,-2.5790798664093018,-0.22143784165382385,-0.1601210981607437,-0.9619389176368713,-0.06808234751224518,0.07145224511623383,-0.6973170042037964
0.1665046704368333,-0.23260836936244592,-1.2080992918320104,0.03860727325081825,-0.995159387588501,-2.5654654502868652,-0.22732840478420258,-0.1657363772392273,-0.9596109986305237,-0.04832157492637634,0.06978908181190491,-0.7109975218772888
0.17326463735328898,-0.23768559030711064,-1.2331964043907084,0.12155462056398392,-0.8585349917411804,-2.544558525085449,-0.2319285124540329,-0.17239901423454285,-0.9573336839675903,-0.03191116452217102,0.08171600103378296,-0.7265499830245972
0.18087014647993757,-0.24108666291515604,-1.2579488609270275,0.19429399073123932,-0.681217610836029,-2.5339205265045166,-0.2348632663488388,-0.179885596036911,-0.955238401889801,-0.014907807111740112,0.08784453570842743,-0.730064332485199
0.1890719140637678,-0.2421940697578582,-1.2824234834008263,0.24053046107292175,-0.4291781783103943,-2.5111284255981445,-0.23555919528007507,-0.18794742226600647,-0.9535133242607117,0.003900304436683655,0.08130373060703278,-0.7437523007392883
0.1976091390001211,-0.24035137548364408,-1.30658568255478,0.2827965319156647,-0.12286869436502457,-2.4926257133483887,-0.2334112823009491,-0.19632555544376373,-0.9523525834083557,0.020459681749343872,0.08130477368831635,-0.7411746382713318
0.20659195379006073,-0.23512483911949186,-1.3307745925149563,0.3472039997577667,0.1911475509405136,-2.52260160446167,-0.22801056504249573,-0.20512552559375763,-0.9518060088157654,0.02085728943347931,0.07777564227581024,-0.7423010468482971
0.21631487876831468,-0.22695607393078604,-1.3552600063979707,0.4497876763343811,0.3976704478263855,-2.5697290897369385,-0.21976879239082336,-0.2146318554878235,-0.951648473739624,0.012020424008369446,0.0849168598651886,-0.7317774295806885
0.22694406188335167,-0.21688350702761605,-1.380156147892155,0.5510826110839844,0.5160892009735107,-2.6162192821502686,-0.20966947078704834,-0.2250009924173355,-0.9515320658683777,0.031294286251068115,0.08707678318023682,-0.6923735737800598
0.23830971411313437,-0.20550944696168874,-1.4052575199672,0.6437382698059082,0.5921146273612976,-2.608518600463867,-0.19829867780208588,-0.23606045544147491,-0.9512902498245239,0.06264808773994446,0.09354332089424133,-0.6365545988082886
0.2502766056083546,-0.19342608012059892,-1.4299743292194391,0.7499933242797852,0.6207020282745361,-2.549067735671997,-0.18623332679271698,-0.2476719617843628,-0.9507763981819153,0.10665878653526306,0.1194828450679779,-0.5867907404899597
0.26295951791168115,-0.18096311978317528,-1.4541324126128188,0.8684950470924377,0.6457247734069824,-2.502636671066284,-0.1737903207540512,-0.2599394619464874,-0.9498570561408997,0.1470111906528473,0.13381031155586243,-0.5574061274528503
0.276393510687885,-0.16776306566229882,-1.4780726286929968,0.9651326537132263,0.7238960266113281,-2.4928090572357178,-0.16063976287841797,-0.27288782596588135,-0.9485394358634949,0.15368181467056274,0.14511072635650635,-0.5324785709381104
0.2902804902302047,-0.1530217802165086,-1.5020037977841352,1.0353235006332397,0.8874909281730652,-2.466309070587158,-0.1460483819246292,-0.2862209975719452,-0.9469674825668335,0.1449192762374878,0.1781124472618103,-0.506142258644104
0.30434992346303313,-0.13625401930743003,-1.525801045310885,1.0833635330200195,1.056291103363037,-2.4220845699310303,-0.1295901983976364,-0.29967305064201355,-0.9451996684074402,0.16344952583312988,0.23178669810295105,-0.48152756690979004
0.31836808917506637,-0.11794604120015631,-1.5493051532177224,1.1181490421295166,1.151435136795044,-2.3514647483825684,-0.11175941675901413,-0.3130170702934265,-0.9431490898132324,0.218159019947052,0.2682935297489166,-0.4433865547180176
0.33212654789930524,-0.09876293871303586,-1.5721110865089847,1.1419917345046997,1.2181065082550049,-2.2174007892608643,-0.09321394562721252,-0.32605409622192383,-0.9407443404197693,0.2660350501537323,0.29254579544067383,-0.4112301468849182
0.34559859643747864,-0.07912129901188529,-1.5936040973986365,1.1761863231658936,1.2649720907211304,-2.045646905899048,-0.07436543703079224,-0.3387599289417267,-0.9379293918609619,0.3233431577682495,0.3191218674182892,-0.3961617946624756
0.35889751570162176,-0.0593282213362441,-1.613711658674839,1.2065237760543823,1.3027395009994507,-1.894193172454834,-0.05551552027463913,-0.35124221444129944,-0.9346373081207275,0.3641703724861145,0.33006301522254944,-0.4070984721183777
0.37209748964532624,-0.03914819349983907,-1.632679805189204,1.248213291168213,1.369768500328064,-1.7603106498718262,-0.036459844559431076,-0.3635701835155487,-0.9308530688285828,0.36495110392570496,0.3428182005882263,-0.42710286378860474
0.3853877618224534,-0.01848657577499141,-1.65043198107331,1.311558485031128,1.435822606086731,-1.5988067388534546,-0.01712965965270996,-0.3759184777736664,-0.9264944195747375,0.36498433351516724,0.362948477268219,-0.45323580503463745
0.3992503725095021,0.0022325927644603473,-1.6666277623067012,1.4355946779251099,1.4526981115341187,-1.4061119556427002,0.002057003555819392,-0.3887277841567993,-0.921350359916687,0.39673149585723877,0.37365207076072693,-0.4838773012161255
0.41445552902628774,0.022513391701512453,-1.6810970276942494,1.6366117000579834,1.456329345703125,-1.1999833583831787,0.020605571568012238,-0.4026916027069092,-0.9151037931442261,0.43064266443252563,0.3788573741912842,-0.5308953523635864
0.43178503747897823,0.04254095386523026,-1.6937523451446828,1.8955460786819458,1.502844214439392,-0.9880123734474182,0.038624901324510574,-0.4184926748275757,-0.9073984622955322,0.4356640875339508,0.40697231888771057,-0.5943562388420105
0.4515495633000583,0.0625567986111625,-1.7048124582599833,2.133798122406006,1.5391851663589478,-0.8002864122390747,0.05625015124678612,-0.43636029958724976,-0.8980120420455933,0.42702627182006836,0.44460004568099976,-0.6352673768997192
0.4732418015734231,0.08240692788151689,-1.714680980247717,2.2933881282806396,1.5379695892333984,-0.645557165145874,0.07326704263687134,-0.455774188041687,-0.887074887752533,0.40389060974121094,0.4616335332393646,-0.602884829044342
0.49604715742488337,0.10201924968173989,-1.7236365668544815,2.365283966064453,1.5458801984786987,-0.5058075189590454,0.0895673930644989,-0.4759528636932373,-0.8748980760574341,0.3958605229854584,0.44740360975265503,-0.5289257764816284
0.519204392768936,0.12183723484456246,-1.7316905599142103,2.371520757675171,1.6373785734176636,-0.37183666229248047,0.10551930963993073,-0.49618953466415405,-0.861778199672699,0.38364702463150024,0.45804256200790405,-0.4673691391944885
0.5422386503007054,0.1425211887835441,-1.738766916238737,2.339186906814575,1.7678061723709106,-0.22914208471775055,0.12166445702314377,-0.5160548090934753,-0.8478710055351257,0.3554474413394928,0.47961682081222534,-0.42364388704299927
0.5651059289157888,0.1639278194664759,-1.7447093572802503,2.322553873062134,1.8740109205245972,-0.06346426159143448,0.13782306015491486,-0.5355052947998047,-0.8332099914550781,0.3337498903274536,0.5055674910545349,-0.3870810866355896
0.5881825661093821,0.18550393813145016,-1.7491364044785882,2.3384768962860107,1.9385284185409546,0.13488052785396576,0.1534464806318283,-0.5548499226570129,-0.8176770806312561,0.3317067623138428,0.5263007283210754,-0.3516802191734314
0.6118659616465777,0.2066714130692472,-1.7519841281919597,2.3866641521453857,1.9575564861297607,0.3183642625808716,0.1679748296737671,-0.5743958950042725,-0.8011578321456909,0.3248535990715027,0.5425355434417725,-0.3162890672683716
0.6364142714399627,0.2272528272033765,-1.7537421831319095,2.4551169872283936,1.9326539039611816,0.4520544409751892,0.1811949461698532,-0.5943155288696289,-0.7835544347763062,0.29190388321876526,0.5635690093040466,-0.27181971073150635
0.6619008268860922,0.24696238927947944,-1.7548298381614569,2.5259463787078857,1.8640121221542358,0.5753599405288696,0.1928359866142273,-0.6146174073219299,-0.764892041683197,0.2560166120529175,0.5784387588500977,-0.2131199836730957
0.6883655004781313,0.2653854951725407,-1.7551535112177166,2.584724187850952,1.7661423683166504,0.7165215611457825,0.20255601406097412,-0.6352757215499878,-0.7452488541603088,0.24559468030929565,0.5958012342453003,-0.14272111654281616
0.7155681388168941,0.2821207545439954,-1.7543954722951929,2.5967750549316406,1.6681749820709229,0.8597062826156616,0.21010909974575043,-0.6560463309288025,-0.7248845100402832,0.24747152626514435,0.6211494207382202,-0.0626978874206543
0.7430307191955076,0.29713826030132046,-1.7523279689768894,2.552422285079956,1.604895830154419,0.9937657713890076,0.21561327576637268,-0.6765229105949402,-0.704150378704071,0.2371303290128708,0.6489502191543579,0.01457524299621582
0.7702896604950606,0.3105700026194439,-1.7488072961956362,2.4747159481048584,1.555034875869751,1.115206241607666,0.21933287382125854,-0.696343183517456,-0.6833734512329102,0.21954046189785004,0.6651084423065186,0.07900339365005493
0.7971321529991895,0.32252583598696183,-1.7438758565370933,2.3925223350524902,1.522385835647583,1.209062933921814,0.2214815467596054,-0.7153550982475281,-0.6627315282821655,0.20422346889972687,0.6611406207084656,0.1269497275352478
0.8234287435039,0.3332981918205892,-1.7377504234193737,2.299792528152466,1.509642481803894,1.2748662233352661,0.2223750501871109,-0.73348069190979,-0.6423048377037048,0.17327016592025757,0.64546799659729,0.1523604393005371
0.8491334179768925,0.3428404623440644,-1.7303361392476226,2.208261489868164,1.4893848896026611,1.3622370958328247,0.22208109498023987,-0.7507082223892212,-0.6221874952316284,0.1526900827884674,0.6355043053627014,0.17129027843475342
0.8743593917097726,0.35067310220631814,-1.7212940739803455,2.1223247051239014,1.4366540908813477,1.4501343965530396,0.22037051618099213,-0.7671326994895935,-0.6024484634399414,0.16280823945999146,0.6093416213989258,0.18818765878677368
0.8990895915945352,0.35659846438648785,-1.7107275485868783,2.0377345085144043,1.3779162168502808,1.4994192123413086,0.2172458916902542,-0.7827606797218323,-0.5831723213195801,0.15865446627140045,0.5859833359718323,0.19244062900543213
0.9231913267880724,0.3610230627279581,-1.699119247408106,1.960384726524353,1.3339036703109741,1.511350154876709,0.21309682726860046,-0.7975309491157532,-0.5643882751464844,0.1212233155965805,0.5761106610298157,0.19085323810577393
0.9465094401851514,0.36424082037401595,-1.686767932249517,1.8671096563339233,1.2891967296600342,1.502549171447754,0.20822900533676147,-0.81138014793396,-0.5461711883544922,0.0916672796010971,0.5527589321136475,0.18467527627944946
0.9689083571581754,0.3663110301054837,-1.6736195825855789,1.7612524032592773,1.2691397666931152,1.4963117837905884,0.20279783010482788,-0.824268102645874,-0.5286352038383484,0.07831491529941559,0.5374181270599365,0.18024665117263794
0.9901004670298129,0.36751580934216643,-1.6597623639001784,1.6277724504470825,1.2668616771697998,1.450681209564209,0.19711315631866455,-0.8360810875892639,-0.5119715929031372,0.06596368551254272,0.5103058815002441,0.1831904649734497
1.0096522137976787,0.36834753119205255,-1.6454194967962745,1.4475719928741455,1.311724066734314,1.3905467987060547,0.19161543250083923,-0.8466468453407288,-0.4964602291584015,0.03494715690612793,0.470212459564209,0.18359410762786865
1.02720893052492,0.3692710972118562,-1.6304658465890203,1.253949522972107,1.4158976078033447,1.331723928451538,0.18667945265769958,-0.8558587431907654,-0.4823448657989502,0.011623814702033997,0.4511041045188904,0.18238767981529236
1.0428027669053863,0.3706484268983095,-1.6147757789941246,1.0678300857543945,1.5503324270248413,1.2805356979370117,0.18248681724071503,-0.8638196587562561,-0.4695894122123718,0.0026481151580810547,0.43677186965942383,0.1634523868560791
1.056487042778028,0.37268263221766973,-1.598368559269078,0.8828482031822205,1.689092755317688,1.228827953338623,0.1791204959154129,-0.8706327080726624,-0.458164244890213,-0.0011877268552780151,0.41393715143203735,0.12884917855262756
1.0684570441979129,0.37503992594904806,-1.581025640654236,0.7307227253913879,1.7932056188583374,1.214277982711792,0.17636969685554504,-0.8764586448669434,-0.44801101088523865,0.008917823433876038,0.38642269372940063,0.10789266228675842
1.079329382047932,0.37669377955910865,-1.5622941555137693,0.6392500996589661,1.8090966939926147,1.235966682434082,0.17359474301338196,-0.8816415071487427,-0.4388314485549927,0.037541165947914124,0.36365145444869995,0.08624669909477234
1.0896670536717281,0.37723638381984453,-1.542538094315251,0.6070903539657593,1.781680941581726,1.2323216199874878,0.17046648263931274,-0.8864728808403015,-0.43024083971977234,0.05156421661376953,0.35099613666534424,0.03874611854553223
1.0998756320422372,0.377211634363767,-1.52256732599688,0.6198745965957642,1.7569823265075684,1.2119466066360474,0.16711370646953583,-0.891150951385498,-0.42180925607681274,0.04048219323158264,0.34061378240585327,-0.01584327220916748
1.1101859803493026,0.37719909801500956,-1.5029321476524584,0.6451301574707031,1.738499402999878,1.1770899295806885,0.1637154519557953,-0.895781397819519,-0.41324689984321594,0.026622742414474487,0.33424264192581177,-0.0641852617263794
1.1204490764426747,0.3774788753200616,-1.48386659500689,0.6370024681091309,1.7350397109985352,1.134752631187439,0.16043396294116974,-0.9002960324287415,-0.40463319420814514,0.01096808910369873,0.3309752941131592,-0.0935966968536377
1.130443882689862,0.3776493831878894,-1.4647284728166188,0.6045271158218384,1.7401094436645508,1.1326072216033936,0.15717701613903046,-0.904601514339447,-0.3962216079235077,0.017704010009765625,0.31851136684417725,-0.09202903509140015
1.1401347179462888,0.37671229377194254,-1.4444343947460618,0.5658314228057861,1.7475881576538086,1.168535590171814,0.15357354283332825,-0.9086897373199463,-0.38819870352745056,0.05365614593029022,0.2973158359527588,-0.08959969878196716
1.1496718946563063,0.3746222906988225,-1.4224435223886542,0.5377026200294495,1.8390378952026367,1.2097195386886597,0.1495838165283203,-0.9126298427581787,-0.3804360628128052,0.07212646305561066,0.29666292667388916,-0.10955417156219482
1.1588167895815382,0.37217230800213824,-1.3989683014528287,0.4659450650215149,1.9520326852798462,1.211023211479187,0.1456102430820465,-0.9163299798965454,-0.37301111221313477,0.06470170617103577,0.29683828353881836,-0.14061492681503296
1.1670856089251125,0.36982162506995314,-1.3744265072650697,0.367623895406723,2.0753443241119385,1.1950671672821045,0.14198940992355347,-0.9196096062660217,-0.36627498269081116,0.04564794898033142,0.26454973220825195,-0.14643549919128418
1.1743660534929365,0.3677305551969628,-1.3487863980420953,0.2743391990661621,2.2082526683807373,1.1859359741210938,0.13881252706050873,-0.9224452376365662,-0.36031374335289,0.032864153385162354,0.2532252073287964,-0.14636951684951782
1.180988171152611,0.36532992134616626,-1.321845535342056,0.2278091460466385,2.260648012161255,1.2106947898864746,0.1357617974281311,-0.924981951713562,-0.35493263602256775,0.03795957565307617,0.267175555229187,-0.1501789689064026
1.187549993947789,0.361415141949896,-1.2932612510994232,0.2381022572517395,2.228389024734497,1.2666674852371216,0.13222219049930573,-0.9274556040763855,-0.3497762382030487,0.06011490523815155,0.2543293833732605,-0.15983673930168152
1.1946207074216755,0.35503130008557104,-1.2627011912458548,0.2924083471298218,2.153501510620117,1.3418965339660645,0.12770381569862366,-0.9300763607025146,-0.3444558382034302,0.07946482300758362,0.23705261945724487,-0.17437338829040527
1.2024670141409768,0.3461344662761305,-1.2303364823983378,0.37033936381340027,2.088684558868408,1.396576166152954,0.12215453386306763,-0.9329301714897156,-0.3387027978897095,0.08019232749938965,0.2399827241897583,-0.18375802040100098
1.2110885797961124,0.33572242294120047,-1.196868352999702,0.45215556025505066,2.0742599964141846,1.413590908050537,0.11596717685461044,-0.9359997510910034,-0.33234959840774536,0.051726967096328735,0.23876452445983887,-0.1993275284767151
1.2201463571164968,0.3247860622725487,-1.1629059757974463,0.48335209488868713,2.0894834995269775,1.3932543992996216,0.10961564630270004,-0.9391496181488037,-0.32554957270622253,0.020557135343551636,0.23358315229415894,-0.2067531943321228
1.2290024607284247,0.31376799793651716,-1.128743473208984,0.4571477472782135,2.1314187049865723,1.356894612312317,0.1034509539604187,-0.9421549439430237,-0.318813681602478,0.004123568534851074,0.2138833999633789,-0.17982816696166992
1.2371625899986591,0.30268135725454315,-1.0938831137449112,0.3919021487236023,2.2185590267181396,1.3339320421218872,0.09761513769626617,-0.9448586106300354,-0.31259188055992126,-0.004689067602157593,0.20024490356445312,-0.14756733179092407
1.244411777126831,0.2908975998968736,-1.0574051905759747,0.2961796820163727,2.305330514907837,1.3489314317703247,0.09195785969495773,-0.9472077488899231,-0.30715012550354004,-0.0007865503430366516,0.2189667820930481,-0.13573607802391052
1.2505856232963737,0.27677110381634357,-1.0178288396432498,0.18144911527633667,2.3551483154296875,1.4038596153259277,0.08601034432649612,-0.9491690993309021,-0.30278757214546204,0.026477515697479248,0.23609530925750732,-0.1128464937210083
1.2556038145481963,0.2595529119661146,-0.9746735051958598,0.07466617971658707,2.3788580894470215,1.452157735824585,0.07956093549728394,-0.9507367014884949,-0.29961615800857544,0.04374539852142334,0.2369915246963501,-0.08295214176177979
1.2596333289869275,0.239848512108253,-0.9288934342761813,0.012924514710903168,2.3713455200195312,1.469260334968567,0.07273142784833908,-0.9519781470298767,-0.2974017560482025,0.029349923133850098,0.26530206203460693,-0.06899219751358032
1.262924311880109,0.2184405137923981,-0.8815739839236305,-0.027808887884020805,2.3437490463256836,1.4753612279891968,0.06566914170980453,-0.9529805779457092,-0.29583024978637695,0.010914765298366547,0.29720360040664673,-0.07031956315040588
1.2655534312040386,0.19603751879534348,-0.8333582453149756,-0.05820860713720322,2.3564794063568115,1.4730162620544434,0.05853750929236412,-0.9537739753723145,-0.2947686016559601,-0.002339337021112442,0.32770586013793945,-0.08206233382225037
1.267494595891289,0.17278556082758403,-0.7841357936330305,-0.09853886067867279,2.3612709045410156,1.4921244382858276,0.05134997516870499,-0.9543555378913879,-0.29422563314437866,0.0003010593354701996,0.37909919023513794,-0.07264134287834167
1.268808689253767,0.14756530473376844,-0.7331756911877034,-0.12666715681552887,2.304811954498291,1.5423862934112549,0.04372953623533249,-0.954747200012207,-0.2941861152648926,0.030367162078619003,0.42107105255126953,-0.05066236853599548
1.2695454265906638,0.1188806698030512,-0.6792755932025905,-0.15151441097259521,2.2393388748168945,1.648306131362915,0.03519069030880928,-0.9549660682678223,-0.2946211099624634,0.05843725800514221,0.4481300711631775,-0.040675461292266846
1.269633245522676,0.08535190060959688,-0.6210481030602375,-0.18475759029388428,2.1564767360687256,1.777185082435608,0.025287318974733353,-0.9549921154975891,-0.29555150866508484,0.08733785152435303,0.48825621604919434,-0.020091712474822998
1.2689000365061476,0.0472487838368906,-0.558956928888531,-0.20249922573566437,2.067662000656128,1.8801732063293457,0.014043336734175682,-0.9547743797302246,-0.2969999313354492,0.08968594670295715,0.5131390690803528,0.00041493773460388184
1.2673372284832194,0.0054423166512551045,-0.4938445423298229,-0.21024823188781738,1.9872260093688965,1.9797005653381348,0.0016262836288660765,-0.9543085694313049,-0.29881900548934937,0.07245516777038574,0.5253381133079529,0.005880832672119141
1.2647820804179568,-0.039002449077579084,-0.4267126223242923,-0.23455505073070526,1.9212478399276733,2.0409810543060303,-0.011746928095817566,-0.9535418748855591,-0.3010316491127014,0.06115493178367615,0.5302324891090393,0.001806885004043579
1.2609368551214706,-0.08414142875302254,-0.35926782189949674,-0.28194254636764526,1.8946189880371094,2.076711893081665,-0.025626571848988533,-0.9523764252662659,-0.3038463592529297,0.03746742010116577,0.5343770980834961,0.0017987489700317383
1.2554831715172396,-0.12851307495240089,-0.2927325037820714,-0.3736702799797058,1.880124568939209,2.094468355178833,-0.03974412754178047,-0.9506993293762207,-0.3075569272041321,0.021052125841379166,0.5246433615684509,0.0069284141063690186
1.2479885519634102,-0.17002209550343858,-0.22917505677581293,-0.5210083723068237,1.8799946308135986,2.0603630542755127,-0.0536767952144146,-0.9483484625816345,-0.31265687942504883,0.007091738283634186,0.4932395815849304,0.007649034261703491
1.2381730129243316,-0.20554269513643555,-0.17134349610169347,-0.7114763855934143,1.9473978281021118,1.993391513824463,-0.06664300709962845,-0.9451889991760254,-0.3196506202220917,-0.027824148535728455,0.4584030508995056,0.021844923496246338
1.225868060956038,-0.23465079662999044,-0.11927809640771378,-0.9292585253715515,2.0331919193267822,1.924132227897644,-0.07861621677875519,-0.9410997033119202,-0.32886314392089844,-0.04749767482280731,0.4274277091026306,0.026342451572418213
1.2112134788009006,-0.2565805632747879,-0.07369082291478352,-1.1401870250701904,2.124514579772949,1.8314865827560425,-0.08929915726184845,-0.9360436797142029,-0.34036433696746826,-0.05375198274850845,0.4049462676048279,0.014253586530685425
1.194404970392764,-0.2712217040681786,-0.034572464032048285,-1.3586770296096802,2.2338008880615234,1.7615996599197388,-0.09847435355186462,-0.9299970865249634,-0.35413020849227905,-0.06027807295322418,0.3863722085952759,0.005222827196121216
1.1755495665300038,-0.28050614456373085,0.00016420752887390852,-1.5431108474731445,2.322540044784546,1.7814180850982666,-0.10659413784742355,-0.9229015707969666,-0.36998698115348816,-0.03639594465494156,0.38393062353134155,-0.00826302170753479
1.154934812019487,-0.2871192681398849,0.03300663968308927,-1.6674319505691528,2.3635473251342773,1.8583786487579346,-0.11440284550189972,-0.914768636226654,-0.38744089007377625,0.01700599491596222,0.3936198949813843,-0.04432177543640137
1.1332133222037906,-0.29357833180088677,0.06587846276887054,-1.686447262763977,2.297605276107788,1.984100580215454,-0.1226249635219574,-0.9057785272598267,-0.4056212604045868,0.0585075318813324,0.3964705467224121,-0.09283751249313354
1.1115182017631955,-0.30219303818693605,0.10010831314338547,-1.5608158111572266,2.125643014907837,2.112403392791748,-0.13193291425704956,-0.8963727355003357,-0.42321351170539856,0.07442253828048706,0.3865460157394409,-0.14673268795013428
1.0910896182086975,-0.3137410406752657,0.1358429038197713,-1.3334217071533203,1.9293943643569946,2.181878089904785,-0.14243368804454803,-0.8871303200721741,-0.43899044394493103,0.06391195952892303,0.3556818962097168,-0.2287645936012268
1.0726321190556036,-0.3268816333496578,0.17170390116607756,-1.1107630729675293,1.772627592086792,2.1539289951324463,-0.15342186391353607,-0.8784611821174622,-0.4525126814842224,0.005350574851036072,0.3225529193878174,-0.2843341827392578
1.0557118859167773,-0.3392222695625081,0.20576181946158917,-1.008987545967102,1.7200274467468262,2.0566580295562744,-0.16391728818416595,-0.8702511191368103,-0.4645364284515381,-0.07108332216739655,0.289608359336853,-0.27148640155792236
1.0390692402895263,-0.34844027988185944,0.23648454316972975,-1.1274060010910034,1.7543697357177734,1.940584659576416,-0.17311394214630127,-0.8619326949119568,-0.4765540361404419,-0.11394965648651123,0.255090594291687,-0.20995408296585083
1.0203037264262782,-0.35166202081576325,0.26194994872267147,-1.5227998495101929,1.9838813543319702,1.7982614040374756,-0.18018880486488342,-0.8522669672966003,-0.4910939335823059,-0.12668070197105408,0.2156701683998108,-0.10857641696929932
0.9986167421297297,-0.347369650921085,0.2821400346519169,-1.711970567703247,2.2357473373413086,1.6710268259048462,-0.18432888388633728,-0.8407227993011475,-0.509124755859375,-0.1410800665616989,0.16005873680114746,0.01878368854522705
0.9770203005984367,-0.34059260564002525,0.29996251313442096,-1.689300537109375,2.068908214569092,1.661024808883667,-0.18689680099487305,-0.8288339376449585,-0.5273555517196655,-0.12064409255981445,0.18476039171218872,-0.07504600286483765
0.9554837381773623,-0.3356815753055824,0.3188270661271333,-1.6415423154830933,2.0086209774017334,1.7737822532653809,-0.19014160335063934,-0.8165930509567261,-0.5449971556663513,-0.04195983707904816,0.20697391033172607,-0.18443381786346436
0.934457528853114,-0.3325982884288124,0.33892963862110415,-1.5489294528961182,1.8292144536972046,1.815748691558838,-0.1940242499113083,-0.8042768239974976,-0.5616880655288696,0.028359562158584595,0.20834475755691528,-0.14721989631652832
0.913991393203163,-0.33195071748029925,0.3597773906953918,-1.4931501150131226,1.6192526817321777,1.8891017436981201,-0.1989837884902954,-0.7919471263885498,-0.5772566795349121,-0.0012115389108657837,0.23582524061203003,-0.14365994930267334
0.893620008488529,-0.3338558446225098,0.3815638350130731,-1.4704076051712036,1.4112738370895386,1.9721336364746094,-0.20532789826393127,-0.7793451547622681,-0.5919980406761169,0.010900378227233887,0.20297479629516602,-0.11144733428955078
0.8732980678548539,-0.3375996955038851,0.4035006987477446,-1.4925692081451416,1.2266408205032349,1.968807339668274,-0.21274545788764954,-0.7664514780044556,-0.6060459017753601,-0.0038530826568603516,0.17938470840454102,-0.10814166069030762
0.8514668866507823,-0.34053134496372545,0.42369730531139843,-1.7396254539489746,1.2846685647964478,1.9519015550613403,-0.2200581431388855,-0.75224769115448,-0.6210457682609558,-0.0778544694185257,0.1343429684638977,-0.11708283424377441
0.8277792707909566,-0.34071229539864556,0.44196665767868293,-1.8772342205047607,1.3728200197219849,1.917173981666565,-0.2260625660419464,-0.736430823802948,-0.6376248598098755,-0.12444709241390228,0.04442936182022095,-0.06965041160583496
0.8034437036352569,-0.3392232829509851,0.45897752228442035,-1.9046727418899536,1.3955531120300293,1.8931045532226562,-0.23100906610488892,-0.7197510600090027,-0.6546702980995178,-0.13422532379627228,0.044152915477752686,-0.16799193620681763
0.7789802476201569,-0.3369561280556168,0.4755101289434291,-1.9221643209457397,1.3942517042160034,1.9345225095748901,-0.23527632653713226,-0.7025541067123413,-0.6716120839118958,-0.12521257996559143,0.04029208421707153,-0.2294040322303772
0.7543432719520422,-0.3356855979630783,0.4931123383114084,-1.8674947023391724,1.2734836339950562,2.074209451675415,-0.2400529384613037,-0.684810221195221,-0.6880476474761963,-0.07101276516914368,0.016078472137451172,-0.20353853702545166
0.7301228485301512,-0.33702836393812813,0.5124994035759098,-1.7534120082855225,1.0610648393630981,2.203409194946289,-0.246390238404274,-0.6669611930847168,-0.7031747102737427,-0.007241383194923401,0.021270155906677246,-0.19295859336853027
0.7063496385799582,-0.3409656484566188,0.5328122967069128,-1.7198503017425537,0.820499837398529,2.2291955947875977,-0.25438815355300903,-0.6490611433982849,-0.7169423699378967,-0.014731138944625854,-0.0025655031204223633,-0.1739572286605835
0.6823493790336979,-0.3458185575177423,0.5518303171536882,-1.8231843709945679,0.6549623012542725,2.11114239692688,-0.26306992769241333,-0.6306180953979492,-0.7301473021507263,-0.07074663043022156,-0.06828027963638306,-0.1091470718383789
0.6572667130956551,-0.34932670797216314,0.5679892997685413,-2.0239901542663574,0.6692732572555542,1.9725182056427002,-0.2709594666957855,-0.6109552979469299,-0.7438512444496155,-0.13600772619247437,-0.12351137399673462,-0.06974732875823975
0.6304936221496961,-0.3500874114134623,0.5816492364718716,-2.242041826248169,0.8259182572364807,1.9164917469024658,-0.27703744173049927,-0.5895435214042664,-0.758741557598114,-0.15115472674369812,-0.12278258800506592,-0.09481978416442871
0.6018808812613984,-0.348293568767852,0.5945111928627203,-2.3824429512023926,0.9994123578071594,2.024263858795166,-0.28131943941116333,-0.5661938190460205,-0.7747799754142761,-0.09828877449035645,-0.07530099153518677,-0.1456301212310791
0.5720711496583973,-0.3461338783440072,0.6089341160591281,-2.3757989406585693,0.9998273253440857,2.259899854660034,-0.28524652123451233,-0.5413745641708374,-0.7909159660339355,0.0019518136978149414,-0.008216500282287598,-0.23775523900985718
0.5420324771055335,-0.34594256769006015,0.6262951081745418,-2.25449538230896,0.8450508117675781,2.526625394821167,-0.29047998785972595,-0.5158782005310059,-0.8059101104736328,0.06402426958084106,0.047906339168548584,-0.3131083846092224
0.5125045561235229,-0.348985712379822,0.6464432907810734,-2.1006312370300293,0.5553289651870728,2.734189033508301,-0.2980114817619324,-0.4903615415096283,-0.8189839720726013,0.0817943811416626,0.04710891842842102,-0.3418893814086914
0.4836740304625172,-0.3557142563090242,0.6686825088501384,-1.9515069723129272,0.21366997063159943,2.9003489017486572,-0.30831190943717957,-0.4650349020957947,-0.8298712968826294,0.029793202877044678,0.028435081243515015,-0.3434227705001831
0.4554206454389262,-0.36620045564846665,0.6923313678624426,-1.8437142372131348,-0.17644983530044556,3.0177245140075684,-0.32157447934150696,-0.4398401379585266,-0.8385288119316101,-0.01729273796081543,0.036977559328079224,-0.3330714702606201
0.4272389271653839,-0.3799887350837023,0.7165332405250868,-1.8037097454071045,-0.49622249603271484,3.0899410247802734,-0.3375701308250427,-0.41435950994491577,-0.8451938629150391,-0.06073006987571716,0.0651010274887085,-0.31462663412094116
0.39883436608775746,-0.39564705000967904,0.7409239311709906,-1.748702883720398,-0.6566306948661804,3.1796789169311523,-0.3551565408706665,-0.3883444666862488,-0.8503249287605286,-0.10691016912460327,0.07077845931053162,-0.32599031925201416
0.37065750099523487,-0.4114733967041037,0.7657875435854171,-1.5941082239151,-0.6151700615882874,3.2452361583709717,-0.3727986514568329,-0.3622283637523651,-0.854290246963501,-0.1360515058040619,0.09330737590789795,-0.411548376083374
0.34406552927606615,-0.42539150723951213,0.7911473501693699,-1.31637442111969,-0.38216814398765564,3.2274863719940186,-0.38849085569381714,-0.3373171091079712,-0.8574917316436768,-0.18830668926239014,0.12978225946426392,-0.5467898845672607
0.32042414120997365,-0.435967098191099,0.8165094329295483,-0.9838327169418335,-0.10393495112657547,3.0829904079437256,-0.4007936120033264,-0.31496915221214294,-0.8603249192237854,-0.26715990900993347,0.14422324299812317,-0.6707877516746521
0.30006936927720596,-0.44351039553652555,0.841324034070968,-0.6993134021759033,0.08026950806379318,2.9199447631835938,-0.40993839502334595,-0.2955864667892456,-0.8628900051116943,-0.33711671829223633,0.12642747163772583,-0.6942235827445984
0.2822937605676725,-0.4497853207542559,0.8657716743546131,-0.48273950815200806,0.03013329952955246,2.8336732387542725,-0.4175634980201721,-0.2785593569278717,-0.8648961782455444,-0.36762332916259766,0.09137973189353943,-0.6213250756263733
0.2667444149418278,-0.45742279759195936,0.8905450111951999,-0.20851783454418182,-0.2355998307466507,2.7995355129241943,-0.42601844668388367,-0.263592392206192,-0.8654636740684509,-0.3531869351863861,0.03168925642967224,-0.5500331521034241
0.2541689815393452,-0.4682045085415719,0.9162176516513881,0.1913396716117859,-0.5928242802619934,2.7390828132629395,-0.43678614497184753,-0.25144118070602417,-0.8637101650238037,-0.35822731256484985,-0.03157886862754822,-0.576337993144989
0.245966084281553,-0.48183974415066755,0.943004386795155,0.7320942878723145,-0.7718534469604492,2.5928826332092285,-0.44946277141571045,-0.24349345266819,-0.8594731688499451,-0.4452669024467468,-0.09165063500404358,-0.6653985977172852
0.243516351672733,-0.49564232818398857,0.9701675557892105,1.2858099937438965,-0.629949688911438,2.2438008785247803,-0.461564838886261,-0.2411167174577713,-0.8537099361419678,-0.6079390048980713,-0.19311797618865967,-0.8252450823783875
0.24678982019594503,-0.5061022912233973,0.9954778309183188,1.5963926315307617,-0.2025860995054245,1.7218059301376343,-0.4700840711593628,-0.24429230391979218,-0.8481404781341553,-0.7846004962921143,-0.3081674575805664,-0.929172694683075
0.2537700436518253,-0.510763151458326,1.0166490925937477,1.5687665939331055,0.3122972548007965,1.1761997938156128,-0.4731868803501129,-0.2510550320148468,-0.8444321155548096,-0.8957707285881042,-0.386762410402298,-0.8597609996795654
0.2617636710508431,-0.509555272874222,1.0323953724037964,1.284509539604187,0.7149671912193298,0.7081849575042725,-0.471172571182251,-0.25878453254699707,-0.8432241678237915,-0.9082525372505188,-0.4326675236225128,-0.682029128074646
0.26905231230526955,-0.5035930594750532,1.0429150629627126,0.9790626168251038,1.0099676847457886,0.374864399433136,-0.4652141332626343,-0.2658179700374603,-0.844343900680542,-0.8394580483436584,-0.4612022638320923,-0.5278637409210205
0.2756160982932844,-0.4944949875051607,1.0496583475865267,0.8146550059318542,1.149936318397522,0.1428721696138382,-0.4566752016544342,-0.27213984727859497,-0.8469874262809753,-0.7446951270103455,-0.4644782543182373,-0.5085575580596924
0.2827247598797969,-0.4837424285378896,1.0541335709973292,0.8692702054977417,1.2446562051773071,-0.04820045083761215,-0.44663065671920776,-0.278973251581192,-0.8501147031784058,-0.6934603452682495,-0.43225419521331787,-0.6217480301856995
0.2920821843827699,-0.4716236191600684,1.05746972424096,1.0945736169815063,1.3628528118133545,-0.24902649223804474,-0.4350906014442444,-0.2879468500614166,-0.8531018495559692,-0.6794724464416504,-0.36934077739715576,-0.7723405957221985
0.30480374398630816,-0.458010214016573,1.0598882657282143,1.3765363693237305,1.49686598777771,-0.47482046484947205,-0.42178311944007874,-0.3001059591770172,-0.8555907011032104,-0.6938938498497009,-0.3094216585159302,-0.8655090928077698
0.3208042226716642,-0.44291439847586195,1.06142525149758,1.6105310916900635,1.6001306772232056,-0.6394538879394531,-0.4067094922065735,-0.3153298497200012,-0.8574115037918091,-0.6999189853668213,-0.26017066836357117,-0.8753460049629211
0.33908050341064344,-0.42690299481668553,1.0624345138574227,1.7692980766296387,1.654155969619751,-0.7088485956192017,-0.39047789573669434,-0.3326200842857361,-0.8584234714508057,-0.6641638875007629,-0.1940980851650238,-0.8177544474601746
0.3588977673870083,-0.4105300798857181,1.0636301523720815,1.9343857765197754,1.6839892864227295,-0.6842092871665955,-0.3736668825149536,-0.35124245285987854,-0.8584880828857422,-0.6171321272850037,-0.11331143975257874,-0.7384814620018005
0.38027040161488035,-0.3945257967228341,1.065948902551968,2.1564269065856934,1.6611586809158325,-0.5795660614967346,-0.3569127023220062,-0.3711715638637543,-0.8572310209274292,-0.5740413665771484,-0.026487767696380615,-0.691749632358551
0.403299501336657,-0.3798102252100578,1.06992690126491,2.3720345497131348,1.5684633255004883,-0.4820166230201721,-0.3409998118877411,-0.39245525002479553,-0.8542236089706421,-0.5286597013473511,0.053923726081848145,-0.6569610238075256
0.4280689627005078,-0.36679643253076955,1.075132823749016,2.567190647125244,1.4432399272918701,-0.44007253646850586,-0.3262675702571869,-0.41511479020118713,-0.8492521643638611,-0.5156514644622803,0.10896238684654236,-0.5818238258361816
0.4543989568186539,-0.35529993307905844,1.080906957459508,2.7001774311065674,1.348203420639038,-0.44768545031547546,-0.31257131695747375,-0.43892234563827515,-0.8424051403999329,-0.5491535663604736,0.14940202236175537,-0.49136555194854736
0.48175194210600797,-0.3445243802374865,1.0863902312839278,2.745523691177368,1.2906221151351929,-0.5061973333358765,-0.29930800199508667,-0.4633324444293976,-0.8341090083122253,-0.5736626386642456,0.17349165678024292,-0.3863651752471924
0.5093341559163983,-0.3341263645960873,1.0910176182443787,2.7004952430725098,1.2196604013442993,-0.5558189153671265,-0.2863178253173828,-0.4875960350036621,-0.8247861862182617,-0.589292585849762,0.17494338750839233,-0.2738618850708008
0.5364628953622944,-0.3238224463956348,1.094639028497964,2.6185269355773926,1.2033077478408813,-0.5944194197654724,-0.27349355816841125,-0.5110989809036255,-0.8148491382598877,-0.6052144169807434,0.1904354691505432,-0.20385807752609253
0.5629948940198864,-0.3132888645564526,1.097598903422418,2.571565628051758,1.1937859058380127,-0.5738525986671448,-0.2606233060359955,-0.5337212681770325,-0.8044980764389038,-0.6112486720085144,0.2049400806427002,-0.1608492136001587
0.5894099497336481,-0.30396338667639405,1.1009822852577158,2.630108594894409,1.0073212385177612,-0.48226723074913025,-0.2488022893667221,-0.5558706521987915,-0.7931615710258484,-0.5918197631835938,0.23622941970825195,-0.13590025901794434
0.616476685873746,-0.2982888050724486,1.1057053314817182,2.753070831298828,0.6482136249542236,-0.38151291012763977,-0.23978683352470398,-0.5781639814376831,-0.7798901796340942,-0.5276540517807007,0.27846604585647583,-0.09955006837844849
0.6444133041697683,-0.2974654972102537,1.111953861785846,2.856743574142456,0.2580261826515198,-0.29396575689315796,-0.2343178540468216,-0.6007295250892639,-0.7643423080444336,-0.4680137634277344,0.29672861099243164,-0.03862088918685913
0.6729066481261406,-0.3006548758747448,1.1194036048419973,2.909590244293213,0.0457802377641201,-0.2642004191875458,-0.23158994317054749,-0.6232616305351257,-0.7469344139099121,-0.4532550871372223,0.31158560514450073,0.02087545394897461
0.7016386175893554,-0.30536723265515586,1.1271409027212396,2.904195547103882,0.005706396885216236,-0.31567811965942383,-0.2296271175146103,-0.6454700827598572,-0.7284502387046814,-0.4836907982826233,0.3217090964317322,0.04986143112182617
0.7301995955357424,-0.30980353734656113,1.13411034221136,2.8307456970214844,0.02513682097196579,-0.41011595726013184,-0.22714188694953918,-0.6670183539390564,-0.7095724940299988,-0.5255131721496582,0.3146013021469116,0.07970499992370605
0.7580861248449464,-0.31306708297468205,1.1395891054343963,2.704960584640503,0.061689771711826324,-0.5255983471870422,-0.22363927960395813,-0.6875329613685608,-0.690857470035553,-0.5565578937530518,0.31601184606552124,0.11737120151519775
0.784986401879167,-0.31531885874521526,1.1434106390087937,2.5615596771240234,-0.0020524542778730392,-0.6029365062713623,-0.21937797963619232,-0.7068155407905579,-0.6725214719772339,-0.5537543892860413,0.3415200710296631,0.17352861166000366
0.8106072799160436,-0.31832087456217545,1.1462571728930218,2.4142420291900635,-0.2006843388080597,-0.6065943241119385,-0.21565619111061096,-0.7247057557106018,-0.6544418334960938,-0.5007134675979614,0.37900257110595703,0.23744970560073853
0.8348518173155809,-0.32320775406936936,1.1487498212069749,2.2837462425231934,-0.3905618488788605,-0.5986282825469971,-0.21320755779743195,-0.7411970496177673,-0.6365293264389038,-0.442676305770874,0.39892709255218506,0.28940725326538086
0.8581682250129469,-0.32883229138475323,1.1506042952580944,2.201169729232788,-0.44399476051330566,-0.6692361235618591,-0.21114486455917358,-0.7566461563110352,-0.618792712688446,-0.4344087839126587,0.4020470976829529,0.2875702381134033
0.8812373477100256,-0.3332484608413985,1.1505969155738294,2.146456003189087,-0.43830224871635437,-0.8358069658279419,-0.20810925960540771,-0.7715266942977905,-0.6011964678764343,-0.48799675703048706,0.40102797746658325,0.23497039079666138
0.9043079556821826,-0.335178387935582,1.1475594209383746,2.0681326389312744,-0.4137459695339203,-1.0337011814117432,-0.20335900783538818,-0.7859975099563599,-0.5838262438774109,-0.5415751338005066,0.4097462296485901,0.20789551734924316
0.9270947310937173,-0.3337137430598269,1.140907631600998,1.953236699104309,-0.3474774658679962,-1.2177306413650513,-0.1965850293636322,-0.7998796701431274,-0.5670509934425354,-0.5622498393058777,0.40981924533843994,0.20940035581588745
0.9491160477785073,-0.3284782415923925,1.1302389544616713,1.7824372053146362,-0.33796313405036926,-1.403721570968628,-0.18788465857505798,-0.8129010200500488,-0.5512635707855225,-0.5536468029022217,0.3972209095954895,0.22541213035583496
0.9700275122300974,-0.31950287995136484,1.1147932370792815,1.6089407205581665,-0.398396372795105,-1.5984948873519897,-0.17755044996738434,-0.824901282787323,-0.5366691946983337,-0.5415810346603394,0.3894459009170532,0.265902042388916
0.9899149653384269,-0.3069121032827829,1.0945795353112897,1.4780025482177734,-0.434052050113678,-1.7516489028930664,-0.16578976809978485,-0.8359793424606323,-0.5231180787086487,-0.5254334211349487,0.3898580074310303,0.27629196643829346
1.0089695504265133,-0.29111884671365595,1.0703925949371877,1.388364315032959,-0.48504969477653503,-1.8509581089019775,-0.15290731191635132,-0.8462833166122437,-0.5103175640106201,-0.49118149280548096,0.4006198048591614,0.23794829845428467
1.027315145765408,-0.2733745156161688,1.0433410473470965,1.3394867181777954,-0.564008355140686,-1.8783055543899536,-0.1396128386259079,-0.8559136986732483,-0.49791568517684937,-0.4416402578353882,0.411318302154541,0.20256668329238892
1.0450770596480417,-0.25464983667251906,1.0147969197379345,1.3209584951400757,-0.5915781855583191,-1.8443187475204468,-0.12641562521457672,-0.8649632334709167,-0.48565196990966797,-0.38435715436935425,0.4256930947303772,0.17920976877212524
1.0622515443880958,-0.234785988175469,0.9851795541034662,1.2880195379257202,-0.5799528360366821,-1.8178389072418213,-0.11327149718999863,-0.8734539747238159,-0.47354814410209656,-0.33776307106018066,0.44149285554885864,0.15488362312316895
1.0786041074879698,-0.21332841409187064,0.95415537345549,1.2259480953216553,-0.5769096612930298,-1.800325632095337,-0.10004740953445435,-0.8812990188598633,-0.4618470370769501,-0.30943751335144043,0.45118415355682373,0.16027241945266724
1.093817045841949,-0.19038150074041535,0.9213241855488734,1.1320945024490356,-0.6503214240074158,-1.797502040863037,-0.08687670528888702,-0.8883857727050781,-0.45080292224884033,-0.28478166460990906,0.45325082540512085,0.1974307894706726
1.1077002997100975,-0.16607449851892575,0.8862105351845482,1.0314172506332397,-0.7460452914237976,-1.8130266666412354,-0.07384829223155975,-0.8946737051010132,-0.440574049949646,-0.27167177200317383,0.4541371464729309,0.23763227462768555
1.1202139639779483,-0.1403391503180507,0.8487155077756017,0.9327283501625061,-0.828081488609314,-1.8167508840560913,-0.06091585382819176,-0.9001936316490173,-0.4312083423137665,-0.26031219959259033,0.46750015020370483,0.25049862265586853
1.1313939850712555,-0.11380188616245761,0.8097911052843325,0.8566317558288574,-0.877987265586853,-1.7739757299423218,-0.04830676317214966,-0.9050060510635376,-0.4226471781730652,-0.22856399416923523,0.4977641701698303,0.24389058351516724
1.1414058428719736,-0.08695034007878578,0.7704390570755553,0.7963454723358154,-0.8826311826705933,-1.7094064950942993,-0.03615328297019005,-0.9092196822166443,-0.41474393010139465,-0.19341523945331573,0.5266207456588745,0.22226965427398682
1.1503225544125177,-0.059813711253477495,0.7310244608608507,0.7376105189323425,-0.8633283376693726,-1.6535230875015259,-0.02440098114311695,-0.912895679473877,-0.407463014125824,-0.15981841087341309,0.5437702536582947,0.20121005177497864
1.1581189658046187,-0.032340394778813855,0.6916221431554647,0.6682065725326538,-0.8435508608818054,-1.5923429727554321,-0.012968294322490692,-0.9160503149032593,-0.40085387229919434,-0.1421983689069748,0.5503732562065125,0.1960199475288391
1.1648117443536798,-0.0053572456598789675,0.6528010137663234,0.6099140048027039,-0.8913636803627014,-1.506953239440918,-0.0021156936418265104,-0.9187139868736267,-0.39491814374923706,-0.12314373254776001,0.5671513080596924,0.21063780784606934
1.1705921909565469,0.01939475139273064,0.6153634387991289,0.5641701221466064,-1.0527433156967163,-1.4129118919372559,0.007555847056210041,-0.9209814667701721,-0.3895331919193268,-0.09269991517066956,0.5963048934936523,0.22946864366531372
1.1756255148008008,0.040638625494862864,0.5797287836659952,0.5224506855010986,-1.2633576393127441,-1.3070653676986694,0.01564018987119198,-0.9229308366775513,-0.38464832305908203,-0.06587216258049011,0.6089048385620117,0.2509661316871643
1.1800754997912932,0.05791473210872648,0.5462963899802725,0.49400490522384644,-1.4401403665542603,-1.2035235166549683,0.02204478159546852,-0.9246347546577454,-0.3802163600921631,-0.05436292290687561,0.6076487302780151,0.26170146465301514
1.1842242444254838,0.07218385833040314,0.5145975424285171,0.4895015060901642,-1.5562632083892822,-1.1352334022521973,0.02719082124531269,-0.9262068867683411,-0.3760339021682739,-0.06474272906780243,0.6143477559089661,0.24757027626037598
1.188192029353967,0.08449107774281159,0.48398652493609384,0.47476866841316223,-1.6376934051513672,-1.0875004529953003,0.031506218016147614,-0.9276955127716064,-0.37200629711151123,-0.0779082179069519,0.6159887909889221,0.22787180542945862
1.1917445865414724,0.09550093186183023,0.45424922182191435,0.4242919385433197,-1.660485029220581,-1.0455775260925293,0.03528544306755066,-0.9290159344673157,-0.3683535158634186,-0.08341167867183685,0.5943143963813782,0.22562292218208313
1.1946116513090947,0.10590229069797716,0.42519292907992673,0.3559362292289734,-1.646894931793213,-1.0205365419387817,0.03883315250277519,-0.930073082447052,-0.36531662940979004,-0.09173539280891418,0.573764979839325,0.2357238531112671
1.1966592930891673,0.11557435765096573,0.3971055528954829,0.2751031517982483,-1.6384550333023071,-0.9666237831115723,0.04214492440223694,-0.9308233857154846,-0.363031268119812,-0.09254471957683563,0.5752019882202148,0.24935343861579895
1.197933696225233,0.12279394004202357,0.371440728277712,0.19893454015254974,-1.6967291831970215,-0.8495010137557983,0.04461942985653877,-0.9312883615493774,-0.36154016852378845,-0.06991852819919586,0.5796189308166504,0.2586807608604431
1.198622147781258,0.12568237971098692,0.3494856466264113,0.1388576179742813,-1.8058090209960938,-0.7162361741065979,0.04558313637971878,-0.9315389394760132,-0.360773503780365,-0.04416409134864807,0.5815479755401611,0.27625513076782227
1.19904223458969,0.12409911336100157,0.3310610517090678,0.11599180847406387,-1.9337126016616821,-0.6028926968574524,0.044963423162698746,-0.931691586971283,-0.36045676469802856,-0.040889352560043335,0.5853322744369507,0.2887863516807556
1.1995461677236607,0.11886846974099331,0.3151474291763881,0.12491872906684875,-2.072186231613159,-0.539424479007721,0.04302172362804413,-0.9318745136260986,-0.36022087931632996,-0.06659656763076782,0.5916797518730164,0.2803259491920471
1.2003358125696018,0.11153739643555198,0.29990857676513477,0.1582317352294922,-2.214174270629883,-0.5458472371101379,0.04029788076877594,-0.9321607351303101,-0.35979533195495605,-0.10256901383399963,0.5995494723320007,0.26807478070259094
1.2015124006149505,0.10310281254143805,0.2843734474474536,0.18609319627285004,-2.358928680419922,-0.5428349375724792,0.03714887052774429,-0.9325860738754272,-0.3590313792228699,-0.13309615850448608,0.5892325639724731,0.26723459362983704
1.2029234044807153,0.09273390299648333,0.26911955875104265,0.18223531544208527,-2.541581869125366,-0.5297154784202576,0.03330225497484207,-0.9330944418907166,-0.3580862581729889,-0.11804959177970886,0.5975383520126343,0.28400492668151855
1.2040925827242448,0.08006114276057617,0.2545310917258084,0.1223251223564148,-2.6905126571655273,-0.49094918370246887,0.02867448329925537,-0.9335142374038696,-0.35739174485206604,-0.09753741323947906,0.6166044473648071,0.2995305359363556
1.2045263263112165,0.06409135552816712,0.24220375879315348,0.019671481102705002,-2.777527093887329,-0.37185919284820557,0.022937685251235962,-0.9336696863174438,-0.3574002981185913,-0.06171027943491936,0.6378780007362366,0.30584096908569336
1.2037921993859138,0.04349691230433004,0.23439380785122702,-0.147617369890213,-2.7704780101776123,-0.1888345181941986,0.015602687373757362,-0.9334065318107605,-0.35848167538642883,-0.015648478642106056,0.6639208793640137,0.2916634976863861
1.2010508100759725,0.01766633959215648,0.2325355870223209,-0.40400397777557373,-2.7189886569976807,0.04549542814493179,0.006383898667991161,-0.9324193596839905,-0.3613218665122986,0.0006198729388415813,0.6749730110168457,0.27636101841926575
1.195579388222093,-0.014006267562819669,0.23760912319769967,-0.6851983666419983,-2.649657964706421,0.32411080598831177,-0.005132769700139761,-0.930428147315979,-0.3664383888244629,0.007909856736660004,0.6912466287612915,0.29228076338768005
1.1874781805118895,-0.0511723811356911,0.24919604318096708,-0.8858768343925476,-2.634615421295166,0.5712920427322388,-0.01913011632859707,-0.9274287819862366,-0.3735103905200958,0.013469094410538673,0.721221387386322,0.273809552192688
1.1775915473204348,-0.09248995966766854,0.26436774052997747,-0.9857704043388367,-2.8334689140319824,0.6963479518890381,-0.0353870764374733,-0.9236859083175659,-0.38151291012763977,-0.006452526897192001,0.7211713194847107,0.2134677767753601
1.1666674170497213,-0.13670280236112803,0.2796678313213085,-1.0415928363800049,-3.170353651046753,0.7181135416030884,-0.053586725145578384,-0.919445276260376,-0.38954949378967285,-0.056993722915649414,0.6655237674713135,0.1699451208114624
1.154924637211546,-0.18231419928556977,0.2932431783757351,-1.0991312265396118,-3.424765110015869,0.7186235785484314,-0.07324530184268951,-0.9147645235061646,-0.39729201793670654,-0.10506890714168549,0.603347897529602,0.11883425712585449
1.1422920701078862,-0.22847935207073455,0.3052627094762044,-1.1653997898101807,-3.580105781555176,0.7650284767150879,-0.0941118597984314,-0.9095882773399353,-0.4047127068042755,-0.1348462849855423,0.5694544911384583,0.03903597593307495
1.1286272123259746,-0.27545700602256995,0.3170861901555919,-1.2248599529266357,-3.6361536979675293,0.8821502923965454,-0.1163833737373352,-0.9038256406784058,-0.41176944971084595,-0.1483718901872635,0.5634478330612183,-0.046757012605667114
1.1136784099426384,-0.32258543984440435,0.32937790167476294,-1.3197693824768066,-3.5206217765808105,1.0138144493103027,-0.13992106914520264,-0.89732825756073,-0.418597936630249,-0.15791524946689606,0.5601547360420227,-0.1477624773979187
1.096864387653583,-0.36707397927039426,0.3413403764941053,-1.48444402217865,-3.2078819274902344,1.1239519119262695,-0.16379135847091675,-0.8897807002067566,-0.4259845018386841,-0.20193129777908325,0.5373331308364868,-0.24383050203323364
1.077701333909783,-0.407031290048872,0.35148748415291575,-1.7023574113845825,-2.9931650161743164,1.1804680824279785,-0.18739399313926697,-0.8808720707893372,-0.4346817135810852,-0.23940961062908173,0.5004397034645081,-0.2686110734939575
1.056327840428987,-0.44284705323159906,0.3583990750969261,-1.8966342210769653,-2.9525704383850098,1.1758754253387451,-0.21085968613624573,-0.8705543875694275,-0.4446047246456146,-0.2643447816371918,0.4643806219100952,-0.2449703812599182
1.0336136008331076,-0.4756684598285065,0.3619401466894182,-1.9908212423324585,-2.985260248184204,1.1481167078018188,-0.23433232307434082,-0.8591537475585938,-0.4549102783203125,-0.2904632091522217,0.4180830717086792,-0.2825469374656677
1.0105543727155626,-0.507005368295155,0.36308735641135415,-2.0018556118011475,-3.066906452178955,1.1278092861175537,-0.2580231726169586,-0.8471265435218811,-0.4645436406135559,-0.2913847863674164,0.36714601516723633,-0.3641306161880493
0.9875484425257209,-0.5376594229489257,0.36238591849304913,-2.016594886779785,-3.1600265502929688,1.085262417793274,-0.28204768896102905,-0.8346783518791199,-0.47303396463394165,-0.28023865818977356,0.3325268030166626,-0.4171789586544037
0.9645716074460269,-0.5665087651447981,0.3587746248344758,-2.105475664138794,-3.1606783866882324,0.9630680680274963,-0.3057890832424164,-0.8218048810958862,-0.4807596504688263,-0.3129853308200836,0.29557496309280396,-0.42559707164764404
0.9414211416557091,-0.5908398143158949,0.3508056448946611,-2.273792266845703,-2.963251829147339,0.7913484573364258,-0.327906996011734,-0.8083954453468323,-0.4888496696949005,-0.3944746255874634,0.23745715618133545,-0.4253348708152771
0.9175063583513791,-0.6085763274075,0.3379960366702071,-2.52521014213562,-2.599534749984741,0.648983895778656,-0.3474805951118469,-0.7940884232521057,-0.49867919087409973,-0.44139882922172546,0.19617271423339844,-0.4276055097579956
0.8920919274063048,-0.6191881957580401,0.3208238299776253,-2.8482155799865723,-2.2156906127929688,0.5530232191085815,-0.3643503189086914,-0.7783867120742798,-0.5112367272377014,-0.4447469413280487,0.19333416223526,-0.41591769456863403
0.8644391255863274,-0.6239419473441883,0.3001327198059553,-3.1492865085601807,-1.9284627437591553,0.5169011950492859,-0.37921014428138733,-0.7607313394546509,-0.526770830154419,-0.42706426978111267,0.1990247368812561,-0.3642507791519165
0.8353017704829055,-0.6260202940169503,0.2775803002472139,-3.2703187465667725,-1.8958485126495361,0.47314155101776123,-0.39312830567359924,-0.7414990067481995,-0.5437180995941162,-0.38728246092796326,0.17877012491226196,-0.32983219623565674
0.8063289385978593,-0.6291155063559623,0.25474889089819797,-3.209757089614868,-2.0641045570373535,0.40148547291755676,-0.40728333592414856,-0.7217510938644409,-0.5596389174461365,-0.37886476516723633,0.16559869050979614,-0.38585662841796875
0.7787756068931558,-0.6349402319172546,0.2323160232196601,-3.072835922241211,-2.2805044651031494,0.30990591645240784,-0.4221741855144501,-0.7024084329605103,-0.5730544924736023,-0.3855498433113098,0.14161735773086548,-0.44429469108581543
0.7530834887332482,-0.6435948223741925,0.21034982121602955,-2.9203219413757324,-2.4732234477996826,0.20795051753520966,-0.43780484795570374,-0.6838916540145874,-0.583625853061676,-0.39282259345054626,0.10504943132400513,-0.4642714262008667
0.7292813323059613,-0.6542109208152196,0.18839590015046542,-2.820542573928833,-2.5810837745666504,0.08640696853399277,-0.4537549614906311,-0.6663339138031006,-0.5916972160339355,-0.4133104681968689,0.07203453779220581,-0.4702534079551697
0.706684475394329,-0.6653202912818863,0.16576156889204627,-2.837106943130493,-2.585989475250244,-0.005171949043869972,-0.46947675943374634,-0.6493158340454102,-0.5983147025108337,-0.4316462576389313,0.02898496389389038,-0.4550756812095642
0.6842147261025878,-0.6755838031469092,0.14191111298574777,-2.9478065967559814,-2.4952054023742676,-0.07108285278081894,-0.48459580540657043,-0.632064700126648,-0.6046991944313049,-0.42856642603874207,-0.0034028291702270508,-0.3919132351875305
0.6612918350667494,-0.6841078323726935,0.11647279663168957,-3.1026058197021484,-2.362485408782959,-0.1430337280035019,-0.49875980615615845,-0.6141368746757507,-0.6116163730621338,-0.44261592626571655,-0.01876729726791382,-0.34741365909576416
0.6378165201663071,-0.6906950321254943,0.08906769075315106,-3.2713963985443115,-2.262082099914551,-0.2554769515991211,-0.5118231773376465,-0.5954426527023315,-0.6192618608474731,-0.472994327545166,-0.023408114910125732,-0.31895530223846436
0.6141006856211569,-0.696069987225498,0.05951709420884611,-3.4104323387145996,-2.2802491188049316,-0.3964628577232361,-0.5240532755851746,-0.5762237310409546,-0.627163827419281,-0.5109351277351379,-0.044259727001190186,-0.3042478561401367
0.5906982287814923,-0.7016464123053318,0.028108358082416057,-3.466542959213257,-2.381920337677002,-0.5548379421234131,-0.5361014604568481,-0.5569410920143127,-0.6343594193458557,-0.5347603559494019,-0.0678148865699768,-0.2898348569869995
0.5683363078391235,-0.7081412688254531,-0.00477332197202828,-3.4833858013153076,-2.496527910232544,-0.7450686097145081,-0.548175036907196,-0.5382306575775146,-0.6401656270027161,-0.5428894758224487,-0.0830768346786499,-0.30731356143951416
0.5473107961421687,-0.7150247249571081,-0.03952933636994775,-3.5343503952026367,-2.5168628692626953,-0.9704180955886841,-0.559865415096283,-0.5203927159309387,-0.6447807550430298,-0.579752504825592,-0.10245585441589355,-0.35935431718826294
0.5274271031267027,-0.720699968537958,-0.07637131499053289,-3.599839925765991,-2.3525094985961914,-1.16985285282135,-0.570232093334198,-0.5033117532730103,-0.6492400169372559,-0.6298868656158447,-0.13395637273788452,-0.42160648107528687
0.5084213442692407,-0.7239910588144393,-0.11483608234470334,-3.6473426818847656,-2.0951995849609375,-1.3175842761993408,-0.5785982608795166,-0.48679888248443604,-0.6544089317321777,-0.6156461834907532,-0.13646173477172852,-0.48653644323349
0.48994640063841893,-0.7250150585483799,-0.15429492936834502,-3.6855554580688477,-1.8793736696243286,-1.4073230028152466,-0.585132896900177,-0.4705785810947418,-0.6604357361793518,-0.571696937084198,-0.11456552147865295,-0.5344036817550659
0.47180497591302395,-0.7248921727095977,-0.1941652641750965,-3.6894116401672363,-1.786379098892212,-1.4664313793182373,-0.5906156301498413,-0.45449480414390564,-0.6667891144752502,-0.5102602243423462,-0.10203909873962402,-0.53423011302948
0.45439094444818506,-0.7254946595695312,-0.23382742833045858,-3.596639633178711,-1.8628283739089966,-1.532727599143982,-0.5961787700653076,-0.4389151334762573,-0.6722533106803894,-0.45484668016433716,-0.09631747007369995,-0.5145752429962158
0.43864517826965294,-0.7283836315663171,-0.2728389602798906,-3.401597738265991,-2.0745041370391846,-1.6263474225997925,-0.6026445031166077,-0.42471328377723694,-0.6756021976470947,-0.4328627586364746,-0.08772271871566772,-0.5336263179779053
0.42540535900140014,-0.7343875095454133,-0.3107838735213927,-3.149657964706421,-2.2748496532440186,-1.727616786956787,-0.6104047894477844,-0.41269004344940186,-0.6760865449905396,-0.42792534828186035,-0.08073347806930542,-0.5876768827438354
0.41494526464453685,-0.742602743816272,-0.34776406904297963,-2.9305484294891357,-2.3430240154266357,-1.85039484500885,-0.6188235878944397,-0.4031398296356201,-0.6741925477981567,-0.4237788915634155,-0.07819870114326477,-0.6499345898628235
0.407094573124123,-0.7510388424498957,-0.38450462690052317,-2.7933554649353027,-2.2477338314056396,-2.0126519203186035,-0.6266295909881592,-0.3959430158138275,-0.6712411046028137,-0.4482300281524658,-0.08925604820251465,-0.6959616541862488
0.40116898822084696,-0.7580445456777876,-0.4218426086618358,-2.76819109916687,-2.0623505115509033,-2.1575570106506348,-0.6329185962677002,-0.39049479365348816,-0.6685267090797424,-0.4526374340057373,-0.11197718977928162,-0.7031162977218628
0.3962734617558775,-0.7626560152818103,-0.4600606325688231,-2.7765097618103027,-1.804199457168579,-2.25374174118042,-0.6373077630996704,-0.38598328828811646,-0.6669750809669495,-0.4325774312019348,-0.11708378791809082,-0.6813677549362183
0.39216194079634553,-0.7645346433628409,-0.4988928885029227,-2.753483772277832,-1.545896053314209,-2.3403804302215576,-0.6396527290344238,-0.3821871280670166,-0.6669163107872009,-0.40752744674682617,-0.10299664735794067,-0.6749110221862793
0.3890368841805294,-0.7641156811249359,-0.5380829593791275,-2.689931869506836,-1.3580243587493896,-2.438459873199463,-0.6401965022087097,-0.3792974352836609,-0.668043315410614,-0.3870251178741455,-0.0906122624874115,-0.6864793300628662
0.38714135884969003,-0.7624129131960231,-0.5773159602963626,-2.5803728103637695,-1.2757225036621094,-2.529667377471924,-0.6395534873008728,-0.3775428831577301,-0.6696511507034302,-0.3640627861022949,-0.08640065789222717,-0.6650198101997375
0.3866722365086592,-0.7606590528876022,-0.6161518699629521,-2.430478096008301,-1.3080856800079346,-2.593620538711548,-0.6385000944137573,-0.3771084249019623,-0.6709001064300537,-0.31776827573776245,-0.08979532122612,-0.6340773105621338
0.38768876001867725,-0.7599467074616552,-0.6542885650048862,-2.2734720706939697,-1.4235427379608154,-2.64945912361145,-0.6377575993537903,-0.37804970145225525,-0.6710765361785889,-0.2702776789665222,-0.08804532885551453,-0.6094715595245361
0.3902794093524565,-0.7606615501473369,-0.6916974717884641,-2.105074167251587,-1.5409948825836182,-2.7078535556793213,-0.6375598311424255,-0.38044682145118713,-0.6699087619781494,-0.24764829874038696,-0.08377137780189514,-0.5789163112640381
0.3946369944766041,-0.7624476322696367,-0.7283467161269589,-1.9246283769607544,-1.599192500114441,-2.7820096015930176,-0.6376042366027832,-0.38447311520576477,-0.667563796043396,-0.2392573356628418,-0.08804589509963989,-0.5917593240737915
0.4008933011571478,-0.7643920706047547,-0.7644529125834638,-1.7698010206222534,-1.564509630203247,-2.872987985610962,-0.6372237801551819,-0.39024096727371216,-0.6645734906196594,-0.24319308996200562,-0.09594988822937012,-0.6325456500053406
0.408720013181593,-0.7652686915087293,-0.8004937255047193,-1.6917484998703003,-1.4248805046081543,-2.9708194732666016,-0.6356707811355591,-0.39743509888648987,-0.6617915630340576,-0.24657714366912842,-0.09887233376502991,-0.6371433734893799
0.41742616238752417,-0.7637291304032576,-0.8371328039617182,-1.6939955949783325,-1.1947791576385498,-3.0599582195281982,-0.6322340369224548,-0.40540894865989685,-0.6602451801300049,-0.2457718849182129,-0.10220518708229065,-0.6257197260856628
0.4265910447882713,-0.7591141144657075,-0.8747662557929226,-1.6996411085128784,-0.9595856666564941,-3.1544878482818604,-0.6265965700149536,-0.41376975178718567,-0.6604326963424683,-0.2413233518600464,-0.1004057228565216,-0.6065808534622192
0.4364625059250247,-0.7516820667983884,-0.9131981958747472,-1.6305224895477295,-0.7727353572845459,-3.260669231414795,-0.6188515424728394,-0.422736257314682,-0.6620550751686096,-0.23171913623809814,-0.09700867533683777,-0.6196832656860352
0.44750513485075666,-0.7422654306434766,-0.9521320720225386,-1.5180184841156006,-0.68610018491745,-3.3848845958709717,-0.6093971133232117,-0.4327176809310913,-0.6643723845481873,-0.21727830171585083,-0.10640588402748108,-0.6520033478736877
0.45994697606110724,-0.731662716863702,-0.9915949610278623,-1.3948044776916504,-0.647616982460022,-3.5142295360565186,-0.5986753106117249,-0.44390058517456055,-0.6667384505271912,-0.21016252040863037,-0.10816243290901184,-0.6526890397071838
0.47377629506991015,-0.7198938334508168,-1.0314091161694807,-1.2436972856521606,-0.576324462890625,-3.6103391647338867,-0.5866835713386536,-0.456249862909317,-0.6690579056739807,-0.17338722944259644,-0.08662736415863037,-0.6525057554244995
0.48884930302066376,-0.7067906103282363,-1.0711710392119385,-1.0837273597717285,-0.47499382495880127,-3.661491870880127,-0.5733352303504944,-0.4696102738380432,-0.671381413936615,-0.10862582921981812,-0.05678749084472656,-0.6774497628211975
0.5047140755368996,-0.6921760345293564,-1.1105423083914208,-0.9414013624191284,-0.3506163954734802,-3.6465818881988525,-0.5586367845535278,-0.48355719447135925,-0.6738674640655518,-0.03171044588088989,-0.027215570211410522,-0.6852481365203857
0.5209238803159847,-0.6761287237153017,-1.1491870777192141,-0.7998396754264832,-0.2303251326084137,-3.59140944480896,-0.5427747964859009,-0.4976816773414612,-0.6765416264533997,0.032505691051483154,0.0038766860961914062,-0.6746241450309753
0.5373208478492519,-0.6588555040737416,-1.1870135195173743,-0.6619918942451477,-0.1369333267211914,-3.5443904399871826,-0.5259412527084351,-0.5118362307548523,-0.6792713403701782,0.055955350399017334,0.04268944263458252,-0.6577800512313843
0.5540535623932572,-0.6407895910398217,-1.2242341120726108,-0.5246923565864563,-0.11860784143209457,-3.52917218208313,-0.5083927512168884,-0.5261386632919312,-0.6817001104354858,0.07016032934188843,0.05050688982009888,-0.6469894647598267
0.5713332003173182,-0.6220010184877995,-1.2613841340242462,-0.3930026590824127,-0.06818193942308426,-3.563112497329712,-0.49012458324432373,-0.5407540202140808,-0.6836395859718323,0.064175546169281,0.038388848304748535,-0.664794921875
0.5892242518118388,-0.6014487064922047,-1.298792747341524,-0.2726472020149231,0.0797012597322464,-3.5849123001098633,-0.47042152285575867,-0.5557162761688232,-0.6854801774024963,0.052895307540893555,0.06389492750167847,-0.6921748518943787
0.6073571066650103,-0.578722808802202,-1.3363571360928896,-0.1671263873577118,0.23373159766197205,-3.556257486343384,-0.44913727045059204,-0.5706992149353027,-0.687443196773529,0.07471713423728943,0.11331695318222046,-0.7160754799842834
0.6252283134806446,-0.5541859438125891,-1.3733672150336387,-0.058268338441848755,0.3895571529865265,-3.4224321842193604,-0.42670005559921265,-0.5852823853492737,-0.689471960067749,0.12929102778434753,0.17475992441177368,-0.7284204959869385
0.6424594966467604,-0.5285202161472731,-1.4089427304864024,0.058900658041238785,0.5201088190078735,-3.245018482208252,-0.4037197530269623,-0.5991663932800293,-0.6913827061653137,0.20866668224334717,0.2296595573425293,-0.7260672450065613
0.6592651260704206,-0.5023134015773145,-1.442797871150648,0.21294668316841125,0.6117591261863708,-3.078045606613159,-0.38056209683418274,-0.6125361323356628,-0.6928001046180725,0.2602923512458801,0.25378668308258057,-0.7215370535850525
0.6760805309989233,-0.4760181360454383,-1.4747646923684279,0.3974946439266205,0.683133065700531,-2.907787799835205,-0.3574444055557251,-0.6257405281066895,-0.6933126449584961,0.2726971209049225,0.2822651267051697,-0.7357645034790039
0.6932217549581368,-0.45031343438649263,-1.5043799438707255,0.6199625730514526,0.7024609446525574,-2.7054636478424072,-0.3347887694835663,-0.6390186548233032,-0.6925111413002014,0.28910398483276367,0.32348209619522095,-0.7494902014732361
0.7111372866386074,-0.4261495477825566,-1.531053307847396,0.8956591486930847,0.6760737299919128,-2.485373020172119,-0.3131757378578186,-0.6526958346366882,-0.6898616552352905,0.3239942789077759,0.34245413541793823,-0.7662082314491272
0.7303351959447273,-0.4040466977827921,-1.5544384130224451,1.1994012594223022,0.6600979566574097,-2.2632710933685303,-0.29287174344062805,-0.6671193838119507,-0.6849655508995056,0.3496192395687103,0.3476308584213257,-0.7985090613365173
0.7511739561651963,-0.3837398773166967,-1.5745728125820533,1.497493028640747,0.6818317174911499,-2.067657470703125,-0.27363795042037964,-0.6824972629547119,-0.6777313947677612,0.353594034910202,0.36345118284225464,-0.8218566179275513
0.7736200938365926,-0.36471682278507267,-1.591923409033947,1.740919589996338,0.7267999649047852,-1.9023351669311523,-0.25516727566719055,-0.6987295746803284,-0.6683312654495239,0.34195929765701294,0.3773183822631836,-0.8103369474411011
0.7970949429656102,-0.34614488296928453,-1.6074050995117175,1.8719338178634644,0.7967463731765747,-1.775570034980774,-0.2370804101228714,-0.715329110622406,-0.657340943813324,0.32463538646698,0.3873109221458435,-0.7549362182617188
0.8207194590857039,-0.3270403461808539,-1.6219164611826182,1.9000253677368164,0.9327995181083679,-1.6623401641845703,-0.218988835811615,-0.7316364645957947,-0.6455633044242859,0.30205774307250977,0.3978657126426697,-0.6843774914741516
0.8437039462622427,-0.3062352500077207,-1.635926853225539,1.8617994785308838,1.1543339490890503,-1.5529835224151611,-0.20038793981075287,-0.7471102476119995,-0.6337751150131226,0.28142744302749634,0.4136141538619995,-0.6350694298744202
0.8657011026201121,-0.28299961414394126,-1.6498091637385128,1.8074440956115723,1.386519432067871,-1.4607161283493042,-0.18097542226314545,-0.7615498304367065,-0.622326135635376,0.25842908024787903,0.42530715465545654,-0.6080663204193115
0.8867773085233529,-0.25725069486150753,-1.6638305790718657,1.7663593292236328,1.5972013473510742,-1.387313961982727,-0.16077303886413574,-0.7750393152236938,-0.6111188530921936,0.23711279034614563,0.4301448464393616,-0.5857958197593689
0.9071831060722569,-0.22917011723729844,-1.678166293503493,1.7570477724075317,1.7554117441177368,-1.3240463733673096,-0.1399289220571518,-0.7877717614173889,-0.5998629331588745,0.22003762423992157,0.4387574791908264,-0.5642300248146057
0.9272553206784169,-0.1995627802300435,-1.6928165383939875,1.7775304317474365,1.817680835723877,-1.2572007179260254,-0.11895082890987396,-0.7999760508537292,-0.5881233811378479,0.21746161580085754,0.45044296979904175,-0.5393485426902771
0.9472523515832442,-0.16938741373967112,-1.7074210616516365,1.8250625133514404,1.8528409004211426,-1.1655086278915405,-0.09843571484088898,-0.8118141889572144,-0.5755590796470642,0.23520028591156006,0.4624336361885071,-0.5193809866905212
0.9673729108503785,-0.13886929295805986,-1.721766277367046,1.8826618194580078,1.8853596448898315,-1.0796830654144287,-0.07855037599802017,-0.8233977556228638,-0.5620017647743225,0.24976930022239685,0.48468315601348877,-0.5019325613975525
0.9875593126612683,-0.10810163713938756,-1.7361090254480427,1.907530426979065,1.8756803274154663,-1.004964828491211,-0.05941879004240036,-0.8346843123435974,-0.5475139617919922,0.24905505776405334,0.5103739500045776,-0.4677143096923828
1.007424648467287,-0.07692513930841799,-1.7505941193794137,1.8853622674942017,1.925773024559021,-0.9199240803718567,-0.04104059189558029,-0.8454592823982239,-0.532460629940033,0.24018311500549316,0.5243380665779114,-0.43796777725219727
1.0266811260399362,-0.044698568515757764,-1.765026122660532,1.853492021560669,2.056532621383667,-0.8267227411270142,-0.02313102036714554,-0.8555856347084045,-0.5171443819999695,0.22923153638839722,0.5387673377990723,-0.42047762870788574
1.0453043711908754,-0.010970740097359934,-1.7794109057691634,1.8169184923171997,2.1954147815704346,-0.738504946231842,-0.005503237247467041,-0.8650772571563721,-0.5016084909439087,0.20838415622711182,0.5678360462188721,-0.4112790822982788
1.0633151037840598,0.0242824120527898,-1.7938887300687025,1.7873384952545166,2.3202261924743652,-0.6634458899497986,0.01179954782128334,-0.8739713430404663,-0.4858342707157135,0.18708357214927673,0.5892117619514465,-0.3876550793647766
1.0807898256756014,0.06116400694607782,-1.8086416234584215,1.748765468597412,2.449418544769287,-0.5976547598838806,0.028767775744199753,-0.8823298215866089,-0.46975165605545044,0.16929134726524353,0.6004236340522766,-0.35643547773361206
1.0974796978917434,0.09994078546287745,-1.823909569302815,1.672573208808899,2.58771014213562,-0.5392191410064697,0.04548129066824913,-0.8900613188743591,-0.45356622338294983,0.14854952692985535,0.6129922270774841,-0.3199627995491028
1.1129729861643693,0.14058266496738717,-1.8393864065409757,1.5572130680084229,2.756347179412842,-0.46126624941825867,0.06193260848522186,-0.897016704082489,-0.43763625621795654,0.1293058693408966,0.6270276308059692,-0.26893723011016846
1.1271213803366984,0.18245219812036745,-1.854431964817566,1.4359019994735718,2.8766520023345947,-0.37402695417404175,0.0778859481215477,-0.9031802415847778,-0.4221367835998535,0.12855026125907898,0.6395693421363831,-0.21554327011108398
1.1399997712834464,0.2245920732609596,-1.8688582548114927,1.3255839347839355,2.9102511405944824,-0.30531394481658936,0.09300196170806885,-0.9086334109306335,-0.40710678696632385,0.12353556603193283,0.6532317996025085,-0.1741766631603241
1.151756900460124,0.26657156610693317,-1.8828421065003738,1.2283567190170288,2.9184420108795166,-0.24004092812538147,0.10718350112438202,-0.9134802222251892,-0.39251208305358887,0.10744670033454895,0.6664403676986694,-0.14215588569641113
1.16256395417776,0.30814758511556417,-1.8961126079291306,1.1410340070724487,2.9550483226776123,-0.16891629993915558,0.1204039677977562,-0.9178239703178406,-0.3782883286476135,0.09701859205961227,0.6818620562553406,-0.1270521581172943
1.1725561489707859,0.349234163357876,-1.9082373685691048,1.048209547996521,3.0092687606811523,-0.08446932584047318,0.1326957494020462,-0.9217448830604553,-0.36438772082328796,0.09145593643188477,0.7033305168151855,-0.13263678550720215
1.1816516588531998,0.38903087336213904,-1.918536096146608,0.9243627786636353,3.0280916690826416,0.004924481734633446,0.14390237629413605,-0.9252339005470276,-0.3510477542877197,0.08366727828979492,0.7221851348876953,-0.1276509165763855
1.1898262165605709,0.42696861918631,-1.9263410412293636,0.8012741208076477,3.1061172485351562,0.10591527819633484,0.15397627651691437,-0.9283043742179871,-0.33844128251075745,0.0712587833404541,0.7354027032852173,-0.11692667007446289
1.1971319010974253,0.46312956636248903,-1.931002846331807,0.6576595902442932,3.237718343734741,0.2141777127981186,0.16307708621025085,-0.9309960007667542,-0.32657700777053833,0.07000097632408142,0.7420768737792969,-0.1162329912185669
1.2035731729047774,0.4968081947820065,-1.931780446988237,0.507933497428894,3.3252851963043213,0.3268720209598541,0.17111942172050476,-0.9333279132843018,-0.3156222403049469,0.0678333044052124,0.7516108751296997,-0.10040855407714844
1.2091733660630377,0.5271527731291726,-1.9282581394800022,0.3372049927711487,3.3789522647857666,0.43736955523490906,0.17798416316509247,-0.9353238344192505,-0.3057628571987152,0.06350149214267731,0.7437040209770203,-0.06734499335289001
1.21376812987655,0.5533511133545042,-1.9195172031457852,0.12951599061489105,3.483220100402832,0.5679701566696167,0.18367215991020203,-0.9369395971298218,-0.297336220741272,0.05355632305145264,0.7312663197517395,-0.03341329097747803
1.2174796691220924,0.5741452621718487,-1.90388691124124,-0.08195998519659042,3.573972463607788,0.7518259286880493,0.1879248470067978,-0.9382302761077881,-0.2905309498310089,0.0592217892408371,0.7465035319328308,0.011508792638778687
1.2206574076714636,0.5878295750138691,-1.8803284619683396,-0.27242687344551086,3.547602415084839,0.9462680816650391,0.1902284473180771,-0.9393250942230225,-0.28544968366622925,0.083468496799469,0.75852370262146,0.05168512463569641
1.2235383239395863,0.5939674627468526,-1.8494729476420542,-0.41539573669433594,3.4525060653686523,1.1109403371810913,0.1904619336128235,-0.9403094053268433,-0.2820333242416382,0.08425739407539368,0.7470108866691589,0.06671664118766785
1.2262265290423455,0.5939057875026855,-1.8130994988582194,-0.5112852454185486,3.3647634983062744,1.2173980474472046,0.1890290379524231,-0.9412208795547485,-0.27994874119758606,0.048199430108070374,0.7325111627578735,0.04679456353187561
1.228745387782074,0.5899217401466269,-1.7730185019373113,-0.5653958916664124,3.3736281394958496,1.2920981645584106,0.1865929216146469,-0.9420686960220337,-0.2787289023399353,-0.01680828630924225,0.7252259254455566,-0.00708344578742981
1.2311887884259347,0.5837051800759068,-1.7302889686056928,-0.605633556842804,3.413835048675537,1.3500009775161743,0.18358749151229858,-0.9428854584693909,-0.27796199917793274,-0.07460916042327881,0.7140188217163086,-0.0616070032119751
1.2335954175947266,0.57501228233457,-1.6846533210943575,-0.6473089456558228,3.428114652633667,1.4454752206802368,0.17992953956127167,-0.943684458732605,-0.27764207124710083,-0.09292387962341309,0.6983688473701477,-0.0710364580154419
1.236028726796419,0.5628279670959246,-1.6354955353523797,-0.6846643090248108,3.3862152099609375,1.5367417335510254,0.17530755698680878,-0.944486677646637,-0.2778707444667816,-0.08552481234073639,0.6749706864356995,-0.06053861975669861
1.238351476895486,0.5470337636066603,-1.5832789749254073,-0.7162722945213318,3.293266534805298,1.6015264987945557,0.16975560784339905,-0.9452472925186157,-0.27873048186302185,-0.09333953261375427,0.6513782143592834,-0.04783809185028076
1.2403376095619496,0.5274664009523706,-1.5282734000727023,-0.7716037631034851,3.173444986343384,1.6666280031204224,0.16332407295703888,-0.9458935856819153,-0.2803756892681122,-0.1141754537820816,0.6244367361068726,-0.03485557436943054
1.2417163885005909,0.5037097921815626,-1.470118855832108,-0.8399630188941956,3.060631036758423,1.7359106540679932,0.15598835051059723,-0.9463400840759277,-0.2830340564250946,-0.11352306604385376,0.5934500098228455,-0.020188510417938232
1.2423799831976141,0.47580232694002056,-1.4086997334880298,-0.8997294306755066,2.9696972370147705,1.8185935020446777,0.14774227142333984,-0.9465543031692505,-0.28671836853027344,-0.10805410146713257,0.5736294388771057,-0.015252947807312012
1.2423779693595116,0.4439767403788303,-1.3439711412381163,-0.9511216282844543,2.906562566757202,1.9088813066482544,0.13854476809501648,-0.9465537071228027,-0.2912759482860565,-0.1005045473575592,0.5680745840072632,-0.027998805046081543
1.2413866011997807,0.4091576860509937,-1.27650003824306,-1.0239156484603882,2.881692886352539,1.9608933925628662,0.128694087266922,-0.9462334513664246,-0.29678308963775635,-0.10160970687866211,0.5527397394180298,-0.04748564958572388
1.2391358898958138,0.372918703260713,-1.2075980446752128,-1.0883756875991821,2.8822247982025146,1.9937560558319092,0.11863239854574203,-0.9455029964447021,-0.3032333552837372,-0.12354569137096405,0.5409467220306396,-0.05428001284599304
1.2355248982820717,0.33612348047370977,-1.1380662394516776,-1.1649562120437622,2.882772922515869,2.0154855251312256,0.10852255672216415,-0.9443210363388062,-0.31061357259750366,-0.14132890105247498,0.5354312062263489,-0.06899452209472656
1.2302046340795587,0.2996438295132891,-1.0685991260068335,-1.275805115699768,2.901796340942383,2.028975486755371,0.09860336035490036,-0.942557156085968,-0.31916046142578125,-0.16066080331802368,0.5133121013641357,-0.0777510404586792
1.222853059008998,0.26419655782073287,-1.0000018059997415,-1.4053738117218018,2.8754069805145264,2.051913261413574,0.08903760462999344,-0.9400759935379028,-0.32913488149642944,-0.16441595554351807,0.485379159450531,-0.062314003705978394
1.2136823042972134,0.22855824688611168,-0.9316573606740821,-1.5022374391555786,2.7936482429504395,2.083458423614502,0.0792037695646286,-0.936909556388855,-0.34048113226890564,-0.15680992603302002,0.4649856686592102,-0.0454440712928772
1.2031300547066894,0.19371294354111465,-0.8650590889395302,-1.5316659212112427,2.6631038188934326,2.0830020904541016,0.0691932961344719,-0.9331687092781067,-0.3527159094810486,-0.16539990901947021,0.4331381320953369,-0.057699620723724365
1.1917920962073543,0.16072638993387056,-0.8016968284865365,-1.4985476732254028,2.5193960666656494,2.0571553707122803,0.05921231582760811,-0.9290335178375244,-0.3652266263961792,-0.19223839044570923,0.4015067219734192,-0.09139254689216614
1.1801462425043345,0.130280155590084,-0.7422520883615726,-1.4460841417312622,2.399390935897827,2.0086777210235596,0.04946912080049515,-0.9246616959571838,-0.3775627017021179,-0.21267706155776978,0.38860517740249634,-0.12338325381278992
1.1680856358978933,0.10297989639693282,-0.6868751505447386,-1.4493098258972168,2.3520140647888184,1.952186942100525,0.04028793051838875,-0.9200020432472229,-0.389837384223938,-0.23308271169662476,0.3740119934082031,-0.13691121339797974
1.1549332142712039,0.07923571959603544,-0.6349828293578077,-1.5496113300323486,2.414215564727783,1.9133604764938354,0.03197614848613739,-0.9147679805755615,-0.402712345123291,-0.2381376326084137,0.35324448347091675,-0.11045587062835693
1.139796839557065,0.05934261956444032,-0.58606802004938,-1.7514597177505493,2.508357524871826,1.8773084878921509,0.024777553975582123,-0.9085486531257629,-0.41704365611076355,-0.22451508045196533,0.34618592262268066,-0.0628603994846344
1.1218312231327834,0.043047562047744715,-0.5400046825211948,-2.0293445587158203,2.540675401687622,1.8503917455673218,0.01867830939590931,-0.9008967876434326,-0.4336313009262085,-0.22574004530906677,0.3477199077606201,-0.008110523223876953
1.1007244003523642,0.029283951306924502,-0.4963643264779614,-2.3073196411132812,2.5056979656219482,1.8527405261993408,0.013262285850942135,-0.8915356993675232,-0.4527563452720642,-0.21989679336547852,0.3252514600753784,0.03068310022354126
1.0770890444079033,0.017537638316297562,-0.4552001053503453,-2.4733834266662598,2.4197099208831787,1.8347511291503906,0.008310551755130291,-0.8805820345878601,-0.47382089495658875,-0.21848508715629578,0.29966461658477783,0.016133606433868408
1.0523412449512561,0.007881735954597664,-0.41721499526595446,-2.484931707382202,2.270279884338379,1.7688323259353638,0.0039056651294231415,-0.8685857653617859,-0.4955233633518219,-0.25100648403167725,0.2882787585258484,-0.06505391001701355
1.028002887724675,4.010418689434604e-05,-0.3827351746115061,-2.370013475418091,2.0928871631622314,1.6961435079574585,2.0715020582429133e-05,-0.856269121170044,-0.5165300965309143,-0.28862541913986206,0.26677626371383667,-0.16738402843475342
1.0049220387673716,-0.006604190304614579,-0.3510607137672243,-2.223747730255127,1.9541698694229126,1.6420948505401611,-0.003540837438777089,-0.8441201448440552,-0.5361422896385193,-0.29676735401153564,0.23839199542999268,-0.25739091634750366
0.9829397357706356,-0.011950571252709796,-0.32178926457910767,-2.1398725509643555,1.8773819208145142,1.5811841487884521,-0.006627374794334173,-0.8321312665939331,-0.5545390844345093,-0.2986399531364441,0.22470933198928833,-0.29125547409057617
0.9612217212341955,-0.015902062924405776,-0.2945221949548256,-2.1581199169158936,1.8238251209259033,1.5516613721847534,-0.009103846736252308,-0.819891631603241,-0.5724464654922485,-0.3048152029514313,0.2064119577407837,-0.2615531086921692
0.9387921138052003,-0.01931087893222656,-0.2681712705200824,-2.2638797760009766,1.7662001848220825,1.5923289060592651,-0.011407445184886456,-0.8068451285362244,-0.5906529426574707,-0.2934326231479645,0.18317252397537231,-0.20809876918792725
0.9150490969024042,-0.02301562779663591,-0.24180527817980735,-2.398409128189087,1.6991900205612183,1.6616541147232056,-0.014032579958438873,-0.7925925254821777,-0.6095902323722839,-0.26764464378356934,0.16765350103378296,-0.1796095371246338
0.8900187771391875,-0.026787556110354296,-0.21546166900700503,-2.5004281997680664,1.6728551387786865,1.7154332399368286,-0.01685800589621067,-0.7770835757255554,-0.6291717290878296,-0.254275381565094,0.14280611276626587,-0.19417721033096313
0.8642579353351263,-0.03002608741784102,-0.1895388609461035,-2.5287182331085205,1.651694655418396,1.7251683473587036,-0.01949014700949192,-0.760613739490509,-0.6489120721817017,-0.26296526193618774,0.11942410469055176,-0.2437880039215088
0.8386280240891373,-0.0319557730039583,-0.16508552171787433,-2.455620288848877,1.6303017139434814,1.63233482837677,-0.02135828509926796,-0.7437266707420349,-0.6681426167488098,-0.30737704038619995,0.09174901247024536,-0.3160034418106079
0.8146777945520813,-0.0322015592534619,-0.14284988814254374,-2.2014312744140625,1.569231390953064,1.5086064338684082,-0.022089766338467598,-0.727504551410675,-0.6857472062110901,-0.36606329679489136,0.05120444297790527,-0.40842998027801514
0.7911223322043085,-0.03015834317685814,-0.12403774103453341,-2.446779489517212,1.6194919347763062,1.2678985595703125,-0.021199537441134453,-0.7111427783966064,-0.7027279138565063,-0.3921915590763092,0.03388136625289917,-0.5015566945075989
0.7646161460656016,-0.023302993089697053,-0.10731579323026667,-2.7348790168762207,2.0682568550109863,1.268536925315857,-0.01681504026055336,-0.6922600269317627,-0.7214522361755371,-0.45144665241241455,-0.05833512544631958,-0.33212125301361084
0.7368621405761403,-0.013265952171532995,-0.09104305634889331,-2.74108624458313,2.0816597938537598,1.2027078866958618,-0.009824221022427082,-0.6719673871994019,-0.7405155897140503,-0.3553186058998108,-0.0971519947052002,-0.32819467782974243
0.7102642340094838,-0.0037153016918590816,-0.07492181386289978,-2.5000722408294678,1.9391967058181763,1.2713971138000488,-0.0028168968856334686,-0.6520341038703918,-0.7581844329833984,-0.31262803077697754,-0.05797266960144043,-0.4540347456932068
0.68722035007467,0.003011696697792355,-0.05748042619544282,-2.0751261711120605,1.6111130714416504,1.3911983966827393,0.0023280754685401917,-0.6343909502029419,-0.7730089426040649,-0.2389461100101471,-0.07352542877197266,-0.5192883610725403
0.6687075232462389,0.005395811434564769,-0.038889229695393324,-1.6519049406051636,1.184913992881775,1.4735172986984253,0.004233660642057657,-0.6199724078178406,-0.784612238407135,-0.16883021593093872,-0.057701051235198975,-0.5639442205429077
0.6534156429440053,0.003854867347071252,-0.019682540909651824,-1.436977505683899,0.8802886605262756,1.5306588411331177,0.00306080374866724,-0.6079019904136658,-0.7940061688423157,-0.17777393758296967,-0.061089158058166504,-0.5271454453468323
0.639421166543238,0.00041524760727244364,-0.0002739052771158006,-1.3783384561538696,0.7806057929992676,1.5475493669509888,0.00033321185037493706,-0.5967310667037964,-0.8024412989616394,-0.20588436722755432,-0.11016291379928589,-0.4380371570587158
0.6254789812301987,-0.002668922044413435,0.018849497364340266,-1.4100748300552368,0.8732481002807617,1.5316838026046753,-0.002163646509870887,-0.5854856371879578,-0.8106799125671387,-0.2522461414337158,-0.1477755308151245,-0.40568971633911133
0.6108570257271524,-0.0034936090691948967,0.037281797686381006,-1.5087462663650513,1.0746047496795654,1.473722219467163,-0.0028618075884878635,-0.5735697150230408,-0.819151759147644,-0.31415480375289917,-0.15682274103164673,-0.4105539917945862
0.5949022649468061,-0.0015999165631846327,0.05445837731876292,-1.6737076044082642,1.2236855030059814,1.370181918144226,-0.0013250556075945497,-0.5604277849197388,-0.8282022476196289,-0.3768334984779358,-0.1781739592552185,-0.3832539916038513
0.5773334919024571,0.0032149099418137947,0.0701542104097491,-1.8319120407104492,1.4609814882278442,1.2336502075195312,0.0026938358787447214,-0.5457915663719177,-0.8379166722297668,-0.4177634119987488,-0.22761541604995728,-0.3654371500015259
0.5582406430284024,0.011009838187720817,0.08428566454054832,-1.9885733127593994,1.5856642723083496,1.1294028759002686,0.009338228031992912,-0.5296947360038757,-0.8481369614601135,-0.46118149161338806,-0.24604696035385132,-0.3582075834274292
0.537939107953345,0.01990584907163585,0.09791670243987477,-2.0800652503967285,1.5811840295791626,1.1421899795532227,0.017093347385525703,-0.5123672485351562,-0.8585963249206543,-0.44316452741622925,-0.24124914407730103,-0.3266758322715759
0.5174504399034329,0.027623355888555714,0.11216007635000547,-2.0430312156677246,1.3495055437088013,1.2156418561935425,0.02400394156575203,-0.4946659803390503,-0.8687516450881958,-0.3829974830150604,-0.25255700945854187,-0.3216016888618469
0.4982070701163952,0.031930156484654616,0.1271890078976214,-1.8478989601135254,0.9624297022819519,1.2903523445129395,0.02804398350417614,-0.47785133123397827,-0.8779929876327515,-0.3567793369293213,-0.2643209993839264,-0.36587297916412354
0.481908770615482,0.03251432208723776,0.14304849779745987,-1.472645878791809,0.6577416658401489,1.3977885246276855,0.028806250542402267,-0.4634714126586914,-0.8856435418128967,-0.33607250452041626,-0.29028230905532837,-0.487388014793396
0.4699521338663915,0.030482545318188874,0.15996098834253597,-0.985511302947998,0.5026928782463074,1.5297399759292603,0.02717372216284275,-0.4528436064720154,-0.8911757469177246,-0.3338753879070282,-0.2887031137943268,-0.6410812735557556
0.46330814661084113,0.027037456826839265,0.17836541485410792,-0.44617193937301636,0.46632230281829834,1.7030282020568848,0.024184193462133408,-0.44690993428230286,-0.8942520022392273,-0.3829030692577362,-0.2694750428199768,-0.7413222789764404
0.4612168302241694,0.023157983533289312,0.19774750284475032,-0.07906732708215714,0.4899490475654602,1.7157437801361084,0.020736390724778175,-0.4450381100177765,-0.8952715396881104,-0.3965451121330261,-0.2617185413837433,-0.7531354427337646
0.46201495308234486,0.01996740103592799,0.21648063157418337,0.14930406212806702,0.5274125337600708,1.63092041015625,0.017872754484415054,-0.44575271010398865,-0.8949776887893677,-0.46863263845443726,-0.2660393714904785,-0.61602383852005
0.46425645120964004,0.01727771048623148,0.2342729388012195,0.21829833090305328,0.5286253690719604,1.546259880065918,0.01544817816466093,-0.4477580785751343,-0.8940212726593018,-0.5232301950454712,-0.2914845645427704,-0.47315090894699097
0.4665376390328285,0.015603128088215035,0.2509904779244637,0.17638497054576874,0.6410629749298096,1.4376753568649292,0.013935072347521782,-0.4497966468334198,-0.8930222988128662,-0.5052528381347656,-0.2841664254665375,-0.3344098925590515
0.4680445702006206,0.015643738400667233,0.2665305058235289,0.07984242588281631,0.7602934241294861,1.332612156867981,0.013960719108581543,-0.45114201307296753,-0.8923429846763611,-0.500334620475769,-0.26289308071136475,-0.21713876724243164
0.46861868123437167,0.017150976331959784,0.2810178983182889,0.0007113846950232983,0.8325811624526978,1.2478184700012207,0.015301231294870377,-0.451654314994812,-0.8920618295669556,-0.47260716557502747,-0.23595255613327026,-0.13032275438308716
0.4686939767560081,0.0192805287184739,0.2946222493230356,-0.02384081482887268,0.805135190486908,1.1784584522247314,0.017200231552124023,-0.4517214894294739,-0.8919931650161743,-0.4316900074481964,-0.2075345814228058,-0.06482440233230591
0.4688663147530504,0.021117965048362025,0.30766076868800024,0.019389213994145393,0.7279198169708252,1.143306851387024,0.018837537616491318,-0.451875239610672,-0.8918822407722473,-0.3854604959487915,-0.18026596307754517,-0.02544558048248291
0.46979000810628907,0.022215810682342876,0.32034675628135384,0.11843805015087128,0.6374778151512146,1.116275668144226,0.019807396456599236,-0.45269906520843506,-0.8914433717727661,-0.3422713875770569,-0.1606585681438446,-0.016454577445983887
0.47179655622696964,0.02263146519141288,0.3326115783570293,0.231522798538208,0.5533786416053772,1.0679670572280884,0.020157329738140106,-0.45448729395866394,-0.8905251622200012,-0.3320012092590332,-0.14297068119049072,-0.01383274793624878
0.47481677075248974,0.0225650016701003,0.34413963550829657,0.3178272545337677,0.48119649291038513,0.983956515789032,0.02006707899272442,-0.45717549324035645,-0.889150083065033,-0.34283626079559326,-0.13288193941116333,0.008412837982177734
0.47846738879440265,0.022491666647731026,0.35445756557583424,0.3602604866027832,0.4579388201236725,0.8513068556785583,0.019964205101132393,-0.4604192078113556,-0.8874770998954773,-0.35860252380371094,-0.13684037327766418,0.04696202278137207
0.4822400008615196,0.02326286747225912,0.36298042126744196,0.3535671830177307,0.48194965720176697,0.662529706954956,0.020608071237802505,-0.46376487612724304,-0.885718584060669,-0.3797542154788971,-0.14240583777427673,0.08725672960281372
0.4856035364455553,0.02548865357485496,0.3690493793172802,0.28344908356666565,0.526064395904541,0.4199833273887634,0.02253955602645874,-0.46674221754074097,-0.8841061592102051,-0.41321036219596863,-0.1441434621810913,0.12871986627578735
0.4879576688726322,0.029514991083052573,0.3724130583457062,0.1622275412082672,0.5903727412223816,0.19093380868434906,0.026066577062010765,-0.4688228964805603,-0.882907509803772,-0.4236496090888977,-0.15204203128814697,0.17044413089752197
0.4888810194833917,0.03523509571776219,0.3734979199335849,0.012891850434243679,0.6456969976425171,0.011655121110379696,0.031101183965802193,-0.46963828802108765,-0.8823109865188599,-0.38660046458244324,-0.14683213829994202,0.20758259296417236
0.488082401828224,0.04199602944812446,0.3728320652889954,-0.17056003212928772,0.633682370185852,-0.13011029362678528,0.03708140552043915,-0.4689330756664276,-0.8824549317359924,-0.33888500928878784,-0.12364208698272705,0.2403498888015747
0.4853110217366593,0.04912743186500265,0.370854584240053,-0.36505839228630066,0.6045128107070923,-0.23707294464111328,0.043437205255031586,-0.4664835035800934,-0.8834627270698547,-0.29313206672668457,-0.11537995934486389,0.267663836479187
0.48076545917413516,0.05645309982134408,0.36795868797959536,-0.5063939690589905,0.5897812247276306,-0.3186684846878052,0.05002706125378609,-0.4624579846858978,-0.8852287530899048,-0.254891574382782,-0.11552974581718445,0.2590080499649048
0.4751123138072519,0.06399762040826494,0.3642943596919414,-0.5675243735313416,0.575622022151947,-0.39666324853897095,0.056870490312576294,-0.45743831992149353,-0.8874209523200989,-0.23816019296646118,-0.09525036811828613,0.22073400020599365
0.4692191237258522,0.07161083766989093,0.35986399957096965,-0.5407162308692932,0.5312167406082153,-0.4646657109260559,0.06381668150424957,-0.45218995213508606,-0.8896356821060181,-0.22540727257728577,-0.0715070366859436,0.17759960889816284
0.4638175704821596,0.07873675422102676,0.35482907182979495,-0.45867007970809937,0.4375286400318146,-0.5061550736427307,0.07034557312726974,-0.4473656117916107,-0.89158034324646,-0.19417066872119904,-0.06668782234191895,0.12388020753860474
0.45935788992178983,0.08503552052100034,0.3495690070192533,-0.34733104705810547,0.3572976887226105,-0.500432550907135,0.07612869143486023,-0.4433726370334625,-0.8930985927581787,-0.15672563016414642,-0.06648463010787964,0.06338673830032349
0.4560856946572652,0.09060093971267077,0.3443561942207452,-0.2243630439043045,0.28746533393859863,-0.4874850809574127,0.08122878521680832,-0.44043728709220886,-0.8941012024879456,-0.12558609247207642,-0.0485459566116333,0.024563848972320557
0.45402590856111064,0.09525794345562484,0.33905402039050525,-0.09296808391809464,0.17078091204166412,-0.5067123770713806,0.08547782897949219,-0.43858712911605835,-0.8946143984794617,-0.11134149134159088,-0.029415279626846313,0.01198500394821167
0.4531708281698572,0.0989310422804719,0.332968426264717,0.020812008529901505,0.030485045164823532,-0.6044349074363708,0.08880025893449783,-0.4378184974193573,-0.8946672677993774,-0.12363609671592712,-0.03712666034698486,0.0022875070571899414
0.452963567061182,0.10192750356727566,0.3256098226999222,0.06232837587594986,-0.061231378465890884,-0.7098416090011597,0.09148992598056793,-0.43763214349746704,-0.8944873809814453,-0.14607062935829163,-0.07262182235717773,-0.019849717617034912
0.45269532355930675,0.10492360228070469,0.31736891730704464,0.03014221228659153,-0.04892278090119362,-0.7562628984451294,0.09418176859617233,-0.4373909533023834,-0.8943259716033936,-0.12512660026550293,-0.08780136704444885,-0.02660292387008667
0.4518106799221681,0.10840357003069911,0.3089749666266793,-0.04981400445103645,0.01901337504386902,-0.7540609836578369,0.09733524918556213,-0.43659523129463196,-0.8943771123886108,-0.08659306168556213,-0.0738266110420227,-0.021882593631744385
0.4500285867058328,0.11259111150816248,0.30083515575325986,-0.14487899839878082,0.11022371798753738,-0.7346504926681519,0.10116688162088394,-0.4349912703037262,-0.8947334289550781,-0.054795436561107635,-0.06291833519935608,-0.018581390380859375
0.44725875822057637,0.11751277878432966,0.29316540578570965,-0.24444256722927094,0.2103664129972458,-0.69539874792099,0.10571007430553436,-0.4324955642223358,-0.8954177498817444,-0.02552514523267746,-0.06518518924713135,-0.02462613582611084
0.44364093376857905,0.12311191280875453,0.2861380475808029,-0.3129720985889435,0.2978869378566742,-0.6466482281684875,0.11091337352991104,-0.42923077940940857,-0.896358847618103,-0.0009585544466972351,-0.0657033622264862,-0.0368228554725647
0.43970513105153775,0.1291200803296514,0.27962046490710923,-0.3077569901943207,0.3404926359653473,-0.6229230165481567,0.1165134385228157,-0.42567265033721924,-0.8973446488380432,0.006487645208835602,-0.05529966950416565,-0.05634486675262451
0.43621412857232095,0.13513072028574324,0.27315193860970377,-0.22072887420654297,0.30197906494140625,-0.6291345357894897,0.12210436910390854,-0.42251116037368774,-0.8980951309204102,-0.006030768156051636,-0.04539972543716431,-0.08185476064682007
0.4337424771493119,0.1406496807726548,0.266463133005008,-0.09750399738550186,0.237280011177063,-0.6344023942947388,0.1272050440311432,-0.4202696681022644,-0.8984388113021851,-0.013466030359268188,-0.04396381974220276,-0.11120468378067017
0.4325335575149534,0.14556478423633934,0.2596643493093404,0.035633549094200134,0.17566166818141937,-0.6175144910812378,0.1316930055618286,-0.41917237639427185,-0.8983047604560852,0.000280231237411499,-0.04710578918457031,-0.12797081470489502
0.43262654539160056,0.1498309488077987,0.2529361206584042,0.15711094439029694,0.11231349408626556,-0.5841073393821716,0.13551829755306244,-0.4192568063735962,-0.8976962566375732,0.018458127975463867,-0.04213854670524597,-0.12308621406555176
0.4338007831855213,0.15343347487976344,0.24639583278731356,0.24592337012290955,0.06053764745593071,-0.5511912107467651,0.13867604732513428,-0.42032256722450256,-0.8967151045799255,0.03268013894557953,-0.0335502028465271,-0.09803587198257446
0.4355731941505759,0.15658385531421254,0.2400225384115402,0.27102309465408325,0.03558346629142761,-0.5298697352409363,0.14138396084308624,-0.42193013429641724,-0.895536482334137,0.03955475986003876,-0.03000473976135254,-0.06862062215805054
0.4372735443973032,0.15956665002495043,0.2338754657755,0.2338424175977707,0.04872936010360718,-0.5103682279586792,0.14394031465053558,-0.4234711229801178,-0.8944011330604553,0.03942453861236572,-0.028845250606536865,-0.0322498083114624
0.4385747551014538,0.16271377842101667,0.22804916943759085,0.19165553152561188,0.08420796692371368,-0.487673282623291,0.14666500687599182,-0.42464953660964966,-0.8933992385864258,0.03973636031150818,-0.023699551820755005,-0.007220268249511719
0.4396062480049883,0.1661116373194185,0.22245091355089675,0.1783735603094101,0.12299185246229172,-0.47694578766822815,0.14962729811668396,-0.4255831837654114,-0.892463207244873,0.03744545578956604,-0.014190435409545898,-0.005394399166107178
0.44053382613504505,0.16998902046855385,0.2169937625433134,0.16565242409706116,0.18879933655261993,-0.46207645535469055,0.1530197411775589,-0.4264223873615265,-0.8914869427680969,0.0276443213224411,-0.008407413959503174,-0.024284541606903076
0.441314175879169,0.17453604629607686,0.21176785192908365,0.14979542791843414,0.2754192054271698,-0.43766167759895325,0.1570139229297638,-0.4271281063556671,-0.8904539346694946,0.030425041913986206,-0.005351841449737549,-0.035250961780548096
0.4420650063991856,0.1797163020515582,0.2068098286803713,0.15610060095787048,0.32466208934783936,-0.4156437814235687,0.16156719624996185,-0.42780688405036926,-0.8893128633499146,0.030113697052001953,-0.004215270280838013,-0.031249821186065674
0.4430393412607854,0.18497122834462962,0.20199418248924664,0.19885899126529694,0.30556538701057434,-0.404120534658432,0.16616147756576538,-0.42868733406066895,-0.8880413770675659,0.033057257533073425,-0.005730479955673218,-0.026051580905914307
0.444624711270151,0.18985671292263057,0.19706604633045832,0.2785446047782898,0.2436835765838623,-0.4130675792694092,0.17036952078342438,-0.4301190972328186,-0.8865504860877991,0.03248082101345062,-0.008418560028076172,-0.031097769737243652
0.44692464170745627,0.19412016249025058,0.1918306815642769,0.34846723079681396,0.15491215884685516,-0.42522117495536804,0.17395643889904022,-0.4321942925453186,-0.884843111038208,0.017129376530647278,-0.01136353611946106,-0.030775785446166992
0.4498044206999152,0.19764509168074257,0.18636413706161403,0.4036754369735718,0.08065620809793472,-0.42441409826278687,0.1768292337656021,-0.43478941917419434,-0.883000373840332,0.016514882445335388,-0.014551490545272827,-0.01740550994873047
0.45305955414355453,0.20057459747473913,0.1809056699598841,0.42232877016067505,0.032725170254707336,-0.408900648355484,0.17913229763507843,-0.4377184510231018,-0.8810869455337524,0.01822488009929657,-0.01574230194091797,-0.005143463611602783
0.45624147918439967,0.20287431036027193,0.17565114297937445,0.38144272565841675,-0.02360621467232704,-0.3865448534488678,0.18087652325630188,-0.4405771493911743,-0.8793039917945862,0.015259936451911926,-0.008534848690032959,0.02366739511489868
0.45859004201830905,0.2047351365929193,0.1709301091672531,0.2437961995601654,-0.06363485753536224,-0.34318992495536804,0.1823015660047531,-0.44268426299095154,-0.8779503107070923,0.025324776768684387,-0.015033692121505737,0.06712883710861206
0.45987824263506843,0.2048100490626655,0.16713303168333818,0.16380251944065094,-0.21041077375411987,-0.2751290202140808,0.1822512149810791,-0.44383901357650757,-0.8773775696754456,0.0435178279876709,-0.036660343408584595,0.13230621814727783
0.4611208224181471,0.20488950094000336,0.16369679072927665,0.20750445127487183,-0.07237672805786133,-0.2861960530281067,0.1822085678577423,-0.444952130317688,-0.8768224716186523,0.02399870753288269,-0.026636064052581787,0.020346641540527344
0.46286277203617127,0.2062364077027231,0.15971767141524779,0.2842523455619812,-0.018347155302762985,-0.34065955877304077,0.18323040008544922,-0.44651147723197937,-0.875816285610199,-0.05179120600223541,-0.020117610692977905,-0.06090545654296875
0.46542826615428845,0.2084816132298174,0.15493141762573037,0.38728445768356323,0.030330371111631393,-0.3869895040988922,0.18495862185955048,-0.4488055408000946,-0.8742790818214417,-0.08299939334392548,-0.02105841040611267,-0.10930240154266357
0.4686362286992899,0.21090768475999502,0.14961941306185017,0.42647311091423035,-0.04121387004852295,-0.3963111340999603,0.1867767721414566,-0.45166996121406555,-0.8724154233932495,-0.0715881735086441,-0.034688740968704224,-0.10271269083023071
0.47211743635172204,0.21227123572707277,0.14435092639009567,0.4492633640766144,-0.1561092883348465,-0.3697279989719391,0.18763378262519836,-0.45477309823036194,-0.8706176280975342,-0.039287835359573364,-0.038116395473480225,-0.05090641975402832
0.47591506231507474,0.21236601994210338,0.13942808703682988,0.47803568840026855,-0.27598902583122253,-0.3257600963115692,0.18735092878341675,-0.45815202593803406,-0.868905246257782,-0.006778404116630554,-0.044777750968933105,-0.030020475387573242
0.48010010179640755,0.21116215982415304,0.13488099272338913,0.5054899454116821,-0.37302979826927185,-0.28637728095054626,0.1859012395143509,-0.46186795830726624,-0.8672477602958679,0.005886480212211609,-0.04670757055282593,-0.039856672286987305
0.4845882614334615,0.20926090422915994,0.13062077522493346,0.5261253118515015,-0.3917842507362366,-0.26506367325782776,0.18381956219673157,-0.465844064950943,-0.8655632138252258,-0.0026824772357940674,-0.04309767484664917,-0.053809285163879395
0.4891933979143708,0.2074079676422969,0.12648155419673432,0.5187910199165344,-0.3558797836303711,-0.2580885887145996,0.18177172541618347,-0.469914048910141,-0.8637938499450684,-0.01847216486930847,-0.04345273971557617,-0.06746524572372437
0.4936898504271832,0.20609074012904005,0.12247649989372233,0.5005664229393005,-0.28075334429740906,-0.2460862249135971,0.1801995486021042,-0.4738783538341522,-0.8619555830955505,-0.03182308375835419,-0.04437124729156494,-0.07331657409667969
0.49807698381445775,0.2054611043005818,0.11871740483988694,0.48794496059417725,-0.20263448357582092,-0.21999038755893707,0.1792309284210205,-0.47773703932762146,-0.8600253462791443,-0.030991792678833008,-0.0459446907043457,-0.07480430603027344
