attitudeX,attitudeY,attitudeZ,gyroX,gyroY,gyroZ,gravityX,gravityY,gravityZ,accX,accY,accZ
0.36612520370822177,0.3891142948060741,0.1850777618584479,0.7024765014648438,0.35957130789756775,-0.49151161313056946,0.3542250692844391,-0.35800015926361084,-0.863921582698822,-0.03023502230644226,-0.05832064151763916,-0.2735142111778259
0.3706113366370319,0.39372010418635867,0.1774845447686729,0.6576725244522095,0.006645997054874897,-0.4751821756362915,0.35758063197135925,-0.3621853291988373,-0.8607891201972961,-0.03534531593322754,-0.07575717568397522,-0.08154785633087158
0.3743855293670672,0.3945062701076347,0.17049291450907222,0.5392332673072815,-0.3576662242412567,-0.43588343262672424,0.35772931575775146,-0.36570069193840027,-0.8592396378517151,-0.05114954710006714,-0.06946471333503723,0.10019123554229736
0.3772444549994144,0.3918868503399576,0.1643369052506991,0.43593087792396545,-0.5930840969085693,-0.40801239013671875,0.3550766110420227,-0.36836007237434387,-0.8592039942741394,-0.04707774519920349,-0.05876395106315613,0.19939875602722168
0.37956009819068026,0.3876349430131981,0.15852429037092658,0.421628475189209,-0.675613284111023,-0.4213310480117798,0.3510967791080475,-0.370511919260025,-0.8599139451980591,-0.03044840693473816,-0.056688398122787476,0.20253491401672363
0.38223275748756835,0.383733002478861,0.15218870125097955,0.5245481729507446,-0.5374085307121277,-0.4728030264377594,0.3473668098449707,-0.37299302220344543,-0.8603560328483582,-0.03833037614822388,-0.047279804944992065,0.10420680046081543
0.38560928788717913,0.38319367864541787,0.14469985150035455,0.6135293245315552,-0.10898332297801971,-0.5732803344726562,0.34642988443374634,-0.3761237561702728,-0.8593702912330627,-0.07579982280731201,-0.03612294793128967,-0.02982032299041748
0.38873240770013867,0.3880299463600347,0.13564748556049372,0.5793161988258362,0.37291568517684937,-0.7585819959640503,0.35013580322265625,-0.37901571393013,-0.8565932512283325,-0.1487654149532318,-0.023404330015182495,-0.07429957389831543
0.3900279007941648,0.3976055372233847,0.1247887208718194,0.41269826889038086,0.7105806469917297,-1.0044969320297241,0.3581315875053406,-0.38021421432495117,-0.8527478575706482,-0.23122406005859375,-0.03480955958366394,-0.06883710622787476
0.38811391440198517,0.41081237338746857,0.11244669871991846,0.12070182710886002,0.9906445145606995,-1.2483298778533936,0.3696520924568176,-0.37844327092170715,-0.8486095070838928,-0.2683640420436859,-0.06593844294548035,-0.0623706579208374
0.38203910317649886,0.42692030704752326,0.09943044078076643,-0.25612562894821167,1.2608163356781006,-1.4477088451385498,0.3842177093029022,-0.37281334400177,-0.8446223735809326,-0.2525189220905304,-0.08661353588104248,-0.014401614665985107
0.3715942693054945,0.44530774256881756,0.08686186761584574,-0.6451287865638733,1.489660382270813,-1.5388158559799194,0.40133777260780334,-0.36310136318206787,-0.840883731842041,-0.19473358988761902,-0.08691084384918213,0.05116516351699829
0.3575952543810373,0.4653688687189721,0.07599193608089051,-0.9724768400192261,1.7650777101516724,-1.516912817955017,0.42036497592926025,-0.3500226140022278,-0.8371245265007019,-0.11370888352394104,-0.08097711205482483,0.09226685762405396
0.34115518336825706,0.48685275648961557,0.06740821213383075,-1.1834217309951782,1.8844003677368164,-1.4095044136047363,0.4408841133117676,-0.33457592129707336,-0.8328746557235718,-0.041637688875198364,-0.052249640226364136,0.020252704620361328
0.3244611563278027,0.506554145723337,0.06100558555932691,-1.153028130531311,1.5850636959075928,-1.2696900367736816,0.45985227823257446,-0.31879809498786926,-0.8287965059280396,-0.08219704031944275,-0.07616037130355835,-0.1102750301361084
0.30927135735869327,0.5231285648460836,0.055681938137367236,-0.984550416469574,1.42061448097229,-1.1153159141540527,0.4758898615837097,-0.3043646514415741,-0.8251612186431885,-0.1558670699596405,-0.0502190887928009,-0.19887125492095947
0.2961790900662439,0.5377686414744114,0.050662760947825826,-0.7969818115234375,1.1886470317840576,-1.0527622699737549,0.4899180829524994,-0.29186779260635376,-0.8214581608772278,-0.08144012093544006,0.029340386390686035,-0.16087204217910767
0.2846809262085655,0.5492308197725057,0.04513511697491748,-0.6242215037345886,0.7827717661857605,-1.0492993593215942,0.5010202527046204,-0.28085124492645264,-0.8185971975326538,0.027361273765563965,0.07156169414520264,-0.07755142450332642
0.27490939723881685,0.5568321233017295,0.038733900692001194,-0.38074302673339844,0.3869381248950958,-1.0202178955078125,0.5086542963981628,-0.2714597284793854,-0.8170560002326965,0.06870794296264648,0.049001872539520264,-0.008276522159576416
0.2677400401157405,0.5601634798092815,0.03174518359905105,-0.13425949215888977,-0.12751774489879608,-0.8632397055625916,0.5123942494392395,-0.26455268263816833,-0.8169847130775452,0.08332425355911255,-0.01994737982749939,-0.009827911853790283
0.26331887814407434,0.5569218218585961,0.02538305434000325,0.03102235682308674,-0.8680183291435242,-0.6576678156852722,0.5103564262390137,-0.26028645038604736,-0.8196263313293457,0.13315266370773315,-0.003766864538192749,0.03909355401992798
0.26122255851698767,0.5462027406338495,0.019511815463447667,0.21538607776165009,-1.562512993812561,-0.5429646968841553,0.5018239617347717,-0.2582618296146393,-0.8255140781402588,0.1694866418838501,0.06211012601852417,0.09503018856048584
0.26120420193657723,0.5295562428365976,0.013104463145148171,0.41213974356651306,-2.0898146629333496,-0.5401211380958557,0.4880155920982361,-0.2582440972328186,-0.8337570428848267,0.16799047589302063,0.03558787703514099,0.04638838768005371
0.26235887577922823,0.508255498653758,0.005437993732308785,0.5066977143287659,-2.5803747177124023,-0.6435438990592957,0.47000113129615784,-0.2593594193458557,-0.843701183795929,0.15405303239822388,0.0461331307888031,0.04951179027557373
0.2633499471212113,0.48211302333164346,-0.0034804091938467323,0.47801706194877625,-3.1246531009674072,-0.7741171717643738,0.4476672112941742,-0.2603164613246918,-0.8554702997207642,0.12234029173851013,0.09964147210121155,0.1508653163909912
0.2638524654374454,0.4509182191493632,-0.01309864005836817,0.46149319410324097,-3.5997395515441895,-0.8296629786491394,0.4207104444503784,-0.26080161333084106,-0.868898868560791,0.11592608690261841,0.15070948004722595,0.23059332370758057
0.2652738783784824,0.4166850711041869,-0.022959445463686768,0.6227218508720398,-3.7298495769500732,-0.7689332365989685,0.390574187040329,-0.2621735632419586,-0.8824493288993835,0.15309667587280273,0.1583223044872284,0.19232487678527832
0.26947285572883933,0.38250044374324554,-0.032629300922510325,0.8839598298072815,-3.611915111541748,-0.6160997152328491,0.35977160930633545,-0.26622334122657776,-0.8942536115646362,0.22793608903884888,0.13631007075309753,0.038769662380218506
0.27708809789829025,0.3497064903903335,-0.04124280978700028,1.1289944648742676,-3.4204189777374268,-0.3797629475593567,0.32955312728881836,-0.2735559940338135,-0.9036381244659424,0.30261868238449097,0.12743785977363586,-0.09080761671066284
0.287958038277777,0.31833216751844257,-0.047648424932929485,1.333592414855957,-3.224144697189331,-0.06722396612167358,0.3000961244106293,-0.2839949429035187,-0.9106531739234924,0.35996875166893005,0.15945273637771606,-0.12369430065155029
0.3019707268636304,0.28811368777003193,-0.051147554337471375,1.550374984741211,-3.0388941764831543,0.2626255750656128,0.27128729224205017,-0.29740235209465027,-0.9153988361358643,0.38853344321250916,0.20234012603759766,-0.10962551832199097
0.31899600239973636,0.2585511367389304,-0.051787458811067145,1.7673581838607788,-2.934927225112915,0.5251756906509399,0.24278125166893005,-0.3136133849620819,-0.9179890751838684,0.3718276619911194,0.2105402946472168,-0.12351477146148682
0.3385176369431049,0.22883711742587634,-0.050435721014761854,1.9626588821411133,-2.949909210205078,0.650885283946991,0.21397119760513306,-0.33208921551704407,-0.9186583161354065,0.30418694019317627,0.19141846895217896,-0.1253480315208435
0.3597161951106721,0.19773088093279323,-0.04808018272728946,2.0881710052490234,-3.141446352005005,0.6744521260261536,0.1838718205690384,-0.3520086109638214,-0.9177587628364563,0.21569500863552094,0.1649358868598938,-0.0786401629447937
0.3818397425627509,0.16469248788237792,-0.04516461556726308,2.167480230331421,-3.189481258392334,0.6572315096855164,0.1521414965391159,-0.3726283311843872,-0.9154239892959595,0.15982460975646973,0.14734762907028198,0.015262305736541748
0.40416278502888375,0.13295992735996276,-0.0416736870188532,2.142599105834961,-2.9178736209869385,0.6496660113334656,0.12188773602247238,-0.39324912428855896,-0.9113169312477112,0.13442955911159515,0.12379419803619385,0.03941446542739868
0.425421015368924,0.1040476535262942,-0.03712585062775555,1.9747849702835083,-2.4671542644500732,0.6838562488555908,0.09460246562957764,-0.41270431876182556,-0.9059390425682068,0.112413689494133,0.09214767813682556,0.027063310146331787
0.44497643671170556,0.07900192173286992,-0.03136481580746153,1.846825122833252,-2.0976452827453613,0.7144525051116943,0.07123462855815887,-0.4304366111755371,-0.89980548620224,0.09557460993528366,0.0576644241809845,0.10473108291625977
0.4633095142566439,0.05621678676227131,-0.02482247146048146,1.7227399349212646,-1.9081608057022095,0.6979185342788696,0.05026383697986603,-0.44691115617752075,-0.8931651711463928,0.06242247298359871,0.019405722618103027,0.15869861841201782
0.47961818184025357,0.03461544264196426,-0.01837351145363444,1.4799392223358154,-1.84087336063385,0.5944592356681824,0.030703691765666008,-0.46144047379493713,-0.8866397142410278,-0.004351604729890823,-0.017593950033187866,0.19045746326446533
0.49317959457935356,0.01395417491437301,-0.01263553614723958,1.217469334602356,-1.7511614561080933,0.4893411099910736,0.012290884740650654,-0.47342896461486816,-0.8807462453842163,-0.09909798949956894,-0.07965636253356934,0.1503995656967163
0.5043516311421156,-0.004909439267270244,-0.007648484658299923,1.0233958959579468,-1.532204270362854,0.3986849784851074,-0.004298137966543436,-0.48323988914489746,-0.8754774332046509,-0.11130230128765106,-0.08617231249809265,0.09961378574371338
0.5136337271775518,-0.02091001753280305,-0.0033979838140016927,0.8486559391021729,-1.266308307647705,0.3225220739841461,-0.01821056380867958,-0.4913453459739685,-0.8707744479179382,-0.08768528699874878,-0.0651426911354065,0.07786673307418823
0.5211886096687134,-0.034548690582858206,0.0001298411153063247,0.6845247745513916,-1.13706374168396,0.25205376744270325,-0.029955631121993065,-0.497911274433136,-0.8667104840278625,-0.05537136271595955,-0.057401806116104126,0.09029752016067505
0.5270992370859621,-0.04757844671258312,0.0030819076455520108,0.5152392983436584,-1.2085497379302979,0.2207665741443634,-0.041105106472969055,-0.503028392791748,-0.86329185962677,-0.011110331863164902,-0.06012773513793945,0.12317949533462524
0.5312332608947404,-0.06241939613765133,0.006243593522490771,0.3498484790325165,-1.448382019996643,0.29546186327934265,-0.05378200113773346,-0.5065970420837402,-0.8605039119720459,0.0097910575568676,-0.05951935052871704,0.1788785457611084
0.533995356952536,-0.07967865543098235,0.010746196988954458,0.2743818759918213,-1.502280592918396,0.4589081406593323,-0.06851327419281006,-0.5089765191078186,-0.8580494523048401,0.051698245108127594,-0.04522264003753662,0.2286396622657776
0.5364877859790599,-0.09813524800521845,0.018092461914264436,0.3506942093372345,-1.4716925621032715,0.7548010349273682,-0.08421282470226288,-0.5111203789710999,-0.8553736805915833,0.22174042463302612,-0.16475242376327515,0.20280104875564575
0.5398096287951615,-0.11859202041574957,0.028182335392768508,0.5046424269676208,-1.6008256673812866,0.8636361360549927,-0.10149072855710983,-0.5139726996421814,-0.8517815470695496,0.487385630607605,-0.4080243706703186,0.13796007633209229
0.5445077497995517,-0.14071747470619517,0.03847217220677759,0.6565999984741211,-1.7674020528793335,0.751693069934845,-0.11997040361166,-0.5179970860481262,-0.8469274640083313,0.46903058886528015,-0.5236899256706238,0.11156058311462402
0.5508884357033738,-0.164246428976494,0.047842517067728185,0.8608554601669312,-1.9890116453170776,0.6510869860649109,-0.13931940495967865,-0.523444414138794,-0.8405926823616028,0.4182044267654419,-0.5132529139518738,0.15840274095535278
0.559664702697175,-0.1908323219875322,0.057414285333629606,1.171459674835205,-2.3405752182006836,0.6588022112846375,-0.16073788702487946,-0.530902087688446,-0.8320494890213013,0.5026874542236328,-0.532482922077179,0.15364372730255127
0.5715881227355772,-0.22219307309975114,0.06888017690493256,1.572922706604004,-2.696197271347046,0.7513489127159119,-0.1853400617837906,-0.5409684181213379,-0.820367157459259,0.5233681201934814,-0.5618453025817871,0.08815884590148926
0.5870447661084292,-0.257865806664193,0.08284670384801755,1.9842630624771118,-2.8950653076171875,0.76821368932724,-0.21232280135154724,-0.5539029836654663,-0.805053174495697,0.4431578814983368,-0.5569979548454285,0.020995497703552246
0.6056301496918883,-0.29564047154519335,0.09833124469034407,2.2751123905181885,-2.9127981662750244,0.6775267720222473,-0.2395336627960205,-0.5692802667617798,-0.7864754796028137,0.26245248317718506,-0.5783790946006775,-0.034966230392456055
0.6258410270498669,-0.33360228450387125,0.11452693474004491,2.372485637664795,-2.8031065464019775,0.5921149253845215,-0.26538771390914917,-0.5857791304588318,-0.7657886743545532,0.12096339464187622,-0.6278287172317505,-0.05035823583602905
0.6460405044075911,-0.37035810961064614,0.13124691549746198,2.345381736755371,-2.5581185817718506,0.5448188781738281,-0.2890070378780365,-0.60202956199646,-0.7443355321884155,0.04340165853500366,-0.6459410190582275,-0.03909647464752197
0.6654403304746634,-0.4047560969293915,0.14830218409909585,2.2734639644622803,-2.248408317565918,0.48988744616508484,-0.30977657437324524,-0.6174055933952332,-0.723082959651947,-0.0564647912979126,-0.6552537679672241,-0.029968857765197754
0.68386020660157,-0.43601663797615525,0.16511832180431876,2.163175344467163,-1.9015928506851196,0.40284860134124756,-0.3273664116859436,-0.6317899227142334,-0.7026184797286987,-0.15488752722740173,-0.6770021915435791,-0.03631889820098877
0.7011850107633374,-0.4628460471934029,0.18068306426989392,1.9981443881988525,-1.4820126295089722,0.2311663180589676,-0.34115827083587646,-0.6451236009597778,-0.6836860775947571,-0.23344185948371887,-0.6919431090354919,-0.053282976150512695
0.7174094167048493,-0.484221638043162,0.19361667170704283,1.7784161567687988,-1.1498074531555176,0.06757050007581711,-0.350774347782135,-0.6574348211288452,-0.6668859124183655,-0.3306983411312103,-0.6635643243789673,-0.0646357536315918
0.7315823830780287,-0.5023412278847775,0.20444083274969813,1.4800825119018555,-1.0609345436096191,0.023155633360147476,-0.35827720165252686,-0.6680479645729065,-0.6521881818771362,-0.3834829330444336,-0.6544312834739685,-0.04168999195098877
0.7431941991131442,-0.5181957396462658,0.2129482717595196,1.1693750619888306,-0.957660436630249,-0.06744784116744995,-0.36470481753349304,-0.6766433119773865,-0.6396439075469971,-0.3193771243095398,-0.7215349078178406,0.021617114543914795
0.7528657704232998,-0.5305950069348375,0.21828856917848433,0.906543493270874,-0.8035441040992737,-0.22315460443496704,-0.3692786991596222,-0.683732807636261,-0.6293988227844238,-0.33094704151153564,-0.6772139072418213,0.030170857906341553
0.7612346919934319,-0.5396590430224661,0.22045856838476932,0.7062181830406189,-0.730953574180603,-0.3528059720993042,-0.37201496958732605,-0.689815878868103,-0.6210950613021851,-0.3770541548728943,-0.5804783701896667,-0.008207976818084717
0.7689147365315845,-0.5472598951923681,0.2203856310329842,0.6241738796234131,-0.8216456174850464,-0.45067155361175537,-0.3739572763442993,-0.6953557133674622,-0.6137073040008545,-0.3649953007698059,-0.4472224712371826,-0.02362191677093506
0.7770969752705532,-0.5557765772409221,0.21930867546610694,0.7119231224060059,-1.052268147468567,-0.5373337864875793,-0.3761558532714844,-0.7012126445770264,-0.6056464910507202,-0.34588995575904846,-0.31447339057922363,-0.03651970624923706
0.7870464963957275,-0.5675275051775889,0.218634449453712,0.9374611377716064,-1.408811092376709,-0.6014899015426636,-0.3794773817062378,-0.7082713842391968,-0.5952719449996948,-0.33428290486335754,-0.17850852012634277,-0.06970614194869995
0.7995974405741503,-0.5840754627649587,0.2195075099720776,1.2440613508224487,-1.7693012952804565,-0.6668043732643127,-0.38434308767318726,-0.7170755863189697,-0.5814491510391235,-0.3196973502635956,-0.02726346254348755,-0.10367047786712646
0.8150344237195379,-0.6049026179110493,0.22238797961780016,1.5305389165878296,-1.9649142026901245,-0.7349826693534851,-0.39002683758735657,-0.727749228477478,-0.5641456842422485,-0.33046260476112366,0.09046584367752075,-0.12410205602645874
0.8324464805361246,-0.6282614642697729,0.2269032663116162,1.639722466468811,-2.034923553466797,-0.7715979218482971,-0.3955886662006378,-0.7395802140235901,-0.5445464253425598,-0.3609725534915924,0.1761951446533203,-0.12319350242614746
0.8497094323026784,-0.6520140297673064,0.23186239686650642,1.501152515411377,-1.9650236368179321,-0.7610448598861694,-0.40060263872146606,-0.7510886192321777,-0.5247699022293091,-0.3666244149208069,0.27284759283065796,-0.04177367687225342
0.8650134360053653,-0.6736310435395421,0.2353793055127847,1.1823406219482422,-1.8366899490356445,-0.7611867189407349,-0.40463346242904663,-0.7611039876937866,-0.5069442987442017,-0.3746632933616638,0.3573869466781616,0.08174282312393188
0.8773932316662112,-0.6918324961991557,0.23582906110628746,0.7737963795661926,-1.7482167482376099,-0.75728440284729,-0.4077506959438324,-0.769075334072113,-0.49220192432403564,-0.3944190442562103,0.41491878032684326,0.16456514596939087
0.8866880279979109,-0.7065519731344106,0.23252171738814661,0.3841751217842102,-1.7217497825622559,-0.7660301923751831,-0.4102924168109894,-0.7749828696250916,-0.48068881034851074,-0.36297714710235596,0.46617549657821655,0.24277374148368835
0.8934283286551596,-0.7183348026629619,0.22536916778152802,0.059227123856544495,-1.7583637237548828,-0.800106406211853,-0.4124804437160492,-0.7792249917984009,-0.4718775153160095,-0.36132320761680603,0.4931378960609436,0.26737916469573975
0.8983197160639558,-0.727892565582665,0.2148351182081221,-0.18636509776115417,-1.8024752140045166,-0.8369163870811462,-0.4144308567047119,-0.7822813391685486,-0.4650624692440033,-0.3529030680656433,0.5342802405357361,0.23248794674873352
0.9020586176010735,-0.7353783754125123,0.2015140591519766,-0.35800930857658386,-1.7735998630523682,-0.8994697332382202,-0.4159354567527771,-0.7846049070358276,-0.45977485179901123,-0.341037780046463,0.5880258679389954,0.17759400606155396
0.9051959674459019,-0.7401720368431923,0.18575659397191055,-0.49184873700141907,-1.6610854864120483,-0.9650027751922607,-0.416472464799881,-0.7865461707115173,-0.45595595240592957,-0.34684836864471436,0.6179823279380798,0.09188124537467957
0.907579528313932,-0.7418720165095389,0.16790993777676674,-0.6462004780769348,-1.4834222793579102,-0.9763678312301636,-0.4159790873527527,-0.7880159020423889,-0.4538639187812805,-0.32309556007385254,0.6300263404846191,0.005041837692260742
0.9087073070417967,-0.7401471443294445,0.14849306129791817,-0.7994469404220581,-1.2354487180709839,-0.9398767948150635,-0.4145960509777069,-0.7887097001075745,-0.4539243280887604,-0.2731022536754608,0.6500224471092224,-0.04693019390106201
0.9085429913695349,-0.7350596946049202,0.12800695439225734,-0.915553092956543,-0.9836260080337524,-0.908979058265686,-0.4123682975769043,-0.7886086702346802,-0.45612382888793945,-0.21463057398796082,0.6508827805519104,-0.10250049829483032
0.9076274092214133,-0.7272512497547897,0.10689061580285646,-0.947120189666748,-0.7986868023872375,-0.909926176071167,-0.4092739224433899,-0.788045346736908,-0.4598689377307892,-0.18540680408477783,0.6261648535728455,-0.1559911072254181
0.9067882991749316,-0.7183418343091477,0.08599470661859122,-0.8730275630950928,-0.7348987460136414,-0.9069945812225342,-0.40559569001197815,-0.7875285148620605,-0.4639948010444641,-0.17786982655525208,0.5859903693199158,-0.20075440406799316
0.9066880304857297,-0.7107201361382303,0.06667398457717577,-0.6969656348228455,-0.7943984270095825,-0.8822013735771179,-0.40209901332855225,-0.7874667048454285,-0.46713244915008545,-0.13209587335586548,0.5159822702407837,-0.24473589658737183
0.9079618387188733,-0.7057390825599004,0.04976312941514851,-0.4655846357345581,-0.8750996589660645,-0.8710235953330994,-0.39911624789237976,-0.7882511615753174,-0.4683655798435211,-0.10771965980529785,0.4457981586456299,-0.27559196949005127
0.9109354144799483,-0.7031588227588123,0.03508758182189622,-0.2551197409629822,-0.9201713800430298,-0.8960509896278381,-0.39638909697532654,-0.7900775074958801,-0.4676039516925812,-0.10461795330047607,0.37165093421936035,-0.2872026562690735
0.9155616986086341,-0.7017980245359582,0.022023111591027624,-0.07504159957170486,-0.8596957921981812,-0.920046329498291,-0.3933885097503662,-0.7929049730300903,-0.4653466045856476,-0.11344742774963379,0.288388192653656,-0.27609336376190186
0.9213754473210956,-0.7004368745000902,0.010513375330059034,0.05665336549282074,-0.6937125325202942,-0.8963538408279419,-0.3897767663002014,-0.7964341640472412,-0.46234917640686035,-0.11710488796234131,0.21466225385665894,-0.26401498913764954
0.9276992239674435,-0.6983689708528792,0.000522738613583955,0.13040108978748322,-0.48309987783432007,-0.8386574983596802,-0.3855738341808319,-0.8002423644065857,-0.4592876434326172,-0.10118147730827332,0.14719665050506592,-0.2335224449634552
0.9339019499496855,-0.6950718681642655,-0.008311372469881971,0.13616718351840973,-0.28570520877838135,-0.7714129090309143,-0.3808711767196655,-0.8039465546607971,-0.4567355215549469,-0.08290442824363708,0.07631587982177734,-0.16905802488327026
0.9396482046040243,-0.6908006101484343,-0.016635465630467524,0.12253153324127197,-0.22280268371105194,-0.7288172245025635,-0.3759671151638031,-0.8073505759239197,-0.4547899663448334,-0.06089198589324951,-0.009727120399475098,-0.08422684669494629
0.9453273691851555,-0.68700300331197,-0.02449796439855896,0.17871341109275818,-0.3044271767139435,-0.7145291566848755,-0.37132325768470764,-0.8106886148452759,-0.4526621103286743,-0.04571464657783508,-0.10651713609695435,-0.010869413614273071
0.9517244092529933,-0.6849870926481253,-0.03148101575918778,0.3018140196800232,-0.42982903122901917,-0.733478307723999,-0.3671214282512665,-0.8144173622131348,-0.44938427209854126,-0.058293551206588745,-0.20047521591186523,0.00408703088760376
0.9593373272903072,-0.6853363356175395,-0.03728614437985276,0.4594535231590271,-0.5983422994613647,-0.7482843399047852,-0.3633435070514679,-0.8188113570213318,-0.4444429576396942,-0.08856070041656494,-0.258215069770813,-0.0077207982540130615
0.9682687672553938,-0.6888641982684784,-0.04133171409521159,0.629673182964325,-0.7650668025016785,-0.7420862913131714,-0.3602459728717804,-0.8239058256149292,-0.4374952018260956,-0.08566156029701233,-0.3049699068069458,-0.017796576023101807
0.9782605595025453,-0.6951386722951575,-0.04356226850850242,0.7427470088005066,-0.8531095385551453,-0.7296146154403687,-0.35769325494766235,-0.8295271992683411,-0.4288826286792755,-0.08993855118751526,-0.3430497646331787,-0.03496938943862915
0.9887900173814617,-0.703026679403136,-0.044665344807201586,0.7838688492774963,-0.9120393991470337,-0.7207342982292175,-0.3553980886936188,-0.8353614807128906,-0.41936084628105164,-0.12781718373298645,-0.3589134216308594,-0.028576195240020752
0.9992754143561356,-0.7119906905732053,-0.04536281468904385,0.7554141879081726,-1.0032974481582642,-0.703453540802002,-0.35340064764022827,-0.8410792946815491,-0.40950441360473633,-0.14102986454963684,-0.371582567691803,-0.007289469242095947
1.009335486785479,-0.7215184105934199,-0.04657540582009825,0.6718833446502686,-1.1072169542312622,-0.7275441884994507,-0.35167938470840454,-0.8464782238006592,-0.3997456431388855,-0.13066619634628296,-0.39737266302108765,0.009929239749908447
1.0189961163544963,-0.7302883818611289,-0.04966480045544449,0.5565144419670105,-1.1696748733520508,-0.8078935146331787,-0.34969988465309143,-0.8515821695327759,-0.390535444021225,-0.1544351875782013,-0.4247697591781616,0.0037555992603302
1.0283887580674702,-0.7371762854488572,-0.05540347916743835,0.4422539174556732,-1.1870293617248535,-0.893792450428009,-0.34698939323425293,-0.8564683794975281,-0.38217851519584656,-0.19861909747123718,-0.4406202435493469,-0.04851609468460083
1.0375473763638767,-0.7418425383258328,-0.06364668302032754,0.3472088575363159,-1.1590324640274048,-0.9677717685699463,-0.343454509973526,-0.8611600399017334,-0.37475642561912537,-0.21812990307807922,-0.4482882022857666,-0.14192143082618713
1.0466882775108608,-0.7438589906092454,-0.07424982637828464,0.2795403301715851,-1.0754976272583008,-1.0640298128128052,-0.33886489272117615,-0.8657706379890442,-0.36825498938560486,-0.24368509650230408,-0.44524919986724854,-0.24743720889091492
1.056094630788288,-0.7428323981320983,-0.08720108811636539,0.23899172246456146,-0.9710407257080078,-1.157415747642517,-0.33296361565589905,-0.8704395890235901,-0.36258819699287415,-0.2774794399738312,-0.4344920516014099,-0.35622289776802063
1.0658556626758484,-0.7390078485740007,-0.10207577751442,0.2234756052494049,-0.863654375076294,-1.2345821857452393,-0.3258359134197235,-0.8752031922340393,-0.35756170749664307,-0.2835085093975067,-0.4263715147972107,-0.4465917646884918
1.076071503805146,-0.7327219558072233,-0.11855910975243178,0.2363617867231369,-0.7778245806694031,-1.3170349597930908,-0.3175846040248871,-0.8800994157791138,-0.3529379069805145,-0.2696956396102905,-0.404904305934906,-0.5235117673873901
1.087123884038371,-0.7241297583416897,-0.13664993381033708,0.28514450788497925,-0.6961627006530762,-1.4310507774353027,-0.30807724595069885,-0.8852930665016174,-0.34834563732147217,-0.26121285557746887,-0.36289113759994507,-0.5864993333816528
1.0992419063039924,-0.7129765737300344,-0.15641195482813086,0.34520846605300903,-0.5839372873306274,-1.5312423706054688,-0.29713374376296997,-0.8908632397651672,-0.3436194062232971,-0.27209535241127014,-0.31958597898483276,-0.6449670791625977
1.1121574319442953,-0.6997467140637769,-0.17711602230286516,0.4193924069404602,-0.4754243791103363,-1.553359031677246,-0.2851276993751526,-0.8966559171676636,-0.3386895954608917,-0.2541636526584625,-0.2686426043510437,-0.6920263767242432
1.1255980639140593,-0.6860425829627292,-0.19730104660217457,0.5309063792228699,-0.42599809169769287,-1.522202491760254,-0.2728000581264496,-0.9025253057479858,-0.333209365606308,-0.19512596726417542,-0.20422524213790894,-0.7211119532585144
1.1397959764210686,-0.6734410962383264,-0.21591193597153466,0.6934579610824585,-0.42815735936164856,-1.49948251247406,-0.26056087017059326,-0.9085482954978943,-0.32657039165496826,-0.14044007658958435,-0.14085978269577026,-0.7387678027153015
1.1551471950948577,-0.6624531494433354,-0.23272945260711675,0.8609272241592407,-0.44063952565193176,-1.4904000759124756,-0.248348668217659,-0.9148544073104858,-0.3183780908584595,-0.1264987289905548,-0.08755654096603394,-0.7574581503868103
1.1714963995887224,-0.6529307351468018,-0.24793537497080806,0.9857453107833862,-0.4482415020465851,-1.4641937017440796,-0.23618660867214203,-0.921333372592926,-0.30880558490753174,-0.12054860591888428,-0.05405426025390625,-0.774049699306488
1.1884372363301836,-0.6445364813113538,-0.26185106912090034,1.0791220664978027,-0.44029471278190613,-1.436287522315979,-0.22417522966861725,-0.9277870059013367,-0.29825645685195923,-0.08910295367240906,-0.024590373039245605,-0.7917399406433105
1.206045010964623,-0.636523565837006,-0.27470434647937503,1.1916358470916748,-0.33620133996009827,-1.4269965887069702,-0.21203400194644928,-0.9342125058174133,-0.28686031699180603,-0.07916471362113953,0.0031821727752685547,-0.8265736103057861
1.2246023997896154,-0.6281687234013514,-0.2862928040113979,1.3350170850753784,-0.16462741792201996,-1.4196254014968872,-0.1994064301252365,-0.9406710267066956,-0.2745458781719208,-0.11889190971851349,0.03101813793182373,-0.8904627561569214
1.2443071279541895,-0.6206426080204309,-0.2952668541390546,1.5279865264892578,-0.032326363027095795,-1.3592342138290405,-0.18651726841926575,-0.9471741318702698,-0.26090726256370544,-0.14386601746082306,0.0670318603515625,-0.9394865036010742
1.2650392836278153,-0.6178727309782782,-0.2984268594264265,1.7386112213134766,-0.03600814938545227,-1.2047778367996216,-0.1743791103363037,-0.9536193609237671,-0.24536165595054626,-0.1120741069316864,0.11159354448318481,-0.9413602352142334
1.28656655972642,-0.6231907204782244,-0.293792119088551,1.9241517782211304,-0.14365844428539276,-1.100906252861023,-0.16366025805473328,-0.9598779082298279,-0.22770535945892334,-0.03261350095272064,0.18770688772201538,-0.8787094950675964
1.3093255634501642,-0.6350500742926624,-0.28338212586545336,2.0897023677825928,-0.20581693947315216,-1.1465542316436768,-0.15334774553775787,-0.9660108089447021,-0.20810462534427643,-0.0034973174333572388,0.23108655214309692,-0.8010659217834473
1.3338357217170285,-0.6496034760516294,-0.2700830503010866,2.2307910919189453,-0.11286567896604538,-1.269391417503357,-0.14199289679527283,-0.972055971622467,-0.18693631887435913,-0.10519945621490479,0.25516754388809204,-0.7835532426834106
1.3598895463183258,-0.6655029771258785,-0.2539748357527373,2.3298072814941406,0.08335890620946884,-1.3449987173080444,-0.12926261126995087,-0.9778414964675903,-0.1646740436553955,-0.20055609941482544,0.2900514006614685,-0.7849262356758118
1.3866979698842075,-0.6839015519723789,-0.23315741302869278,2.364992141723633,0.32098105549812317,-1.3689415454864502,-0.11566201597452164,-0.9831017255783081,-0.14189313352108002,-0.20185810327529907,0.32784342765808105,-0.7661116719245911
1.4135384762745236,-0.7052956793205309,-0.2070772118953858,2.3282649517059326,0.5382235646247864,-1.3939462900161743,-0.10152503103017807,-0.9876604676246643,-0.11924736946821213,-0.17658162117004395,0.3740586042404175,-0.699447751045227
1.4400072835813424,-0.7291477268527427,-0.17649150039575598,2.2420690059661865,0.744081974029541,-1.428547978401184,-0.08688870072364807,-0.991459310054779,-0.09725797176361084,-0.16343170404434204,0.428791344165802,-0.6004197001457214
1.4658705702454646,-0.7555076052706701,-0.14152971143940232,2.132483720779419,0.9337175488471985,-1.4692503213882446,-0.0718117207288742,-0.9945003390312195,-0.07623834162950516,-0.1343649923801422,0.4700251817703247,-0.5142768621444702
1.4909968674715477,-0.7866148442511303,-0.09988986418909293,2.0167994499206543,1.1400353908538818,-1.4788603782653809,-0.05643616244196892,-0.9968177080154419,-0.05629900097846985,-0.1178954541683197,0.5022497773170471,-0.44901108741760254
1.515073646337457,-0.8376515667131914,-0.03657115369147379,1.9259459972381592,1.2787766456604004,-1.4240635633468628,-0.04138542711734772,-0.9984478950500488,-0.037271589040756226,-0.0797845646739006,0.5405163764953613,-0.39752763509750366
1.53768931444623,-0.9641433200706964,0.10312477441625452,1.8551956415176392,1.3350822925567627,-1.352407455444336,-0.027194170281291008,-0.9994519948959351,-0.018871353939175606,-0.017971793189644814,0.5770124793052673,-0.3402137756347656
1.5570135736288722,-1.4994430450778184,0.6520034731546613,1.7836679220199585,1.3601332902908325,-1.3183231353759766,-0.013758067972958088,-0.999904990196228,-0.0009833527728915215,-0.0012412676587700844,0.600567102432251,-0.2755517363548279
1.5545532553655508,-3.0887787270567872,2.255089742567874,1.6825251579284668,1.3712646961212158,-1.2872998714447021,-0.0008577396511100233,-0.9998680949211121,0.016225682571530342,0.012561284005641937,0.6011101007461548,-0.2119959592819214
1.5363376011222125,2.8020534638693815,2.6613919728632545,1.5617585182189941,1.407263994216919,-1.2513976097106934,0.011476317420601845,-0.9994063377380371,0.03249070420861244,0.03166033700108528,0.6112073659896851,-0.14786243438720703
1.5178483596879502,2.687796451577138,2.7902157532368146,1.408654808998108,1.4910308122634888,-1.215636134147644,0.02320065349340439,-0.998598575592041,0.047567110508680344,0.040199682116508484,0.6270928382873535,-0.10115600377321243
1.5005347628676753,2.63191651111586,2.8616253078894522,1.2576981782913208,1.5958361625671387,-1.1653938293457031,0.03425218537449837,-0.9975326657295227,0.06128131225705147,0.0626564472913742,0.6299484372138977,-0.06248677521944046
1.4846719792015195,2.6013447156076586,2.9088144034820695,1.1215296983718872,1.698258399963379,-1.062471628189087,0.04424285143613815,-0.9962936043739319,0.07376676797866821,0.09319312125444412,0.6405044794082642,-0.027547970414161682
1.470459326555997,2.5849948677592076,2.9425080871510905,0.9779419302940369,1.7418023347854614,-0.9640721082687378,0.05291977524757385,-0.994970440864563,0.08504992723464966,0.12138144671916962,0.6638088822364807,0.00847112387418747
1.4579348864709873,2.573169221692502,2.9718441483871447,0.8136389851570129,1.7260057926177979,-0.9048146605491638,0.06062525138258934,-0.9936379194259644,0.09491284936666489,0.15180768072605133,0.6680915951728821,0.053387269377708435
1.4470557783213682,2.561835603408723,3.000280054223061,0.6550965905189514,1.658718228340149,-0.8453452587127686,0.06761524826288223,-0.9923539161682129,0.10325756669044495,0.19088397920131683,0.6527236700057983,0.09715139865875244
1.4377374354757335,2.5500413590066997,3.0285837984952124,0.5014767050743103,1.6071852445602417,-0.7900146245956421,0.07398200780153275,-0.9911606907844543,0.11012427508831024,0.21508055925369263,0.6502182483673096,0.11765896528959274
1.4299941202950692,2.537582828505446,3.057301914611094,0.3433314263820648,1.6085047721862793,-0.7311291694641113,0.07970435172319412,-0.9901037216186523,0.11550691723823547,0.21674348413944244,0.6466588973999023,0.11754058301448822
1.4240309861396763,2.5245128004015323,3.0870649983133815,0.16445301473140717,1.6836190223693848,-0.6511182188987732,0.08462259918451309,-0.9892492890357971,0.11926911771297455,0.20352447032928467,0.6655949950218201,0.10103725641965866
1.4199702729310508,2.5120102731512204,3.117184579088459,-0.011788170784711838,1.7811551094055176,-0.5456745624542236,0.08847169578075409,-0.9886472821235657,0.12144776433706284,0.19740182161331177,0.7014614939689636,0.08501887321472168
1.4177449025008009,2.502683685114054,-3.1381769793137777,-0.11237256973981857,1.8559961318969727,-0.3953058421611786,0.09091292321681976,-0.9883104562759399,0.12238406389951706,0.2145681381225586,0.7244704961776733,0.06806088984012604
1.4168390106250408,2.499689368850801,-3.1162873839392096,-0.13117066025733948,1.8691508769989014,-0.25377020239830017,0.09181512147188187,-0.9881719350814819,0.12282854318618774,0.2294435352087021,0.7572757005691528,0.038533225655555725
1.4166254518007737,2.5034619733346926,-3.101519114794307,-0.09860764443874359,1.7989451885223389,-0.1361815184354782,0.09147650003433228,-0.9881392121315002,0.12334315478801727,0.21749883890151978,0.7688090801239014,0.014520063996315002
1.4167024420677274,2.5142129125561716,-3.0947716112152968,-0.033658500760793686,1.6927740573883057,-0.023164793848991394,0.09009987860918045,-0.9881510138511658,0.12425698339939117,0.2058596909046173,0.7597115635871887,-0.0019272565841674805
1.4168010252601382,2.5314789524618972,-3.095515544080934,0.02979317680001259,1.6304107904434204,0.047967709600925446,0.08788510411977768,-0.9881661534309387,0.12571391463279724,0.17503920197486877,0.762549638748169,-0.019451752305030823
1.4168368946380083,2.5535581884499363,-3.1013826191508773,0.06277626752853394,1.63724684715271,0.10682862997055054,0.08506878465414047,-0.9881716370582581,0.12759436666965485,0.1235342025756836,0.7477540969848633,-0.040161505341529846
1.4171128944488438,2.580270088944929,-3.111790585478339,0.062303557991981506,1.657321810722351,0.19173820316791534,0.08148520439863205,-0.9882138967514038,0.12958978116512299,0.08804004639387131,0.7255491018295288,-0.044644132256507874
1.4179448767887646,2.6122425472137123,-3.1269305806328487,0.029885614290833473,1.7591636180877686,0.2940223813056946,0.07688653469085693,-0.9883409142494202,0.13142000138759613,0.06880452483892441,0.7172987461090088,-0.034419864416122437
1.4197136192515096,2.65053541230537,3.1358701573223517,-0.039116621017456055,1.8716336488723755,0.42151349782943726,0.07097408920526505,-0.988608717918396,0.13272462785243988,0.05211867392063141,0.7166206240653992,-0.020023226737976074
1.4225320493504483,2.6963551466954088,3.108788394419461,-0.0966435894370079,1.9368364810943604,0.5525574088096619,0.06362011283636093,-0.9890289902687073,0.13332107663154602,0.05231627821922302,0.7247161269187927,0.014200925827026367
1.426104485396788,2.750331344465871,3.0738884168132983,-0.13809356093406677,1.9489705562591553,0.6728207468986511,0.05498708412051201,-0.9895504117012024,0.1332923024892807,0.051733002066612244,0.7262445092201233,0.0501946359872818
1.429960034870452,2.814288556250339,3.028580137318741,-0.12012042105197906,1.874606728553772,0.8085047006607056,0.04512844234704971,-0.9900989532470703,0.13292014598846436,0.07154037058353424,0.7078264951705933,0.07229530811309814
1.4332155017727304,2.8899245995412284,2.970750831081547,-0.04286584630608559,1.8144214153289795,0.9051340818405151,0.03415264934301376,-0.990550696849823,0.13282793760299683,0.06489226222038269,0.694392740726471,0.06362903118133545
1.4353200392240384,2.972123602773239,2.9060298320608604,-0.014254255220293999,1.8156275749206543,0.9015503525733948,0.02277960069477558,-0.9908370971679688,0.13312819600105286,-0.031080281361937523,0.684623658657074,0.03871630132198334
1.4369953087769234,3.055499321674806,2.840323944321571,-0.11085270345211029,1.8440266847610474,0.9004417061805725,0.011470955796539783,-0.9910619854927063,0.13290925323963165,-0.12339406460523605,0.6608311533927917,0.052179932594299316
1.4395751148155373,-3.141360191059075,2.772076004867984,-0.34296801686286926,1.907658338546753,0.925858199596405,-3.0417086236411706e-05,-0.9914028644561768,0.1308472603559494,-0.1279906928539276,0.6609734892845154,0.10877682268619537
1.4441438379877471,-3.046964790791281,2.6968331562350665,-0.6694944500923157,2.0627455711364746,0.9721546173095703,-0.011935186572372913,-0.9919902682304382,0.12575092911720276,-0.125302255153656,0.6856698989868164,0.16294540464878082
1.4508912709016857,-2.933591130581498,2.604199535145961,-1.0054607391357422,2.2320504188537598,1.0877794027328491,-0.02470194175839424,-0.9928200244903564,0.11704082787036896,-0.08476448804140091,0.6991645097732544,0.1831148862838745
1.4584323727791662,-2.7874605411969906,2.4802002509924828,-1.2101387977600098,2.3605294227600098,1.2706046104431152,-0.038883619010448456,-0.9936938285827637,0.10517093539237976,-0.007777638733386993,0.7097734212875366,0.17331719398498535
1.4630153767027847,-2.603528353581777,2.318702733391669,-1.1112353801727295,2.302001953125,1.5374186038970947,-0.05512888729572296,-0.9941972494125366,0.09237391501665115,0.08849997818470001,0.6851150989532471,0.12337017059326172
1.4613098976041812,-2.409038531188123,2.1453417405447275,-0.8345792293548584,2.127570867538452,1.6667808294296265,-0.07307492196559906,-0.9940123558044434,0.08123698085546494,0.09483407437801361,0.6861510276794434,0.03486716002225876
1.4536753715338455,-2.2453270754355894,2.0009498913912744,-0.4927487373352051,1.9253782033920288,1.6855764389038086,-0.09126271307468414,-0.9931491613388062,0.07297872006893158,-0.046279892325401306,0.6571658849716187,-0.00773216038942337
1.441752319623399,-2.1251070046458698,1.8983476614129642,-0.21229338645935059,1.7755900621414185,1.7195385694503784,-0.10941716283559799,-0.9916853904724121,0.06773491948843002,-0.15744364261627197,0.5966353416442871,-0.006379261612892151
1.4273515609398488,-2.036056843873531,1.826189701519706,-0.1186361089348793,1.743524193763733,1.7609384059906006,-0.12775872647762299,-0.9897294044494629,0.06413714587688446,-0.24418939650058746,0.6134933829307556,0.054561011493206024
1.4117019763652552,-1.9606676724480627,1.7671079171360764,-0.2275993525981903,1.6591968536376953,1.83173668384552,-0.14653682708740234,-0.9873711466789246,0.060212649405002594,-0.2459648847579956,0.629476010799408,0.1963944435119629
1.3953209373070068,-1.8872783209134607,1.709413455576592,-0.4475290775299072,1.659440279006958,1.9177072048187256,-0.16590756177902222,-0.9846436381340027,0.054332997649908066,-0.20317192375659943,0.6027311682701111,0.3624303340911865
1.377688439732132,-1.8129790095487754,1.6504610225170335,-0.6505740284919739,1.5898332595825195,2.0889546871185303,-0.18631018698215485,-0.9814125299453735,0.04602445662021637,-0.1580653041601181,0.5635504126548767,0.4638479948043823
1.3576080251868636,-1.7429609790530962,1.594093736152618,-0.7348904609680176,1.3690400123596191,2.310244560241699,-0.20845013856887817,-0.9773613214492798,0.03624657914042473,-0.09054574370384216,0.5201925039291382,0.511223554611206
1.335197382933956,-1.6843210862395828,1.5468787150598498,-0.6974480152130127,1.1563445329666138,2.4160895347595215,-0.2319234013557434,-0.972374677658081,0.026442741975188255,-0.12665802240371704,0.482185959815979,0.5055245161056519
1.3115761904106606,-1.6405483191914165,1.5123165932322966,-0.5486083030700684,0.8902824521064758,2.450291633605957,-0.25570422410964966,-0.966590166091919,0.017864862456917763,-0.2386651635169983,0.3839637041091919,0.47584855556488037
1.2874351294950488,-1.611839205101694,1.4904158352831502,-0.36084243655204773,0.6513593792915344,2.4346325397491455,-0.2793498635292053,-0.9601211547851562,0.01147176418453455,-0.345207542181015,0.26312994956970215,0.4383726119995117
1.2637015573745733,-1.5933311136741346,1.4773926158985213,-0.2657819986343384,0.578890323638916,2.3366334438323975,-0.30221429467201233,-0.9532158374786377,0.00681148748844862,-0.489793062210083,0.20277315378189087,0.4274841547012329
1.2408291131498155,-1.577603910285487,1.4667882184877348,-0.35782644152641296,0.548493504524231,2.2642436027526855,-0.3240049183368683,-0.9460529685020447,0.0022057245951145887,-0.5880128145217896,0.13246941566467285,0.4736243486404419
1.2183278959653177,-1.5595420913087292,1.4531227635704291,-0.5779203772544861,0.49668261408805847,2.243037462234497,-0.34519392251968384,-0.9385234117507935,-0.003885057754814625,-0.5685480833053589,0.0644083023071289,0.5835970044136047
1.1960034485594506,-1.5370387039953168,1.4344554389779425,-0.8545445203781128,0.5198787450790405,2.1972360610961914,-0.36587172746658325,-0.9305834770202637,-0.012355653569102287,-0.563357949256897,0.030497848987579346,0.6654776334762573
1.173721953308135,-1.511077747282585,1.4116472926780292,-1.0508475303649902,0.42059051990509033,2.191838264465332,-0.3860330879688263,-0.9221963286399841,-0.023080792278051376,-0.5550373792648315,-0.027953386306762695,0.6888065338134766
1.1510690788717515,-1.487076753134808,1.388963293294941,-1.0529032945632935,0.21879719197750092,2.1976470947265625,-0.40608468651771545,-0.9132001399993896,-0.034076888114213943,-0.5104650259017944,-0.08075767755508423,0.6750681400299072
1.1286013690771852,-1.4686899628314343,1.369997819163283,-0.9375486969947815,0.003463275032117963,2.1288206577301025,-0.4256957769393921,-0.9038145542144775,-0.043617937713861465,-0.5866789817810059,-0.08814418315887451,0.6084372997283936
1.1071090965913248,-1.4567266580764682,1.3553251485980748,-0.8091922998428345,-0.24441230297088623,2.0053551197052,-0.44434255361557007,-0.8944094777107239,-0.05090699717402458,-0.6639490127563477,-0.13909894227981567,0.5609625577926636
1.087157373865503,-1.4494738769978812,1.3435869703046097,-0.7353042364120483,-0.37768763303756714,1.8395572900772095,-0.4615861475467682,-0.8853086829185486,-0.05627714842557907,-0.7445600032806396,-0.18479037284851074,0.5460995435714722
1.068532919027633,-1.4440900186417513,1.3326775000485402,-0.7696440815925598,-0.4705962538719177,1.7479339838027954,-0.47755166888237,-0.8764951825141907,-0.06083471328020096,-0.7877376079559326,-0.23008763790130615,0.5617655515670776
1.0503335886715592,-1.4382231111186818,1.3200663289055388,-0.9450065493583679,-0.550710916519165,1.702570915222168,-0.49291831254959106,-0.8675891757011414,-0.06573332101106644,-0.7087417840957642,-0.24845409393310547,0.6184677481651306
1.0325018137947877,-1.4292830832873893,1.3031616664251267,-1.2544447183609009,-0.5777073502540588,1.5971976518630981,-0.5075477361679077,-0.8585842847824097,-0.07230805605649948,-0.6895042061805725,-0.23713421821594238,0.6977200508117676
1.0151888586643645,-1.4154355617437642,1.2799251725430811,-1.6575446128845215,-0.6269172430038452,1.4760186672210693,-0.5211068391799927,-0.8495801687240601,-0.08161728084087372,-0.7090108394622803,-0.2461535930633545,0.7599467635154724
0.9980132673572495,-1.397016320129973,1.2504431816485457,-2.0027637481689453,-0.6767252683639526,1.414497971534729,-0.5338103771209717,-0.8403958678245544,-0.09371081739664078,-0.6788513660430908,-0.22186028957366943,0.7906560301780701
0.9801576626089431,-1.3775004245319256,1.2179586595718248,-2.135251522064209,-0.8780264258384705,1.465983510017395,-0.5465205907821655,-0.8305851817131042,-0.10697584599256516,-0.5746799111366272,-0.17210054397583008,0.7300227284431458
0.961155259727845,-1.3620577317133442,1.186853033142594,-2.0526516437530518,-1.172157645225525,1.551548719406128,-0.5601445436477661,-0.8198536038398743,-0.1186521053314209,-0.43239378929138184,-0.11381655931472778,0.5923612117767334
0.9418664982355837,-1.3533737701996658,1.1600733720976328,-1.7871057987213135,-1.4547643661499023,1.5628206729888916,-0.574429988861084,-0.8086575269699097,-0.12689998745918274,-0.389589786529541,-0.06443530321121216,0.4362719655036926
0.9230770163644163,-1.353054956833698,1.1397936336352958,-1.3775560855865479,-1.746344804763794,1.5925321578979492,-0.5891225934028625,-0.797461986541748,-0.13034279644489288,-0.39178866147994995,-0.07506626844406128,0.2937796711921692
0.9050397468544097,-1.3614058213016018,1.126647407723871,-0.9737379550933838,-2.001631259918213,1.5825016498565674,-0.604163646697998,-0.7864497303962708,-0.12838800251483917,-0.4328846335411072,-0.08665841817855835,0.18679863214492798
0.8883487951854284,-1.3756469130317357,1.1183589700409884,-0.7397326231002808,-2.136911630630493,1.478210210800171,-0.6187231540679932,-0.7760313749313354,-0.12229994684457779,-0.5334680080413818,-0.12437474727630615,0.1723030060529709
0.8730640925796882,-1.3918000669037425,1.111379889732178,-0.7367706894874573,-2.1606945991516113,1.3649184703826904,-0.6322168707847595,-0.766301155090332,-0.11438872665166855,-0.618713915348053,-0.2182418704032898,0.24807095527648926
0.8587437936635897,-1.4057029245511774,1.1018880857154423,-0.9972403645515442,-2.0625219345092773,1.253761887550354,-0.644504964351654,-0.7570223808288574,-0.10738088190555573,-0.6611590385437012,-0.2924467921257019,0.34093189239501953
0.8449438612072205,-1.4143313994505176,1.0869206018724882,-1.4003738164901733,-1.9215441942214966,1.1621569395065308,-0.6556649208068848,-0.7479338645935059,-0.1034340113401413,-0.6665090918540955,-0.3293825387954712,0.448419988155365
0.8315367829991958,-1.4171555945476468,1.0659538027181956,-1.785292148590088,-1.762901782989502,1.0515369176864624,-0.6658046841621399,-0.7389676570892334,-0.10310729593038559,-0.6504794359207153,-0.35192906856536865,0.4958685040473938
0.818952368280682,-1.4148481423632981,1.0398211533676385,-2.098775863647461,-1.6277835369110107,0.8909195065498352,-0.6746985912322998,-0.7304307222366333,-0.10607936978340149,-0.6702262163162231,-0.35512542724609375,0.4522707462310791
0.8073808094428107,-1.4091295829170687,1.0102112851770912,-2.2756335735321045,-1.5385942459106445,0.7568389177322388,-0.6823776960372925,-0.7224787473678589,-0.11128902435302734,-0.6927290558815002,-0.3622686266899109,0.36966609954833984
0.7968956813473806,-1.401828032572789,0.9791401800337409,-2.326176404953003,-1.4798665046691895,0.5972287654876709,-0.6889768242835999,-0.7151898145675659,-0.11753593385219574,-0.6703066229820251,-0.34033703804016113,0.26603442430496216
0.7879086232911169,-1.394423841966403,0.9480746957964461,-2.2763240337371826,-1.4731543064117432,0.42928531765937805,-0.6943874359130859,-0.7088797092437744,-0.1237567588686943,-0.6888369917869568,-0.31672459840774536,0.15746337175369263
0.7804112273583346,-1.388104145402193,0.9181253441490798,-2.1691360473632812,-1.5027681589126587,0.2939232289791107,-0.6987983584403992,-0.7035716772079468,-0.12910455465316772,-0.6814048886299133,-0.2954518795013428,0.07049554586410522
0.7742449967884271,-1.3833238502982108,0.8896471677486083,-2.0597691535949707,-1.538600206375122,0.17183777689933777,-0.7024222016334534,-0.6991764903068542,-0.13324956595897675,-0.6459053754806519,-0.2575039267539978,0.020334497094154358
0.769345179234657,-1.3797121598773332,0.8622364751002822,-1.997102975845337,-1.5648233890533447,0.05150707811117172,-0.7052915096282959,-0.6956650018692017,-0.1364346444606781,-0.6265413761138916,-0.22367721796035767,0.005682051181793213
0.7655353569255275,-1.3765719352253696,0.8352146509359812,-1.9822797775268555,-1.558374047279358,-0.04566261172294617,-0.7074549794197083,-0.6929230690002441,-0.13915926218032837,-0.6010472774505615,-0.2171722650527954,0.012648582458496094
0.7624546495211949,-1.372918110861948,0.8078492953213123,-2.031324625015259,-1.4968085289001465,-0.11669448018074036,-0.7090315818786621,-0.6906985640525818,-0.1421622633934021,-0.5671220421791077,-0.19641709327697754,0.02796541154384613
0.7597792233518577,-1.3680429467566197,0.7794271645504005,-2.1154000759124756,-1.4560221433639526,-0.1772369146347046,-0.7101374268531799,-0.6887614130973816,-0.14598874747753143,-0.5310735106468201,-0.15726226568222046,0.06015801429748535
0.757428102730327,-1.3619380004814632,0.7498351392939988,-2.195725440979004,-1.3949791193008423,-0.2409689575433731,-0.7108153104782104,-0.6870549917221069,-0.15065672993659973,-0.48538219928741455,-0.1474788784980774,0.07172298431396484
0.7554057071660445,-1.3544917316877143,0.719075819278819,-2.2643814086914062,-1.3512017726898193,-0.3087112605571747,-0.7110294699668884,-0.6855840682983398,-0.15624332427978516,-0.47967493534088135,-0.12159073352813721,0.06980222463607788
0.7537510834321893,-1.3465699103989768,0.6878032436784837,-2.2485177516937256,-1.3593782186508179,-0.3607538938522339,-0.7108743190765381,-0.6843785643577576,-0.16212299466133118,-0.4541189670562744,-0.07752341032028198,0.07290482521057129
0.7523242939376863,-1.3398525797892136,0.6575176762459332,-2.115124225616455,-1.4625117778778076,-0.35581478476524353,-0.7107189893722534,-0.6833375692367554,-0.16711780428886414,-0.3917284607887268,-0.050335586071014404,0.03528185188770294
0.7511010409240357,-1.3366278300189605,0.6299912487635156,-1.850587248802185,-1.658686637878418,-0.3345574736595154,-0.710989236831665,-0.6824439764022827,-0.16960272192955017,-0.32470113039016724,0.0020391345024108887,-0.003935530781745911
0.7504177327367418,-1.3379517878204783,0.6063007287284261,-1.566668152809143,-1.8366116285324097,-0.3397575616836548,-0.711666464805603,-0.6819443702697754,-0.1687687486410141,-0.3079410195350647,0.018644750118255615,-0.05024068057537079
0.7504112523096916,-1.3429320111697334,0.5856107393398378,-1.407997488975525,-1.9834749698638916,-0.3506554067134857,-0.7125024199485779,-0.6819396018981934,-0.1652234047651291,-0.3297033905982971,-0.004355013370513916,-0.0699145644903183
0.7508070020516499,-1.3497103499986578,0.5657014561714149,-1.4472161531448364,-2.087374687194824,-0.3832700550556183,-0.7133426666259766,-0.6822290420532227,-0.1603308767080307,-0.36170005798339844,-0.002692282199859619,0.002310827374458313
0.7515433836140492,-1.3558895478082478,0.543840888182878,-1.6675626039505005,-2.1275243759155273,-0.4589810371398926,-0.7138288021087646,-0.6827672123908997,-0.1558127999305725,-0.39196038246154785,-0.03897362947463989,0.10149145126342773
0.7527073025059302,-1.3591488666282565,0.5178152536828013,-2.0171313285827637,-2.0770580768585205,-0.5785936713218689,-0.7135554552078247,-0.6836171746253967,-0.1533183455467224,-0.43424123525619507,-0.0987926721572876,0.15252481400966644
0.7544452843067031,-1.3577880377777556,0.48640175439012867,-2.3947486877441406,-1.9413014650344849,-0.7283017039299011,-0.7121838331222534,-0.6848846077919006,-0.15403783321380615,-0.49275702238082886,-0.14032608270645142,0.15106230974197388
0.7568000609131355,-1.3510196161841583,0.44981784399028224,-2.7064030170440674,-1.7140926122665405,-0.8750607967376709,-0.7095490097999573,-0.6865984797477722,-0.15850257873535156,-0.52789306640625,-0.16905349493026733,0.07683748006820679
0.7597543916964032,-1.338800573213492,0.4091886470191886,-2.9083175659179688,-1.4344431161880493,-1.0247929096221924,-0.7055820226669312,-0.6887434124946594,-0.16669341921806335,-0.5527188181877136,-0.15189385414123535,-0.04903542995452881
0.7633087995738466,-1.3225493168538516,0.3663647125165897,-2.9492576122283936,-1.2235110998153687,-1.1337268352508545,-0.7004026174545288,-0.6913160085678101,-0.17753487825393677,-0.5513522028923035,-0.11039608716964722,-0.1798717975616455
0.7672567817099085,-1.3044273785298885,0.3234171921062056,-2.8458378314971924,-1.109548568725586,-1.210018277168274,-0.6944320797920227,-0.6941632628440857,-0.18947778642177582,-0.5088455677032471,-0.05219000577926636,-0.28327006101608276
0.7717932507140249,-1.286317629897112,0.28178528786271984,-2.6671969890594482,-1.073008418083191,-1.2948991060256958,-0.6878575086593628,-0.6974214911460876,-0.20113615691661835,-0.46849942207336426,0.008502304553985596,-0.3557486832141876
0.7771216214943012,-1.2694695899511952,0.24220191198330335,-2.453777551651001,-1.1001747846603394,-1.3606019020080566,-0.6808128952980042,-0.7012302279472351,-0.21159020066261292,-0.4284096360206604,0.021618902683258057,-0.41006818413734436
0.7832179884970192,-1.2542797236464995,0.20476680837319983,-2.261599540710449,-1.1264652013778687,-1.4279133081436157,-0.6734452843666077,-0.705563485622406,-0.22057212889194489,-0.3942580819129944,0.015545666217803955,-0.44407030940055847
0.7901448551643513,-1.2398770376409525,0.16877639475839204,-2.1365702152252197,-1.0846961736679077,-1.5062036514282227,-0.6655603647232056,-0.7104552388191223,-0.22865481674671173,-0.3792394995689392,0.003484964370727539,-0.46720707416534424
0.7975863973516343,-1.2252614158749495,0.13347686713020082,-2.0517232418060303,-1.0302097797393799,-1.5424833297729492,-0.6571548581123352,-0.7156724333763123,-0.2365604043006897,-0.36890721321105957,-0.01705467700958252,-0.4746823310852051
0.8052909709037533,-1.2101674683248451,0.09862179238447304,-1.971069574356079,-0.9617111682891846,-1.586303472518921,-0.648330807685852,-0.7210322618484497,-0.24449914693832397,-0.3397368788719177,-0.017462611198425293,-0.4722825288772583
0.8134603955564014,-1.1949084484595578,0.06453310406161662,-1.8225657939910889,-0.923122763633728,-1.6325141191482544,-0.6390239000320435,-0.7266687750816345,-0.25219231843948364,-0.31910598278045654,-0.02502495050430298,-0.48468515276908875
0.8223204841385685,-1.180483416506408,0.032500494575925555,-1.5773909091949463,-0.8716634511947632,-1.6498275995254517,-0.6293407678604126,-0.7327269315719604,-0.25892385840415955,-0.3026050329208374,-0.03106701374053955,-0.5383021831512451
0.8320258988504798,-1.1679723039969379,0.0035811011177751136,-1.28997802734375,-0.89804607629776,-1.6562743186950684,-0.6194806098937988,-0.739297091960907,-0.2639768123626709,-0.30082279443740845,-0.013708949089050293,-0.6049807667732239
0.842630617866886,-1.1584309178362604,-0.021862033313824764,-1.0015357732772827,-0.9785844087600708,-1.6443248987197876,-0.6097164154052734,-0.7463963627815247,-0.26671820878982544,-0.26096540689468384,-0.006716430187225342,-0.6193902492523193
0.8540433742402872,-1.1523615462703651,-0.04353538063368846,-0.7034374475479126,-1.062096357345581,-1.6045501232147217,-0.6002634167671204,-0.7539427876472473,-0.2669350206851959,-0.19413971900939941,-0.032602012157440186,-0.6304343938827515
0.8661996884600967,-1.150121971984092,-0.06111382034127848,-0.4052281677722931,-1.1604098081588745,-1.5570447444915771,-0.5912537574768066,-0.7618728876113892,-0.26451608538627625,-0.16181325912475586,-0.052061378955841064,-0.6762646436691284
0.8791970978707265,-1.1517335377365527,-0.07486757568267739,-0.1652030646800995,-1.268995761871338,-1.5532712936401367,-0.5825842618942261,-0.7702270746231079,-0.2595115005970001,-0.17197823524475098,-0.08048111200332642,-0.7359871864318848
0.8933088542053724,-1.1554566055690882,-0.08663030291746414,-0.07479389756917953,-1.2842601537704468,-1.6468794345855713,-0.5735432505607605,-0.779150128364563,-0.2529293894767761,-0.214039146900177,-0.130243182182312,-0.7648929357528687
0.9086005266915707,-1.1577755909099938,-0.09925764551264116,-0.14930541813373566,-1.1421458721160889,-1.788642406463623,-0.5631489157676697,-0.7886440753936768,-0.24678723514080048,-0.3073344826698303,-0.18248629570007324,-0.7547081708908081
0.9245080926451089,-1.1554864626707664,-0.11492770382669382,-0.3244837522506714,-0.8800203204154968,-1.8923861980438232,-0.5510329008102417,-0.7983246445655823,-0.24298278987407684,-0.3536301851272583,-0.19183343648910522,-0.7319012880325317
0.9403758204987683,-1.1471009924672992,-0.13433301691323565,-0.48756104707717896,-0.5647571682929993,-1.9553505182266235,-0.537359893321991,-0.8077796697616577,-0.2423558533191681,-0.32766085863113403,-0.153203547000885,-0.7237391471862793
0.9561746805991608,-1.133419144789995,-0.15655928687496068,-0.5326837301254272,-0.3252030313014984,-2.005582571029663,-0.5223669409751892,-0.8169916868209839,-0.24424850940704346,-0.3146997094154358,-0.06682789325714111,-0.7491902709007263
0.9722776410614441,-1.1167841789412751,-0.17986408694421038,-0.4710124135017395,-0.1900976598262787,-2.054503917694092,-0.5063421726226807,-0.8261711001396179,-0.2471015900373459,-0.3228357434272766,0.022124409675598145,-0.7963402271270752
0.9889549393270305,-1.0988093840569102,-0.20328732634412633,-0.3726954460144043,-0.11240355670452118,-2.0991833209991455,-0.48947805166244507,-0.8354520797729492,-0.2498629093170166,-0.290261447429657,0.07408410310745239,-0.828292727470398
1.0061335840425323,-1.0801889509001308,-0.22657287048168234,-0.27693140506744385,-0.07838141173124313,-2.12089204788208,-0.47201070189476013,-0.8447691202163696,-0.2521332800388336,-0.24072739481925964,0.11573463678359985,-0.8376647233963013
1.0236147869090078,-1.0610716445025232,-0.24963016785835665,-0.18150921165943146,-0.002824980765581131,-2.11220383644104,-0.4541434347629547,-0.8539943099021912,-0.25386494398117065,-0.1943398416042328,0.16730308532714844,-0.8315843343734741
1.0410012197592609,-1.041078099816474,-0.2721595189196575,-0.09868171066045761,0.13593316078186035,-2.058513641357422,-0.43609729409217834,-0.8629106283187866,-0.2553517818450928,-0.14327895641326904,0.20743882656097412,-0.8449900150299072
1.0581630378371492,-1.0201753690926492,-0.2937502292667132,0.027061596512794495,0.30556607246398926,-1.9970570802688599,-0.4179818034172058,-0.8714559674263,-0.2566240727901459,-0.09929120540618896,0.22828269004821777,-0.8568556308746338
1.0754448761504711,-0.9991134783994415,-0.31342427713568444,0.2086058259010315,0.4595237076282501,-1.952888011932373,-0.3997577130794525,-0.8798016905784607,-0.2571822702884674,-0.08188599348068237,0.23296642303466797,-0.873310923576355
1.0933514842453254,-0.978480179150058,-0.33084357689073607,0.40110036730766296,0.590950608253479,-1.9468398094177246,-0.381233811378479,-0.8881719708442688,-0.2565380930900574,-0.09954023361206055,0.24377787113189697,-0.8702472448348999
1.1122312778308245,-0.9578797033000742,-0.34640453353761835,0.5795263051986694,0.7566452622413635,-1.966618299484253,-0.36208614706993103,-0.8966886401176453,-0.2546440064907074,-0.13496899604797363,0.25858116149902344,-0.8364510536193848
1.1319547334809175,-0.936651227424387,-0.3607087698983151,0.7121579647064209,0.9128691554069519,-1.9650131464004517,-0.34228354692459106,-0.9052444696426392,-0.2517436146736145,-0.1503007709980011,0.27684158086776733,-0.8000142574310303
1.1520521508529478,-0.914247768433347,-0.37437330824582293,0.7928978204727173,1.089935064315796,-1.932111144065857,-0.32208016514778137,-0.9136002659797668,-0.24819152057170868,-0.1176476776599884,0.29227763414382935,-0.7329639196395874
1.1720028681246062,-0.8899967728834154,-0.38805869452941316,0.8256836533546448,1.2456583976745605,-1.88001549243927,-0.30174174904823303,-0.9215301871299744,-0.24440617859363556,-0.08946311473846436,0.3052580952644348,-0.6479736566543579
1.1915385004114798,-0.8638556623715933,-0.40233119090889496,0.8445806503295898,1.3381990194320679,-1.8229188919067383,-0.2815062403678894,-0.9289396405220032,-0.24046912789344788,-0.0820496678352356,0.3348997235298157,-0.5565738081932068
1.2106682179657358,-0.836304317413534,-0.4172833397876052,0.8708717226982117,1.3827146291732788,-1.7735228538513184,-0.26153719425201416,-0.9358516931533813,-0.23617848753929138,-0.07241672277450562,0.360228955745697,-0.48701193928718567
1.2294520989556754,-0.8074133796811266,-0.43317282787240885,0.8874565362930298,1.4187357425689697,-1.7293505668640137,-0.24186065793037415,-0.9423055052757263,-0.23143917322158813,-0.04982641339302063,0.365950345993042,-0.43639233708381653
1.2478197695081918,-0.7766328061481802,-0.45050162017187184,0.8919761180877686,1.4654337167739868,-1.6826680898666382,-0.2224535346031189,-0.9482948780059814,-0.2263878881931305,-0.0363660603761673,0.37735670804977417,-0.39572829008102417
1.265676505963914,-0.744331279175546,-0.46891518855502856,0.917872428894043,1.4975732564926147,-1.6047934293746948,-0.20352037250995636,-0.95381098985672,-0.22096237540245056,-0.012635648250579834,0.3957206606864929,-0.3667452335357666
1.283024508693695,-0.7113694810756284,-0.4875200330154114,0.9517853856086731,1.5435315370559692,-1.5223067998886108,-0.18529607355594635,-0.9588786363601685,-0.21498242020606995,0.026207908987998962,0.4089823365211487,-0.3438708186149597
1.2999569664516686,-0.677372154292269,-0.5066638193930333,0.9794905185699463,1.578819990158081,-1.4667913913726807,-0.16768041253089905,-0.9635466933250427,-0.20847363770008087,0.03236547112464905,0.41979968547821045,-0.3177105188369751
1.316677215578525,-0.6415841325181852,-0.5272389530171049,1.0134565830230713,1.608280897140503,-1.4308619499206543,-0.15045014023780823,-0.9678851366043091,-0.20140337944030762,0.018400579690933228,0.4384203553199768,-0.28783923387527466
1.3332035068228545,-0.60420315205994,-0.5491069574675407,1.054137945175171,1.6289047002792358,-1.3605449199676514,-0.13371190428733826,-0.971907377243042,-0.1936941295862198,0.021956533193588257,0.4472491145133972,-0.2642984986305237
1.3492953092500601,-0.5662697591503845,-0.5712302634623992,1.0717118978500366,1.6591846942901611,-1.261459469795227,-0.11786343902349472,-0.9755687713623047,-0.18540199100971222,0.057148709893226624,0.4552287459373474,-0.24330902099609375
1.3646109226337975,-0.5271603398665465,-0.5940311409612885,1.0399575233459473,1.7125059366226196,-1.16299307346344,-0.10299511253833771,-0.9788190126419067,-0.17693446576595306,0.07073801755905151,0.47459208965301514,-0.2102115899324417
1.3787601950001314,-0.48582288035304555,-0.6185107592134783,0.9642637968063354,1.7571442127227783,-1.0565253496170044,-0.08911865949630737,-0.9816176295280457,-0.1687743067741394,0.08496827632188797,0.48860615491867065,-0.16015945374965668
1.3913494998785598,-0.443354176686228,-0.6437803368358537,0.871878445148468,1.7754552364349365,-0.9082573652267456,-0.07656579464673996,-0.9839425683021545,-0.16123031079769135,0.11469750106334686,0.49444037675857544,-0.10302145779132843
1.4022700262526775,-0.40196917997467824,-0.6677706316505697,0.788152277469635,1.77548086643219,-0.7505038976669312,-0.06562171876430511,-0.9858330488204956,-0.1543617844581604,0.14330421388149261,0.503792405128479,-0.06359483301639557
1.411992140762728,-0.36283759050978165,-0.6896345350050088,0.7647481560707092,1.746183156967163,-0.6517608165740967,-0.05612776055932045,-0.9874171018600464,-0.1478423774242401,0.17180465161800385,0.5126245021820068,-0.046173155307769775
1.4214614303247688,-0.32371438931968965,-0.7114367280694469,0.8038429021835327,1.7856528759002686,-0.6233964562416077,-0.0473259836435318,-0.9888702630996704,-0.14105398952960968,0.135704904794693,0.5017638206481934,-0.06548905372619629
1.4311774645354864,-0.28252178965790486,-0.734768090622157,0.856508195400238,1.835963249206543,-0.5975618958473206,-0.038796622306108475,-0.990269124507904,-0.13364936411380768,0.06504175812005997,0.4778636693954468,-0.10283142328262329
1.4411762845428755,-0.24004945425306176,-0.759077955491218,0.9128060340881348,1.8443739414215088,-0.5464332699775696,-0.030731113627552986,-0.9916110634803772,-0.12555143237113953,0.048309266567230225,0.4752536416053772,-0.09928683936595917
1.45142687650795,-0.19894449340760845,-0.7819779559114945,0.9657562971115112,1.8364531993865967,-0.45455074310302734,-0.023535512387752533,-0.9928839206695557,-0.1167370155453682,0.05467873439192772,0.47760993242263794,-0.07314340770244598
1.4617077647319972,-0.16068233196495282,-0.8021095960960227,0.9759756326675415,1.8207675218582153,-0.36967387795448303,-0.017418785020709038,-0.9940557479858398,-0.10747052729129791,0.08371825516223907,0.46898549795150757,-0.05021386593580246
1.4716655014679636,-0.12248148551435974,-0.8223808265038048,0.9427945017814636,1.7939814329147339,-0.33571192622184753,-0.012091672979295254,-0.9950905442237854,-0.09822829067707062,0.09487063437700272,0.4535713195800781,-0.012336969375610352
1.4811321437321936,-0.0787479254207775,-0.8483190308969414,0.9041475653648376,1.800358772277832,-0.34455180168151855,-0.007044342812150717,-0.9959828853607178,-0.08926934003829956,0.06109100952744484,0.44630002975463867,0.03368150442838669
1.4899086575025309,-0.025201419745304588,-0.8838300110835491,0.8452208638191223,1.8380435705184937,-0.3455880284309387,-0.0020360953640192747,-0.996730387210846,-0.08077578246593475,0.017081303521990776,0.4355730414390564,0.05201292037963867
1.4978220486369345,0.03638137734738499,-0.9270652896062528,0.7494558691978455,1.8594480752944946,-0.30564481019973755,0.0026520690880715847,-0.9973385334014893,-0.07286416739225388,0.01687922514975071,0.4305049180984497,0.0616946816444397
1.5044734190221059,0.10094837630137954,-0.9731089085554635,0.625302255153656,1.8773729801177979,-0.24216437339782715,0.006679281126707792,-0.9978014230728149,-0.06594040244817734,0.0391734279692173,0.4497818350791931,0.08724164217710495
1.5097519772530292,0.1627766616078238,-1.0160593090538768,0.49979111552238464,1.927881121635437,-0.15825073421001434,0.009887070395052433,-0.998137354850769,-0.06020268425345421,0.05146858096122742,0.47216683626174927,0.10877138376235962
1.513853164796328,0.21420653517639485,-1.0479022543636605,0.38286662101745605,2.007439136505127,-0.05433153361082077,0.012097944505512714,-0.9983791708946228,-0.055611468851566315,0.06172413006424904,0.4849209785461426,0.10428698360919952
1.5171116697688733,0.24833070913500382,-1.061657814107152,0.29515543580055237,2.0723352432250977,0.05629515275359154,0.01318868063390255,-0.998559296131134,-0.05201311036944389,0.07364913821220398,0.4884122610092163,0.0963093712925911
1.5200898315339888,0.26038570863895777,-1.0528921275668404,0.2682191729545593,2.0906827449798584,0.182184636592865,0.013049415312707424,-0.9987146854400635,-0.04897793382406235,0.09066463261842728,0.4803277850151062,0.08840662240982056
1.5233980582524709,0.24837155120817572,-1.0199936170948964,0.2982757091522217,2.0885345935821533,0.29651939868927,0.011647714301943779,-0.9988769292831421,-0.045928020030260086,0.10198455303907394,0.4721739888191223,0.0743551254272461
1.5273308391050153,0.2108147905516551,-0.9614727080002042,0.3483010530471802,2.09417724609375,0.3994537591934204,0.009093012660741806,-0.9990555047988892,-0.04249182716012001,0.06497322022914886,0.4732680916786194,0.057735323905944824
1.531768265473699,0.1411411118843491,-0.8709531819977298,0.3954876661300659,2.0635738372802734,0.49186888337135315,0.005489028058946133,-0.9992384910583496,-0.03863177075982094,0.035252008587121964,0.47020095586776733,0.06034499779343605
1.5362350591992016,0.026655692211298102,-0.7358652841514627,0.4024832546710968,2.0555145740509033,0.5718819499015808,0.0009211352444253862,-0.9994028210639954,-0.03454861044883728,0.0023748292587697506,0.45620495080947876,0.07782250642776489
1.5395795362611573,-0.14024755652011298,-0.5480388392529575,0.32364726066589355,2.130127429962158,0.6182042956352234,-0.004364072810858488,-0.999512791633606,-0.03091263957321644,-0.037139762192964554,0.43264853954315186,0.10589432716369629
1.5404127539235906,-0.3354009014400031,-0.3306655458491324,0.1408769190311432,2.308952808380127,0.6450132727622986,-0.010001667775213718,-0.9995384812355042,-0.028693370521068573,-0.08962288498878479,0.41248685121536255,0.1503974199295044
1.5376721949491974,-0.500027301655231,-0.14188538996598526,-0.17117886245250702,2.5048882961273193,0.6720173358917236,-0.015879901126027107,-0.9994514584541321,-0.02906607836484909,-0.11240065097808838,0.38830631971359253,0.2118358016014099
1.530950841160463,-0.5810926535963199,-0.03499073306285127,-0.5862242579460144,2.650249719619751,0.6907524466514587,-0.02187071368098259,-0.9992062449455261,-0.03330238163471222,-0.10370903462171555,0.3655848503112793,0.307441771030426
1.5204042979213124,-0.5875425184745862,-0.0014880380923439234,-1.0013936758041382,2.7573130130767822,0.7326226830482483,-0.027924347668886185,-0.9987305998802185,-0.04192830249667168,-0.10830604285001755,0.3646361231803894,0.3919038772583008
1.5064683773858238,-0.5602111247228412,-0.0010790522956671416,-1.3272162675857544,2.798060417175293,0.778286874294281,-0.034158844500780106,-0.9979316592216492,-0.05445864796638489,-0.10335327684879303,0.3601599931716919,0.418487548828125
1.4901298436175239,-0.520649056859964,-0.01218295565559693,-1.5492191314697266,2.929433584213257,0.762684166431427,-0.040084343403577805,-0.9967482089996338,-0.06990350037813187,-0.12741130590438843,0.35812199115753174,0.39021599292755127
1.4722542049517413,-0.4783273793509344,-0.024346842927594217,-1.6911461353302002,3.119168758392334,0.7694104909896851,-0.045285578817129135,-0.9951486587524414,-0.08734183013439178,-0.1911187469959259,0.36512839794158936,0.3125615119934082
1.4530357624901675,-0.4415945849940598,-0.02922989740953915,-1.8047560453414917,3.259169340133667,0.8591603636741638,-0.05021330714225769,-0.9930742383003235,-0.10621984302997589,-0.18080466985702515,0.3719192147254944,0.2604709267616272
1.4321760864080082,-0.4155888235736293,-0.022348268941575145,-1.9248976707458496,3.304914951324463,1.0485100746154785,-0.055786412209272385,-0.9904075860977173,-0.12641608715057373,-0.10914573073387146,0.39121007919311523,0.26281440258026123
1.4093053308802843,-0.40142482467965485,-0.0034038974615217864,-2.0572445392608643,3.28226637840271,1.294572114944458,-0.06282572448253632,-0.9869886636734009,-0.14800849556922913,-0.025339439511299133,0.4182935357093811,0.29826176166534424
1.3843072275711408,-0.39551824895712245,0.023779095900194305,-2.1907196044921875,3.2745206356048584,1.511630892753601,-0.07143604755401611,-0.982661247253418,-0.17109598219394684,0.022974252700805664,0.43342113494873047,0.32488930225372314
1.3573836127192926,-0.392675364522104,0.05466627744693465,-2.317871570587158,3.374040126800537,1.6933107376098633,-0.08104652166366577,-0.9773138165473938,-0.19567672908306122,0.02201037108898163,0.43304795026779175,0.3172892928123474
1.328583741731889,-0.3892963762251737,0.08656518078418977,-2.4660518169403076,3.5279030799865723,1.8330073356628418,-0.0910327136516571,-0.9708096385002136,-0.22190509736537933,0.010557971894741058,0.41865503787994385,0.29261428117752075
1.2982083043733639,-0.3826593154842006,0.11694152718547979,-2.5758519172668457,3.691716194152832,1.8834228515625,-0.10052570700645447,-0.9630773663520813,-0.24975359439849854,-0.030730292201042175,0.395633339881897,0.28336867690086365
1.2671093027895957,-0.372006980707447,0.14505580400279838,-2.620272397994995,3.8434810638427734,1.9046354293823242,-0.10869713127613068,-0.9542403817176819,-0.27858638763427734,-0.11882655322551727,0.3749403953552246,0.24632930755615234
1.2352892191827582,-0.3584052302104004,0.1721009838735502,-2.7340471744537354,3.9716012477874756,1.9662914276123047,-0.11549423635005951,-0.9442434906959534,-0.308327317237854,-0.13653507828712463,0.36776620149612427,0.22490748763084412
1.2022567211773418,-0.34422244471876556,0.1982947719534956,-2.8518924713134766,3.7768964767456055,2.0073442459106445,-0.12157303094863892,-0.9328544735908508,-0.3391207754611969,-0.11774569749832153,0.34970909357070923,0.3175447881221771
1.1684261699547445,-0.33151045000619533,0.22377753872161266,-2.903249502182007,3.4933619499206543,2.054922103881836,-0.12745480239391327,-0.9201354384422302,-0.3702784478664398,-0.09710864722728729,0.33596789836883545,0.3426905572414398
1.1341773309206353,-0.32156971468813206,0.24958048997459822,-2.91916561126709,3.2279276847839355,2.145726203918457,-0.13365332782268524,-0.906186580657959,-0.4012017846107483,-0.07476635277271271,0.29400384426116943,0.3037438988685608
1.0996397708091843,-0.3145789358137882,0.2763844341623147,-2.913019895553589,3.000495195388794,2.2486555576324463,-0.14044933021068573,-0.8910439014434814,-0.4316421449184418,-0.06812293827533722,0.25376051664352417,0.2680068612098694
1.0651673554700463,-0.3096683621850788,0.30356967952336994,-2.8725924491882324,2.797074794769287,2.290992259979248,-0.14760461449623108,-0.8748700022697449,-0.46131935715675354,-0.08820457756519318,0.23815113306045532,0.22522014379501343
1.0312462869997956,-0.30520607006087763,0.3296391475797796,-2.815518856048584,2.6313059329986572,2.2376928329467773,-0.15437664091587067,-0.8579399585723877,-0.490007221698761,-0.1419489085674286,0.22863686084747314,0.178880512714386
0.9983358772912414,-0.29936043227771075,0.35311931005869657,-2.7357559204101562,2.544471025466919,2.0860486030578613,-0.15975287556648254,-0.8405706882476807,-0.5176099538803101,-0.21169167757034302,0.2125036120414734,0.12410104274749756
0.9669276263980645,-0.29117255849988943,0.3733190212641178,-2.6294214725494385,2.457413673400879,1.8937617540359497,-0.16301053762435913,-0.8231450319290161,-0.5439301133155823,-0.2748097777366638,0.19156837463378906,0.05889904499053955
0.937227713361671,-0.28146830497718844,0.39074275293592864,-2.5029067993164062,2.3286783695220947,1.734736680984497,-0.16444458067417145,-0.8059199452400208,-0.5687276124954224,-0.2917778193950653,0.16683602333068848,-0.006864368915557861
0.9094194406616283,-0.2713715801420666,0.4064804534659965,-2.3321261405944824,2.2107784748077393,1.619649887084961,-0.16463927924633026,-0.7891473174095154,-0.5917267203330994,-0.271639883518219,0.1444023847579956,-0.07448720932006836
0.8838703157054777,-0.26165902279141956,0.4213931234560619,-2.1083335876464844,2.0587098598480225,1.5271779298782349,-0.16404758393764496,-0.7731990814208984,-0.6125778555870056,-0.2525019645690918,0.11624711751937866,-0.13316494226455688
0.8610252171930445,-0.2533346000536727,0.43574366762618777,-1.842321515083313,1.7937761545181274,1.4269747734069824,-0.1633278876543045,-0.7585110664367676,-0.6308605670928955,-0.23044025897979736,0.0940822958946228,-0.17103451490402222
0.8411777784097969,-0.24769971672349228,0.44969032554704447,-1.552765130996704,1.4296785593032837,1.3469539880752563,-0.16342975199222565,-0.745428740978241,-0.6462404727935791,-0.20992214977741241,0.09120810031890869,-0.18525665998458862
0.8244029915200592,-0.24561542385224866,0.46345725870329213,-1.249988317489624,1.0294512510299683,1.2697176933288574,-0.16509999334812164,-0.734142541885376,-0.6586173176765442,-0.18122859299182892,0.08494198322296143,-0.18304216861724854
0.8109157033598245,-0.24679618153566518,0.47681025289801876,-0.9294704794883728,0.7027020454406738,1.1593527793884277,-0.16828133165836334,-0.7249182462692261,-0.6679633259773254,-0.1542282998561859,0.05427908897399902,-0.20529717206954956
0.8005193221920126,-0.2496843474630695,0.48917834835396384,-0.6830745339393616,0.5242823958396912,1.011323094367981,-0.17206284403800964,-0.7177178263664246,-0.6747411489486694,-0.18720518052577972,0.01477581262588501,-0.24293768405914307
0.7922929894739449,-0.25242208371866726,0.4997379176978978,-0.5617619752883911,0.45002683997154236,0.8275503516197205,-0.17537812888622284,-0.7119653224945068,-0.6799617409706116,-0.23381666839122772,-0.01555854082107544,-0.23671001195907593
0.7850738266316468,-0.2535709271446475,0.5076554329765202,-0.57032310962677,0.4503405690193176,0.6137957572937012,-0.1774439662694931,-0.7068774104118347,-0.6847175359725952,-0.25439488887786865,-0.050477445125579834,-0.20650255680084229
0.7779167218556072,-0.25227553029827365,0.5124641459101352,-0.6515939831733704,0.49285343289375305,0.40955421328544617,-0.17781510949134827,-0.7017968893051147,-0.6898282766342163,-0.2642318606376648,-0.0937507152557373,-0.1844698190689087
0.77034652424771,-0.24830099675600625,0.5144726535797247,-0.7483710050582886,0.6018112897872925,0.2538739740848541,-0.17637258768081665,-0.6963839530944824,-0.6956595182418823,-0.2516820728778839,-0.11990028619766235,-0.18252956867218018
0.7619935317795973,-0.24128076808731042,0.5145564936494658,-0.8770679831504822,0.8199787735939026,0.1726108342409134,-0.1728685200214386,-0.6903650760650635,-0.7025045156478882,-0.21383483707904816,-0.13428103923797607,-0.19407141208648682
0.752302033484099,-0.2315440534831561,0.5135697840710608,-1.0486938953399658,0.9813223481178284,0.1477256566286087,-0.16754789650440216,-0.6833212971687317,-0.7106332778930664,-0.1973353922367096,-0.1368386149406433,-0.20056051015853882
0.7408959943242069,-0.22040015207359873,0.5121087531639706,-1.2202683687210083,1.0436493158340454,0.15727496147155762,-0.16131193935871124,-0.6749492883682251,-0.7200152277946472,-0.196659117937088,-0.12377208471298218,-0.175675630569458
0.7280697305584007,-0.20888697661039451,0.5105667546976977,-1.3298083543777466,1.049580454826355,0.16090045869350433,-0.1547943651676178,-0.6654300093650818,-0.7302339673042297,-0.18738383054733276,-0.12135905027389526,-0.161871075630188
0.7146448726852502,-0.19720126132827256,0.5087717129811983,-1.3482774496078491,1.0636755228042603,0.11154968291521072,-0.1479877084493637,-0.6553491950035095,-0.7406868934631348,-0.19872236251831055,-0.14515745639801025,-0.18523168563842773
0.7014664863375659,-0.18464833854530321,0.5064649573403353,-1.3055320978164673,1.1630133390426636,0.050220973789691925,-0.14025208353996277,-0.6453386545181274,-0.7509110569953918,-0.2285374253988266,-0.1769118309020996,-0.23456251621246338
0.6887845235626268,-0.1705968014527148,0.5038823457178149,-1.2701648473739624,1.3217488527297974,0.010750798508524895,-0.13106609880924225,-0.6355992555618286,-0.7608122229576111,-0.2385626584291458,-0.20036882162094116,-0.26416635513305664
0.6762527405348114,-0.15513209532589164,0.501044838515751,-1.2848769426345825,1.395378828048706,-0.04231055825948715,-0.12050645798444748,-0.6258748769760132,-0.7705575227737427,-0.22270934283733368,-0.2216135859489441,-0.24512845277786255
0.6634477402606603,-0.13936330614278214,0.4974764797129944,-1.3375462293624878,1.307286262512207,-0.14120492339134216,-0.10944560170173645,-0.6158369183540344,-0.7802349925041199,-0.1882684826850891,-0.22129082679748535,-0.19014763832092285
0.6501590668436954,-0.12382712289379512,0.49267180477503,-1.4045110940933228,1.2282217741012573,-0.26683491468429565,-0.09831316024065018,-0.6053130030632019,-0.789892852306366,-0.14390471577644348,-0.21486222743988037,-0.12511569261550903
0.6361776932983645,-0.10779869925011704,0.486596650402767,-1.4945366382598877,1.264613151550293,-0.3658408522605896,-0.08654247969388962,-0.5941252112388611,-0.7997034788131714,-0.11461399495601654,-0.2263551950454712,-0.10988819599151611
0.6211643422739774,-0.0909430723896072,0.48018093796319833,-1.603893518447876,1.3556065559387207,-0.3571455180644989,-0.07385313510894775,-0.5819823741912842,-0.8098408579826355,-0.11636278033256531,-0.2171052098274231,-0.11247658729553223
0.604927225834063,-0.07407495417216921,0.4746305455119688,-1.7058156728744507,1.3630388975143433,-0.27509456872940063,-0.06087416782975197,-0.568702220916748,-0.8202878832817078,-0.0953756719827652,-0.14661461114883423,-0.08774739503860474
0.5879225362010754,-0.05885088068995419,0.4706214398768504,-1.7234692573547363,1.222272515296936,-0.1599513441324234,-0.048941243439912796,-0.5546335577964783,-0.8306542038917542,-0.051125723868608475,-0.087380051612854,-0.06761544942855835
0.5711142764377207,-0.04641570240808877,0.46839235728465217,-1.6523140668869019,1.017775297164917,-0.03637799620628357,-0.03903547301888466,-0.5405698418617249,-0.84039306640625,-0.015865493565797806,-0.09105253219604492,-0.06358331441879272
0.5550821625887754,-0.03679668748257684,0.4677815849067809,-1.5651050806045532,0.8614376783370972,0.058580972254276276,-0.03126487135887146,-0.5270131230354309,-0.8492818474769592,0.007308728992938995,-0.14225268363952637,-0.058219313621520996
0.539694358419931,-0.028778509337085437,0.46785135264779687,-1.5183519124984741,0.7580942511558533,0.03244763985276222,-0.024684691801667213,-0.513873815536499,-0.8575105667114258,0.012737220153212547,-0.20837050676345825,-0.05436992645263672
0.5248288647967326,-0.020967860820572545,0.466808399971348,-1.4579529762268066,0.7117860317230225,-0.15110594034194946,-0.018144460394978523,-0.5010648965835571,-0.8652194738388062,-0.0359172597527504,-0.26959550380706787,-0.09034687280654907
0.5105842228715175,-0.012127819978977335,0.46359324198841556,-1.4090533256530762,0.7409455180168152,-0.3560817241668701,-0.010580768808722496,-0.48868703842163086,-0.8723950386047363,-0.13065442442893982,-0.3038087487220764,-0.13918638229370117
0.49657894958204585,-0.0022247576356207582,0.45834302408455435,-1.4074559211730957,0.7270920276641846,-0.5468335151672363,-0.001956044463440776,-0.47642049193382263,-0.87921541929245,-0.18227840960025787,-0.30189988017082214,-0.13149625062942505
0.4824356130714383,0.008118305329672618,0.4512036867776142,-1.4221941232681274,0.67542964220047,-0.714299738407135,0.0071916645392775536,-0.4639381766319275,-0.8858383893966675,-0.1892136037349701,-0.2874046266078949,-0.09318071603775024
0.46810892869433307,0.018583526678515556,0.44295995988966536,-1.4244776964187622,0.669003963470459,-0.7727135419845581,0.016583414748311043,-0.451199471950531,-0.8922690749168396,-0.15690307319164276,-0.26359856128692627,-0.0788612961769104
0.45382370024519597,0.02867805081764902,0.43503885548672205,-1.3984224796295166,0.6367735862731934,-0.7026864886283875,0.025771649554371834,-0.4384053945541382,-0.8984078168869019,-0.08492980897426605,-0.2300516963005066,-0.08729469776153564
0.4398847556978853,0.03738734656863389,0.42852360027583136,-1.3541251420974731,0.5353183746337891,-0.5589196085929871,0.033820219337940216,-0.42583519220352173,-0.9041684865951538,-0.018423929810523987,-0.20230817794799805,-0.08812582492828369
0.4264112791102983,0.044004040411661824,0.4239202187291506,-1.3083683252334595,0.40131476521492004,-0.38568180799484253,0.04005081206560135,-0.41360610723495483,-0.909574568271637,0.022830825299024582,-0.17945730686187744,-0.07640254497528076
0.41353321477497357,0.048438054127773314,0.42114048321484393,-1.2421271800994873,0.26350829005241394,-0.24957358837127686,0.04433770850300789,-0.4018472135066986,-0.9146327376365662,0.045185770839452744,-0.16898414492607117,-0.06276899576187134
0.4015681776081947,0.05122453749014988,0.419345207466298,-1.1264878511428833,0.16325385868549347,-0.21065814793109894,0.04712896794080734,-0.39086225628852844,-0.9192418456077576,0.04271494969725609,-0.19441917538642883,-0.08539676666259766
0.39111608162133754,0.05357063020619313,0.4174820889898171,-0.9388347268104553,0.17723555862903595,-0.24898883700370789,0.04950151592493057,-0.3812204599380493,-0.9231579303741455,-0.0020159967243671417,-0.23570770025253296,-0.16442745923995972
0.38262004317888404,0.05676289786289459,0.4147738097635465,-0.7373594045639038,0.26988640427589417,-0.35282307863235474,0.05263007804751396,-0.3733523488044739,-0.926195502281189,-0.05365225300192833,-0.2504574954509735,-0.25303417444229126
0.3758593073052727,0.06166582594215598,0.4106269797237101,-0.5763481855392456,0.40576252341270447,-0.5009748935699463,0.05732474476099014,-0.3670719861984253,-0.9284244775772095,-0.10067479312419891,-0.24089926481246948,-0.28150588274002075
0.37026110921853844,0.06842143337859452,0.40488297393896916,-0.47995075583457947,0.5268468856811523,-0.632948100566864,0.06373495608568192,-0.3618588447570801,-0.9300516247749329,-0.11697270721197128,-0.22664213180541992,-0.27525532245635986
0.3652911887435108,0.07673299987283785,0.39812018674369437,-0.4236060380935669,0.6481446027755737,-0.6895178556442261,0.07159982621669769,-0.3572212755680084,-0.9312714338302612,-0.09071891754865646,-0.21411359310150146,-0.26001274585723877
0.3607235696865241,0.08586740516521581,0.3911132112883077,-0.38105297088623047,0.6627248525619507,-0.6868919730186462,0.08024243265390396,-0.352951318025589,-0.9321944713592529,-0.03934870660305023,-0.2042233943939209,-0.23946690559387207
0.35661978503792047,0.09424579164787969,0.38437076529298125,-0.3192099928855896,0.5260633826255798,-0.6439909934997559,0.0881853774189949,-0.3491086959838867,-0.9329236149787903,0.021586529910564423,-0.19480612874031067,-0.20742672681808472
0.3533054118817419,0.10059906776373631,0.378170690760303,-0.22087381780147552,0.3132188022136688,-0.575914204120636,0.09422636777162552,-0.34600093960762024,-0.9334906339645386,0.07641284912824631,-0.17716193199157715,-0.17899715900421143
0.3512240636006211,0.10471075199899704,0.37267851417313264,-0.08466733247041702,0.14018113911151886,-0.4951742887496948,0.09813883155584335,-0.3440473973751068,-0.9338095188140869,0.10759560018777847,-0.15593737363815308,-0.17944121360778809
0.35066338730561986,0.10733321022281322,0.3677958467904582,0.0711427703499794,0.05729823186993599,-0.43347737193107605,0.10060802102088928,-0.3435209095478058,-0.9337405562400818,0.10468390583992004,-0.1368410587310791,-0.20499229431152344
0.3517071436676225,0.10927152272347536,0.3632232735845942,0.2272084504365921,0.02263442426919937,-0.4062124490737915,0.10237854719161987,-0.34450095891952515,-0.9331868886947632,0.07701920717954636,-0.12933024764060974,-0.23548376560211182
0.35418260475368096,0.11121878925508522,0.35861987863725564,0.35640639066696167,0.06006169319152832,-0.4026089310646057,0.1041005477309227,-0.3468238115310669,-0.9321353435516357,0.05176815390586853,-0.126488596200943,-0.24532431364059448
0.35775158122125444,0.11404633183903608,0.3538111321724742,0.44963300228118896,0.17429323494434357,-0.41184064745903015,0.10659424215555191,-0.3501690626144409,-0.9306015968322754,0.03450395166873932,-0.12459293007850647,-0.23919814825057983
0.36200902708612404,0.1180982311328982,0.34886888491358914,0.49866044521331787,0.28510233759880066,-0.4067039489746094,0.11018740385770798,-0.35415375232696533,-0.9286732077598572,0.026089012622833252,-0.11340609192848206,-0.22139698266983032
0.36656239270247576,0.12328312990333243,0.34401702165396736,0.5112022161483765,0.4114913046360016,-0.38218891620635986,0.11480148881673813,-0.3584083318710327,-0.9264793992042542,0.028234586119651794,-0.08592763543128967,-0.19441592693328857
0.3710796782590233,0.12975373435538587,0.33943485918292926,0.4913982152938843,0.5521983504295349,-0.35152074694633484,0.12058320641517639,-0.36262184381484985,-0.9241023659706116,0.03177597373723984,-0.06727933883666992,-0.16406291723251343
0.37528593551463485,0.13741149215712864,0.33517566524115966,0.4505964517593384,0.6688053607940674,-0.32286036014556885,0.12744608521461487,-0.3665385842323303,-0.9216327667236328,0.025721818208694458,-0.054420918226242065,-0.1312846541404724
0.3791094391632754,0.14594481136286017,0.3312206946216974,0.4103209376335144,0.738982081413269,-0.29844048619270325,0.13510113954544067,-0.37009328603744507,-0.9191184043884277,0.028473258018493652,-0.03548535704612732,-0.09539264440536499
0.3826325491726477,0.1546762482078681,0.3275366953848118,0.3947317898273468,0.7270357012748718,-0.2721729278564453,0.14291934669017792,-0.3733639419078827,-0.9166097640991211,0.035150885581970215,-0.025088846683502197,-0.060318946838378906
0.3862480001129177,0.16290285918700903,0.32405009956497116,0.42841944098472595,0.6556875109672546,-0.25322479009628296,0.150235116481781,-0.3767154812812805,-0.9140650033950806,0.03729560971260071,-0.01245996356010437,-0.04116564989089966
0.3903275984889018,0.17050398429922212,0.320553100530349,0.48508477210998535,0.605461597442627,-0.2519824802875519,0.156916543841362,-0.3804914057254791,-0.9113745093345642,0.03880810737609863,-0.006364703178405762,-0.031618595123291016
0.39493555534184005,0.1779492201910938,0.31678253917509774,0.5444874167442322,0.6015017032623291,-0.27924445271492004,0.16338545083999634,-0.3847486972808838,-0.9084457159042358,0.02220737934112549,-0.006990224123001099,-0.022874414920806885
0.40001898913130296,0.18577408144143878,0.31239874331274414,0.6046898365020752,0.630419135093689,-0.33547243475914,0.17012538015842438,-0.3894358277320862,-0.9052055478096008,-0.011189654469490051,-0.006575554609298706,-0.024283528327941895
0.4055130673384261,0.19439853041815233,0.3071767733266201,0.6582023501396179,0.6881170868873596,-0.40050309896469116,0.1775098443031311,-0.3944902718067169,-0.9015917778015137,-0.03590810298919678,-0.005106925964355469,-0.024174213409423828
0.4113281083506426,0.20395784865888972,0.30106821364374803,0.7039159536361694,0.7370097041130066,-0.4709537625312805,0.18565241992473602,-0.3998270034790039,-0.8975920677185059,-0.04217386245727539,0.0069131553173065186,-0.016317784786224365
0.4172175177059175,0.21404698897837365,0.29409035731772964,0.7080462574958801,0.7090023159980774,-0.5335540175437927,0.1941951960325241,-0.4052182137966156,-0.8933568596839905,-0.03275704383850098,0.0099698007106781,0.008133530616760254
0.4226989935550819,0.22371763517727652,0.2865729400308614,0.6549648642539978,0.6084755063056946,-0.5656470656394958,0.20232948660850525,-0.4102233946323395,-0.8892579078674316,-0.01766742765903473,-0.00031435489654541016,0.05446481704711914
0.4273187416700475,0.2323068431637919,0.27901041064053156,0.5549437403678894,0.48664629459381104,-0.5703696608543396,0.20952141284942627,-0.4144321382045746,-0.8856335878372192,0.0018282681703567505,0.009692728519439697,0.11576664447784424
0.430679441398442,0.23922798407020204,0.2717930094318314,0.3977417051792145,0.2834378480911255,-0.5433416366577148,0.21531470119953156,-0.41748830676078796,-0.8828040957450867,0.02681194245815277,0.04143539071083069,0.18219685554504395
0.4323752526874852,0.24350868117977983,0.26572141119319304,0.1933416873216629,0.07354718446731567,-0.43788981437683105,0.2189207226037979,-0.419028639793396,-0.8811860084533691,0.06924170255661011,0.0650399923324585,0.22876602411270142
0.43247517429840965,0.24519387140393503,0.26157045874696083,0.01613675057888031,-0.07522167265415192,-0.2898503541946411,0.22039520740509033,-0.41911935806274414,-0.8807752132415771,0.08377368748188019,0.06374213099479675,0.18703436851501465
0.43139873570660436,0.2450501992345822,0.25921577130677126,-0.11805247515439987,-0.13942809402942657,-0.18525256216526031,0.22037798166275024,-0.41814178228378296,-0.8812440037727356,0.08769714832305908,0.07109588384628296,0.15875566005706787
0.4294347716130794,0.24429238686085203,0.25792420771812635,-0.19781671464443207,-0.10735372453927994,-0.14291994273662567,0.21990829706192017,-0.4163569509983063,-0.8822059035301208,0.07267913222312927,0.059728533029556274,0.10945510864257812
0.4271211217072441,0.24401889719342543,0.2570210637744408,-0.20466770231723785,-0.022827381268143654,-0.13200125098228455,0.21989917755126953,-0.41425228118896484,-0.8831983804702759,0.03940887749195099,0.029776543378829956,0.018208205699920654
0.42489546782266147,0.24441264098908685,0.25614325879755184,-0.18906179070472717,0.023863572627305984,-0.12936486303806305,0.22046947479248047,-0.41222554445266724,-0.8840041160583496,0.021474063396453857,0.02054765820503235,-0.028837621212005615
0.4227194365971686,0.24501279927411015,0.25532023183290253,-0.2031930536031723,0.01704321801662445,-0.12169096618890762,0.22121703624725342,-0.4102420210838318,-0.8847398161888123,0.015874221920967102,0.0152682363986969,-0.01839733123779297
0.4202698955790772,0.24474447891581594,0.2548358058965797,-0.2530251443386078,-0.1264871060848236,-0.06861476600170135,0.22122247517108917,-0.408006876707077,-0.8857714533805847,0.021117806434631348,0.02585047483444214,0.04733157157897949
0.4174627887487991,0.24228145513496097,0.2556518954104346,-0.3363834321498871,-0.2940492331981659,0.0844096690416336,0.21931405365467072,-0.4054424464702606,-0.8874220252037048,0.05632089078426361,0.06012076139450073,0.11377096176147461
0.4139637333175638,0.23764424453029376,0.2584564606928803,-0.467685341835022,-0.4024319648742676,0.2475755214691162,0.2155291885137558,-0.40224140882492065,-0.8898028135299683,0.07962174713611603,0.06068864464759827,0.14219850301742554
0.40956435471009295,0.23135787819970655,0.26322509682928275,-0.5916160345077515,-0.4713950455188751,0.39893388748168945,0.21033509075641632,-0.39820975065231323,-0.8928539752960205,0.0672377347946167,0.050645023584365845,0.156480073928833
0.40427913713111324,0.22412320541765643,0.2696740011470867,-0.7091917395591736,-0.4507448375225067,0.5112489461898804,0.2043350338935852,-0.3933561146259308,-0.896391749382019,0.06547105312347412,0.0383603572845459,0.15563863515853882
0.3980048956826763,0.21727699687472524,0.2771325009344594,-0.8132187724113464,-0.3276141285896301,0.5457009673118591,0.19872154295444489,-0.38757994771003723,-0.9001619815826416,0.04844048619270325,0.02196410298347473,0.15220671892166138
0.3909656050467332,0.21182526236016946,0.2846856321525206,-0.8528897762298584,-0.18507884442806244,0.5121906995773315,0.19437997043132782,-0.38108134269714355,-0.9038769006729126,0.010988250374794006,-0.000891953706741333,0.10921448469161987
0.3837338131640859,0.20796544299351238,0.29161602684434645,-0.8233180046081543,-0.0662403255701065,0.43983393907546997,0.1914537400007248,-0.3743853271007538,-0.9072932600975037,-0.029801949858665466,-0.016605913639068604,0.04466819763183594
0.3769112932670993,0.20588294145523375,0.29746629120274193,-0.7317537665367126,0.09302768856287003,0.34357911348342896,0.1900816410779953,-0.36805033683776855,-0.9101691842079163,-0.05229461193084717,-0.015235215425491333,0.006803154945373535
0.3709963355577031,0.20594835885154403,0.3019642848005805,-0.5941349267959595,0.23938116431236267,0.23544223606586456,0.19058305025100708,-0.36254414916038513,-0.9122717976570129,-0.055756211280822754,-0.008702218532562256,-0.015386223793029785
0.366359719888213,0.20756082128513573,0.30501098126838194,-0.42751461267471313,0.28782209753990173,0.13311263918876648,0.19239814579486847,-0.35821911692619324,-0.9135984182357788,-0.06843556463718414,-0.01069265604019165,-0.038778841495513916
0.3632375923948782,0.20960186655165505,0.30668620368186733,-0.25037524104118347,0.23389017581939697,0.04867178201675415,0.19449418783187866,-0.3553024232387543,-0.9142932891845703,-0.07227110862731934,-0.006254613399505615,-0.05024522542953491
0.3615677213117588,0.21141066740437972,0.30731368351092114,-0.10927451401948929,0.1721419394016266,0.0025011245161294937,0.1962718665599823,-0.35374101996421814,-0.9145188331604004,-0.055097371339797974,0.005077660083770752,-0.03013753890991211
0.36093722859392324,0.21263013562244834,0.30746331552146705,-0.02961483784019947,0.07782423496246338,0.003988500684499741,0.1974339783191681,-0.35315123200416565,-0.9144966006278992,-0.029922813177108765,0.014009356498718262,0.012473344802856445
0.3608319655211775,0.21285930470435271,0.3077082953371892,-0.008250099606812,-0.013863170519471169,0.03787902370095253,0.19765140116214752,-0.3530527353286743,-0.9144876599311829,0.00016373395919799805,0.02002963423728943,0.06109416484832764
0.3607810347537561,0.21201269096864492,0.3083505956905837,-0.030268849804997444,-0.1139058843255043,0.07659606635570526,0.19688089191913605,-0.3530050814151764,-0.9146722555160522,0.024219125509262085,0.014794021844863892,0.08593696355819702
0.3605450162353752,0.20994902425150538,0.30940001905989184,-0.0584859773516655,-0.2217618077993393,0.10280818492174149,0.1950102597475052,-0.35278424620628357,-0.9151580333709717,0.04066191613674164,0.009018957614898682,0.08768922090530396
0.3601438890865163,0.20697481911933513,0.31067314742609536,-0.06905899941921234,-0.2737136781215668,0.11420731246471405,0.19231659173965454,-0.35240888595581055,-0.9158724546432495,0.04753650724887848,0.005835980176925659,0.07157313823699951
0.35972842344435757,0.20393746498087786,0.3120989330360786,-0.06722141057252884,-0.2227892130613327,0.1326758712530136,0.18956352770328522,-0.3520200550556183,-0.9165956377983093,0.0463070422410965,0.0037686824798583984,0.0516817569732666
0.3593103376276477,0.20159305659112742,0.31375285897771915,-0.08071938157081604,-0.1309482455253601,0.15463629364967346,0.1874435842037201,-0.35162869095802307,-0.917181670665741,0.03351911902427673,0.013020873069763184,0.03687161207199097
0.3586350808840332,0.20005087176729924,0.3156101841791604,-0.12307029962539673,-0.05150137096643448,0.15691018104553223,0.18607603013515472,-0.3509964942932129,-0.9177021384239197,0.016499817371368408,0.016157597303390503,0.030357837677001953
0.35747365307152174,0.19914864747020147,0.3174451326585024,-0.17299844324588776,-0.0037788567133247852,0.13129828870296478,0.18532851338386536,-0.349908709526062,-0.918268620967865,0.0030871927738189697,0.011102527379989624,0.030848026275634766
0.3558087443459989,0.19866686666608982,0.3189913926225189,-0.2099732607603073,0.010452331975102425,0.0896177813410759,0.18500080704689026,-0.34834855794906616,-0.9189276099205017,-0.011828631162643433,0.004079729318618774,0.032483577728271484
0.3537507335160329,0.19824982127613613,0.32021931048697716,-0.23732472956180573,-0.009029757231473923,0.05726197361946106,0.18475836515426636,-0.34641873836517334,-0.9197056293487549,-0.01704883575439453,0.0006393194198608398,0.04421740770339966
0.3514698771443323,0.1976198564296208,0.32125737868288406,-0.24695338308811188,-0.04789220169186592,0.044426869601011276,0.18433359265327454,-0.3442781865596771,-0.9205942153930664,-0.00452384352684021,-0.006414592266082764,0.042649269104003906
0.34915607184603753,0.1966695824695618,0.3222201981686028,-0.2447538822889328,-0.07010642439126968,0.042425770312547684,0.1836138665676117,-0.3421049118041992,-0.9215477108955383,0.009593114256858826,-0.01633933186531067,0.026924967765808105
0.34684543341711516,0.1959297603779526,0.32307810255585356,-0.252232164144516,-0.04365004971623421,0.031168557703495026,0.18308542668819427,-0.33993279933929443,-0.9224562048912048,0.005574405193328857,-0.023440033197402954,0.01919698715209961
0.34437922614940497,0.19553066691141485,0.32376400762248797,-0.2614651024341583,-0.00598176522180438,0.006318334955722094,0.18287959694862366,-0.33761242032051086,-0.9233487844467163,-0.001543968915939331,-0.024554967880249023,0.0035337209701538086
0.3418067018508647,0.19558256701382695,0.32424063895638133,-0.2651093006134033,0.03411520645022392,-0.014773236587643623,0.18309569358825684,-0.3351898193359375,-0.9241881966590881,-0.018498972058296204,-0.021926909685134888,-0.015310704708099365
0.33926820718918693,0.1958960073600133,0.3245831014821617,-0.25257378816604614,0.04365118592977524,-0.019482238218188286,0.1835503876209259,-0.332797110080719,-0.9249623417854309,-0.02668987214565277,-0.011410683393478394,-0.018900513648986816
0.33692977394853324,0.19624634852782055,0.32483993244952064,-0.22788231074810028,0.04312547668814659,-0.02768051251769066,0.18402567505836487,-0.3305910527706146,-0.9256587624549866,-0.024815291166305542,-0.006048381328582764,-0.012863516807556152
0.3349244643026832,0.19659110065041754,0.3249291561448756,-0.18992534279823303,0.03413917496800423,-0.04028179496526718,0.1844739019870758,-0.3286978304386139,-0.9262435436248779,-0.02369186282157898,-0.007926344871520996,-0.013514697551727295
0.33333069257302345,0.19689632031553114,0.3247780685063145,-0.14667770266532898,0.01105883251875639,-0.05493966490030289,0.18485885858535767,-0.32719218730926514,-0.9266998171806335,-0.022428855299949646,-0.010881543159484863,-0.021557629108428955
0.3321735466829134,0.19703813084144423,0.324378915292084,-0.10190357267856598,-0.022337207570672035,-0.06680084764957428,0.18506425619125366,-0.3260985314846039,-0.9270442128181458,-0.020223379135131836,-0.005398690700531006,-0.025027871131896973
0.3314784435402046,0.19685017025738227,0.32382993388740905,-0.05117493495345116,-0.05666577070951462,-0.06673440337181091,0.18493430316448212,-0.3254413306713104,-0.9273010492324829,-0.010388821363449097,-0.002012282609939575,-0.030569374561309814
0.3312643068045194,0.1963329673690535,0.32319679154239594,0.0005567027255892754,-0.08603990077972412,-0.06545475125312805,0.18446826934814453,-0.3252388536930084,-0.9274649024009705,-0.0009506195783615112,-0.002275824546813965,-0.033487796783447266
0.33148726174635745,0.19543148138075908,0.32248577477201407,0.046181414276361465,-0.12536115944385529,-0.06528867036104202,0.18361800909042358,-0.325449675321579,-0.9275596737861633,0.001486554741859436,-0.006306946277618408,-0.032492756843566895
0.3320902353850818,0.1941797955832378,0.32173612301769905,0.08828572183847427,-0.14629440009593964,-0.05988086014986038,0.18241894245147705,-0.3260197639465332,-0.9275960326194763,0.006576612591743469,-0.0030970871448516846,-0.036484718322753906
0.3330468457768969,0.19295319675552897,0.3210271702353361,0.11609586328268051,-0.1212877482175827,-0.04366496950387955,0.1812211275100708,-0.3269239664077759,-0.9275125861167908,0.009162947535514832,0.0008588731288909912,-0.03995561599731445
0.33421812234639975,0.1919368900297625,0.3205054770770831,0.1257098913192749,-0.09683992713689804,-0.017185425385832787,0.18020524084568024,-0.32803064584732056,-0.9273197650909424,0.006593048572540283,0.004864722490310669,-0.03828686475753784
0.3354033411916255,0.19099991153843252,0.3202122386522962,0.11262308061122894,-0.09185630828142166,8.400669321417809e-05,0.17926234006881714,-0.3291500508785248,-0.9271058440208435,0.009046554565429688,0.006838619709014893,-0.03409099578857422
0.33632976267742487,0.19012277064053362,0.3200746645422675,0.07480299472808838,-0.07978153973817825,0.0034156208857893944,0.17839136719703674,-0.33002471923828125,-0.9269629120826721,0.005614563822746277,-0.0025101006031036377,-0.02198117971420288
0.33673373629087633,0.18931020846169674,0.3199572713813238,0.014929250814020634,-0.08802342414855957,-0.010165932588279247,0.17761299014091492,-0.3304060399532318,-0.9269765615463257,-0.003555804491043091,-0.015098750591278076,-0.0037027597427368164
0.33646082405982114,0.18844001632499235,0.3197331951791439,-0.04939674213528633,-0.10044893622398376,-0.04089774563908577,0.17682316899299622,-0.3301484286785126,-0.9272192716598511,-0.012653663754463196,-0.022527992725372314,0.01468271017074585
0.3356053869300471,0.18755542597177416,0.3192928056214435,-0.08996047079563141,-0.10808491706848145,-0.07045084983110428,0.17605547606945038,-0.3293408453464508,-0.9276524782180786,-0.021392211318016052,-0.022648930549621582,0.018961071968078613
0.3344751017200106,0.18661494150219615,0.3185641684113144,-0.09136635065078735,-0.13542360067367554,-0.10176562517881393,0.17525191605091095,-0.3282734155654907,-0.92818284034729,-0.022312909364700317,-0.019993215799331665,0.004461526870727539
0.3333992138067057,0.1855279485111588,0.3175228621340437,-0.06882788985967636,-0.1565784215927124,-0.12888222932815552,0.1743079274892807,-0.3272569477558136,-0.9287193417549133,-0.016592904925346375,-0.01614212989807129,-0.0060797929763793945
0.33259923080812365,0.18429785202408738,0.3161477060468409,-0.024089444428682327,-0.18445931375026703,-0.1522165834903717,0.17321330308914185,-0.32650092244148254,-0.9291901588439941,-0.00814354419708252,-0.014533042907714844,-0.00846242904663086
0.3322614604686811,0.1829101997148231,0.3144539768797197,0.029220540076494217,-0.21318688988685608,-0.1675758957862854,0.171943798661232,-0.32618165016174316,-0.9295380115509033,-0.005393922328948975,-0.015630513429641724,-0.01223444938659668
0.3325444974851228,0.18125137217462886,0.3125957250602388,0.09183438867330551,-0.24848735332489014,-0.16190630197525024,0.1703849732875824,-0.3264491856098175,-0.9297310709953308,0.0036722272634506226,-0.008801698684692383,-0.019792795181274414
0.33359933339253867,0.17918172031384516,0.31082111484153613,0.15849287807941437,-0.28274405002593994,-0.13129478693008423,0.168398916721344,-0.3274460434913635,-0.9297423958778381,0.023175358772277832,0.007041960954666138,-0.030279576778411865
0.3353854725983197,0.1767302300439957,0.3093377409647324,0.21675671637058258,-0.30389755964279175,-0.08403326570987701,0.16601607203483582,-0.32913318276405334,-0.9295752048492432,0.03186008334159851,0.020554661750793457,-0.038472890853881836
0.3377338419257241,0.17398931637540774,0.30831182072945645,0.2528271973133087,-0.30180269479751587,-0.030712058767676353,0.16333331167697906,-0.33134981989860535,-0.9292628765106201,0.029553234577178955,0.02765411138534546,-0.029385745525360107
0.34040527162096446,0.17125004329674842,0.30776450369459035,0.27228960394859314,-0.26926738023757935,0.011046040803194046,0.16063576936721802,-0.3338691294193268,-0.9288312792778015,0.02404153347015381,0.033393025398254395,-0.01573348045349121
0.34317286428612037,0.16885748519320845,0.30752315425688814,0.2737463116645813,-0.22259269654750824,0.02950168401002884,0.1582571417093277,-0.3364766538143158,-0.9282985329627991,0.01422835886478424,0.032002776861190796,-0.019073843955993652
0.345983966750397,0.1668788706739362,0.30733856843440616,0.2877694368362427,-0.1951189935207367,0.033089760690927505,0.1562623530626297,-0.3391225039958954,-0.9276734590530396,0.0033447444438934326,0.025813758373260498,-0.03613269329071045
0.3489956950396839,0.16527669447226231,0.30723725744454816,0.3119376301765442,-0.13208222389221191,0.054515291005373,0.1546071171760559,-0.34195423126220703,-0.9269109964370728,0.004954203963279724,0.027501076459884644,-0.053084731101989746
0.35218663772322156,0.16448386391952857,0.30742709258596873,0.306942343711853,-0.013823227025568485,0.08701704442501068,0.15369273722171783,-0.3449510633945465,-0.925952136516571,0.008966132998466492,0.03246629238128662,-0.055599987506866455
0.35520099303355657,0.16448821896299934,0.3080498630712353,0.2647860050201416,0.04880514368414879,0.12587299942970276,0.15352581441402435,-0.3477788269519806,-0.924921452999115,0.00890420377254486,0.031158924102783203,-0.037770748138427734
0.3577100365971491,0.16476908074196633,0.3091106058972143,0.19560879468917847,0.08043897897005081,0.14901986718177795,0.1536419689655304,-0.3501301407814026,-0.9240146279335022,0.01615801453590393,0.0160694420337677,-0.009838461875915527
0.35948528361547566,0.16520881631968576,0.310415522020773,0.11499350517988205,0.09842479228973389,0.14963214099407196,0.15394580364227295,-0.35179245471954346,-0.9233323931694031,0.011719048023223877,-0.0009907782077789307,0.009529352188110352
0.3604587239481423,0.1656942214081924,0.3117680116705589,0.03798234090209007,0.08958176523447037,0.12878891825675964,0.15433742105960846,-0.3527035117149353,-0.9229193925857544,-0.004251807928085327,-0.013019144535064697,0.01796644926071167
0.3607361529147459,0.16608702268386116,0.3128804180046163,-0.014825984835624695,0.06932276487350464,0.08324404060840607,0.15468375384807587,-0.35296308994293213,-0.9227621555328369,-0.01045750081539154,-0.01721513271331787,0.01422339677810669
0.3605572096672618,0.1665250040184081,0.31357164512667113,-0.03827138990163803,0.06802847236394882,0.03758760541677475,0.15509836375713348,-0.35279566049575806,-0.9227566123008728,-0.012901529669761658,-0.01765725016593933,0.0017666220664978027
0.3602130608417715,0.16717860245488292,0.3138546338176157,-0.03661716729402542,0.08886639028787613,0.007129200734198093,0.15572163462638855,-0.3524736166000366,-0.9227746725082397,-0.01263977587223053,-0.016468673944473267,-0.013580858707427979
0.3599225550896978,0.1682837532663342,0.3139367636782224,-0.02324383705854416,0.1411069631576538,0.0028673438355326653,0.15675848722457886,-0.35220175981521606,-0.922702968120575,-0.009739860892295837,-0.011811941862106323,-0.02596646547317505
0.35973880496544935,0.16994675622658548,0.3140665042128101,-0.01739223301410675,0.2024979293346405,0.018679730594158173,0.15830367803573608,-0.3520297706127167,-0.9225047826766968,-0.005486726760864258,-0.003850996494293213,-0.03788340091705322
0.35949732740604695,0.17217057307474484,0.31443734245273625,-0.0235286895185709,0.26063233613967896,0.04921180382370949,0.16036932170391083,-0.3518037497997284,-0.9222341775894165,-0.0009147971868515015,0.004315316677093506,-0.041877150535583496
0.3592744831666376,0.1748379589167726,0.3151118697275592,-0.04721418023109436,0.3111823499202728,0.06763185560703278,0.16284233331680298,-0.3515951335430145,-0.921880304813385,0.0028377920389175415,0.011812388896942139,-0.02811664342880249
0.3589129439024365,0.17767749625476728,0.31602769479725706,-0.07240847498178482,0.3274521231651306,0.08079905807971954,0.165481835603714,-0.3512566387653351,-0.9215391874313354,0.004058748483657837,0.012282639741897583,-0.013259947299957275
0.3584034863728351,0.18046578980816436,0.31712237194515663,-0.08558580279350281,0.3263565003871918,0.09198779612779617,0.1680828183889389,-0.35077962279319763,-0.9212501645088196,0.005440324544906616,0.008250296115875244,-0.0073539018630981445
0.357819437648617,0.18308692730824255,0.31833004438336676,-0.0894702896475792,0.30677133798599243,0.0958123579621315,0.17053422331809998,-0.3502326011657715,-0.9210076928138733,0.004514768719673157,0.0003637969493865967,9.40561294555664e-05
0.3572733992234326,0.18522517775955083,0.3195576234682082,-0.07395465672016144,0.24363914132118225,0.09000321477651596,0.1725383698940277,-0.34972110390663147,-0.9208288192749023,-0.0012125074863433838,-0.00017821788787841797,0.007895469665527344
0.35692470613749966,0.18664758609650653,0.3206274016856477,-0.03631247580051422,0.16568122804164886,0.07407031953334808,0.17387060821056366,-0.34939441084861755,-0.9207022190093994,0.0013920068740844727,0.006941378116607666,0.01217871904373169
0.356947046248738,0.18751003716639691,0.3214071319074679,0.02904578670859337,0.1087971180677414,0.056374579668045044,0.17466315627098083,-0.3494153320789337,-0.9205442667007446,0.002171128988265991,0.011387377977371216,0.003994643688201904
0.35751654584074777,0.18808932052511754,0.3218737094557999,0.09282264113426208,0.07814706116914749,0.04243426024913788,0.17515914142131805,-0.3499488830566406,-0.9202472567558289,0.003338351845741272,0.009082764387130737,-0.016215085983276367
0.3585073712797823,0.1886276712705904,0.32207882081351563,0.12339811772108078,0.06949550658464432,0.029699355363845825,0.1755894273519516,-0.35087689757347107,-0.9198117852210999,0.003030136227607727,0.0007792115211486816,-0.01768815517425537
0.35956473120692484,0.18926853361491056,0.3220925429769013,0.10821996629238129,0.07674489170312881,0.010337639600038528,0.1761089712381363,-0.35186684131622314,-0.9193342328071594,0.00048117339611053467,-0.0017403662204742432,-0.00023669004440307617
0.3603452241689494,0.19014247059346448,0.3219351962089825,0.06782928854227066,0.09435047954320908,-0.00792198721319437,0.17686037719249725,-0.35259729623794556,-0.9189099669456482,-0.0028947293758392334,-0.005694359540939331,0.010981559753417969
0.36070936678459903,0.1913018167639285,0.32169491289536417,0.01724734529852867,0.13065043091773987,-0.024105750024318695,0.17790117859840393,-0.3529380261898041,-0.9185782074928284,-0.0067431628704071045,-0.01260155439376831,0.018447041511535645
0.36057848738668447,0.19296738680584596,0.32136435382135364,-0.031621504575014114,0.18741992115974426,-0.04524838924407959,0.1794397383928299,-0.35281556844711304,-0.9183259606361389,-0.010265365242958069,-0.01424989104270935,0.02020895481109619
0.35995067235541145,0.19517645767571357,0.32089022145486595,-0.06272269785404205,0.2192327082157135,-0.06591664999723434,0.18151086568832397,-0.3522280752658844,-0.9181444644927979,-0.012458577752113342,-0.014059185981750488,0.014991998672485352
0.3590402354524395,0.1975491707590818,0.3202498109888229,-0.06598546355962753,0.2154771238565445,-0.08554897457361221,0.18375171720981598,-0.3513758182525635,-0.9180252552032471,-0.013936460018157959,-0.009723424911499023,0.015330612659454346
0.3582423486269885,0.1998172190866433,0.31939840539704756,-0.027019426226615906,0.18905191123485565,-0.10025201737880707,0.18588896095752716,-0.35062870383262634,-0.9178805947303772,-0.0031190067529678345,-0.003802478313446045,0.009860634803771973
0.3580222912534191,0.20165443278702744,0.3183370014494733,0.03882770985364914,0.11411651223897934,-0.10723589360713959,0.18759043514728546,-0.35042262077331543,-0.91761314868927,-0.006788849830627441,-0.001231461763381958,-0.0009049177169799805
0.3586275095376186,0.20258491853491425,0.3170388973780107,0.1284356266260147,-0.006710310932248831,-0.11468422412872314,0.1884014755487442,-0.3509894013404846,-0.9172302484512329,0.0002431124448776245,0.0061559975147247314,-0.0027068257331848145
0.3602928088393118,0.20221182898150736,0.3154876101887326,0.24459092319011688,-0.16049650311470032,-0.11206043511629105,0.18794159591197968,-0.3525482714176178,-0.9167266488075256,0.014161244034767151,0.014276117086410522,-0.011938512325286865
0.3633505695695284,0.20038311044959384,0.3137685674647169,0.39071857929229736,-0.3043295741081238,-0.09404148906469345,0.18604940176010132,-0.35540804266929626,-0.9160080552101135,0.026322603225708008,0.021057426929473877,-0.0298231840133667
0.3678771661857739,0.19743924054329512,0.3119495606306187,0.5363573431968689,-0.3871932327747345,-0.07527119666337967,0.18303453922271729,-0.35963544249534607,-0.9149648547172546,0.03022247552871704,0.03373819589614868,-0.045224905014038086
0.3736916849605074,0.1941135106684469,0.30997629918852854,0.6567314267158508,-0.3934633731842041,-0.07148657739162445,0.17958420515060425,-0.36505481600761414,-0.9135012626647949,0.026531726121902466,0.04332321882247925,-0.05485200881958008
0.38034233192332817,0.19119113783600314,0.3078235834513469,0.7174252867698669,-0.3364187479019165,-0.07110285013914108,0.17644856870174408,-0.3712383508682251,-0.9116183519363403,0.028675496578216553,0.0331951379776001,-0.05800133943557739
0.38715573105020035,0.18907080175906424,0.30563725799132685,0.6896620988845825,-0.2469692826271057,-0.06988339126110077,0.17403580248355865,-0.3775562047958374,-0.9094849824905396,0.014624014496803284,0.012901633977890015,-0.044433414936065674
0.39332192664158444,0.18794327706397906,0.3036431578363883,0.5837908387184143,-0.13068647682666779,-0.060221247375011444,0.17257197201251984,-0.38325878977775574,-0.907376229763031,0.008046507835388184,0.00397104024887085,-0.01703166961669922
0.39813277870873204,0.18774297752178773,0.3021037830610158,0.40365728735923767,-0.030036307871341705,-0.0360189713537693,0.17204409837722778,-0.38769784569740295,-0.9055888652801514,0.003950953483581543,-0.0018132925033569336,0.012827694416046143
0.4009169444805228,0.18790189566613366,0.3013290413110016,0.1691058874130249,-0.01695937290787697,0.0019975556060671806,0.1719857007265091,-0.39026275277137756,-0.9044976234436035,0.009395688772201538,-0.006877779960632324,0.07025390863418579
0.4016020129516805,0.1873359023052651,0.30145161338715665,-0.02962583489716053,-0.08734912425279617,0.04347122833132744,0.17142389714717865,-0.3908933997154236,-0.9043319225311279,0.04020039737224579,-0.011892855167388916,0.1223190426826477
0.4008360968588946,0.1860240476812016,0.30220252021133975,-0.13417035341262817,-0.10563678294420242,0.05894799157977104,0.1702927201986313,-0.3901883065700531,-0.9048500061035156,0.03747113049030304,-0.026361405849456787,0.08665847778320312
0.3995603397427429,0.1849735067924582,0.3030312306159128,-0.1343274861574173,-0.02704477310180664,0.038739122450351715,0.16943345963954926,-0.3890133500099182,-0.9055169224739075,0.010254204273223877,-0.029397934675216675,0.019072890281677246
0.3985428098646733,0.18524252300302976,0.303430175595291,-0.07562336325645447,0.11705958098173141,-0.0018919901922345161,0.16974987089633942,-0.3880757689476013,-0.9058598875999451,-0.011683911085128784,-0.02771100401878357,-0.052666664123535156
0.3980346424813542,0.18706233991925192,0.30344589874164923,-0.0317792110145092,0.23786614835262299,-0.009216215461492538,0.17143474519252777,-0.3876073658466339,-0.9057431817054749,-0.025591060519218445,-0.008403986692428589,-0.07994407415390015
0.39765072367796245,0.18966473390895233,0.30356192456056247,-0.05436186119914055,0.28415265679359436,0.01856108382344246,0.17381930351257324,-0.38725343346595764,-0.9054400324821472,-0.038107454776763916,0.008774399757385254,-0.06080746650695801
0.3968911158759361,0.19219657628235956,0.30419169140571817,-0.11968760937452316,0.2628937065601349,0.06689959019422531,0.1761673241853714,-0.38655298948287964,-0.9052855372428894,-0.03310072422027588,0.01800742745399475,-0.01132512092590332
0.3955689791784241,0.1939858280207581,0.30543835574434125,-0.1800462156534195,0.1867540180683136,0.10827010124921799,0.17788518965244293,-0.3853332996368408,-0.9054695963859558,-0.014265000820159912,0.023013323545455933,0.03880089521408081
0.39387720108457597,0.19472312678902776,0.307178039877934,-0.2089196741580963,0.0976763367652893,0.1390828788280487,0.17867861688137054,-0.3837715983390808,-0.9059764742851257,0.004182875156402588,0.014875084161758423,0.05874747037887573
0.3921632410448287,0.1945824338288457,0.30916428258469114,-0.19189074635505676,0.030242709442973137,0.1546625941991806,0.17867808043956757,-0.3821883201599121,-0.9066455960273743,0.015749603509902954,-0.0020737946033477783,0.05262649059295654
0.390825971993629,0.19393782011341515,0.3112101761535618,-0.13938093185424805,0.0002517877146601677,0.16323904693126678,0.17819194495677948,-0.38095223903656006,-0.907261312007904,0.019714713096618652,-0.014326721429824829,0.030460774898529053
0.390120800485455,0.19319579509906304,0.3131654065122345,-0.06792552024126053,0.002570073353126645,0.1639663130044937,0.17757022380828857,-0.3803001344203949,-0.9076566696166992,0.012676551938056946,-0.01198810338973999,0.009188711643218994
0.3901229658567011,0.192648739113575,0.3148410095111229,0.009896303527057171,0.015379611402750015,0.13907161355018616,0.17707349359989166,-0.3803021311759949,-0.9077528715133667,-0.004389598965644836,-0.006004661321640015,-0.009773313999176025
0.3908352075379089,0.19239478550855887,0.316082658212477,0.09062422066926956,0.04312324896454811,0.11095190048217773,0.17679113149642944,-0.38096076250076294,-0.90753173828125,-0.01997634768486023,-0.0025078952312469482,-0.0311126708984375
0.39223187397552495,0.19286055465415053,0.316894829861177,0.15254804491996765,0.12433208525180817,0.08675175905227661,0.1771116554737091,-0.3822517395019531,-0.9069262146949768,-0.025805309414863586,0.0004005134105682373,-0.04467290639877319
0.3939500918407239,0.1944156176705962,0.3173502984539953,0.1624167561531067,0.2229015827178955,0.06130624935030937,0.178394615650177,-0.3838389217853546,-0.9060038924217224,-0.031009793281555176,0.0055124759674072266,-0.03538703918457031
0.3954648820101415,0.19689541738383037,0.3175321272630617,0.1208227127790451,0.2748055160045624,0.028842583298683167,0.18052682280540466,-0.3852372169494629,-0.9049875140190125,-0.04261770844459534,0.006834506988525391,-0.007945775985717773
0.39638563194738785,0.19975648927296552,0.3174290245789666,0.05500444397330284,0.2774987518787384,-0.01230504922568798,0.18304485082626343,-0.38608676195144653,-0.9041192531585693,-0.0457766056060791,0.0031369030475616455,0.02066594362258911
