attitudeX,attitudeY,attitudeZ,gyroX,gyroY,gyroZ,gravityX,gravityY,gravityZ,accX,accY,accZ
0.9243701269413759,0.4947346406684667,-1.4727925517342775,-0.19676965475082397,0.5466234087944031,-0.024328511208295822,0.2859887480735779,-0.7982414960861206,-0.5301141142845154,-0.017891764640808105,-0.026648640632629395,0.040139198303222656
0.9224418284359602,0.497124384652302,-1.4702299764077897,-0.2857227027416229,0.3230217397212982,0.10789263993501663,0.2879882752895355,-0.797078549861908,-0.530781090259552,0.04564520716667175,-0.025400757789611816,0.10240590572357178
0.9204454928302197,0.4951550049321789,-1.4652719025780636,-0.3467824161052704,0.07301732152700424,0.2240515947341919,0.287697970867157,-0.7958714365959167,-0.5327463150024414,0.06662642955780029,-0.016781210899353027,0.13217264413833618
0.918598558496299,0.4892973020459214,-1.4584216138279855,-0.36594757437705994,-0.1502988487482071,0.33161240816116333,0.2852627635002136,-0.7947518229484558,-0.5357189774513245,0.07855260372161865,-0.017000555992126465,0.13662540912628174
0.9171960794637858,0.48034452288749513,-1.450198655485004,-0.34164297580718994,-0.32536348700523376,0.41419488191604614,0.2809700071811676,-0.7938998341560364,-0.5392392873764038,0.07980889081954956,-0.0224301815032959,0.11919546127319336
0.9163295399236144,0.46948422218675434,-1.441352392746899,-0.30474328994750977,-0.43235573172569275,0.4555572271347046,0.27540838718414307,-0.793372631072998,-0.5428721904754639,0.0643438994884491,-0.02971702814102173,0.08631402254104614
0.9158163701017852,0.45787643989846777,-1.4323060387882547,-0.2821241319179535,-0.4426584243774414,0.4807729721069336,0.2692683935165405,-0.7930601239204407,-0.5463975667953491,0.03570908308029175,-0.0402224063873291,0.05921494960784912
0.9154064976388965,0.44637475223120365,-1.4230565441866954,-0.28691115975379944,-0.38206857442855835,0.4922133684158325,0.2631065249443054,-0.7928103804588318,-0.5497515797615051,0.0065621137619018555,-0.04532444477081299,0.0522235631942749
0.9147842040215837,0.4354791523699797,-1.413695477334698,-0.31470051407814026,-0.3133869767189026,0.480267196893692,0.257309228181839,-0.7924309968948364,-0.5530327558517456,-0.013794124126434326,-0.047214508056640625,0.05828183889389038
0.9137099596093169,0.4253430253558983,-1.4045095125311347,-0.3485807180404663,-0.26168888807296753,0.44661495089530945,0.2520415782928467,-0.7917752861976624,-0.5563874840736389,-0.039562880992889404,-0.05672025680541992,0.06917440891265869
0.9121061062380877,0.4158202643066416,-1.3956464392997996,-0.3836050033569336,-0.24283729493618011,0.4094284772872925,0.24724453687667847,-0.7907946109771729,-0.5599233508110046,-0.05716574192047119,-0.06684094667434692,0.08180451393127441
0.9099726686140001,0.4065894204483594,-1.3871159285501224,-0.42302218079566956,-0.25818750262260437,0.3804951012134552,0.24273215234279633,-0.7894869446754456,-0.5637299418449402,-0.05913834273815155,-0.07223790884017944,0.09519368410110474
0.9073628139413362,0.3970878326349033,-1.3785490050907088,-0.466933012008667,-0.28591981530189514,0.3838898539543152,0.23816099762916565,-0.7878824472427368,-0.5679090023040771,-0.05714590847492218,-0.07710784673690796,0.1068037748336792
0.9044115376297469,0.3869514788338206,-1.3693986581900905,-0.5067983865737915,-0.29705262184143066,0.43595758080482483,0.23326879739761353,-0.7860615253448486,-0.57244473695755,-0.03520965576171875,-0.07007861137390137,0.1124991774559021
0.9013733355387455,0.37584234567735325,-1.3590704230628985,-0.5234487056732178,-0.3034825325012207,0.5249744057655334,0.22777074575424194,-0.7841798663139343,-0.5772196650505066,-0.002535715699195862,-0.06019580364227295,0.11297106742858887
0.8986282347624904,0.36339629420133335,-1.347196090922564,-0.5181666016578674,-0.31995949149131775,0.6564197540283203,0.22133350372314453,-0.7824734449386597,-0.582019567489624,0.024928152561187744,-0.05279272794723511,0.10498416423797607
0.8964671858053714,0.3493030789101023,-1.333173374275913,-0.4938507378101349,-0.3014458119869232,0.8311523795127869,0.213687464594841,-0.7811260223388672,-0.5866684317588806,0.051342517137527466,-0.04150587320327759,0.09654092788696289
0.8950540438856182,0.3335075811260058,-1.3165493799243015,-0.4654627740383148,-0.2565521001815796,1.0277413129806519,0.20475564897060394,-0.7802428603172302,-0.5910128951072693,0.07440394163131714,-0.031829893589019775,0.09794044494628906
0.8944036720947932,0.3160551336988948,-1.2971255658403378,-0.43125811219215393,-0.20065464079380035,1.2279101610183716,0.19456803798675537,-0.7798359394073486,-0.5949783325195312,0.0847136378288269,-0.027476131916046143,0.1065598726272583
0.894480483164688,0.297085752975704,-1.2751611130845473,-0.3771623969078064,-0.1749175786972046,1.3779720067977905,0.18322981894016266,-0.7798839807510376,-0.5985046625137329,0.08100670576095581,-0.0316089391708374,0.11213082075119019
0.8953769402891909,0.2770560562431428,-1.2519685843119301,-0.2674678862094879,-0.22108739614486694,1.4385603666305542,0.1710147261619568,-0.7804448008537292,-0.601381778717041,0.031118527054786682,-0.05384492874145508,0.12271362543106079
0.897292590149718,0.25580447215384466,-1.2283631354951605,-0.1433030366897583,-0.34935829043388367,1.5058324337005615,0.15781815350055695,-0.7816410660743713,-0.6034324169158936,-0.03777718544006348,-0.10422325134277344,0.14150315523147583
0.9002057829135072,0.2316801774925463,-1.2029986734261076,-0.06331393122673035,-0.5039631128311157,1.7097481489181519,0.14269280433654785,-0.7834548354148865,-0.6048449277877808,-0.03177662193775177,-0.1468583345413208,0.17573732137680054
0.903713327799927,0.20218062105714926,-1.1728779246457606,-0.0689164251089096,-0.6633469462394714,2.093899726867676,0.12423806637525558,-0.7856297492980957,-0.6060947179794312,0.01805022358894348,-0.17941242456436157,0.22503703832626343
0.9068446473172026,0.16536485728918768,-1.135179371073716,-0.17760004103183746,-0.7542603611946106,2.5882174968719482,0.10143963247537613,-0.7875632047653198,-0.6078274846076965,0.04402247071266174,-0.21022433042526245,0.2783445119857788
0.908471809658642,0.1209430673269207,-1.0887300354613327,-0.31841975450515747,-0.7955313920974731,3.093409299850464,0.07419296354055405,-0.788564920425415,-0.6104596257209778,0.018214315176010132,-0.25188618898391724,0.30806100368499756
0.9078064071405164,0.06959345122883809,-1.0341119832373273,-0.44893747568130493,-0.883686900138855,3.5460686683654785,0.042798541486263275,-0.7881555557250977,-0.6139862537384033,-0.0658392608165741,-0.3020849823951721,0.32933366298675537
0.904393884796366,0.011575461463820215,-0.9738583757127394,-0.5141295194625854,-1.267145037651062,3.7961018085479736,0.007155353203415871,-0.7860506176948547,-0.6181207895278931,-0.13511550426483154,-0.34340500831604004,0.34338635206222534
0.8989853464535896,-0.052406724134103945,-0.91267136344644,-0.3934482932090759,-1.9545464515686035,3.737715244293213,-0.03260325267910957,-0.7826957702636719,-0.6215499639511108,-0.22386643290519714,-0.4567299485206604,0.3302445411682129
0.8930814050953146,-0.11976531099311725,-0.8563712533215962,-0.1774965524673462,-2.689671516418457,3.3118832111358643,-0.07491520792245865,-0.7790075540542603,-0.6225231885910034,-0.3883263170719147,-0.6495356559753418,0.24737060070037842
0.8877496527486165,-0.18657052666742177,-0.8088733425048137,0.021638039499521255,-3.2422611713409424,2.726088762283325,-0.11707373708486557,-0.7756533622741699,-0.6202061176300049,-0.575141191482544,-0.8077206611633301,0.16360217332839966
0.8835556686714292,-0.25042775794328326,-0.7710225960483664,0.18414972722530365,-3.6300721168518066,2.113490581512451,-0.15721765160560608,-0.7729995250701904,-0.6146173477172852,-0.6629727482795715,-0.9152635335922241,0.10071659088134766
0.8807773994859066,-0.31047288924992356,-0.742316241346577,0.27791205048561096,-3.9078612327575684,1.5434136390686035,-0.1944722831249237,-0.7712339758872986,-0.6061177849769592,-0.6931467056274414,-1.0200868844985962,0.025658249855041504
0.8794181557066376,-0.3666925981886564,-0.721606500209026,0.33617934584617615,-4.108969688415527,1.0328617095947266,-0.22859850525856018,-0.7703680396080017,-0.5952108502388,-0.6720972061157227,-1.105944275856018,-0.06929409503936768
0.8797354223485413,-0.41939980196794685,-0.7077385942991536,0.39629197120666504,-4.268840789794922,0.580592155456543,-0.25953882932662964,-0.7705702781677246,-0.5821177363395691,-0.6350381374359131,-1.1527085304260254,-0.18579596281051636
0.8821579571150626,-0.46986418932802565,-0.6989479486796166,0.5237495303153992,-4.44028902053833,0.2310463786125183,-0.28772613406181335,-0.7721120119094849,-0.5666186213493347,-0.5830166339874268,-1.1501444578170776,-0.33029288053512573
0.8871614748328615,-0.5197020028492009,-0.6931241119682379,0.7044394016265869,-4.588601112365723,-0.058175645768642426,-0.313673734664917,-0.7752820253372192,-0.5482213497161865,-0.5291149020195007,-1.1221179962158203,-0.5023462176322937
0.895089190450727,-0.5690558233693852,-0.6892352802679588,0.8927581906318665,-4.626162052154541,-0.34203240275382996,-0.33701518177986145,-0.7802648544311523,-0.5268848538398743,-0.5269678831100464,-1.0986567735671997,-0.6707011461257935
0.9057748387878138,-0.6168321206252707,-0.686852620669031,1.02552330493927,-4.504742622375488,-0.597281277179718,-0.3569500744342804,-0.7869035005569458,-0.5033581852912903,-0.5366197824478149,-1.0589064359664917,-0.8043199181556702
0.9184065808118685,-0.6614852410861976,-0.6857785571043612,1.0587217807769775,-4.205365180969238,-0.7936230897903442,-0.37292733788490295,-0.7946352958679199,-0.47904089093208313,-0.5018284916877747,-1.0052000284194946,-0.8960201144218445
0.9319298284499814,-0.7010795567157878,-0.6864365693747941,0.9680708646774292,-3.782576084136963,-0.9674664735794067,-0.3846301734447479,-0.8027721643447876,-0.45564979314804077,-0.4571513831615448,-0.9313130378723145,-0.9422993659973145
0.9457293021464172,-0.7336808336601514,-0.6902935934347991,0.8019716739654541,-3.340418577194214,-1.1971455812454224,-0.3918221890926361,-0.8109238743782043,-0.43460074067115784,-0.43613487482070923,-0.8449293971061707,-0.9549102783203125
0.9604817629325967,-0.7586559704628533,-0.6986323332822035,0.7184892296791077,-3.018681287765503,-1.5035285949707031,-0.3942795693874359,-0.8194677829742432,-0.4159521162509918,-0.4562757909297943,-0.7787531018257141,-0.9861321449279785
0.9773265277765236,-0.7788133197890378,-0.7101314923498866,0.8150709271430969,-2.910738468170166,-1.7508047819137573,-0.39283058047294617,-0.829005241394043,-0.39803841710090637,-0.47519609332084656,-0.6965838670730591,-1.070833683013916
0.9970909954533026,-0.7984172773212403,-0.721824662966332,1.0632975101470947,-2.9537501335144043,-1.9472742080688477,-0.38874465227127075,-0.8398956656455994,-0.3787519633769989,-0.44241684675216675,-0.5633636713027954,-1.1713883876800537
1.020518177934553,-0.8200001220229127,-0.7318198967760915,1.400259256362915,-3.0353546142578125,-2.174393892288208,-0.38233402371406555,-0.8523790836334229,-0.3567500412464142,-0.4170738756656647,-0.41805243492126465,-1.2560123205184937
1.0485267164608363,-0.8441609851514822,-0.7394638856776685,1.7877203226089478,-3.0801970958709717,-2.4864418506622314,-0.3728462755680084,-0.8666892051696777,-0.33141425251960754,-0.4691183567047119,-0.29993677139282227,-1.3052281141281128
1.081797982546792,-0.870161368659562,-0.7447684724906891,2.1562187671661377,-3.0089049339294434,-2.872072219848633,-0.35908615589141846,-0.8828037977218628,-0.3028440773487091,-0.5447528958320618,-0.1957026720046997,-1.3240631818771362
1.1203374881721997,-0.8954527253085104,-0.7491490582932875,2.393281936645508,-2.796431541442871,-3.3218510150909424,-0.3398098051548004,-0.9002474546432495,-0.2721838653087616,-0.602450966835022,-0.05248093605041504,-1.2935357093811035
1.1635979627762525,-0.9161715105590522,-0.7554316763592207,2.5026161670684814,-2.4516141414642334,-3.7826781272888184,-0.31416812539100647,-0.9182339906692505,-0.24113276600837708,-0.6614788174629211,0.10930442810058594,-1.2240467071533203
1.2108793282891885,-0.9286381210224425,-0.7658375654166221,2.5594873428344727,-1.9412661790847778,-4.199623107910156,-0.28204086422920227,-0.935926079750061,-0.2109394371509552,-0.6962306499481201,0.27947765588760376,-1.1383953094482422
1.2617048310749959,-0.9279822928300833,-0.7841664678964495,2.537351608276367,-1.380737066268921,-4.6396284103393555,-0.24348022043704987,-0.9526103138923645,-0.18234890699386597,-0.6942333579063416,0.4645884037017822,-1.0554745197296143
1.3156242335217276,-0.9040513982367481,-0.8202402269634561,2.3868632316589355,-0.7469404935836792,-5.106837749481201,-0.19835545122623444,-0.9676198959350586,-0.15609970688819885,-0.680947482585907,0.6542805433273315,-0.983212947845459
1.3707486717053112,-0.8323638565011252,-0.8979665263529608,2.0111732482910156,-0.06813747435808182,-5.513972759246826,-0.14695565402507782,-0.9800571203231812,-0.13376185297966003,-0.6374223828315735,0.8266451954841614,-0.9142727851867676
1.4223402516006354,-0.6626738271775082,-1.0675141545829725,1.5144693851470947,0.5885996222496033,-5.71538782119751,-0.09099967777729034,-0.9890006184577942,-0.11660672724246979,-0.5293158292770386,0.9763356447219849,-0.8129586577415466
1.4611002294599784,-0.30744899096012157,-1.4164288957105726,1.0808223485946655,1.2096840143203735,-5.69226598739624,-0.033130813390016556,-0.9939894080162048,-0.10434342920780182,-0.3995778560638428,1.14645516872406,-0.7268485426902771
1.4728349566770138,0.2501451384038398,-1.9620622345584593,0.8848889470100403,1.7090795040130615,-5.485967636108398,0.02421123906970024,-0.9952056407928467,-0.09476152062416077,-0.28322914242744446,1.3186308145523071,-0.7232315540313721
1.4548339464572415,0.7508266695013519,-2.4467589496234683,0.9958862662315369,1.970047950744629,-5.135863780975342,0.07893865555524826,-0.9932838678359985,-0.0845944955945015,-0.17590820789337158,1.4700446128845215,-0.781326413154602
1.4227099305880055,1.0699543595277679,-2.748577270430785,1.3819901943206787,1.965334177017212,-4.693485736846924,0.12942452728748322,-0.9890552163124084,-0.07084649801254272,-0.07388249039649963,1.5829577445983887,-0.858917236328125
1.3879979791800823,1.2839007434709258,-2.9461312349492914,1.9748880863189697,1.8202308416366577,-4.132717609405518,0.17435286939144135,-0.9833388328552246,-0.051440201699733734,0.029703006148338318,1.637940764427185,-0.9213533401489258
1.3553509666963457,1.4522333175950624,-3.100384362896458,2.6750881671905518,1.5860564708709717,-3.429776191711426,0.21228212118148804,-0.9768812656402588,-0.025287408381700516,0.15519535541534424,1.6389143466949463,-0.9536706805229187
1.3261388304793382,1.601558657866055,3.0442396397180858,3.346174716949463,1.271992802619934,-2.6345551013946533,0.2421095073223114,-0.9702203273773193,0.007450203411281109,0.2863787114620209,1.6395776271820068,-0.9242897033691406
1.3003942845365386,1.7417719779824308,2.9105067512283007,3.9060122966766357,0.8991833329200745,-1.7694005966186523,0.2632238268852234,-0.9636635780334473,0.04544859007000923,0.3953303098678589,1.6624857187271118,-0.8450396060943604
1.2776451441961112,1.8777234891789156,2.7767422504819628,4.352924823760986,0.6024267673492432,-0.8699691295623779,0.2754656672477722,-0.9573380351066589,0.08730683475732803,0.46542489528656006,1.6859300136566162,-0.7560231685638428
1.2569980773305514,2.0134436885350024,2.640048459452495,4.708656311035156,0.4707573652267456,0.026141807436943054,0.2789236605167389,-0.9511680006980896,0.13221502304077148,0.5070260763168335,1.686428189277649,-0.665891170501709
1.2370585401000245,2.151066690205682,2.4995679583079036,4.983120441436768,0.413119375705719,0.8650884032249451,0.2739576995372772,-0.9448245167732239,0.17959432303905487,0.5175462961196899,1.6771241426467896,-0.5721571445465088
1.2161730875584662,2.2897166959690947,2.3563040804693043,5.185929775238037,0.3368518054485321,1.6433907747268677,0.261301726102829,-0.9377774000167847,0.22868071496486664,0.4920247495174408,1.6672086715698242,-0.47565940022468567
1.1928377137466832,2.426822344082758,2.212737880822713,5.326652526855469,0.2768321633338928,2.3236782550811768,0.241874560713768,-0.9294198751449585,0.27870309352874756,0.4312974810600281,1.6614909172058105,-0.3719189465045929
1.1653963044443907,2.558892263582622,2.0729058986096764,5.449717998504639,0.288702130317688,2.8264918327331543,0.21702317893505096,-0.9189447164535522,0.329304575920105,0.3475063145160675,1.6515498161315918,-0.2582290470600128
1.1321451775050202,2.6816295851292473,1.941930807751003,5.6256184577941895,0.36551088094711304,3.123318672180176,0.18853911757469177,-0.9053253531455994,0.3805774450302124,0.2860398292541504,1.5990815162658691,-0.13333919644355774
1.0916608803323948,2.791270575333381,1.8242072012273152,5.886105537414551,0.4285707175731659,3.2385916709899902,0.15821965038776398,-0.8873938322067261,0.43301162123680115,0.219954252243042,1.532825231552124,-0.006497859954833984
1.0435928142898243,2.8852855799215917,1.7217228767939818,6.190093040466309,0.39425989985466003,3.311497449874878,0.1275455206632614,-0.8642174005508423,0.48668283224105835,0.12892425060272217,1.5006768703460693,0.13943102955818176
0.9888923343383333,2.963984713541689,1.6330419835715382,6.458808422088623,0.2671707570552826,3.4622602462768555,0.09710374474525452,-0.8354176878929138,0.5409699082374573,0.07576313614845276,1.499815821647644,0.3068389892578125
0.9288867390311247,3.0297734991270437,1.55503265957568,6.64132022857666,0.10076101124286652,3.6582329273223877,0.06680964678525925,-0.8009539246559143,0.594987154006958,0.054497815668582916,1.506672739982605,0.49267464876174927
0.8655605611091226,3.0835871542998396,1.4859191310595963,6.619459629058838,-0.15199296176433563,3.833122491836548,0.03757889196276665,-0.7614587545394897,0.6471237540245056,0.03590751439332962,1.528670310974121,0.7280901074409485
0.8022038516522298,3.1265950093405404,1.4243281012100986,6.250601768493652,-0.35201898217201233,3.9467999935150146,0.010424836538732052,-0.7188897728919983,0.6950461268424988,0.0004242360591888428,1.5275750160217285,1.003623366355896
0.7427103853840238,-3.121551106746559,1.3687181956340448,5.551103591918945,-0.39084550738334656,4.018285751342773,-0.014762376435101032,-0.6762869954109192,0.7364900708198547,-0.03231092914938927,1.4586052894592285,1.248830795288086
0.690204929721069,-3.0916511681355856,1.317824927727933,4.610063076019287,-0.2945708930492401,3.9756369590759277,-0.038494668900966644,-0.6366952061653137,0.7701544761657715,-0.04561174660921097,1.3443059921264648,1.4464900493621826
0.6470986592383369,-3.064998818215831,1.2714826066555691,3.4863815307617188,-0.10753323137760162,3.788255453109741,-0.06104964390397072,-0.6028741598129272,0.7954975962638855,-0.0994880348443985,1.2734673023223877,1.5689435005187988
0.6150969262354057,-3.0402961423924375,1.2295001003710395,2.2525315284729004,0.08828980475664139,3.4992148876190186,-0.08258922398090363,-0.5770376920700073,0.8125309348106384,-0.1460178792476654,1.2050743103027344,1.6484066247940063
0.5953861953837882,-3.0173442581506773,1.1913087414729138,0.9405576586723328,0.1386420726776123,3.167778968811035,-0.10260476917028427,-0.5608285665512085,0.8215497136116028,-0.17737868428230286,1.1236183643341064,1.690062403678894
0.5883206403463063,-2.996457782868387,1.1556681224168834,-0.32683509588241577,0.05001179873943329,2.87197208404541,-0.12031055241823196,-0.5549647808074951,0.8231282830238342,-0.19322703778743744,1.0586419105529785,1.6825177669525146
0.5927322387976484,-2.9776952484120924,1.121141922369747,-1.41758131980896,-0.12650099396705627,2.6599953174591064,-0.1353316307067871,-0.5586292743682861,0.8183026909828186,-0.183470219373703,1.040104866027832,1.5582692623138428
0.6064864004081547,-2.9600496517783528,1.0862385224684559,-2.26357364654541,-0.25871655344963074,2.5392649173736572,-0.14834794402122498,-0.5699840188026428,0.808153510093689,-0.15519514679908752,1.044822096824646,1.3322734832763672
0.6270043085909891,-2.941892535078611,1.0500075624082745,-2.8495688438415527,-0.2720014154911041,2.4764862060546875,-0.16064228117465973,-0.5867215394973755,0.7936955690383911,-0.12510907649993896,1.063283920288086,1.0548460483551025
0.6518727413274902,-2.9213142740514937,1.0119937643470125,-3.265167474746704,-0.12805117666721344,2.4444124698638916,-0.173697367310524,-0.6066762208938599,0.775740385055542,-0.11469368636608124,1.0898305177688599,0.777878999710083
0.679975032676939,-2.8964049993900938,0.9715260518791377,-3.658015251159668,0.12811459600925446,2.4473729133605957,-0.18875053524971008,-0.6287736296653748,0.7543321251869202,-0.11650146543979645,1.1245317459106445,0.5447402000427246
0.7108652248130959,-2.8652677168479457,0.9273489752200639,-4.0434346199035645,0.4401308298110962,2.5086259841918945,-0.20674380660057068,-0.6524896621704102,0.7290504574775696,-0.07165279984474182,1.123665690422058,0.39698725938796997
0.7438361835727776,-2.8270403471721504,0.8781431194990724,-4.39769172668457,0.6456373929977417,2.592369318008423,-0.22767333686351776,-0.6771158576011658,0.6997705101966858,-0.0076018571853637695,1.1084208488464355,0.30424249172210693
0.7779949830552142,-2.7827861084149164,0.8232208664290567,-4.731907844543457,0.6435409188270569,2.650495767593384,-0.25013700127601624,-0.7018526196479797,0.6669592261314392,0.03417941927909851,1.1031434535980225,0.23361462354660034
0.8133466149913782,-2.7331846880481923,0.7617814607209222,-5.028085231781006,0.49303287267684937,2.6550748348236084,-0.2728693187236786,-0.7265905737876892,0.6305621862411499,0.06904244422912598,1.100614070892334,0.18395203351974487
0.8490388695673488,-2.679119985767136,0.6938249521638947,-5.2762651443481445,0.2703430652618408,2.6206791400909424,-0.29478174448013306,-0.7506457567214966,0.5912993550300598,0.08891022205352783,1.088627815246582,0.12836623191833496
0.8844117935129647,-2.620650462577098,0.6191245002979534,-5.4869232177734375,0.0362340584397316,2.545029640197754,-0.31541329622268677,-0.7735423445701599,0.5496790409088135,0.09144479036331177,1.0927714109420776,0.048160433769226074
0.9188798108553949,-2.55719230007646,0.5373062842520702,-5.6739420890808105,-0.16586923599243164,2.4571287631988525,-0.3347221910953522,-0.7949224710464478,0.5060232877731323,0.10219350457191467,1.1118168830871582,-0.05080771446228027
0.9517988179644605,-2.486720546481963,0.4475541368909071,-5.8250508308410645,-0.15330831706523895,2.3835766315460205,-0.3533869683742523,-0.8144605159759521,0.46018674969673157,0.10852921009063721,1.1257396936416626,-0.17203974723815918
0.9820230521253054,-2.4062551508607424,0.3493865310570402,-5.896399974822998,0.1122802197933197,2.2818875312805176,-0.37254416942596436,-0.8316225409507751,0.4118439853191376,0.11180189251899719,1.1456177234649658,-0.29641106724739075
1.008480685975972,-2.3151064096992497,0.2437192019448046,-5.909440517425537,0.3858063519001007,2.1573526859283447,-0.3921590745449066,-0.8460227847099304,0.36118805408477783,0.0882192850112915,1.1682730913162231,-0.41271698474884033
1.0299819101139829,-2.2140511044637723,0.1311308506295242,-5.857110977172852,0.5915954113006592,2.0737648010253906,-0.41194388270378113,-0.8572896718978882,0.3087993860244751,0.008821874856948853,1.2120411396026611,-0.5193401575088501
1.0456068215728,-2.107653687568933,0.013554585804671209,-5.766568183898926,0.44198137521743774,1.953728437423706,-0.43084314465522766,-0.8652289509773254,0.25642311573028564,-0.11314782500267029,1.2776436805725098,-0.5966483950614929
1.0558142916433229,-1.9991839975308796,-0.1062528747141607,-5.689995765686035,0.5167922377586365,1.751311182975769,-0.4480135142803192,-0.8703015446662903,0.20459477603435516,-0.14417999982833862,1.3518842458724976,-0.5843859910964966
1.0606717565771995,-1.8879158891967829,-0.22669071269559984,-5.626612186431885,0.7044628262519836,1.6713802814483643,-0.4639391601085663,-0.8726837038993835,0.1522628217935562,0.018260449171066284,1.3538389205932617,-0.6390944719314575
1.058097162635834,-1.7764736627774964,-0.34651062548741013,-5.517899990081787,0.6397190093994141,1.8831170797348022,-0.48019254207611084,-0.8714236617088318,0.10018138587474823,0.20316922664642334,1.33597731590271,-0.7399365901947021
1.0457581537930956,-1.6710126812831594,-0.4621239107709848,-5.409668445587158,0.36712220311164856,2.2919020652770996,-0.49873143434524536,-0.8653048276901245,0.05014904588460922,0.3063485622406006,1.312646508216858,-0.8321009874343872
1.0234168607335457,-1.5739354873631268,-0.5699322887729463,-5.323454856872559,0.5844388008117676,2.732797861099243,-0.5204491019248962,-0.8538913130760193,0.0016337786801159382,0.32765430212020874,1.2530916929244995,-0.8693705797195435
0.9913520831308376,-1.4856278999822805,-0.6665936796747968,-5.208308696746826,0.646139919757843,3.2001373767852783,-0.5455743670463562,-0.8367670774459839,-0.046578384935855865,0.2911036014556885,1.2361353635787964,-0.9774389266967773
0.952121437382795,-1.4093494567076883,-0.7509971273968566,-5.195042133331299,0.6869205832481384,3.34413480758667,-0.5724144577980042,-0.8146476745605469,-0.09322591125965118,0.26107412576675415,1.2950248718261719,-1.0869040489196777
0.9091602389844542,-1.3418557418182329,-0.8268833001585933,-5.331450939178467,0.5919816493988037,3.2972640991210938,-0.5983772277832031,-0.7889880537986755,-0.13943754136562347,0.2755470275878906,1.2921160459518433,-1.0911990404129028
0.863258211176865,-1.2838419842721676,-0.8954555628762191,-5.326521873474121,0.3741414546966553,3.363361358642578,-0.6233879923820496,-0.7599642872810364,-0.18396112322807312,0.17836546897888184,1.206146478652954,-1.1482837200164795
0.8142856207824634,-1.2383150969540064,-0.9536689325183201,-4.983736991882324,0.02696118876338005,3.5769381523132324,-0.648798406124115,-0.7272354364395142,-0.2240298092365265,0.11603784561157227,1.1082472801208496,-1.3259884119033813
0.7636036448208151,-1.209496666612595,-0.9977920619899129,-4.239560127258301,-0.5415113568305969,3.8096861839294434,-0.6757125854492188,-0.6915290355682373,-0.2553432583808899,0.12136077880859375,0.9960638880729675,-1.6039249897003174
0.7133070057358866,-1.1982113073784375,-1.0261720091432802,-3.2450265884399414,-0.9866819381713867,4.044681072235107,-0.704318642616272,-0.6543381214141846,-0.27527591586112976,0.03917276859283447,0.8404037356376648,-1.9342272281646729
0.6645170743739868,-1.2010291554066101,-1.0391797011079609,-2.138404369354248,-1.2001245021820068,4.299371719360352,-0.7340081930160522,-0.6166790127754211,-0.2844981253147125,-0.08953922986984253,0.7301890850067139,-2.2153491973876953
0.6170930123571817,-1.214220786302748,-1.0377006992254494,-0.9932808876037598,-1.2371735572814941,4.629585266113281,-0.7642633318901062,-0.5786667466163635,-0.28468674421310425,-0.1873968243598938,0.6413803100585938,-2.409954309463501
0.5703058956297123,-1.2343877928175042,-1.0228936919863922,0.11904453486204147,-1.116196870803833,4.957542419433594,-0.7945534586906433,-0.5398895740509033,-0.2778562307357788,-0.3579885959625244,0.47880858182907104,-2.5240845680236816
0.5245726094755889,-1.2578486286932147,-0.9971355028204776,1.1062442064285278,-0.8866508603096008,5.030655384063721,-0.8234990835189819,-0.5008431077003479,-0.26646843552589417,-0.6467157006263733,0.2238045334815979,-2.563014507293701
0.482249308552844,-1.2814528264258047,-0.9639967933563803,1.8902313709259033,-0.6312263011932373,4.684243202209473,-0.8491261601448059,-0.46377313137054443,-0.2527831196784973,-1.0107219219207764,-0.08777108788490295,-2.5035645961761475
0.446450742466774,-1.3023528252050798,-0.9271981772008099,2.414485216140747,-0.23135784268379211,3.9367356300354004,-0.8696805834770203,-0.4317668676376343,-0.23923446238040924,-1.364389181137085,-0.42713508009910583,-2.330986499786377
0.41948286273671453,-1.317762055311047,-0.8901846470238033,2.639188528060913,0.2565106153488159,2.9719533920288086,-0.8842177391052246,-0.40728819370269775,-0.22863797843456268,-1.606855869293213,-0.7261194586753845,-2.069122076034546
0.4014750481568843,-1.3266133179808155,-0.8553330244762737,2.6373379230499268,0.732071042060852,2.097731828689575,-0.8931794762611389,-0.39077651500701904,-0.22253993153572083,-1.7639095783233643,-0.9335795640945435,-1.777048110961914
0.3904500046435092,-1.3307453034386139,-0.8233272965984275,2.5546224117279053,0.8225553631782532,1.48273766040802,-0.8982219099998474,-0.3806045949459076,-0.21985848248004913,-1.8435842990875244,-1.084376573562622,-1.4680687189102173
0.38448087733619907,-1.334020155016314,-0.7934067483447187,2.530423164367676,0.8690207600593567,0.9843029975891113,-0.9011296629905701,-0.3750779628753662,-0.21744482219219208,-1.8274319171905518,-1.2222274541854858,-1.181801438331604
0.3829185488416501,-1.3328735533136784,-0.7657888363981865,2.335543632507324,1.4043954610824585,0.5229334831237793,-0.9014479517936707,-0.37362924218177795,-0.21861572563648224,-1.6848862171173096,-1.3273290395736694,-0.9604156017303467
0.38503490522478045,-1.3255938523388642,-0.7418971215468809,2.063624620437622,1.8135926723480225,0.13485828042030334,-0.8990636467933655,-0.3755914866924286,-0.2249797135591507,-1.7088770866394043,-1.2888219356536865,-0.704845130443573
0.39016300765220635,-1.3133553525538892,-0.7215587240585135,1.8293654918670654,2.138030767440796,-0.18395298719406128,-0.8943684697151184,-0.3803391754627228,-0.23547226190567017,-1.7958476543426514,-1.250352382659912,-0.45622384548187256
0.3978474246279115,-1.2973246176485578,-0.7044419961800141,1.624578595161438,2.355175495147705,-0.4533289968967438,-0.887638509273529,-0.38743478059768677,-0.24898205697536469,-1.7169451713562012,-1.287278413772583,-0.26539167761802673
0.4076507290387942,-1.2785239347914157,-0.6894817357748707,1.582665205001831,2.551943302154541,-0.6527566313743591,-0.8791216611862183,-0.3964536786079407,-0.26451823115348816,-1.6533033847808838,-1.329590082168579,-0.08797508478164673
0.41974412029208846,-1.2583707002729279,-0.6747355110048101,1.7286126613616943,2.6155612468719482,-0.8524905443191528,-0.8689863681793213,-0.40752679109573364,-0.2806861698627472,-1.6543290615081787,-1.3145649433135986,0.10875013470649719
0.43509779247373714,-1.2398110301830834,-0.6590535793276476,1.9309269189834595,2.3155887126922607,-1.168564796447754,-0.857608437538147,-0.4214990735054016,-0.2946966588497162,-1.5672876834869385,-1.3247624635696411,0.38487619161605835
0.4546769594307123,-1.2268572269552946,-0.6435880640158265,1.9534077644348145,1.5413174629211426,-1.591927409172058,-0.8457869291305542,-0.4391721189022064,-0.3029398024082184,-1.4153673648834229,-1.3905856609344482,0.7631754279136658
0.47769557650826905,-1.2219308741752406,-0.6312453571904393,1.6363579034805298,0.5417450070381165,-1.9579302072525024,-0.8345611691474915,-0.4597339332103729,-0.303566038608551,-1.2658721208572388,-1.4193248748779297,1.1945573091506958
0.5024139703596563,-1.224493051768238,-0.623848026388296,1.2662913799285889,-0.321438193321228,-2.2076845169067383,-0.8243929147720337,-0.48154258728027344,-0.2974779009819031,-1.0972074270248413,-1.3292484283447266,1.5671007633209229
0.527326450273766,-1.2318058075827398,-0.6207794815484642,0.9170995354652405,-0.7796752452850342,-2.2638447284698486,-0.8149773478507996,-0.503224790096283,-0.2873622179031372,-0.9547980427742004,-1.1699473857879639,1.6928797960281372
0.5511694113187987,-1.2404672096330729,-0.6204909174306797,0.7123926281929016,-0.9060332775115967,-2.2062671184539795,-0.8058547377586365,-0.5236838459968567,-0.276321679353714,-0.766243040561676,-1.0205819606781006,1.6996004581451416
0.5737670470576353,-1.2499459745794272,-0.6218343773448435,0.49608084559440613,-1.1781234741210938,-2.134671211242676,-0.7970020174980164,-0.542799711227417,-0.26487040519714355,-0.5912273526191711,-0.9542401432991028,1.693062663078308
0.5949851433632071,-1.262523317439724,-0.6263196287740679,0.07348331809043884,-1.8661725521087646,-2.1225554943084717,-0.7891166806221008,-0.56049644947052,-0.2512739896774292,-0.5005103945732117,-0.8896989226341248,1.7717360258102417
0.614554727536095,-1.2795607325642993,-0.6369740116280184,-0.6123778223991394,-2.7464568614959717,-2.1165292263031006,-0.7826250195503235,-0.5765947699546814,-0.23459883034229279,-0.5088177919387817,-0.7147412896156311,1.8884227275848389
0.6320333754959242,-1.30017204647333,-0.6560866772339145,-1.390049934387207,-3.571314811706543,-2.080170154571533,-0.777462899684906,-0.5907865762710571,-0.21569180488586426,-0.552966296672821,-0.5472445487976074,1.8895962238311768
0.6467518380770328,-1.3226951094733064,-0.6835810854485725,-2.104505777359009,-4.143404006958008,-1.841304063796997,-0.7736096382141113,-0.6025974154472351,-0.1959710419178009,-0.6048235893249512,-0.43226897716522217,1.702883243560791
0.6567806585545832,-1.3442680117443468,-0.7180442832482095,-2.7087268829345703,-4.2718071937561035,-1.3748918771743774,-0.7717289924621582,-0.6105704307556152,-0.17787142097949982,-0.6723933219909668,-0.33808380365371704,1.4073636531829834
0.6618769536055897,-1.3618942041505515,-0.7575443566905947,-3.1267802715301514,-4.030798435211182,-0.9893667697906494,-0.7716900110244751,-0.6145985722541809,-0.16359439492225647,-0.7923968434333801,-0.21073412895202637,1.101185917854309
0.6646689860929084,-1.373599351567121,-0.8000822749030313,-3.2632806301116943,-3.4772467613220215,-0.9410214424133301,-0.7718663811683655,-0.6167986392974854,-0.15421387553215027,-0.9818873405456543,-0.014671146869659424,0.7559442520141602
0.6685271622292875,-1.3782681293954828,-0.842584814016958,-3.081982135772705,-2.6736249923706055,-1.1069025993347168,-0.7702363729476929,-0.619830846786499,-0.1501520574092865,-1.139416217803955,0.1679418683052063,0.3648737072944641
0.6745491911455161,-1.3769162485922983,-0.881365630268969,-2.5908093452453613,-1.8854625225067139,-1.2117830514907837,-0.7663559913635254,-0.6245452761650085,-0.1504712849855423,-1.16848886013031,0.22377318143844604,0.007633760571479797
0.68183223649964,-1.3731849506086224,-0.9127742160622497,-1.8985925912857056,-1.3353480100631714,-1.1416563987731934,-0.761309027671814,-0.630216658115387,-0.15243269503116608,-1.0678993463516235,0.2389659881591797,-0.23965716361999512
0.6891286246044833,-1.3707600182588482,-0.9353179364549163,-1.2428574562072754,-1.059149980545044,-0.9649285078048706,-0.7564102411270142,-0.6358649134635925,-0.1533605456352234,-0.9339431524276733,0.25924742221832275,-0.3135889172554016
0.6957204673991593,-1.3719382740063555,-0.9503619347178108,-0.7902265787124634,-1.1370534896850586,-0.78348708152771,-0.752465009689331,-0.6409386396408081,-0.15163783729076385,-0.7840339541435242,0.2882317304611206,-0.22575776278972626
0.7015678663005724,-1.3783593908458969,-0.9607426363514339,-0.563792884349823,-1.495904564857483,-0.6791301369667053,-0.7497316598892212,-0.6454160809516907,-0.1460837870836258,-0.664086639881134,0.3011472225189209,-0.0975532978773117
0.707040608529426,-1.390325200460517,-0.9691237495488519,-0.5035958290100098,-1.989175796508789,-0.6346920728683472,-0.7479400634765625,-0.6495866179466248,-0.1364663690328598,-0.645843505859375,0.2804611921310425,0.002692580223083496
0.7125361862393071,-1.4080895980225918,-0.977415584277835,-0.543967604637146,-2.645125389099121,-0.67744380235672,-0.7467122077941895,-0.6537550091743469,-0.1225787103176117,-0.6549296379089355,0.25066351890563965,0.05237305164337158
0.719487062591898,-1.4322021201766948,-0.9858160241641248,-0.47254377603530884,-3.2206249237060547,-0.9060676693916321,-0.7449318170547485,-0.658998966217041,-0.10390939563512802,-0.7641624212265015,0.23660504817962646,-0.04857170581817627
0.7300415348626618,-1.4612754059086355,-0.9922143940219239,-0.1965731382369995,-3.3566200733184814,-1.324791431427002,-0.7406821846961975,-0.6669005751609802,-0.0814460963010788,-0.9469398856163025,0.19947808980941772,-0.27957683801651
0.7461451703760009,-1.4923158050225303,-0.9946308203700307,0.13564954698085785,-3.1227529048919678,-1.9246246814727783,-0.7320509552955627,-0.6788131594657898,-0.05756998434662819,-1.1215410232543945,0.14258873462677002,-0.5241712927818298
0.7688192924942076,-1.5228446573703744,-0.9929756951531037,0.36095327138900757,-2.728956460952759,-2.5635488033294678,-0.7179059982299805,-0.6952871084213257,-0.0344511978328228,-1.2394609451293945,0.07690936326980591,-0.6662018299102783
0.7972671760319598,-1.551568258111707,-0.9888808258967593,0.373958557844162,-2.4623420238494873,-3.0537869930267334,-0.6985352635383606,-0.7154494524002075,-0.013433139771223068,-1.2015196084976196,0.016963183879852295,-0.6698706746101379
0.8293058786888311,-1.5788384478342823,-0.9852068363410296,0.13443292677402496,-2.457510232925415,-3.298274040222168,-0.6753661036491394,-0.7374627590179443,0.005431493278592825,-1.0699188709259033,0.0038506388664245605,-0.5654443502426147
0.8630271998851177,-1.6034507110133969,-0.9853310473326422,-0.3039660155773163,-2.463721752166748,-3.42079496383667,-0.6497940421104431,-0.7598141431808472,0.021226169541478157,-1.0123611688613892,0.07675427198410034,-0.417618989944458
0.8984250664552488,-1.6231161594537251,-0.9914726964835716,-0.7648563385009766,-2.382127523422241,-3.6068077087402344,-0.6219908595085144,-0.7823469638824463,0.0325721837580204,-1.0651277303695679,0.17831236124038696,-0.3511756658554077
0.9362599086609756,-1.6366855996539482,-1.0031805816198653,-1.0769026279449463,-2.164259910583496,-3.8394885063171387,-0.5915181636810303,-0.8053466081619263,0.03903120011091232,-1.1246988773345947,0.2133055329322815,-0.42484962940216064
0.9766083555730113,-1.6441827029451483,-1.0186243981268692,-1.2421422004699707,-1.8270440101623535,-4.05143404006958,-0.5583292245864868,-0.8286033868789673,0.04104747623205185,-1.1321003437042236,0.20227587223052979,-0.5856794118881226
1.018848461748961,-1.6446098722044609,-1.0372059756580772,-1.3911402225494385,-1.3610411882400513,-4.186984539031982,-0.5229189991950989,-0.8515048027038574,0.038668759167194366,-1.1474300622940063,0.2859377861022949,-0.7299224138259888
1.0620981011494652,-1.6351635056622869,-1.0608026260432897,-1.5800005197525024,-0.7975860238075256,-4.233423233032227,-0.4860318899154663,-0.8733792901039124,0.031327780336141586,-1.1333374977111816,0.45083296298980713,-0.7981277704238892
1.1050718874104584,-1.6133221225556882,-1.0909760668462611,-1.673104166984558,-0.176898792386055,-4.154059886932373,-0.4486643373966217,-0.8934964537620544,0.019091319292783737,-1.0203298330307007,0.5510587096214294,-0.8492456674575806
1.1465230856142206,-1.5806550461811932,-1.126442885597025,-1.5614962577819824,0.28224247694015503,-4.0231404304504395,-0.4116387963294983,-0.9113381505012512,0.004058362916111946,-0.8657049536705017,0.560828447341919,-0.9218287467956543
1.1864942899422173,-1.5417445297057186,-1.1636365248588003,-1.2632379531860352,0.6559135317802429,-3.984459400177002,-0.3747537136077881,-0.9270603060722351,-0.010890332981944084,-0.8732320666313171,0.6190922856330872,-1.0052229166030884
1.2261941359823747,-1.5006048007681319,-1.198583781877353,-0.8104134798049927,1.0314406156539917,-4.052754878997803,-0.336990624666214,-0.9412099123001099,-0.02369280904531479,-0.9402310848236084,0.7177754044532776,-1.0744211673736572
1.2668685008676779,-1.461895549337329,-1.2269505649333563,-0.25299203395843506,1.3068724870681763,-4.187541961669922,-0.29749795794487,-0.9541683793067932,-0.03252644091844559,-0.9769008159637451,0.7847499847412109,-1.1389670372009277
1.3093992832453392,-1.43073912689172,-1.2450000906224252,0.3056626617908478,1.4427310228347778,-4.3524909019470215,-0.2559002637863159,-0.9660298824310303,-0.03607688099145889,-0.9948168992996216,0.844402015209198,-1.1662088632583618
1.3542209403436096,-1.4117729529439598,-1.248927999444129,0.8375681042671204,1.5832524299621582,-4.498474597930908,-0.2121751308441162,-0.9766390919685364,-0.034028127789497375,-0.9846479892730713,0.9037172794342041,-1.1531819105148315
1.4008389123028318,-1.4146980205998831,-1.22931759517438,1.359060525894165,1.6557501554489136,-4.547678470611572,-0.1670839935541153,-0.9855919480323792,-0.026295453310012817,-0.8827816843986511,0.9258080124855042,-1.128810167312622
1.4481031689181771,-1.466186212867845,-1.1605923965660676,1.8367000818252563,1.6412715911865234,-4.520606517791748,-0.12171658873558044,-0.992482602596283,-0.012779436074197292,-0.7947262525558472,0.9445242881774902,-1.0956952571868896
1.4936028678586204,-1.648406632091718,-0.9611155590683571,2.235367774963379,1.605523943901062,-4.446336269378662,-0.07688552886247635,-0.9970220923423767,0.0059791188687086105,-0.772433876991272,0.9941685795783997,-1.024838924407959
1.5268379153497278,-2.293198002743895,-0.29952209269240776,2.5293080806732178,1.536059856414795,-4.385599136352539,-0.03296812251210213,-0.9990339875221252,0.02905566431581974,-0.7556060552597046,1.036952018737793,-0.9340848922729492
1.5146728583105575,2.956246905636236,0.7502871082552298,2.6943678855895996,1.453721046447754,-4.390230178833008,0.010337567888200283,-0.9984254837036133,0.0551343634724617,-0.7471844553947449,1.0467042922973633,-0.8558239936828613
1.4718786554428638,2.5681353263881874,1.1538577270236074,2.7711055278778076,1.423026204109192,-4.4619340896606445,0.053579311817884445,-0.9951116442680359,0.08295845240354538,-0.7587336897850037,1.0407812595367432,-0.795971155166626
1.422137984146964,2.4270097853095454,1.3107313195405914,2.822143793106079,1.5031137466430664,-4.556343078613281,0.09705810993909836,-0.9889706969261169,0.11187882721424103,-0.7903563976287842,1.0575894117355347,-0.7651839256286621
1.3696220375457258,2.3626434973995694,1.392059263195132,2.947230339050293,1.6371769905090332,-4.613257884979248,0.14038041234016418,-0.9798325896263123,0.14220282435417175,-0.7920222282409668,1.0835617780685425,-0.7581542730331421
1.3151341891616253,2.3336817699958092,1.4393478265899362,3.1565101146698,1.7818459272384644,-4.6219096183776855,0.18279750645160675,-0.9674960374832153,0.17474685609340668,-0.7740908265113831,1.0947544574737549,-0.7836945056915283
1.258832108502008,2.325434033367318,1.4675340803052785,3.4235475063323975,1.9723052978515625,-4.6066155433654785,0.2236037254333496,-0.9517325162887573,0.21025386452674866,-0.7961440086364746,1.1258200407028198,-0.8000365495681763
1.200759502185373,2.3297648610591346,1.484786633319332,3.680382251739502,2.12945556640625,-4.596723556518555,0.2623937427997589,-0.9323140382766724,0.2488778680562973,-0.8209874629974365,1.1838855743408203,-0.7879098653793335
1.1412685222858896,2.3412175205172256,1.4962340813631385,3.876307487487793,2.254255771636963,-4.568739891052246,0.2988460659980774,-0.9091625213623047,0.29002588987350464,-0.8269679546356201,1.2165963649749756,-0.7346211671829224
1.0810483447770507,2.3563765217487096,1.5051621319913822,3.9701294898986816,2.3593056201934814,-4.536251544952393,0.332565039396286,-0.8824514150619507,0.3326861262321472,-0.8256527781486511,1.2241109609603882,-0.6386400461196899
1.0209625979301746,2.372590810584028,1.514701109364864,3.8807313442230225,2.544114828109741,-4.547506332397461,0.36338767409324646,-0.8526114225387573,0.3755038380622864,-0.8418269753456116,1.2348899841308594,-0.5229495167732239
0.9621207401741461,2.388820941542378,1.5280772963839608,3.5852229595184326,2.938089609146118,-4.6066975593566895,0.39090657234191895,-0.8204060196876526,0.4172843396663666,-0.8637152910232544,1.2491626739501953,-0.3930227756500244
0.9057491646293889,2.405526176795067,1.5468404277444088,3.1619887351989746,3.387322187423706,-4.637640476226807,0.41430479288101196,-0.7868877053260803,0.4573393762111664,-0.8446331024169922,1.2688822746276855,-0.2584867775440216
0.8531312690376932,2.423478220659931,1.5702035687087428,2.7049076557159424,3.7676494121551514,-4.538089752197266,0.43269672989845276,-0.7533432841300964,0.4952251613140106,-0.7768890857696533,1.2993483543395996,-0.13403421640396118
0.8050294709444323,2.4439035510552873,1.595847478649256,2.3495941162109375,4.052414417266846,-4.313837051391602,0.4452746510505676,-0.7208510637283325,0.5311349034309387,-0.6685411930084229,1.33234703540802,-0.04552394151687622
0.7612292180126697,2.467104159254937,1.6214955912300428,2.124218225479126,4.153719425201416,-4.018873691558838,0.45212945342063904,-0.6898118853569031,0.5654544234275818,-0.5111809372901917,1.3560259342193604,0.006017863750457764
0.72114711785204,2.4922705599478494,1.6457760316731975,2.000472068786621,4.129751682281494,-3.721348762512207,0.45411917567253113,-0.6602466702461243,0.5982058644294739,-0.35795825719833374,1.359175443649292,0.028289496898651123
0.6837796882907754,2.5192148669457093,1.668313239376467,1.9915134906768799,4.159607887268066,-3.4845316410064697,0.4519117772579193,-0.6317275166511536,0.6298379898071289,-0.2566450536251068,1.3776992559432983,0.05351150035858154
0.6475328576671553,2.548484479379967,1.689342088394012,2.0915775299072266,4.252499103546143,-3.3794844150543213,0.4457972049713135,-0.603220522403717,0.6613548398017883,-0.18178951740264893,1.4280037879943848,0.08710414171218872
0.6112201103918253,2.5790750421038755,1.7093798032848533,2.206301689147949,4.16148567199707,-3.264575242996216,0.4367595911026001,-0.5738670825958252,0.6927608847618103,-0.0770794153213501,1.4771417379379272,0.12784159183502197
0.5758836247551764,2.609273323289701,1.7275658066763244,2.2343945503234863,3.870488405227661,-2.9412648677825928,0.4256739318370819,-0.544576108455658,0.7226609587669373,0.11775270104408264,1.5151723623275757,0.24018394947052002
0.5431735439870307,2.6382043695422603,1.7423540618057898,2.188397169113159,3.4391651153564453,-2.4402594566345215,0.41296622157096863,-0.5168553590774536,0.7498794198036194,0.36784127354621887,1.5155584812164307,0.39843589067459106
0.5141003428193318,2.6647273689871076,1.7527525284175853,2.0774714946746826,2.8900632858276367,-1.8585964441299438,0.3996645212173462,-0.49175167083740234,0.7735946774482727,0.5543455481529236,1.4862737655639648,0.5199844837188721
0.4891501436736925,2.688403207671402,1.7584609476641515,1.9152098894119263,2.3989102840423584,-1.2697463035583496,0.3864915072917938,-0.46987587213516235,0.79362553358078,0.6161788702011108,1.4501919746398926,0.5807948112487793
0.4681529116282494,2.710528592792231,1.760067732101848,1.7568066120147705,2.2084946632385254,-0.8049588799476624,0.37287992238998413,-0.4512387216091156,0.8107680082321167,0.5566093325614929,1.4077510833740234,0.5792621374130249
0.4497678496051953,2.7332585325554546,1.7589638852314513,1.6849000453948975,2.2368812561035156,-0.5235816240310669,0.35759058594703674,-0.43475648760795593,0.8265084624290466,0.4358817934989929,1.3594390153884888,0.5133354663848877
0.43254557373792996,2.7573477830636195,1.755912441142005,1.6983364820480347,2.307344436645508,-0.29397934675216675,0.34033530950546265,-0.41918328404426575,0.8416991829872131,0.31994307041168213,1.3219237327575684,0.43219614028930664
0.415688132427162,2.7829977238154577,1.7510155120525066,1.7611991167068481,2.4153378009796143,-0.1037101000547409,0.3210708200931549,-0.40381956100463867,0.856646716594696,0.25124067068099976,1.2932543754577637,0.38871467113494873
0.39851944398877115,2.810403574948835,1.7445416313750828,1.8647109270095825,2.527794361114502,0.06024208664894104,0.2996865212917328,-0.388054221868515,0.8715516924858093,0.231777161359787,1.2666552066802979,0.3892974853515625
0.3808767461969982,2.8388136794746925,1.7366182342195564,1.9156231880187988,2.5130786895751953,0.2357700616121292,0.2768065333366394,-0.37173452973365784,0.8861105442047119,0.24286213517189026,1.254012942314148,0.45254313945770264
0.36383374293246684,2.866491517267132,1.727471508285733,1.80204176902771,2.325011968612671,0.4237527549266815,0.2538623511791229,-0.355859637260437,0.8993988633155823,0.27248966693878174,1.2397706508636475,0.575424313545227
0.34885639444816574,2.8920010915314807,1.7174456003031215,1.5474082231521606,2.055878162384033,0.6086223721504211,0.23212960362434387,-0.3418233096599579,0.9106446504592896,0.30635321140289307,1.1979632377624512,0.7098696827888489
0.3370801239794804,2.914670777933348,1.7067593505614653,1.1963757276535034,1.751183271408081,0.7863039970397949,0.2123185694217682,-0.33073294162750244,0.9195307493209839,0.3180007338523865,1.16659414768219,0.8023931980133057
0.32905333577655776,2.934638426973858,1.6955248358283406,0.8210622668266296,1.5115036964416504,0.9347836971282959,0.1944558471441269,-0.3231472969055176,0.9261550903320312,0.30861127376556396,1.1452603340148926,0.8297655582427979
0.32463008208754285,2.9527979528467356,1.6838684089583813,0.481071412563324,1.373153805732727,1.0464211702346802,0.1778727024793625,-0.31895822286605835,0.9309282898902893,0.28640657663345337,1.1196173429489136,0.79584801197052
0.32338072523314604,2.969975982116658,1.6717726037504892,0.17048059403896332,1.288459300994873,1.1605829000473022,0.16192367672920227,-0.31777384877204895,0.9342383146286011,0.25606048107147217,1.1059513092041016,0.7220578193664551
0.32520244320974645,2.986806816931256,1.6589643431201186,-0.1435721516609192,1.2656179666519165,1.2908105850219727,0.1460879147052765,-0.3195006251335144,0.9362572431564331,0.2402494102716446,1.0911834239959717,0.6442785859107971
0.33010940241513814,3.004043195381947,1.64505026983064,-0.4478541910648346,1.2761870622634888,1.4573681354522705,0.12971283495426178,-0.3241465389728546,0.9370720386505127,0.2538321614265442,1.0695688724517822,0.5788429975509644
0.3380320924873209,3.0216974954314804,1.6294234946387918,-0.7570621371269226,1.214079737663269,1.6730319261550903,0.11283945292234421,-0.3316311836242676,0.9366370439529419,0.27867066860198975,1.0675472021102905,0.5242093801498413
0.3492561089922334,3.039192770189062,1.6115218912061722,-1.1161434650421143,1.07846999168396,1.91717529296875,0.0960497185587883,-0.34219890832901,0.9347058534622192,0.29159989953041077,1.0696921348571777,0.4842092990875244
0.36416472959611745,3.056414619087644,1.5912744182147895,-1.5060133934020996,0.9599599242210388,2.1221728324890137,0.07949601113796234,-0.3561689257621765,0.9310342073440552,0.28079459071159363,1.0563184022903442,0.4484215974807739
0.38266730567129265,3.07364514738229,1.5690636901193407,-1.8780831098556519,0.8698729276657104,2.269259214401245,0.06298451870679855,-0.3733961880207062,0.9255315661430359,0.2389717400074005,1.0423719882965088,0.38240623474121094
0.40446803346073157,3.0911752825230083,1.54510786299223,-2.223797559738159,0.8095060586929321,2.3938639163970947,0.046329669654369354,-0.3935297727584839,0.9181439876556396,0.18941868841648102,1.0347344875335693,0.29302263259887695
0.4294108338281693,3.1095632705615173,1.519232989872735,-2.5721495151519775,0.7783624529838562,2.528773546218872,0.029116492718458176,-0.41633519530296326,0.9087448120117188,0.1506168693304062,1.033461570739746,0.20064526796340942
0.4574431929120537,3.1293776921495766,1.490927576059179,-2.9141292572021484,0.7570814490318298,2.6952717304229736,0.010958807542920113,-0.44165563583374023,0.8971180319786072,0.1258820742368698,1.0349477529525757,0.11144232749938965
0.48812155621848824,-3.1320161383276233,1.4595672856259578,-3.1983280181884766,0.7395538091659546,2.8829753398895264,-0.008457997813820839,-0.46896764636039734,0.8831750154495239,0.11517803370952606,1.0401194095611572,0.015262603759765625
0.52063931590542,-3.1082073850379235,1.4246805889542102,-3.415682077407837,0.6318854093551636,3.0650689601898193,-0.02895638719201088,-0.4974348545074463,0.8670179843902588,0.09870435297489166,1.0509932041168213,-0.08825516700744629
0.5542781365499376,-3.0829095676088105,1.386039064682066,-3.589388608932495,0.4702899754047394,3.233774185180664,-0.04986845701932907,-0.5263296365737915,0.8488169312477112,0.06843845546245575,1.066826581954956,-0.16803079843521118
0.5882821037592347,-3.0559836703218206,1.3436933765785073,-3.679556131362915,0.3359673321247101,3.3538219928741455,-0.07113077491521835,-0.554932713508606,0.8288489580154419,0.02761276811361313,1.087784767150879,-0.2297581434249878
0.6218326935253157,-3.0271260522748116,1.297974890085232,-3.7267940044403076,0.23905856907367706,3.427604913711548,-0.09283683449029922,-0.5825257897377014,0.807493269443512,-0.023206189274787903,1.1083893775939941,-0.31406962871551514
0.654423883670806,-2.9959535104251938,1.249401057106031,-3.72462797164917,0.21870268881320953,3.4422197341918945,-0.1151418462395668,-0.6087022423744202,0.7849991917610168,-0.07554715126752853,1.1333452463150024,-0.3828233480453491
0.6857667771731875,-2.9613779861675753,1.1977061621407712,-3.7586841583251953,0.2818716764450073,3.518890619277954,-0.1387205272912979,-0.6332666277885437,0.7614004015922546,-0.116116464138031,1.1491355895996094,-0.43512141704559326
0.716223272571972,-2.922425181935783,1.1423947043244336,-3.8755388259887695,0.37058770656585693,3.524630069732666,-0.16399571299552917,-0.6565406322479248,0.7362473011016846,-0.11006732285022736,1.1884162425994873,-0.4464675784111023
0.7467336762544093,-2.8789389986805634,1.0835517691323326,-4.129866600036621,0.46107718348503113,3.509566068649292,-0.19055582582950592,-0.6792451739311218,0.7087416648864746,-0.14246723055839539,1.230438232421875,-0.42505019903182983
0.778133863405587,-2.829655331366392,1.0193260895455551,-4.5046281814575195,0.5153406858444214,3.6150965690612793,-0.21858403086662292,-0.7019515633583069,0.6778535842895508,-0.16026118397712708,1.251237392425537,-0.37299805879592896
0.8103801657027975,-2.7725869409460877,0.9467673468222186,-4.941740036010742,0.5422525405883789,3.793734312057495,-0.2485947608947754,-0.7245492339134216,0.6428292393684387,-0.12793110311031342,1.2688300609588623,-0.32038038969039917
0.8429167472553712,-2.706605486078602,0.8642990592115932,-5.378139495849609,0.5024803280830383,3.899434804916382,-0.28035154938697815,-0.746586799621582,0.6033334136009216,-0.1348094940185547,1.282017707824707,-0.30746543407440186
0.8749323719287241,-2.6317518634529287,0.7716703742425726,-5.778682231903076,0.4397493898868561,3.937730073928833,-0.31285640597343445,-0.7675001621246338,0.5595217347145081,-0.21970579028129578,1.2909070253372192,-0.3250398635864258
0.9046754312875057,-2.547000942546815,0.6680955647199042,-6.065256118774414,0.4093025326728821,4.0335469245910645,-0.34615233540534973,-0.7862246036529541,0.5118882060050964,-0.2773827910423279,1.3196871280670166,-0.37130892276763916
0.9292111074174195,-2.4513661210616347,0.5526615764486413,-6.213084697723389,0.3728767931461334,4.263708591461182,-0.38105082511901855,-0.8011480569839478,0.46147871017456055,-0.27182698249816895,1.3433079719543457,-0.4654610753059387
0.9450903054335976,-2.345853117972779,0.42595515240757076,-6.200622081756592,0.28668010234832764,4.619879722595215,-0.41839179396629333,-0.8105498552322388,0.4098265767097473,-0.27635616064071655,1.3496121168136597,-0.5756283402442932
0.948852596911314,-2.235238196137209,0.29245107416152355,-5.94318151473999,0.1380378007888794,5.068991184234619,-0.45867082476615906,-0.8127475380897522,0.35925254225730896,-0.30008766055107117,1.370944619178772,-0.7098689079284668
0.9378951031705985,-2.128328686747548,0.16086310053562528,-5.3770318031311035,-0.08734392374753952,5.5439453125,-0.5019140839576721,-0.8063148856163025,0.31295210123062134,-0.36634159088134766,1.3798773288726807,-0.905450701713562
0.911930734629254,-2.035010423778943,0.041551680178895746,-4.55706787109375,-0.30913788080215454,5.943138599395752,-0.5474315285682678,-0.7906872630119324,0.2741035223007202,-0.5164112448692322,1.3079447746276855,-1.1508581638336182
0.8734572347188571,-1.9605571292317991,-0.058528628802326316,-3.6637885570526123,-0.3739405870437622,6.186398983001709,-0.5940170884132385,-0.7665536999702454,0.24400755763053894,-0.7373123168945312,1.1475348472595215,-1.3955577611923218
0.82689412020733,-1.9038895575408448,-0.13815595097470296,-2.875541925430298,-0.24922949075698853,6.156301021575928,-0.6399444937705994,-0.7358317375183105,0.22141098976135254,-1.0200438499450684,0.9433512091636658,-1.5476438999176025
0.7773008871944227,-1.8609384768731883,-0.2000653750385651,-2.2769083976745605,-0.07301905006170273,5.85346794128418,-0.6830160617828369,-0.7013580203056335,0.2039264738559723,-1.3185555934906006,0.717364490032196,-1.5964128971099854
0.7281829904741032,-1.8287846677186497,-0.2473010866870696,-1.678794503211975,0.03181539475917816,5.423734664916992,-0.7216834425926208,-0.6655145287513733,0.19042964279651642,-1.5677146911621094,0.4803186058998108,-1.613510012626648
0.680843272856474,-1.8061423811605068,-0.28107904645870535,-0.9725591540336609,0.1399964690208435,4.985747337341309,-0.7556223273277283,-0.6294485330581665,0.1811904013156891,-1.7511374950408936,0.2624744772911072,-1.7098920345306396
0.6356588804786035,-1.791261574725005,-0.30160362799822804,-0.1388668566942215,0.31878018379211426,4.509486198425293,-0.7852043509483337,-0.5937078595161438,0.17597056925296783,-1.9804818630218506,0.11337625980377197,-1.832800269126892
0.5938321558790436,-1.78262658445042,-0.3098539435332644,0.5873585343360901,0.43132537603378296,3.912081003189087,-0.8102768063545227,-0.5595412254333496,0.17425537109375,-2.0940046310424805,-0.10679483413696289,-1.8813323974609375
0.556628272621203,-1.7787681565004791,-0.30883704493551223,1.1030079126358032,0.44553062319755554,3.305818557739258,-0.830746054649353,-0.5283264517784119,0.1753065586090088,-2.1278722286224365,-0.4435974359512329,-1.7858411073684692
0.5243745064240631,-1.7780808167417028,-0.30093624664823454,1.553715467453003,0.5143285989761353,2.716003656387329,-0.8471070528030396,-0.5006716251373291,0.17815102636814117,-2.1567230224609375,-0.7354276776313782,-1.659687876701355
0.49549199652616116,-1.7796493844008057,-0.2860758559202854,2.2443997859954834,0.5820633172988892,2.4200599193573,-0.8606178760528564,-0.47546452283859253,0.18240252137184143,-2.1260764598846436,-0.9455865621566772,-1.608595609664917
0.4688223868760954,-1.7849153073038346,-0.26381062608283395,2.5983998775482178,0.45209792256355286,1.8557136058807373,-0.8717288970947266,-0.4518360495567322,0.18955950438976288,-1.9754694700241089,-1.140906810760498,-1.6696009635925293
0.450929293715021,-1.7878044843561207,-0.24145020422592106,2.007948398590088,1.0808742046356201,0.7677197456359863,-0.8789328336715698,-0.4358021318912506,0.19378717243671417,-1.9679756164550781,-1.1925853490829468,-1.4475865364074707
0.44218986753679146,-1.7797630909016353,-0.22271041588837065,1.7834670543670654,2.0642590522766113,0.3584805130958557,-0.8841550946235657,-0.4279197156429291,0.187496155500412,-2.1822969913482666,-1.3051583766937256,-0.8812369108200073
0.4359934142933307,-1.7654128824789086,-0.20406662690304916,1.7298091650009155,2.3394992351531982,0.1458333134651184,-0.889339029788971,-0.42231109738349915,0.17529889941215515,-1.9850506782531738,-1.4468142986297607,-0.971197247505188
0.4326195954220844,-1.7484235643834662,-0.1857050771053775,1.6566007137298584,2.573542833328247,-0.10990656912326813,-0.8935859799385071,-0.41925048828125,0.1604158878326416,-1.6468651294708252,-1.37457275390625,-1.0104676485061646
0.43267133224418386,-1.7300295485421848,-0.16690541329686429,1.7438393831253052,2.6456384658813477,-0.48934921622276306,-0.8963640332221985,-0.419297456741333,0.14394961297512054,-1.5457136631011963,-1.2997578382492065,-0.7839183807373047
0.437049536759196,-1.7130933012923388,-0.1441866348650177,2.2424378395080566,2.605386972427368,-1.0139917135238647,-0.8968474268913269,-0.4232681691646576,0.12848706543445587,-1.5255157947540283,-1.2959091663360596,-0.8104480504989624
0.44653750941257087,-1.7012143240790356,-0.1132186119241865,3.064030170440674,2.3717637062072754,-1.6126703023910522,-0.8942883014678955,-0.43184512853622437,0.11729707568883896,-1.523116111755371,-1.3136842250823975,-0.8557765483856201
0.46049106946699375,-1.6975413676574451,-0.07123125822195137,4.054378986358643,2.0122432708740234,-2.075463056564331,-0.8886485695838928,-0.44438809156417847,0.11323881894350052,-1.494438648223877,-1.2209256887435913,-0.8791842460632324
0.4766801564415781,-1.7039099793798242,-0.017390816115079467,5.002896308898926,1.5633125305175781,-2.345886468887329,-0.8806626796722412,-0.4588319659233093,0.11792556941509247,-1.3914320468902588,-1.051742434501648,-0.8271387815475464
0.49347186652737224,-1.7198132213944686,0.04651786935044165,5.637332439422607,1.239409327507019,-2.5359411239624023,-0.870933473110199,-0.4736863970756531,0.1307530701160431,-1.2308273315429688,-0.848228394985199,-0.7139590978622437
0.5096846368510779,-1.7415616027864471,0.11656872223120825,5.881198406219482,1.1706434488296509,-2.597883462905884,-0.8602021336555481,-0.4879019856452942,0.14833734929561615,-1.1001402139663696,-0.6170175075531006,-0.5093601942062378
0.5247543567559332,-1.7639295577054097,0.18795847045528,5.686762809753418,1.4657384157180786,-2.594196081161499,-0.849356472492218,-0.5010004043579102,0.16610942780971527,-1.0150692462921143,-0.4394598603248596,-0.2849752902984619
0.539159007522106,-1.7803908891925506,0.2557531725877361,5.109330654144287,2.145261287689209,-2.5428264141082764,-0.8393608331680298,-0.5134145021438599,0.1785476803779602,-0.9978126883506775,-0.3510265350341797,-0.04791712760925293
0.5534969214379506,-1.7866908678551958,0.3164143401956239,4.3756890296936035,2.839383602142334,-2.4376795291900635,-0.8309430480003357,-0.5256652235984802,0.18223626911640167,-1.0337573289871216,-0.31671154499053955,0.2500300407409668
0.5687734126569021,-1.784185272975938,0.3687383950647624,3.604957103729248,3.1628925800323486,-2.4403915405273438,-0.8234518766403198,-0.5385989546775818,0.17843207716941833,-1.0485572814941406,-0.2641354203224182,0.5547223091125488
0.5864842941974101,-1.7767647817291154,0.41296266792103226,2.896472930908203,3.0806334018707275,-2.5602478981018066,-0.8152870535850525,-0.5534362196922302,0.17033901810646057,-1.0359091758728027,-0.22541815042495728,0.7875773906707764
0.6072894340158741,-1.7683211407713906,0.44998694894384383,2.2570877075195312,2.728724956512451,-2.7269649505615234,-0.8052299618721008,-0.5706436634063721,0.16115424036979675,-0.9969245791435242,-0.2142685055732727,0.9200531244277954
0.6309599471343059,-1.7600416499668765,0.4801861809689429,1.655556321144104,2.4368162155151367,-2.838625431060791,-0.7930456399917603,-0.589920163154602,0.1518978625535965,-0.9306939840316772,-0.19476312398910522,0.966800332069397
0.6565840340106146,-1.7506932571064935,0.5041310693543586,1.182974934577942,2.30959415435791,-2.8766443729400635,-0.7792996764183044,-0.6104146838188171,0.1417258083820343,-0.8312197327613831,-0.13464152812957764,0.9503763914108276
0.6831776293822802,-1.7393296644717653,0.5233457462616755,0.8768898248672485,2.3580024242401123,-2.8570680618286133,-0.7645825743675232,-0.6312606930732727,0.13009166717529297,-0.7791644334793091,-0.06544047594070435,0.8788957595825195
0.709931452969003,-1.7253226592684878,0.5394081934513576,0.6971026062965393,2.4818787574768066,-2.798161029815674,-0.7493698596954346,-0.6517817974090576,0.11672794818878174,-0.7254988551139832,-0.025037109851837158,0.8068561553955078
0.7364246862227044,-1.7091127493703353,0.5530670295017883,0.5523462295532227,2.545781373977661,-2.7258801460266113,-0.7337989807128906,-0.6716433763504028,0.10214869678020477,-0.6574363112449646,0.009762823581695557,0.8019957542419434
0.7626399922671173,-1.6914660116998181,0.5644276290250296,0.418752521276474,2.4961044788360596,-2.6781883239746094,-0.7177571058273315,-0.6908326148986816,0.08703437447547913,-0.6287851929664612,0.041738927364349365,0.8884143829345703
0.7891303519379242,-1.6736520633696024,0.5734158682735032,0.25833702087402344,2.2892208099365234,-2.725189447402954,-0.7007398009300232,-0.7097408771514893,0.07233035564422607,-0.640263557434082,0.08510708808898926,1.0141565799713135
0.8167780905432467,-1.6565109059375378,0.5793453359765005,0.03745067119598389,1.9666413068771362,-2.851379156112671,-0.6820600628852844,-0.7289440035820007,0.058606088161468506,-0.6579209566116333,0.12358200550079346,1.1553527116775513
0.8462482354103894,-1.6404580560921973,0.5814527034553898,-0.21020492911338806,1.5321977138519287,-3.033021926879883,-0.6611897945404053,-0.7487990260124207,0.04613427445292473,-0.6500437259674072,0.1720166802406311,1.2925193309783936
0.87756907243714,-1.625515721907012,0.5792931487268879,-0.4528224468231201,1.1285479068756104,-3.170799732208252,-0.6380665898323059,-0.7691877484321594,0.03494950756430626,-0.6375834345817566,0.23252075910568237,1.3884209394454956
0.9096500667437578,-1.610678436038305,0.5727200284224756,-0.665698766708374,0.8182284235954285,-3.1561124324798584,-0.6135339736938477,-0.7892889380455017,0.024482009932398796,-0.5758733749389648,0.30132800340652466,1.422341227531433
0.9408332784761837,-1.5949740630450917,0.5615791597310693,-0.8634768724441528,0.5355449914932251,-3.0029661655426025,-0.58894282579422,-0.8080492615699768,0.014242079108953476,-0.47816532850265503,0.3749437928199768,1.4213659763336182
0.9700590482139161,-1.5783330745786706,0.5460572474213284,-1.0004727840423584,0.2602473795413971,-2.7929153442382812,-0.5652350187301636,-0.8249191045761108,0.004260114394128323,-0.3779259920120239,0.4259779453277588,1.4050416946411133
0.9969821944472451,-1.5612870952344085,0.5272984628889524,-1.0597872734069824,0.02535100281238556,-2.5729551315307617,-0.5428150296211243,-0.8398366570472717,-0.005161909386515617,-0.314316987991333,0.4377368092536926,1.353764295578003
1.0213604462598596,-1.5443621113407897,0.5060552484299821,-1.105048418045044,-0.24620385468006134,-2.3220484256744385,-0.5220237374305725,-0.8528192639350891,-0.013802503235638142,-0.29316169023513794,0.4287317395210266,1.2974330186843872
1.0429604926017824,-1.5281654873511357,0.48255152443160126,-1.1472493410110474,-0.5466218590736389,-2.061401844024658,-0.5032073855400085,-0.8638991117477417,-0.021465158089995384,-0.2934844493865967,0.4306562542915344,1.2697257995605469
1.0617972326923617,-1.5129386044227162,0.4569960135864615,-1.183284044265747,-0.8510792255401611,-1.822029709815979,-0.48648837208747864,-0.8732326626777649,-0.028178559616208076,-0.30551907420158386,0.4309260845184326,1.2322955131530762
1.0784152615187164,-1.4995346764719746,0.42981138185710555,-1.1963783502578735,-1.2379015684127808,-1.6645640134811401,-0.47152599692344666,-0.8812097907066345,-0.033658716827631,-0.33862417936325073,0.4148247241973877,1.1663187742233276
1.0937647229011707,-1.48872526557955,0.4012951117542625,-1.211715579032898,-1.6299316883087158,-1.6024104356765747,-0.4575989544391632,-0.8883617520332336,-0.03764018043875694,-0.4439513087272644,0.37705492973327637,1.1069457530975342
1.1087579904060174,-1.4795245692765264,0.3710243890913603,-1.2584245204925537,-1.8955843448638916,-1.6189554929733276,-0.44391822814941406,-0.8951457142829895,-0.04063008353114128,-0.5647945404052734,0.3525583744049072,1.0515248775482178
1.1239434827231376,-1.469655789387928,0.33792181585865716,-1.3364509344100952,-2.058039426803589,-1.6726703643798828,-0.4299215078353882,-0.9018115401268005,-0.04363136738538742,-0.6578623056411743,0.35789668560028076,0.9794377088546753
1.1393192977480184,-1.457797367433766,0.30128392086922545,-1.4199219942092896,-2.184152841567993,-1.6997509002685547,-0.4155457317829132,-0.9083490371704102,-0.04715711623430252,-0.7008482217788696,0.37609195709228516,0.9024428129196167
1.1544542594817648,-1.4436741638072426,0.26131269261017903,-1.4672240018844604,-2.2578794956207275,-1.6842912435531616,-0.4011547267436981,-0.914574384689331,-0.05127213895320892,-0.6981494426727295,0.388863205909729,0.8062465786933899
1.1689120367428094,-1.42765313742786,0.21896490368294338,-1.4690381288528442,-2.289905071258545,-1.61575448513031,-0.38715261220932007,-0.9203255772590637,-0.05579989403486252,-0.6747980117797852,0.3799508213996887,0.6906266212463379
1.1822575524133219,-1.4104407949078834,0.1753183621105689,-1.436633586883545,-2.310272455215454,-1.5143765211105347,-0.37397655844688416,-0.9254636168479919,-0.060488566756248474,-0.632203221321106,0.35949981212615967,0.5744352340698242
1.1943501964954875,-1.3928566727811025,0.13137006196815082,-1.3749200105667114,-2.304352283477783,-1.4139995574951172,-0.3618133068084717,-0.9299769997596741,-0.06506913900375366,-0.5911743640899658,0.3441462516784668,0.46925926208496094
1.2055561305131717,-1.3753993633587274,0.08830853927410894,-1.2634217739105225,-2.204700231552124,-1.3624416589736938,-0.35037705302238464,-0.934037983417511,-0.06934742629528046,-0.601222038269043,0.3329942226409912,0.3564873933792114
1.2165429612939693,-1.3582247100162685,0.047144083135128925,-1.1204726696014404,-2.051311492919922,-1.373184323310852,-0.3390826880931854,-0.9379057288169861,-0.0731850191950798,-0.6442394256591797,0.32363247871398926,0.23735439777374268
1.2279204754020219,-1.341504107712218,0.008050020272054504,-0.9807085990905762,-1.9478349685668945,-1.4228426218032837,-0.32739782333374023,-0.9417917132377625,-0.07641363888978958,-0.6904090642929077,0.30813997983932495,0.14077526330947876
1.2398663679693052,-1.325414847980004,-0.02933089885394033,-0.8554907441139221,-1.8763552904129028,-1.4720321893692017,-0.31518933176994324,-0.9457405805587769,-0.0789322480559349,-0.6985281705856323,0.29036039113998413,0.07026536762714386
1.2523561283306444,-1.3094242745560856,-0.0657252562382274,-0.7628143429756165,-1.8144460916519165,-1.5167427062988281,-0.30245253443717957,-0.9497249126434326,-0.08090340346097946,-0.6762309074401855,0.28340399265289307,0.0038619041442871094
1.2651915113770849,-1.292851217963929,-0.10202829191216822,-0.7060656547546387,-1.7723469734191895,-1.5325684547424316,-0.28932347893714905,-0.9536651372909546,-0.08255290985107422,-0.6446059942245483,0.2899687886238098,-0.06377875804901123
1.2780630316477548,-1.2750572499193358,-0.1395484896064055,-0.6815768480300903,-1.8509235382080078,-1.5565112829208374,-0.27604296803474426,-0.9574587345123291,-0.08410303294658661,-0.5858191251754761,0.30644237995147705,-0.12373685836791992
1.2907834817315467,-1.257411095304284,-0.17855770552671926,-0.6486244201660156,-2.112611770629883,-1.4975601434707642,-0.2629081904888153,-0.961051881313324,-0.08519912511110306,-0.5337531566619873,0.30156683921813965,-0.162481427192688
1.3022018964493154,-1.2448050438110276,-0.215549646243234,-0.5130003094673157,-2.481628179550171,-1.2828800678253174,-0.2514006495475769,-0.9641448259353638,-0.08498648554086685,-0.4739411175251007,0.30212682485580444,-0.22810852527618408
1.3119347923818394,-1.2442529147996315,-0.2440959807247016,-0.2611124813556671,-2.896649122238159,-1.034348726272583,-0.2424532175064087,-0.9666820168495178,-0.08211097121238708,-0.43926364183425903,0.3295360803604126,-0.360622763633728
1.3205517691644706,-1.2588535232881373,-0.26067325170889294,0.01019756868481636,-3.1756787300109863,-0.8739795684814453,-0.23568971455097198,-0.9688518643379211,-0.07600309699773788,-0.49226129055023193,0.36239129304885864,-0.5002908110618591
1.329383449748764,-1.2856411087172461,-0.265798824018014,0.26389631628990173,-3.1117782592773438,-0.914421796798706,-0.22942066192626953,-0.971001148223877,-0.06725332140922546,-0.5799054503440857,0.3828205466270447,-0.5833660960197449
1.3402806662883262,-1.3183403358647612,-0.2629498416597074,0.42612674832344055,-2.8414556980133057,-1.1633155345916748,-0.22123713791370392,-0.9735487103462219,-0.05707026273012161,-0.6841278076171875,0.3869093060493469,-0.6344580054283142
1.3543956819947434,-1.3511308483816533,-0.2567509712148837,0.48518621921539307,-2.473564863204956,-1.512433409690857,-0.20955567061901093,-0.9766765832901001,-0.046787116676568985,-0.7718132138252258,0.39012885093688965,-0.6899377107620239
1.371945604966589,-1.3795712698353546,-0.2507394744975217,0.4578930735588074,-2.011622428894043,-1.8542683124542236,-0.19394218921661377,-0.9802942276000977,-0.03754536435008049,-0.800366222858429,0.38050174713134766,-0.7544772624969482
1.3922652571845726,-1.4004765418690628,-0.24736048462311738,0.387954980134964,-1.4924893379211426,-2.0951530933380127,-0.1750151813030243,-0.9841055870056152,-0.030100170522928238,-0.7587158679962158,0.36594146490097046,-0.7967582941055298
1.4142953476633047,-1.4122221282681002,-0.24799718606714244,0.3105379641056061,-0.979202926158905,-2.227424144744873,-0.15390712022781372,-0.9877787232398987,-0.024612344801425934,-0.6455464959144592,0.3863993287086487,-0.810272216796875
1.4370500129322035,-1.4148428089189389,-0.25275589593182574,0.2670859396457672,-0.4800240099430084,-2.2636868953704834,-0.1317305713891983,-0.9910692572593689,-0.02071203477680683,-0.5195144414901733,0.4420884847640991,-0.8340242505073547
1.4595739937830463,-1.410660222433805,-0.25946053207129505,0.2866087853908539,-0.02348257601261139,-2.1834499835968018,-0.10957378894090652,-0.9938211441040039,-0.0176982618868351,-0.4017024040222168,0.5030527114868164,-0.8671435713768005
1.4810353144586574,-1.406579812391969,-0.2616285090108877,0.36020877957344055,0.4080778658390045,-2.038205862045288,-0.0884353518486023,-0.9959741830825806,-0.014654512517154217,-0.29564356803894043,0.5548883080482483,-0.8700804710388184
1.501096538986032,-1.4093852946977095,-0.252720366457828,0.41920793056488037,0.7940686941146851,-1.8843915462493896,-0.06873970478773117,-0.9975719451904297,-0.01119271945208311,-0.18184006214141846,0.5924662947654724,-0.862494945526123
1.5196951663893368,-1.4245349995258882,-0.227839022615269,0.43399688601493835,1.1238524913787842,-1.7358717918395996,-0.05053407698869705,-0.9986945986747742,-0.007444341201335192,-0.09471425414085388,0.6173927187919617,-0.8426685333251953
1.536829774235696,-1.4590493678054195,-0.18089455952390973,0.39669957756996155,1.331890344619751,-1.6018292903900146,-0.033753205090761185,-0.9994232058525085,-0.003787596942856908,-0.03872597590088844,0.6308469772338867,-0.7837642431259155
1.5525859806119973,-1.5438898452512486,-0.08213722477329283,0.3357228934764862,1.4212125539779663,-1.495400071144104,-0.018206728622317314,-0.9998341798782349,-0.0004899972700513899,0.011782824993133545,0.6240559816360474,-0.6963330507278442
1.5663690557121035,-2.1510483359257804,0.5394489386664428,0.2830897569656372,1.4489814043045044,-1.3938887119293213,-0.0037267429288476706,-0.9999902248382568,0.002442986937239766,0.07234558463096619,0.6096550226211548,-0.6286789178848267
1.559872980701408,2.069118932605791,2.617249364665071,0.26786670088768005,1.4907087087631226,-1.271554708480835,0.00959805492311716,-0.9999403357505798,0.005222555715590715,0.12304666638374329,0.5937665700912476,-0.5926096439361572
1.547711957323864,1.9382754362644616,2.7632002673676808,0.3044561445713043,1.516588807106018,-1.1283248662948608,0.021545983850955963,-0.999733567237854,0.008294467814266682,0.1752161681652069,0.5849996209144592,-0.5668270587921143
1.536586363325133,1.9366067776977223,2.780154548161989,0.4047331213951111,1.531893014907837,-0.9760093092918396,0.031942855566740036,-0.9994149208068848,0.012235747650265694,0.21933892369270325,0.5751746892929077,-0.5349559783935547
1.526392291285785,1.9793626379690519,2.752837025469757,0.5680810809135437,1.5534515380859375,-0.8235982060432434,0.04073840007185936,-0.9990143179893494,0.01763678342103958,0.2521693706512451,0.5592712163925171,-0.49993646144866943
1.5167081227741672,2.052509338492448,2.6954101558544137,0.7734034061431885,1.5941555500030518,-0.6744534373283386,0.04791171848773956,-0.9985376000404358,0.025047769770026207,0.2932291030883789,0.5408501625061035,-0.4562457799911499
1.507093874331828,2.1470918410791366,2.6169852597190277,0.9833108186721802,1.655794382095337,-0.5120291113853455,0.053377341479063034,-0.9979717135429382,0.03468921780586243,0.34049785137176514,0.5248729586601257,-0.40094590187072754
1.4972679008423533,2.25407782381785,2.526605781992332,1.1613974571228027,1.6884194612503052,-0.34338706731796265,0.05697100609540939,-0.997298002243042,0.04638028144836426,0.3723350763320923,0.5170580744743347,-0.33748745918273926
1.4869591022198416,2.3622656993792446,2.4348586978098066,1.2761437892913818,1.640494465827942,-0.21899829804897308,0.058852456510066986,-0.9964877367019653,0.059571441262960434,0.3851630985736847,0.5102816224098206,-0.24955856800079346
1.4756868129072174,2.4605993993592077,2.3521618407102203,1.3778467178344727,1.5278488397598267,-0.1985158622264862,0.05978812649846077,-0.995480477809906,0.07378467172384262,0.3778492510318756,0.48550117015838623,-0.14395976066589355
1.462770464807626,2.5401427501603253,2.286456015548924,1.4772130250930786,1.2825860977172852,-0.28855574131011963,0.0610075369477272,-0.9941709041595459,0.08889761567115784,0.32949548959732056,0.4210200309753418,-0.0595395490527153
1.448199853576982,2.596691609180033,2.240833738297132,1.5161855220794678,0.9585296511650085,-0.40520521998405457,0.06338731944561005,-0.9924944639205933,0.10458031296730042,0.28378069400787354,0.3452165126800537,0.018283486366271973
1.433316217878523,2.63093645819023,2.214345380721121,1.3705686330795288,0.5738772749900818,-0.49176836013793945,0.06698209047317505,-0.9905644655227661,0.11956378817558289,0.2797892391681671,0.2927342653274536,0.11978565901517868
1.4198952592951217,2.646098714193435,2.201680553974063,1.1572903394699097,0.013578200712800026,-0.463217556476593,0.07147654891014099,-0.9886360168457031,0.1322498619556427,0.3367418944835663,0.26796334981918335,0.2802562713623047
1.4083176671650157,2.6548805157521103,2.192724224083126,1.0061922073364258,-0.007356110028922558,-0.3829573392868042,0.07566150277853012,-0.9868293404579163,0.14298085868358612,0.31339186429977417,0.23725640773773193,0.19873978197574615
1.3985053834924792,2.66097725481882,2.1862974250127443,0.8270117044448853,-0.03548727557063103,-0.3412381708621979,0.07926128059625626,-0.9851946234703064,0.1520182192325592,0.3181539475917816,0.19958055019378662,0.18390417098999023
1.3900838143298675,2.6642288299538874,2.183123204793906,0.7219369411468506,0.082016721367836,-0.33872202038764954,0.08257600665092468,-0.9837158918380737,0.15963973104953766,0.27580726146698,0.20328956842422485,0.13960056006908417
1.3821569838106325,2.666832925681806,2.182188728949407,0.7106291651725769,0.25080475211143494,-0.3531658351421356,0.08572171628475189,-0.9822602868080139,0.16678404808044434,0.21150431036949158,0.1990417242050171,0.06650759279727936
1.373847348363175,2.6719954426990884,2.1802153516565173,0.8062188029289246,0.38733330368995667,-0.3317159414291382,0.08855012059211731,-0.9806681871414185,0.17449699342250824,0.17156654596328735,0.2094888687133789,0.002657651901245117
1.3647959975873873,2.681779034906594,2.1746136047708005,0.8970353007316589,0.4534100592136383,-0.2724885642528534,0.09077425301074982,-0.9788568615913391,0.183302104473114,0.16001927852630615,0.20999681949615479,-0.050870999693870544
1.3556421873127302,2.6952374534693027,2.165028585147302,0.902109682559967,0.33916524052619934,-0.15890024602413177,0.09216323494911194,-0.9769434928894043,0.1925814151763916,0.17237842082977295,0.17996156215667725,-0.014877527952194214
1.3473599159222496,2.7113981387729376,2.151093429033963,0.8460296392440796,0.18506097793579102,0.00860130786895752,0.09241055697202682,-0.9751417636871338,0.20139317214488983,0.20080241560935974,0.15389829874038696,0.05652621388435364
1.340476504029029,2.7306254370696714,2.1331115888694776,0.721750020980835,0.16908466815948486,0.1562911719083786,0.09120071679353714,-0.9735934138298035,0.20928078889846802,0.22328296303749084,0.1380678415298462,0.10707974433898926
1.3356200738564532,2.7501165254194953,2.115158852878703,0.4763352870941162,0.24460533261299133,0.2120068371295929,0.08890781551599503,-0.9724732637405396,0.21538710594177246,0.21683260798454285,0.1248321533203125,0.14255371689796448
1.333381313754519,2.7666991835761694,2.1015210952182644,0.17623379826545715,0.4290236532688141,0.20128655433654785,0.08612065017223358,-0.9719491600990295,0.2188560962677002,0.1689910888671875,0.11654150485992432,0.16027900576591492
1.3335425441491158,2.7797307068554677,2.0938989767835188,-0.07473752647638321,0.698357105255127,0.13206376135349274,0.08320588618516922,-0.9719870686531067,0.21981313824653625,0.10537757724523544,0.10690534114837646,0.16591379046440125
1.3355274018789982,2.787949644843325,2.093800001677014,-0.2889757752418518,0.8995213508605957,0.0075149089097976685,0.08072835206985474,-0.9724516868591309,0.2186797708272934,0.04062485694885254,0.08667892217636108,0.14151930809020996
1.338929603494374,2.7893568498323593,2.101827373368979,-0.4734533131122589,0.9159709215164185,-0.11742042005062103,0.07927880436182022,-0.9732391238212585,0.21568691730499268,0.02940959483385086,0.07091045379638672,0.11243823170661926
1.343524396080753,2.783742560627994,2.116666746044973,-0.6138889789581299,0.8427553176879883,-0.1898176521062851,0.07892104983329773,-0.9742847084999084,0.21104688942432404,0.04702507704496384,0.05298960208892822,0.1134466826915741
1.3490020368477296,2.7734371073326405,2.135412051500143,-0.6941225528717041,0.7430843710899353,-0.20005737245082855,0.0791701227426529,-0.9755043387413025,0.20524072647094727,0.06966415792703629,0.041651010513305664,0.10432973504066467
1.3548385991323486,2.7600468659694655,2.1561080327016295,-0.7085326313972473,0.6097553372383118,-0.20759890973567963,0.0797896608710289,-0.9767715930938721,0.19887444376945496,0.07966476678848267,0.04951024055480957,0.06769669055938721
1.3603930021069512,2.7446384543086886,2.1776089055190195,-0.6532719731330872,0.5202159881591797,-0.2113063931465149,0.08074568957090378,-0.9779467582702637,0.19261504709720612,0.06433495879173279,0.0658678412437439,0.013363361358642578
1.365135360575368,2.729688422750847,2.1983561425842764,-0.5454831719398499,0.5660567283630371,-0.19981777667999268,0.08175873011350632,-0.9789262413978577,0.1871350109577179,0.04392798990011215,0.08210587501525879,-0.045151785016059875
1.3686862266403343,2.7182099539322615,2.216586356680072,-0.39797642827033997,0.7086353898048401,-0.1886361688375473,0.08247236162424088,-0.9796451926231384,0.18301326036453247,0.025392085313796997,0.09321630001068115,-0.0897209644317627
1.3708051915734536,2.7107605359771036,2.232303872932783,-0.24309365451335907,0.8758467435836792,-0.21207864582538605,0.0829661563038826,-0.9800683259963989,0.18050695955753326,-0.004184931516647339,0.11481869220733643,-0.11091160774230957
1.3713415750929767,2.7055338113309366,2.2472915856818827,-0.1056719645857811,0.9996545910835266,-0.28768646717071533,0.0836867019534111,-0.9801747798919678,0.17959491908550262,-0.035728275775909424,0.13755381107330322,-0.09532046318054199
1.3703993880394514,2.6994307840938916,2.2639483950072705,-0.008877778425812721,1.0307137966156006,-0.3900413513183594,0.0851757749915123,-0.979987621307373,0.17991426587104797,-0.04823420196771622,0.1459270715713501,-0.05058075487613678
1.3682851295839527,2.690697425569974,2.283421089878602,0.04535350203514099,1.0328954458236694,-0.48938116431236267,0.08764667809009552,-0.9795646071434021,0.18102845549583435,-0.050476230680942535,0.1451835036277771,-0.014188781380653381
1.3654732305296904,2.6788523209304254,2.306274818476836,0.04222934693098068,1.0686438083648682,-0.5866057276725769,0.09101429581642151,-0.978995144367218,0.18244221806526184,-0.05340135097503662,0.14916110038757324,0.008246898651123047
1.362441769496278,2.662612121375651,2.3339870671126604,-0.0272211991250515,1.092971682548523,-0.7033684849739075,0.09533194452524185,-0.9783725738525391,0.1835722178220749,-0.045664504170417786,0.1628209948539734,0.033270567655563354
1.3595454387887367,2.6397501625813056,2.36857103671692,-0.14543679356575012,1.0921803712844849,-0.8373510837554932,0.10086669027805328,-0.9777693748474121,0.1838293969631195,-0.034292519092559814,0.18374770879745483,0.050377845764160156
1.3569505316662804,2.6094574377374276,2.4108087432117484,-0.28650081157684326,1.1043810844421387,-0.9649620652198792,0.10767463594675064,-0.9772219657897949,0.18287478387355804,-0.02845095843076706,0.21316874027252197,0.055177658796310425
1.3547709278502666,2.571839818614218,2.460991377442097,-0.46600985527038574,1.176614761352539,-1.0790239572525024,0.11562524735927582,-0.9767571091651917,0.18048962950706482,-0.024637043476104736,0.24927902221679688,0.044775962829589844
1.353272428460836,2.527551476467259,2.519174433326814,-0.6816326975822449,1.3322930335998535,-1.1530638933181763,0.12434589117765427,-0.9764348268508911,0.17638936638832092,-0.024141356348991394,0.2842656373977661,0.02624736726284027
1.3527423704466628,2.47862011430584,2.5841986668991446,-0.9021514654159546,1.5756999254226685,-1.1501737833023071,0.13314348459243774,-0.9763202667236328,0.1705046445131302,-0.007060036063194275,0.3317583203315735,0.016751304268836975
1.3533873403504013,2.428433606200501,2.652999861599665,-1.0718610286712646,1.7949210405349731,-1.0445607900619507,0.14111754298210144,-0.9764596223831177,0.16313478350639343,0.038631096482276917,0.3778113126754761,0.005535975098609924
1.3553946660314329,2.3803125551608066,2.7212496051714914,-1.178382158279419,1.8879472017288208,-0.8408766388893127,0.1474485993385315,-0.9768906235694885,0.1547381728887558,0.11121848225593567,0.40692901611328125,-0.008680939674377441
1.3588009890646717,2.337735304458243,2.7843191872800612,-1.1677484512329102,1.9064301252365112,-0.5695894956588745,0.15150445699691772,-0.9776130318641663,0.14601191878318787,0.18833935260772705,0.427579402923584,-0.030502796173095703
1.3632124834625798,2.3058859249909918,2.8365469176899247,-1.0009067058563232,1.9284507036209106,-0.26972582936286926,0.1528763771057129,-0.9785317182540894,0.13821940124034882,0.24113614857196808,0.44844138622283936,-0.06624366343021393
1.3679620990779393,2.2907941667010623,2.8717357615098753,-0.6872161030769348,1.918656826019287,0.014163926243782043,0.15144865214824677,-0.9794995784759521,0.1328301727771759,0.2603708505630493,0.45464301109313965,-0.11259700357913971
1.37226839891148,2.2963602356778843,2.8851958539088236,-0.29555803537368774,1.796602725982666,0.23930862545967102,0.1475507616996765,-0.9803579449653625,0.13087165355682373,0.25097838044166565,0.4440114498138428,-0.13668513298034668
1.375133148378684,2.32000899031078,2.8781680324420464,0.10005975514650345,1.5236575603485107,0.3427550494670868,0.14235782623291016,-0.9809189438819885,0.13241083920001984,0.2247534692287445,0.42325592041015625,-0.10093188285827637
1.375683880949293,2.3546796940996844,2.856702877729213,0.40740638971328735,1.1882598400115967,0.2930136024951935,0.13729935884475708,-0.9810258746147156,0.13688403367996216,0.1823113113641739,0.4006730914115906,-0.028149858117103577
1.3736340096888011,2.391440506126322,2.829739075625716,0.5983571410179138,0.8751549124717712,0.17120392620563507,0.1335466504096985,-0.9806264042854309,0.14330874383449554,0.1265089511871338,0.35980725288391113,0.05110359191894531
1.3696399334138785,2.424784543506226,2.803581675734961,0.6618298292160034,0.6679157018661499,0.047869738191366196,0.1312669813632965,-0.9798361659049988,0.15063288807868958,0.08383622765541077,0.330238938331604,0.10788166522979736
1.364392533618272,2.4481840104716417,2.785929531250338,0.5798258185386658,0.5730019807815552,-0.20246633887290955,0.1309911161661148,-0.9787742495536804,0.15761499106884003,0.038854509592056274,0.31878578662872314,0.13340067863464355
1.3581887051930601,2.4553914737689517,2.7848176228047747,0.3903302848339081,0.6640102863311768,-0.5566880106925964,0.1336968094110489,-0.9774839878082275,0.16325002908706665,-0.07685773074626923,0.2796078324317932,0.16882707178592682
1.3515639802957382,2.4448652362502696,2.8033456855807457,0.11199383437633514,0.8430852890014648,-0.8853990435600281,0.13956019282341003,-0.9760646820068359,0.1667964905500412,-0.11854873597621918,0.2117365002632141,0.19721724092960358
1.3453928544493141,2.419403333008027,2.8389942699087807,-0.2030285745859146,1.0145699977874756,-1.0879542827606201,0.14773984253406525,-0.9747040271759033,0.16770535707473755,-0.09555472433567047,0.17630314826965332,0.21672473847866058
1.3404187289260034,2.3841758815190413,2.8864867798202876,-0.503649115562439,1.176137089729309,-1.139431118965149,0.15688423812389374,-0.9735802412033081,0.16591908037662506,-0.030373528599739075,0.18846964836120605,0.21689356863498688
1.3372664151443419,2.343920725487553,2.940241801108118,-0.7781347632408142,1.2131143808364868,-1.045675277709961,0.16563019156455994,-0.9728555679321289,0.16161347925662994,0.04665018618106842,0.19664084911346436,0.20873261988162994
1.3363859195012386,2.300420793543725,2.9971729070154898,-1.0177359580993652,1.1398866176605225,-0.8745639324188232,0.173139750957489,-0.972651481628418,0.154828742146492,0.11790646612644196,0.17478466033935547,0.22194145619869232
1.33771478953555,2.2544614522714346,3.055310457832702,-1.1786079406738281,0.9586736559867859,-0.6680429577827454,0.17906834185123444,-0.9729592800140381,0.1458943784236908,0.18830232322216034,0.12446361780166626,0.23481251299381256
1.340534668847627,2.2072375094036234,3.1124698782686706,-1.2171070575714111,0.7133150100708008,-0.5042592287063599,0.18354851007461548,-0.9736067056655884,0.1356472671031952,0.2075037956237793,0.0650983452796936,0.21853983402252197
1.3436442289898782,2.1597530749964586,-3.1158336767296233,-1.1625462770462036,0.477203905582428,-0.4220450222492218,0.18726179003715515,-0.9743117094039917,0.12509943544864655,0.15513022243976593,0.006706058979034424,0.1579969972372055
1.3462985502381886,2.1130410020402848,-3.0640043813063804,-1.079174280166626,0.29631203413009644,-0.37873294949531555,0.1906832605600357,-0.9749060273170471,0.11488379538059235,0.09747901558876038,-0.049523353576660156,0.0997464656829834
1.3482878193646943,2.067805543810282,-3.0145481765268975,-1.0185465812683105,0.3235684335231781,-0.367309033870697,0.19397838413715363,-0.9753469228744507,0.1052188128232956,0.046179741621017456,-0.10039782524108887,0.06780065596103668
1.349543337461003,2.0249862704678665,-2.9667976752951994,-0.9589976072311401,0.42237573862075806,-0.36591750383377075,0.197204127907753,-0.9756232500076294,0.09628161042928696,0.01776176691055298,-0.14988046884536743,0.0474105030298233
1.3503404200620164,1.985340880088412,-2.9215269965955635,-0.9042680263519287,0.4673677086830139,-0.3129751980304718,0.200153648853302,-0.9757978320121765,0.08807660639286041,0.02152612805366516,-0.1918964385986328,0.02642548829317093
1.3514201922073157,1.9488645560076656,-2.879410505278276,-0.8695959448814392,0.4520019292831421,-0.18871980905532837,0.20225243270397186,-0.9760333895683289,0.08032950758934021,0.04204083979129791,-0.22088128328323364,0.017220012843608856
1.3534792081716653,1.9145909679866946,-2.839995975315981,-0.8709810376167297,0.3730109632015228,-0.026518112048506737,0.2029934823513031,-0.9764794111251831,0.07267412543296814,0.0890444815158844,-0.24553591012954712,0.052371732890605927
1.3568435375824626,1.8798332981040382,-2.8014265685597852,-0.9000195264816284,0.2015504688024521,0.1308385580778122,0.20226602256298065,-0.9771992564201355,0.0645766630768776,0.13451074063777924,-0.266559898853302,0.10131704062223434
1.3614643832530184,1.8432505530864747,-2.763034481536157,-0.9022459387779236,-0.0168995913118124,0.2851831018924713,0.20014195144176483,-0.9781699776649475,0.05592009052634239,0.14298251271247864,-0.3092600107192993,0.13772928714752197
1.367102731677165,1.8047153896583845,-2.7248317885759015,-0.899810791015625,-0.2004917562007904,0.4056028425693512,0.1967795044183731,-0.979326069355011,0.04688883572816849,0.12382298707962036,-0.3229658603668213,0.13423311710357666
1.3733732436807846,1.7637959831369483,-2.6854326172549934,-0.8885599970817566,-0.25191447138786316,0.4745403826236725,0.19250205159187317,-0.9805752635002136,0.037621110677719116,0.0973692536354065,-0.31639134883880615,0.12042951583862305
1.3794795046173138,1.7226429964284622,-2.646265051896434,-0.8069911599159241,-0.29422232508659363,0.45105060935020447,0.18796406686306,-0.9817546606063843,0.028763124719262123,0.05262133479118347,-0.3265644311904907,0.0895230770111084
1.3846930155516288,1.6821922144523114,-2.6081451963875524,-0.7646650075912476,-0.2929442822933197,0.38635310530662537,0.18388448655605316,-0.9827327132225037,0.020569127053022385,-0.013230115175247192,-0.3655492067337036,0.0367581844329834
1.3891824197149056,1.640314319918657,-2.568092518723454,-0.8040285110473633,-0.2046460211277008,0.36284762620925903,0.18018172681331635,-0.9835534691810608,0.012546089477837086,-0.036565929651260376,-0.3836798667907715,0.04543745517730713
1.3933077553348248,1.5926234916371063,-2.5210983436529695,-0.9210802912712097,-0.08682696521282196,0.37991583347320557,0.17651709914207458,-0.9842901825904846,0.003853479865938425,-0.008273646235466003,-0.3724910020828247,0.09545087814331055
1.397309302230104,1.535936663359863,-2.4637796617888874,-1.0740129947662354,0.034664880484342575,0.43235304951667786,0.17251382768154144,-0.984988808631897,-0.0060162111185491085,0.012270167469978333,-0.3478360176086426,0.1286512017250061
1.401247049246288,1.469030108985878,-2.395079991801494,-1.2000795602798462,0.11179748177528381,0.5117514729499817,0.16786596179008484,-0.9856609106063843,-0.01714230328798294,0.02921663224697113,-0.31718045473098755,0.1453772783279419
1.4051621714324831,1.3935170441409714,-2.3173653792548943,-1.2415894269943237,0.09401022642850876,0.6224870085716248,0.1622946411371231,-0.9863139986991882,-0.029076725244522095,0.04546906054019928,-0.2748708724975586,0.14248019456863403
1.409201270520271,1.3120378769277583,-2.2344552608181543,-1.2041221857070923,-0.04516017436981201,0.7419090270996094,0.15553735196590424,-0.986971914768219,-0.041169580072164536,0.06650866568088531,-0.23894989490509033,0.11560201644897461
1.4133028357813533,1.2273814952002915,-2.1500372753318286,-1.104061245918274,-0.21377518773078918,0.8218903541564941,0.14768600463867188,-0.9876235127449036,-0.05281010642647743,0.06166461110115051,-0.2208268642425537,0.0799860954284668
1.4172078962886845,1.1430237661826972,-2.0674880925194157,-0.9611948728561401,-0.3423086702823639,0.8554171323776245,0.13920073211193085,-0.988228440284729,-0.06346549093723297,0.026998043060302734,-0.221305251121521,0.04607057571411133
1.420941192665581,1.06214969229197,-1.9895671046603578,-0.7980691194534302,-0.4159221649169922,0.8661520481109619,0.13039545714855194,-0.9887927174568176,-0.07270631939172745,-0.01615285873413086,-0.21253180503845215,0.013670206069946289
1.424602745088486,0.9859481841256272,-1.916900352932646,-0.6532917022705078,-0.4357304871082306,0.8661626577377319,0.12146236002445221,-0.9893327355384827,-0.08042263239622116,-0.05655142664909363,-0.1891036033630371,-0.017782866954803467
1.4282287592115703,0.9133110786927879,-1.847740944176845,-0.5466371178627014,-0.3947315216064453,0.8741067051887512,0.11246596276760101,-0.9898544549942017,-0.08683308213949203,-0.06960393488407135,-0.17344534397125244,-0.0386093333363533
1.4316844528233004,0.8422913855608113,-1.779820839736483,-0.4818885028362274,-0.3629855513572693,0.8677465319633484,0.10346760600805283,-0.9903395175933838,-0.09231676906347275,-0.06857068836688995,-0.17369264364242554,-0.04344058781862259
1.4346431292467352,0.7715594441237723,-1.7122026176066951,-0.44589781761169434,-0.3806980848312378,0.8330317735671997,0.09464085847139359,-0.990745484828949,-0.09729720652103424,-0.0835019052028656,-0.1819840669631958,-0.026985585689544678
1.4370026331259513,0.7030755946945721,-1.6469104386168905,-0.382525771856308,-0.3771853744983673,0.7730680704116821,0.0862489566206932,-0.9910629391670227,-0.10176151990890503,-0.11342481523752213,-0.1683914065361023,-0.0354454442858696
1.438783506165471,0.6390819470681528,-1.5864304389026342,-0.3362363576889038,-0.43565723299980164,0.7023634314537048,0.07851173728704453,-0.9912989735603333,-0.10565180331468582,-0.13289400935173035,-0.14926499128341675,-0.03927605599164963
1.4399948671811644,0.5778775329137932,-1.5295461812596167,-0.3219383656978607,-0.5270981788635254,0.659618079662323,0.07124651223421097,-0.9914577007293701,-0.10925047844648361,-0.12854322791099548,-0.14092761278152466,-0.02334832400083542
1.440574710711495,0.5172108080105319,-1.4742438600254857,-0.3300187885761261,-0.6272228360176086,0.6217371821403503,0.0642080083489418,-0.9915331602096558,-0.11287055164575577,-0.11492817848920822,-0.12411344051361084,0.0038924068212509155
1.4403464499087697,0.45788514197845365,-1.42099209984954,-0.359352171421051,-0.6668334007263184,0.5720497965812683,0.05750207230448723,-0.9915034770965576,-0.11668024957180023,-0.11496661603450775,-0.09435766935348511,0.017208360135555267
1.4392256320974646,0.401709319035583,-1.3710637470485003,-0.3840582072734833,-0.6622498035430908,0.517633318901062,0.05129483714699745,-0.9913570284843445,-0.12074784189462662,-0.11875388771295547,-0.06592440605163574,0.012273207306861877
1.437486913176013,0.3488647729850064,-1.324453028613275,-0.3851493000984192,-0.6616348624229431,0.49964845180511475,0.045434970408678055,-0.9911274313926697,-0.12490969896316528,-0.11254307627677917,-0.04540228843688965,-0.00846727192401886
1.4355174448015073,0.2977080064882037,-1.2795998798539263,-0.3686160147190094,-0.6717255711555481,0.5117567777633667,0.039560772478580475,-0.9908637404441833,-0.12893521785736084,-0.0930122435092926,-0.027172207832336426,-0.03779745101928711
1.433366459679023,0.24739022577583608,-1.2355500500373608,-0.368230938911438,-0.6511422395706177,0.5169664025306702,0.033547308295965195,-0.9905713796615601,-0.1328270435333252,-0.07759937644004822,-0.016646087169647217,-0.06337039172649384
1.4307259335302887,0.20029111475255804,-1.1942169042080704,-0.4030272662639618,-0.572949230670929,0.46858006715774536,0.027776667848229408,-0.9902061820030212,-0.13682202994823456,-0.09810435771942139,-0.01623302698135376,-0.07878457009792328
1.4272606967301007,0.16086917390593536,-1.1595599206641813,-0.4500831663608551,-0.4412303566932678,0.3640901446342468,0.02291221171617508,-0.9897164106369019,-0.1411968618631363,-0.1498500406742096,-0.013213276863098145,-0.08087943494319916
1.423021072533387,0.13219262584475583,-1.1343098019588127,-0.49263283610343933,-0.2983166575431824,0.2315024882555008,0.019407179206609726,-0.9891011118888855,-0.1459536850452423,-0.18919166922569275,0.0006824731826782227,-0.08350789546966553
1.4181839878313462,0.11424813312171,-1.1186657459631193,-0.5216466188430786,-0.19996371865272522,0.11571010947227478,0.017330367118120193,-0.9883773326873779,-0.151030033826828,-0.1992303431034088,0.011875808238983154,-0.09021137654781342
1.4129223805615265,0.10423364474523758,-1.1101868549988039,-0.5499877333641052,-0.12809310853481293,0.031026989221572876,0.016357844695448875,-0.9875637888908386,-0.15636564791202545,-0.18472328782081604,0.020095527172088623,-0.0926729291677475
1.407330930077906,0.09966776955216122,-1.1064211282359482,-0.5757421255111694,-0.03741274029016495,-0.02146977372467518,0.016192905604839325,-0.9866692423820496,-0.16193050146102905,-0.15845054388046265,0.033071279525756836,-0.09057186543941498
1.4014686404435337,0.09829222646266131,-1.1048740630463014,-0.5924813151359558,0.06376873701810837,-0.04140622168779373,0.016537578776478767,-0.9856982827186584,-0.1677069216966629,-0.13247382640838623,0.04186582565307617,-0.09434747695922852
1.3954677857966118,0.0988541153643086,-1.1043843043238513,-0.6002340316772461,0.1381838619709015,-0.06199352443218231,0.017215313389897346,-0.9846692681312561,-0.17358103394508362,-0.11485624313354492,0.04887807369232178,-0.10040570795536041
1.389417168262251,0.10157202864895426,-1.1054466835927423,-0.5928645133972168,0.19567613303661346,-0.0930151641368866,0.01829075999557972,-0.9835958480834961,-0.17945705354213715,-0.10947725176811218,0.05245870351791382,-0.10688930749893188
1.3834405492573971,0.10610814115228394,-1.1078142985219896,-0.58403480052948,0.24354113638401031,-0.11591514945030212,0.019726838916540146,-0.9825001955032349,-0.1852143257856369,-0.10415366291999817,0.05516248941421509,-0.10708294808864594
1.377580238511842,0.11187238762179771,-1.1110249983028195,-0.5629734992980957,0.27200257778167725,-0.13120993971824646,0.02143654227256775,-0.9813917875289917,-0.1908159703016281,-0.09310704469680786,0.059562504291534424,-0.09775817394256592
1.3720438205256205,0.11776591443063511,-1.1142845709991598,-0.5176957249641418,0.2571330964565277,-0.11827658116817474,0.023198788985610008,-0.9803136587142944,-0.19607917964458466,-0.07097399234771729,0.06275683641433716,-0.09087753295898438
1.3671006822093918,0.1224204922967187,-1.1166721408419489,-0.44437485933303833,0.19932766258716583,-0.094688281416893,0.02470267005264759,-0.9793256521224976,-0.2007763683795929,-0.042463839054107666,0.05572634935379028,-0.09178030490875244
1.3629733246795157,0.125847807286234,-1.1184223524903962,-0.3627553880214691,0.1441107541322708,-0.07968456298112869,0.02589774690568447,-0.9784824252128601,-0.20469869673252106,-0.029834449291229248,0.03899872303009033,-0.09556365013122559
1.359701175611996,0.1289888618766226,-1.1203124807609153,-0.2751145660877228,0.12039116770029068,-0.08149255812168121,0.02695225365459919,-0.977802038192749,-0.20779010653495789,-0.030843202024698257,0.029208898544311523,-0.09860625863075256
1.35726770013708,0.13276983267442907,-1.12297335256143,-0.1963137686252594,0.11628962308168411,-0.09395961463451385,0.028052641078829765,-0.9772892594337463,-0.21004478633403778,-0.04196861386299133,0.028802931308746338,-0.09683988988399506
1.3554075485982058,0.13758068403866894,-1.126805411843261,-0.15589705109596252,0.09579051285982132,-0.11989926546812057,0.029312053695321083,-0.9768933653831482,-0.21170760691165924,-0.05191025137901306,0.024104058742523193,-0.08728830516338348
1.353627215496134,0.1434991117883795,-1.1319297424120978,-0.16850338876247406,0.0901012048125267,-0.15014666318893433,0.030813179910182953,-0.9765112996101379,-0.21325139701366425,-0.06030837073922157,0.002878546714782715,-0.0584617555141449
1.351597348295302,0.15057975842555102,-1.1382312729194406,-0.19495290517807007,0.09465483576059341,-0.17858101427555084,0.03261960297822952,-0.9760719537734985,-0.21498697996139526,-0.05891043692827225,-0.00792151689529419,-0.02050180733203888
1.3493467061258853,0.15804542024334653,-1.1450203077289427,-0.20299752056598663,0.07205205410718918,-0.17506350576877594,0.03456948325037956,-0.975580096244812,-0.2169070988893509,-0.04624241590499878,-0.001165628433227539,0.0024296045303344727
1.3471905404944267,0.16387631439261086,-1.1504716182637196,-0.17818298935890198,0.026448553428053856,-0.12849964201450348,0.03617672622203827,-0.9751042127609253,-0.21877656877040863,-0.017728805541992188,0.008032619953155518,0.0004386305809020996
1.3453578236610522,0.1670805516963781,-1.15377434301384,-0.1596284806728363,-0.023369871079921722,-0.0797712430357933,0.037174683064222336,-0.974696159362793,-0.22042131423950195,0.010661691427230835,0.00040715932846069336,-0.017157912254333496
1.3437262795098768,0.16843934476607372,-1.1555090279283273,-0.14995694160461426,-0.03829895332455635,-0.054125893861055374,0.03774065524339676,-0.9743301868438721,-0.22193779051303864,0.007806893438100815,-0.01985621452331543,-0.022141724824905396
1.3421973806019027,0.16922441681869724,-1.1566503889881825,-0.13928911089897156,-0.02589954249560833,-0.04804057255387306,0.038165707141160965,-0.9739848375320435,-0.22337612509727478,-0.005771253257989883,-0.014601588249206543,-0.004864737391471863
1.3409288154768104,0.1694588742078706,-1.1571463901965624,-0.10336887836456299,-0.026238787919282913,-0.010502710938453674,0.038426414132118225,-0.9736965894699097,-0.22458478808403015,-0.009663555771112442,0.008349299430847168,0.0018981397151947021
1.34027898846876,0.16743601208253123,-1.1555099932037511,-0.035282235592603683,-0.05511811003088951,0.06374195963144302,0.03807756304740906,-0.9735483527183533,-0.22528643906116486,0.011010024696588516,0.015006303787231445,-0.007104843854904175
1.3404550784510942,0.16257221732146257,-1.1511009209695449,0.029526475816965103,-0.05232193320989609,0.1325015425682068,0.03695356473326683,-0.9735885262489319,-0.22529946267604828,0.03786033019423485,0.0015426278114318848,-0.032131537795066833
1.3412006573028414,0.15650025874262571,-1.1451837914269483,0.06974820047616959,-0.0026209568604826927,0.14632254838943481,0.03547169268131256,-0.9737585186958313,-0.22480234503746033,0.027699735015630722,-0.0251428484916687,-0.05212929844856262
1.3422361871424366,0.15131949101584669,-1.1394336773657399,0.08584586530923843,0.09229284524917603,0.11755481362342834,0.03415456414222717,-0.9739936590194702,-0.2239862084388733,-0.011968228965997696,-0.036092400550842285,-0.038358017802238464
1.343241567433788,0.14902614146249699,-1.1357267074893342,0.10426268726587296,0.15563905239105225,0.09374641627073288,0.03349538892507553,-0.9742209315299988,-0.22309547662734985,-0.03494492545723915,-0.01685267686843872,-0.013842925429344177
1.3444100857608343,0.14726537528989722,-1.1323582020557479,0.12529635429382324,0.1363520622253418,0.11030401289463043,0.03293554112315178,-0.9744839072227478,-0.2220284640789032,-0.019034739583730698,-0.0050847530364990234,0.0005929768085479736
1.3459378310694752,0.14333884012813794,-1.1273092356024192,0.14529350399971008,0.06757619976997375,0.15495537221431732,0.03185074403882027,-0.9748256802558899,-0.2206820398569107,0.016290783882141113,-0.006360292434692383,0.011896133422851562
1.3475181142139274,0.13708786966991252,-1.1203603686128434,0.12832503020763397,0.04415737837553024,0.18860302865505219,0.03026009537279606,-0.9751768112182617,-0.21935053169727325,0.04247862100601196,-0.020840704441070557,0.017232730984687805
1.348736133422129,0.13043917261781857,-1.1130182578743095,0.09487226605415344,0.05176975578069687,0.19168324768543243,0.028646551072597504,-0.9754458069801331,-0.21836920082569122,0.03190037980675697,-0.03660881519317627,0.023224622011184692
1.3492752345585626,0.12554312893032196,-1.1073706284977194,0.06429234147071838,0.04969940707087517,0.16573265194892883,0.02751123160123825,-0.9755643606185913,-0.21798519790172577,0.004440724849700928,-0.029181182384490967,0.02996647357940674
1.3494585236512424,0.12086338612947185,-1.1020062268802455,0.04476391524076462,0.052223820239305496,0.1350029706954956,0.02646922506392002,-0.9756046533584595,-0.2179337590932846,-0.014079034328460693,-0.013363361358642578,0.029976069927215576
1.3495724539056695,0.11630104451026746,-1.0965763313189354,0.011037933640182018,0.1023862212896347,0.09477679431438446,0.025461740791797638,-0.9756296277046204,-0.21794162690639496,-0.017633916810154915,-0.02165430784225464,0.02215619385242462
1.3493711628043754,0.11314620948804927,-1.091925747990967,-0.05023873969912529,0.18844734132289886,0.05679132789373398,0.024796247482299805,-0.9755854606628418,-0.21821625530719757,-0.018448561429977417,-0.046723008155822754,0.008408010005950928
