attitudeX,attitudeY,attitudeZ,gyroX,gyroY,gyroZ,gravityX,gravityY,gravityZ,accX,accY,accZ
1.3842959210254062,0.5022762699734573,-0.6288200937155293,-0.4608769714832306,1.3913761377334595,2.657156467437744,0.08926623314619064,-0.9826591610908508,-0.1625203788280487,0.8411689400672913,0.254707932472229,-0.40428251028060913
1.3926493245666942,0.36594074199635057,-0.476942808469227,-0.33637017011642456,1.2327133417129517,3.0157241821289062,0.06340933591127396,-0.9841737747192383,-0.16547298431396484,0.8008637428283691,0.261654794216156,-0.38634568452835083
1.3990031645862675,0.20171558021573016,-0.2975278631223632,-0.19801388680934906,1.27775239944458,3.2961769104003906,0.034249864518642426,-0.9852797985076904,-0.16748367249965668,0.7397674918174744,0.27920979261398315,-0.3840451240539551
1.401158898659407,0.01717145504317995,-0.09618668841358376,-0.13217948377132416,1.497504711151123,3.5145206451416016,0.0028988446574658155,-0.9856460690498352,-0.16880105435848236,0.6525729894638062,0.3162733316421509,-0.3644934892654419
1.3968799694707916,-0.1743908650669962,0.1145876426072738,-0.1613553911447525,1.707424521446228,3.6937222480773926,-0.030024215579032898,-0.9849146604537964,-0.17041735351085663,0.5557200312614441,0.3374992609024048,-0.3024829030036926
1.3849752648865379,-0.3541781229268126,0.31526476544504006,-0.25217771530151367,1.8015087842941284,3.816309928894043,-0.06407641619443893,-0.9827848672866821,-0.17328695952892303,0.43732163310050964,0.3435024619102478,-0.23409207165241241
1.3660997298020783,-0.5080635323693337,0.49052885679778285,-0.3176763355731964,1.796866536140442,3.892941951751709,-0.09888817369937897,-0.9791226983070374,-0.17759479582309723,0.2913014888763428,0.3579831123352051,-0.21072596311569214
1.342176573322523,-0.6319994750618841,0.6357288435641866,-0.3260519802570343,1.7564270496368408,3.903140068054199,-0.13388584554195404,-0.9739801287651062,-0.18285879492759705,0.12337253987789154,0.3637810945510864,-0.2334466576576233
1.3151663298729048,-0.7298399571401961,0.754016864522644,-0.2811196446418762,1.6252119541168213,3.8700644969940186,-0.1685911864042282,-0.9675042033195496,-0.18844808638095856,-0.05516369640827179,0.3555198907852173,-0.2627083659172058
1.2867510964151057,-0.8091504722551772,0.8523744521422174,-0.13260580599308014,1.468290090560913,3.8153085708618164,-0.20281079411506653,-0.9599296450614929,-0.1933981478214264,-0.22078844904899597,0.3406669497489929,-0.30734938383102417
1.2583967758056946,-0.8762266649756089,0.9373075616711201,0.08958110213279724,1.3506343364715576,3.7076220512390137,-0.23614047467708588,-0.9515988230705261,-0.19671626389026642,-0.39819788932800293,0.3253781795501709,-0.35736075043678284
1.2309574875365934,-0.935143497988593,1.0130012986116546,0.33643272519111633,1.1826812028884888,3.57494854927063,-0.26822951436042786,-0.9428083896636963,-0.19790203869342804,-0.613194465637207,0.29217368364334106,-0.37054869532585144
1.2048273976031034,-0.9890069012093122,1.0815897324763935,0.5585444569587708,0.906811535358429,3.3923532962799072,-0.29898056387901306,-0.9337774515151978,-0.19664818048477173,-0.8311006426811218,0.22836357355117798,-0.35147786140441895
1.1804868816152247,-1.0389198217463826,1.143760578258363,0.7567113637924194,0.6727545261383057,3.133507013320923,-0.32791486382484436,-0.9247913956642151,-0.19295839965343475,-1.063259482383728,0.17227357625961304,-0.314350426197052
1.158693415540645,-1.0844589537353206,1.1995900773663868,0.9171320199966431,0.49302932620048523,2.764699697494507,-0.3540952503681183,-0.9162805676460266,-0.18720754981040955,-1.295837640762329,0.15523314476013184,-0.2789177894592285
1.140525856577327,-1.1256071624799235,1.2490189967469474,1.0498088598251343,0.29196175932884216,2.2661123275756836,-0.3764599859714508,-0.9088529944419861,-0.17962238192558289,-1.513508915901184,0.1490415334701538,-0.23367707431316376
1.1270097834155168,-1.1624833841484656,1.2919400944460888,1.1214390993118286,0.11276066303253174,1.678972840309143,-0.3940654695034027,-0.9031323194503784,-0.17048333585262299,-1.696831226348877,0.13564568758010864,-0.17557060718536377
1.1186453074440734,-1.1949055639435786,1.3281068686619766,1.1203980445861816,-0.09027021378278732,1.0514780282974243,-0.4063974618911743,-0.8995094299316406,-0.1603870838880539,-1.8255819082260132,0.13071054220199585,-0.11204318702220917
1.1158054730568254,-1.2234924929046491,1.357503545923104,1.0754129886627197,-0.34470710158348083,0.38735008239746094,-0.41321584582328796,-0.8982650637626648,-0.14957424998283386,-1.9116590023040771,0.13601231575012207,-0.048255786299705505
1.1186468372839362,-1.2482251397269868,1.380059867388888,0.9698432087898254,-0.5319097638130188,-0.2726576626300812,-0.41436630487442017,-0.8995100855827332,-0.13850003480911255,-1.932862639427185,0.16054219007492065,0.0062217265367507935
1.1270737284392733,-1.2678687705475464,1.3956993579080996,0.8364658355712891,-0.5563787221908569,-0.9047518372535706,-0.4097572863101959,-0.9031597971916199,-0.12806835770606995,-1.885393500328064,0.1978527307510376,0.042985498905181885
1.1408861483313268,-1.2813709531243294,1.4048193849313413,0.7133817076683044,-0.4814607799053192,-1.5031816959381104,-0.399454265832901,-0.9090031981468201,-0.11895232647657394,-1.7956446409225464,0.2222050428390503,0.06678265333175659
1.1597574433899955,-1.2887524756595958,1.4082048606433857,0.6184819340705872,-0.38800740242004395,-2.0124690532684326,-0.3837747573852539,-0.9167062044143677,-0.11120583117008209,-1.6744070053100586,0.23910915851593018,0.08007806539535522
1.1826889830043326,-1.2916825449380536,1.4070658003955345,0.5668608546257019,-0.4252011179924011,-2.3914201259613037,-0.36379164457321167,-0.9256269931793213,-0.1042608916759491,-1.510659098625183,0.2667524814605713,0.08762890845537186
1.208692754971849,-1.2918187581787002,1.4021401060117504,0.5081947445869446,-0.517900288105011,-2.682741165161133,-0.3405463397502899,-0.9351537227630615,-0.097548708319664,-1.3424217700958252,0.296069860458374,0.09080446511507034
1.2368653874404747,-1.2882090962348323,1.3921333540576464,0.38535135984420776,-0.6416986584663391,-2.8953399658203125,-0.31475943326950073,-0.9447612166404724,-0.09139279276132584,-1.197981595993042,0.3302745819091797,0.1106342151761055
1.2662915133342811,-1.2785109934493015,1.3743695477262328,0.2059052586555481,-0.7974684238433838,-3.039085626602173,-0.2871047854423523,-0.9539955258369446,-0.08639078587293625,-1.070744276046753,0.3601997494697571,0.1421617865562439
1.2961860260246492,-1.2598345227586498,1.3453640293857037,-0.013345077633857727,-1.0304603576660156,-3.1420137882232666,-0.25816646218299866,-0.9625309705734253,-0.08297168463468552,-0.9569672346115112,0.3775089383125305,0.16692566871643066
1.3260719834081753,-1.2280423899647304,1.3004256155145215,-0.2517883777618408,-1.293001651763916,-3.239521026611328,-0.2281956821680069,-0.9702041745185852,-0.08142899721860886,-0.8707880973815918,0.38988184928894043,0.1711660623550415
1.3555021326253684,-1.1768071674227194,1.233154400857225,-0.48574307560920715,-1.5497474670410156,-3.3347625732421875,-0.19726736843585968,-0.976913571357727,-0.08200913667678833,-0.8003217577934265,0.40510571002960205,0.15064328908920288
1.3837704325278453,-1.0973009760963883,1.135160690066167,-0.6784879565238953,-1.7379343509674072,-3.4092252254486084,-0.16548149287700653,-0.9825615882873535,-0.08478792011737823,-0.716873288154602,0.4304526448249817,0.098856620490551
1.4096863619336077,-0.9794015887818395,0.9971462233555091,-0.7956885695457458,-1.8483405113220215,-3.453437328338623,-0.1331704556941986,-0.9870498180389404,-0.08943428844213486,-0.620033860206604,0.44989460706710815,0.022341489791870117
1.4317854597045068,-0.8114628981788322,0.808188840289916,-0.841082751750946,-1.9276372194290161,-3.499528646469116,-0.10049989819526672,-0.990353524684906,-0.09539284557104111,-0.5348761081695557,0.45878303050994873,-0.06223034858703613
1.448035338013504,-0.584222476193534,0.5591290836636776,-0.8475411534309387,-1.9866920709609985,-3.564743995666504,-0.06753973662853241,-0.9924743175506592,-0.10214409232139587,-0.4734911620616913,0.46842628717422485,-0.13593865931034088
1.4558666717085966,-0.3004041959710013,0.2531949352305687,-0.8384551405906677,-1.9949634075164795,-3.627831220626831,-0.0339340902864933,-0.9934028387069702,-0.1095428392291069,-0.4134993851184845,0.4889928698539734,-0.19218434393405914
1.453113839776983,0.001422520031115099,-0.07088778907845837,-0.8087995052337646,-2.013366937637329,-3.680546998977661,0.00016702129505574703,-0.9930834174156189,-0.11741218715906143,-0.34861671924591064,0.5090744495391846,-0.23526407778263092
1.4400118450439738,0.26854157461829375,-0.36036127362625264,-0.7963342070579529,-1.9932571649551392,-3.7363104820251465,0.03460187092423439,-0.9914599061012268,-0.1257387399673462,-0.2779795527458191,0.520832896232605,-0.26062893867492676
1.4187365739535278,0.4762302701723631,-0.5898145703421966,-0.7849984765052795,-1.8821605443954468,-3.7860794067382812,0.0694408118724823,-0.9884611964225769,-0.13461989164352417,-0.1985759437084198,0.5316892862319946,-0.2802664637565613
1.392228115503311,0.6273692729963197,-0.7615458698821113,-0.7440163493156433,-1.7730143070220947,-3.759042263031006,0.10426703095436096,-0.9840990304946899,-0.1437981128692627,-0.08507145196199417,0.5366806387901306,-0.30554258823394775
1.3631423233921065,0.7343685010036973,-0.8887230434416918,-0.6917965412139893,-1.810859203338623,-3.6552469730377197,0.13815516233444214,-0.9785172939300537,-0.1530270129442215,0.059766605496406555,0.5377670526504517,-0.32550376653671265
1.3332189401163166,0.8076245066705862,-0.9834281466979374,-0.684782087802887,-2.0091729164123535,-3.4772324562072754,0.17007406055927277,-0.9719110131263733,-0.16267700493335724,0.20478861033916473,0.5173211693763733,-0.3271605372428894
1.303539087403678,0.8546265536531598,-1.053541110516589,-0.7258546948432922,-2.1317591667175293,-3.2370638847351074,0.19920802116394043,-0.9644988775253296,-0.1733735203742981,0.35570839047431946,0.47525620460510254,-0.32682472467422485
1.2748840590267585,0.8832668705449201,-1.1054256124731985,-0.7619077563285828,-2.075874090194702,-2.9859836101531982,0.2253631055355072,-0.9565365314483643,-0.18506617844104767,0.4966065287590027,0.426858127117157,-0.340904176235199
1.2476550679446254,0.9010575946249032,-1.1452430217309524,-0.7519972920417786,-1.9366167783737183,-2.76275372505188,0.24895204603672028,-0.9482426047325134,-0.19712744653224945,0.5900524854660034,0.3713381886482239,-0.3717811107635498
1.2222308462595615,0.913403358101595,-1.1782903435491614,-0.6453551054000854,-1.8224353790283203,-2.570812463760376,0.2703668177127838,-0.9398636221885681,-0.20870588719844818,0.6649206876754761,0.3246139883995056,-0.4226568937301636
1.199118877243838,0.9242054921996693,-1.2085862117017394,-0.4507467448711395,-1.6710174083709717,-2.383699655532837,0.28986841440200806,-0.9317194223403931,-0.21880397200584412,0.7531918883323669,0.30119580030441284,-0.47296836972236633
1.1787350712376212,0.9353562780562487,-1.237828872878986,-0.239778533577919,-1.5160329341888428,-2.1732544898986816,0.30751362442970276,-0.9241234064102173,-0.22678515315055847,0.8533903360366821,0.2879233956336975,-0.49442142248153687
1.1612685305767052,0.9466669688708632,-1.2658583436097561,-0.05113377794623375,-1.3819019794464111,-1.9237034320831299,0.3231089115142822,-0.9173089265823364,-0.23269057273864746,0.9699819087982178,0.2653313875198364,-0.475286602973938
1.1469065440021664,0.9574910940847287,-1.29218903886091,0.1263241469860077,-1.263694405555725,-1.6348203420639038,0.33634811639785767,-0.9114959239959717,-0.2367386370897293,1.099259853363037,0.2342955470085144,-0.42857491970062256
1.1359865065103352,0.9679030646841746,-1.3166559733147933,0.2942391037940979,-1.0811653137207031,-1.312330961227417,0.3469732105731964,-0.9069501757621765,-0.2388538122177124,1.217785120010376,0.20049870014190674,-0.37647199630737305
1.1282939578418985,0.978521555243507,-1.3388341185741046,0.3824566602706909,-0.7942438721656799,-1.0221922397613525,0.3552679419517517,-0.9036829471588135,-0.23904389142990112,1.297747254371643,0.17960751056671143,-0.3117830455303192
1.122887732621766,0.9892354887576075,-1.3576900029234928,0.3614070415496826,-0.46242257952690125,-0.7700554728507996,0.3618856370449066,-0.9013548493385315,-0.23790419101715088,1.3378520011901855,0.15950298309326172,-0.22030186653137207
1.119523336093375,0.9993078932806407,-1.3724102538080458,0.34777170419692993,-0.1824418306350708,-0.4828651547431946,0.36681196093559265,-0.8998926877975464,-0.23588594794273376,1.3873231410980225,0.1308038830757141,-0.1468806266784668
1.1188195542743327,1.0084179335954568,-1.3833604411248863,0.3818514049053192,0.026850931346416473,-0.14409564435482025,0.36948123574256897,-0.8995855450630188,-0.2328721135854721,1.4415844678878784,0.1162908673286438,-0.11759160459041595
1.1213590460935567,1.0159216192613265,-1.3904557275305027,0.4053482115268707,0.19508972764015198,0.25224679708480835,0.3692757189273834,-0.9006917476654053,-0.2288890779018402,1.476641058921814,0.12038755416870117,-0.09548214077949524
1.1274820793377216,1.0208870573705437,-1.3928917348403818,0.41760462522506714,0.3607497811317444,0.6766412258148193,0.3656987249851227,-0.9033350348472595,-0.224166139960289,1.5003291368484497,0.11622554063796997,-0.057556748390197754
1.1373267461012329,1.0232026421422338,-1.390508047625085,0.4317156672477722,0.5271257162094116,1.100109577178955,0.3586064279079437,-0.9075139164924622,-0.21867792308330536,1.4786434173583984,0.11745953559875488,-0.031352460384368896
1.1506271803909358,1.0222111865521313,-1.3828922754813582,0.4122820496559143,0.6456414461135864,1.4890581369400024,0.3480588495731354,-0.9130199551582336,-0.21271972358226776,1.3983858823776245,0.13402819633483887,-0.0032073259353637695
1.1668036727075755,1.0166279568905436,-1.3693880360994934,0.3609308898448944,0.71059650182724,1.8211891651153564,0.3342619240283966,-0.919498860836029,-0.20685972273349762,1.2867403030395508,0.15919911861419678,0.03062082827091217
1.185146600690468,1.0059885874882994,-1.3494513417069325,0.28681832551956177,0.8483205437660217,2.0875446796417236,0.3177405595779419,-0.9265542030334473,-0.20134180784225464,1.1616449356079102,0.18783032894134521,0.0523703396320343
1.204943118350762,0.9905075736896998,-1.3227052825728376,0.209078848361969,1.0252971649169922,2.286020040512085,0.29918476939201355,-0.9338188767433167,-0.19613991677761078,1.034250259399414,0.20930099487304688,0.05400443077087402
1.2257636413078465,0.9700255018678958,-1.288974112464456,0.1635981947183609,1.1904029846191406,2.4685306549072266,0.2790040373802185,-0.9410644173622131,-0.1911928355693817,0.9299498796463013,0.22345870733261108,0.03567534685134888
1.2475978333694862,0.9438456237537924,-1.2478704949391555,0.14923352003097534,1.3260072469711304,2.6397225856781006,0.2571996748447418,-0.9482244253158569,-0.18632952868938446,0.8462091684341431,0.24068963527679443,0.010029628872871399
1.2702174459594482,0.9103319514661123,-1.1982280663643385,0.1253335177898407,1.4132345914840698,2.794786214828491,0.2338111847639084,-0.9551652669906616,-0.1816360503435135,0.7488853931427002,0.2605394124984741,-0.011723145842552185
1.2930135983665276,0.8669820575766383,-1.1375444508515258,0.05579537898302078,1.5447889566421509,2.9080052375793457,0.20906266570091248,-0.9616658091545105,-0.17745859920978546,0.6427134275436401,0.2803456783294678,-0.019349142909049988
1.3151103063958844,0.811011914473269,-1.0630923470886153,-0.021404335275292397,1.598939061164856,2.990333080291748,0.18335537612438202,-0.967490017414093,-0.17419515550136566,0.5396060943603516,0.30280184745788574,-0.028822898864746094
1.3359919488562062,0.7390176767090222,-0.9723538196726724,-0.07479426264762878,1.5992728471755981,3.076148748397827,0.15670649707317352,-0.9725598692893982,-0.1719612032175064,0.46690499782562256,0.31827807426452637,-0.05244971811771393
1.3551501821411465,0.6484596162572523,-0.8625592761108088,-0.1100425273180008,1.6936973333358765,3.139738082885742,0.12923502922058105,-0.9768383502960205,-0.17054501175880432,0.4242623448371887,0.3411875367164612,-0.09596486389636993
1.371836920698022,0.5386870559977119,-0.732123227202405,-0.12364595383405685,1.875489354133606,3.1624042987823486,0.10139602422714233,-0.9802727699279785,-0.16965891420841217,0.35992294549942017,0.370302677154541,-0.15161477029323578
1.3853301882413012,0.4098538847403645,-0.5807959284579728,-0.11508815735578537,2.0445921421051025,3.1974287033081055,0.07348068803548813,-0.9828503727912903,-0.1691320538520813,0.2999018728733063,0.38644540309906006,-0.20048145949840546
1.3952180251945703,0.2597816890139236,-0.407185958942805,-0.05903289467096329,2.058701515197754,3.3281707763671875,0.04486951231956482,-0.9846256971359253,-0.16881704330444336,0.2719029486179352,0.39171481132507324,-0.2382110357284546
1.400928878903148,0.08519848763414134,-0.2098176077734324,0.009558413177728653,1.886838436126709,3.517180919647217,0.014385604299604893,-0.9856072068214417,-0.1684393733739853,0.22850380837917328,0.3839225172996521,-0.26161420345306396
1.400737292079817,-0.10661962825398749,0.002906288714793771,0.02611549384891987,1.6702481508255005,3.6344077587127686,-0.018010329455137253,-0.9855747818946838,-0.16828076541423798,0.10510750114917755,0.3583468198776245,-0.2645651698112488
1.3936175797336512,-0.2967279792254444,0.21191906452650913,0.0341142974793911,1.4867875576019287,3.6815295219421387,-0.05153530091047287,-0.9843448400497437,-0.16855111718177795,-0.05938083678483963,0.3307040333747864,-0.2646763324737549
1.3803993934242034,-0.46687747508254834,0.39966016510892577,0.0788324773311615,1.4135191440582275,3.612240791320801,-0.08518105000257492,-0.9819291830062866,-0.16899532079696655,-0.22907370328903198,0.30747538805007935,-0.2903551459312439
1.3633682532996547,-0.6041387435708285,0.5544369200563618,0.11893568933010101,1.4836795330047607,3.3265278339385986,-0.11698751151561737,-0.9785638451576233,-0.16949063539505005,-0.4545762240886688,0.28555530309677124,-0.3210182785987854
1.3457215763979617,-0.7052380780219305,0.6736726972143326,0.20658378303050995,1.5848133563995361,2.8356895446777344,-0.14466805756092072,-0.9747774004936218,-0.16994132101535797,-0.7238317131996155,0.2291872501373291,-0.35050535202026367
1.3303636544819417,-0.775731197608749,0.7632337324738429,0.31878942251205444,1.739342451095581,2.2623839378356934,-0.16674286127090454,-0.9712350368499756,-0.16999822854995728,-0.941365659236908,0.1576821208000183,-0.3917234539985657
1.318929292479549,-0.8232377599174157,0.8312201815971348,0.46979254484176636,1.9449681043624878,1.6773595809936523,-0.1827605664730072,-0.96844881772995,-0.1694275587797165,-1.0535980463027954,0.13597500324249268,-0.43114304542541504
1.3122141900885382,-0.8554759200038164,0.8856515746214931,0.6833264231681824,2.106355905532837,1.1612786054611206,-0.19303156435489655,-0.9667534828186035,-0.16771014034748077,-1.0895001888275146,0.12434619665145874,-0.4545278549194336
1.3100952387884564,-0.8800896235419217,0.9331093935426288,0.8844040632247925,2.112180471420288,0.7371644377708435,-0.19867900013923645,-0.9662095308303833,-0.1642131358385086,-1.0807247161865234,0.09732824563980103,-0.44377321004867554
1.3117800069773464,-0.8999873046253897,0.9749193905611887,0.9809935092926025,1.9563459157943726,0.36165452003479004,-0.20063140988349915,-0.9666423797607422,-0.15921543538570404,-1.0312564373016357,0.09026908874511719,-0.3783820867538452
1.3163001337174138,-0.9164369332592099,1.0107728759275005,1.000096082687378,1.6670681238174438,0.05234178528189659,-0.19975462555885315,-0.9677902460098267,-0.15323297679424286,-0.9723187685012817,0.07568508386611938,-0.2836565375328064
1.3229073563281402,-0.9306325399281077,1.0410368643075454,0.9902823567390442,1.3493447303771973,-0.1822558045387268,-0.19677691161632538,-0.969432532787323,-0.14655913412570953,-0.8951725959777832,0.05781137943267822,-0.2019820213317871
1.3307865985321445,-0.9448846373270657,1.0681592141292386,0.9947487711906433,1.0596520900726318,-0.2979956269264221,-0.1926490068435669,-0.9713356494903564,-0.13926050066947937,-0.7686089277267456,0.048102617263793945,-0.15370814502239227
1.3391957277561148,-0.9621909917791256,1.0955601052479038,1.0201292037963867,0.813751757144928,-0.3172447085380554,-0.18832218647003174,-0.9733002185821533,-0.1312313675880432,-0.6486071348190308,0.018481433391571045,-0.11756300926208496
1.3474791382310523,-0.9844687848494469,1.1258900215569012,1.0290788412094116,0.6447110176086426,-0.27381670475006104,-0.18447670340538025,-0.9751681685447693,-0.12253862619400024,-0.5506917834281921,-0.01576828956604004,-0.0824631005525589
1.355071675808924,-1.0113572859792386,1.1592725142734746,1.0077687501907349,0.4889940917491913,-0.21064519882202148,-0.18142324686050415,-0.9768215417861938,-0.11360149830579758,-0.47589486837387085,-0.03131139278411865,-0.03376775234937668
1.3617033559930367,-1.0425052269715813,1.1951701549638931,0.9581913948059082,0.29043036699295044,-0.1330704241991043,-0.17927446961402893,-0.9782195687294006,-0.10462883859872818,-0.42268478870391846,-0.020773351192474365,0.02236885577440262
1.3668277932292987,-1.077238171556879,1.2325262003773507,0.8637040257453918,0.07663499563932419,-0.0031403873581439257,-0.17838327586650848,-0.9792704582214355,-0.09596437215805054,-0.3779217004776001,0.002372145652770996,0.07826429605484009
1.3691526511469785,-1.108312528485035,1.2639069934707292,0.41255778074264526,-0.1197114959359169,0.16980218887329102,-0.17924059927463531,-0.979738712310791,-0.08935970067977905,-0.3078199625015259,-0.0045906901359558105,0.23090040683746338
1.3673140371806416,-1.1223569979696628,1.2758668490984366,-0.11931249499320984,-0.3361679017543793,0.3778499364852905,-0.1821008324623108,-0.9793688058853149,-0.08761447668075562,-0.2156805694103241,-0.001038968563079834,0.5273271203041077
1.362108203757878,-1.12332784264475,1.2730512697842762,-0.40187421441078186,-0.39680057764053345,0.4904458820819855,-0.1867799609899521,-0.9783035516738892,-0.08964254707098007,-0.2203245609998703,-0.022261202335357666,0.47028839588165283
1.3557151417554976,-1.1197398977054647,1.265373461957815,-0.40057671070098877,-0.36078929901123047,0.5045979619026184,-0.19208164513111115,-0.9769590497016907,-0.09303641319274902,-0.30018219351768494,-0.0036318302154541016,0.2947119474411011
1.3503293605640199,-1.1196448949539068,1.2621138683584625,-0.17451855540275574,-0.2604712247848511,0.3817785382270813,-0.19680482149124146,-0.9757954478263855,-0.09534720331430435,-0.38487550616264343,0.0755879282951355,0.04212469607591629
1.3476931133115408,-1.126186328245437,1.2665906047711344,0.12502421438694,-0.16576015949249268,0.1696646809577942,-0.1997460424900055,-0.9752155542373657,-0.09516391903162003,-0.4929572343826294,0.08982431888580322,-0.12556958198547363
1.348331491241052,-1.1372757415425512,1.2770144586982461,0.30727899074554443,-0.017125165089964867,-0.09631623327732086,-0.20022398233413696,-0.9753565788269043,-0.09268148243427277,-0.580964982509613,0.1113734245300293,-0.18315154314041138
1.3516546200031354,-1.1449859996989948,1.2850286421711605,0.2730451226234436,0.014973916113376617,-0.3525722324848175,-0.19798041880130768,-0.9760844111442566,-0.08979596197605133,-0.6345696449279785,0.12369775772094727,-0.10115236788988113
1.3566510841266017,-1.1460465485836209,1.2858256273969222,0.16757231950759888,-0.08345927298069,-0.5334019064903259,-0.19362907111644745,-0.9771584272384644,-0.08757489174604416,-0.6324360370635986,0.08825761079788208,0.017796583473682404
1.3625774224543072,-1.1407589442957176,1.2789016548246503,0.06430106610059738,-0.20616868138313293,-0.6533970236778259,-0.1878969967365265,-0.9784006476402283,-0.08618201315402985,-0.5976865291595459,0.07007527351379395,0.0644230768084526
1.3688018468004286,-1.1300858190852519,1.265430482108726,-0.0356079563498497,-0.29882511496543884,-0.6965527534484863,-0.18145407736301422,-0.979668378829956,-0.08558259904384613,-0.542392373085022,0.06993937492370605,0.07217026501893997
1.3747728472164922,-1.11492389673029,1.2460984882263706,-0.13427647948265076,-0.4668833613395691,-0.7069793343544006,-0.17488063871860504,-0.9808488488197327,-0.08574720472097397,-0.48931923508644104,0.05110025405883789,0.07953697443008423
1.380332273370339,-1.0953454234068694,1.2204088007879854,-0.24462899565696716,-0.6505776643753052,-0.7320459485054016,-0.16831690073013306,-0.9819164872169495,-0.08665667474269867,-0.46933263540267944,0.03927433490753174,0.08180452138185501
1.3857587114775163,-1.0697086185744458,1.1870483907539924,-0.34255021810531616,-0.7553538680076599,-0.8178196549415588,-0.1613653004169464,-0.9829293489456177,-0.0883823037147522,-0.4831507205963135,0.050601959228515625,0.06755417585372925
1.3915487901390846,-1.0347939911285136,1.1438257526677638,-0.43522676825523376,-0.7454379796981812,-0.9670408368110657,-0.15328583121299744,-0.9839781522750854,-0.09105309098958969,-0.5085031390190125,0.0560300350189209,0.03984475135803223
1.3980584978519242,-0.9887348699164974,1.0895111797621324,-0.4731706976890564,-0.7428522706031799,-1.1402922868728638,-0.1435767412185669,-0.9851178526878357,-0.09449055045843124,-0.5259941816329956,0.07117748260498047,-0.005362793803215027
1.4053392308700925,-0.9335638172929053,1.0256455470704287,-0.4439496397972107,-0.8226819038391113,-1.2767267227172852,-0.1323796510696411,-0.9863431453704834,-0.09799416363239288,-0.5120600461959839,0.0883328914642334,-0.05988841503858566
1.4132957973177993,-0.8721911710088706,0.9543095688067644,-0.3638116717338562,-0.9847725629806519,-1.3847421407699585,-0.120106041431427,-0.9876224398612976,-0.10087787359952927,-0.4801899790763855,0.10079693794250488,-0.11866544187068939
1.4217428941560144,-0.8060303906118945,0.876711803200444,-0.26193684339523315,-1.1015446186065674,-1.4448972940444946,-0.10715068131685257,-0.9889121055603027,-0.10281794518232346,-0.436214804649353,0.12425756454467773,-0.1693987250328064
1.4306104616602366,-0.7352652048985661,0.7937052187817297,-0.1253071129322052,-1.1625349521636963,-1.5032697916030884,-0.09372697025537491,-0.9901900291442871,-0.10362932085990906,-0.3974687159061432,0.1372389793395996,-0.21306675672531128
1.4400921832653533,-0.658073390739932,0.7036123964678126,0.013598646968603134,-1.2476286888122559,-1.5728821754455566,-0.07971096783876419,-0.9914703965187073,-0.1031159833073616,-0.3941965103149414,0.14060968160629272,-0.24237340688705444
1.4498404956025395,-0.5702644836367771,0.6017077514188233,0.10181345790624619,-1.4113328456878662,-1.6302037239074707,-0.06513959169387817,-0.9926937818527222,-0.10156767815351486,-0.3901674151420593,0.1592128872871399,-0.238153874874115
1.4591521261019946,-0.4681580776442528,0.48364985757150053,0.1469137817621231,-1.6052460670471191,-1.6614069938659668,-0.05027417838573456,-0.9937742352485657,-0.09942468255758286,-0.36037036776542664,0.17657452821731567,-0.20976406335830688
1.4673106802071398,-0.34726405549935724,0.3450784812426597,0.1656709611415863,-1.746767282485962,-1.705568790435791,-0.03515620157122612,-0.99465012550354,-0.09713507443666458,-0.3374786972999573,0.17964768409729004,-0.1866629719734192
1.4736674785739787,-0.20458462521168502,0.18366304452041535,0.17420552670955658,-1.8238528966903687,-1.7328627109527588,-0.019702132791280746,-0.9952867031097412,-0.09495574980974197,-0.32400208711624146,0.18774563074111938,-0.17181356251239777
1.477675018615885,-0.04336119651642606,0.002970697647901489,0.1944466084241867,-1.893092155456543,-1.7655322551727295,-0.004030734766274691,-0.9956673383712769,-0.09289892017841339,-0.2997870147228241,0.19789212942123413,-0.16064095497131348
1.478805965196482,0.13381379464219587,-0.19423667854860213,0.18578630685806274,-1.9252363443374634,-1.8570630550384521,0.012255438603460789,-0.9957718849182129,-0.09103845804929733,-0.2987086772918701,0.21009689569473267,-0.14776144921779633
1.4760590138791958,0.3194676794766147,-0.40009343442986806,0.13517959415912628,-1.9239484071731567,-1.995583415031433,0.029708949849009514,-0.995515763759613,-0.08980974555015564,-0.32528695464134216,0.22476381063461304,-0.12477444857358932
1.4686215589272953,0.4975112215296334,-0.5983823103616789,0.052760686725378036,-1.9222544431686401,-2.153696298599243,0.048677440732717514,-0.9947847127914429,-0.08963294327259064,-0.3344440460205078,0.2368500828742981,-0.09635627269744873
1.456544785035584,0.652306534607379,-0.7735146584815865,-0.016593087464571,-1.9248403310775757,-2.315809488296509,0.06920327246189117,-0.993480384349823,-0.0905979573726654,-0.317524790763855,0.24163389205932617,-0.07769108563661575
1.4402585038701121,0.7793226036823414,-0.9205086996741617,-0.08279334753751755,-1.8228763341903687,-2.5093777179718018,0.091482013463974,-0.9914920330047607,-0.09260042756795883,-0.295034259557724,0.2507234811782837,-0.07654315233230591
1.420128392894544,0.8812095776086504,-1.0408930371127783,-0.13674364984035492,-1.622605800628662,-2.7149322032928467,0.11580333113670349,-0.988671064376831,-0.09549624472856522,-0.2661023736000061,0.268227219581604,-0.08124619722366333
1.3966768606960756,0.9623607856799216,-1.1386486154082014,-0.17683883011341095,-1.4329495429992676,-2.906808853149414,0.14215241372585297,-0.9848794937133789,-0.09902233630418777,-0.22345122694969177,0.28018271923065186,-0.083457350730896
1.3703611626822596,1.0259246178839982,-1.2171305857621277,-0.23871977627277374,-1.2728667259216309,-3.074370861053467,0.17026583850383759,-0.9799800515174866,-0.10319323092699051,-0.1695486605167389,0.2958369255065918,-0.07925599813461304
1.3416953594405245,1.074680863340972,-1.2795326288140985,-0.29999905824661255,-1.168817400932312,-3.1927692890167236,0.19972217082977295,-0.9738709330558777,-0.10810347646474838,-0.10479724407196045,0.30790114402770996,-0.07405577600002289
1.3115534673981855,1.1116479866597213,-1.329189832579387,-0.331426203250885,-1.0674062967300415,-3.2279317378997803,0.22979925572872162,-0.966584324836731,-0.11361010372638702,0.004713103175163269,0.3106089234352112,-0.07475954294204712
1.2810543439341895,1.1400074479830251,-1.3693153250264152,-0.3259545862674713,-0.9861509799957275,-3.1845297813415527,0.2596019208431244,-0.9583176374435425,-0.11930686235427856,0.1472279131412506,0.3036240339279175,-0.08294825255870819
1.251048212816984,1.1616259594333451,-1.4023586168462392,-0.3059265613555908,-0.9978609085083008,-3.0766282081604004,0.28838011622428894,-0.9493145942687988,-0.12505465745925903,0.27369263768196106,0.28134584426879883,-0.08740858733654022
1.2223247782700435,1.17738444448617,-1.429868799344443,-0.2730913460254669,-1.0383108854293823,-2.886681079864502,0.315376341342926,-0.9398956894874573,-0.13089661300182343,0.40355679392814636,0.2625275254249573,-0.08304673433303833
1.195721227413344,1.188581371586969,-1.4527883413380416,-0.23718048632144928,-0.9889451861381531,-2.632664442062378,0.33990728855133057,-0.9304801225662231,-0.13663706183433533,0.5512365102767944,0.24740523099899292,-0.07996128499507904
1.1714983753796675,1.1963455365070785,-1.4713554822900954,-0.26497700810432434,-0.8875146508216858,-2.375375986099243,0.3618333339691162,-0.9213341474533081,-0.14219774305820465,0.6619246602058411,0.22863084077835083,-0.06672543287277222
1.1493538447020675,1.1994984167865126,-1.4844083972325102,-0.3765283226966858,-0.8926343321800232,-2.109727144241333,0.38120168447494507,-0.9124997854232788,-0.14842358231544495,0.7416621446609497,0.19053012132644653,-0.034117162227630615
1.129679903077496,1.1971570464708614,-1.492224938585235,-0.42953187227249146,-0.9922083616256714,-1.7718907594680786,0.3974924087524414,-0.9042755961418152,-0.1558392345905304,0.8595877885818481,0.14113754034042358,-0.02288682758808136
1.1132759046362002,1.1913014139663807,-1.4969512525832211,-0.38308846950531006,-1.0085737705230713,-1.424490213394165,0.41029736399650574,-0.8971505165100098,-0.16363774240016937,0.9989129304885864,0.11567145586013794,-0.07381941378116608
1.1000136843805879,1.1849436576707482,-1.5006157246824179,-0.29992303252220154,-0.8950844407081604,-1.1627975702285767,0.4202357232570648,-0.891213595867157,-0.17070607841014862,1.0805273056030273,0.11287790536880493,-0.1455932855606079
1.0892246428574472,1.1803420780832068,-1.5043754618095428,-0.19296222925186157,-0.6726199388504028,-0.9612204432487488,0.42831259965896606,-0.8862680792808533,-0.1762874722480774,1.1118028163909912,0.1048043966293335,-0.19530968368053436
1.0807721603940983,1.1789843738810744,-1.5087341365586553,-0.07272852212190628,-0.3524203300476074,-0.7509899735450745,0.43498098850250244,-0.8823214769363403,-0.1797230988740921,1.164552092552185,0.08236420154571533,-0.22382591664791107
1.0747271924891049,1.1815086941732014,-1.5135447232637358,0.029054300859570503,0.006694413721561432,-0.5348858833312988,0.44035977125167847,-0.879460334777832,-0.18064545094966888,1.2254575490951538,0.07518482208251953,-0.23744522035121918
1.0711524553056389,1.187106794877431,-1.5181433790726544,0.10363869369029999,0.29067566990852356,-0.28267693519592285,0.44427672028541565,-0.8777532577514648,-0.179353266954422,1.2765942811965942,0.07556813955307007,-0.23283231258392334
1.0704690342057732,1.1940699727641568,-1.521737354612141,0.16142475605010986,0.4584904909133911,0.039991121739149094,0.4460723102092743,-0.8774256110191345,-0.1764759123325348,1.3493835926055908,0.0525507926940918,-0.21549169719219208
1.0734600505796659,1.200821813828839,-1.5235432757984257,0.21500413119792938,0.5677623748779297,0.46339675784111023,0.4448051154613495,-0.8788564801216125,-0.17251047492027283,1.4377174377441406,0.03730368614196777,-0.19724035263061523
1.0810228598305813,1.206350943407945,-1.5229576597840158,0.2738346755504608,0.6358026266098022,0.9710572957992554,0.4395291805267334,-0.8824394345283508,-0.1676744967699051,1.5205843448638916,0.04152756929397583,-0.19125781953334808
1.0936561212956988,1.2102022007933246,-1.5196528283175252,0.3353961408138275,0.7183248400688171,1.4941209554672241,0.42970579862594604,-0.8883118629455566,-0.1620340198278427,1.5589417219161987,0.05570077896118164,-0.18820087611675262
1.1112511296337106,1.2125007029029413,-1.513513601824135,0.37920141220092773,0.8315877914428711,1.975471019744873,0.415373831987381,-0.896254301071167,-0.15554015338420868,1.5174264907836914,0.08741647005081177,-0.18309800326824188
1.1330769852579983,1.2131818572620816,-1.5041861776125953,0.384665310382843,0.9910610914230347,2.3749635219573975,0.39705827832221985,-0.9057207107543945,-0.14837343990802765,1.402395486831665,0.12123584747314453,-0.1709928959608078
1.158219893057759,1.2122379438423676,-1.4910669665078689,0.3602403998374939,1.2037547826766968,2.6869418621063232,0.37547099590301514,-0.9160907864570618,-0.140710711479187,1.2566702365875244,0.15420401096343994,-0.15590478479862213
1.1858107485362204,1.2092055032376934,-1.47358546762719,0.30890220403671265,1.402710199356079,2.9313642978668213,0.35126161575317383,-0.9268038272857666,-0.13285422325134277,1.0993762016296387,0.19181835651397705,-0.14836515486240387
1.2152065110143946,1.2029628290959282,-1.4507671920139695,0.24037852883338928,1.5908966064453125,3.123767137527466,0.3248559832572937,-0.9374412894248962,-0.12519066035747528,0.9435919523239136,0.22093427181243896,-0.14772790670394897
1.245789595602779,1.1921195795578434,-1.4214213176156476,0.1650981903076172,1.7598460912704468,3.260408401489258,0.29669320583343506,-0.9476485848426819,-0.1180480495095253,0.7913652658462524,0.24682766199111938,-0.16208791732788086
1.27703499044317,1.1750007427627476,-1.3840577960558291,0.09129906445741653,1.9171597957611084,3.357419729232788,0.2671690881252289,-0.957161545753479,-0.11163553595542908,0.652096688747406,0.27558189630508423,-0.19071722030639648
1.3084714459423383,1.1496510709196865,-1.3371570795570809,0.045416440814733505,2.011871576309204,3.405080556869507,0.23666679859161377,-0.9657896757125854,-0.10601416230201721,0.5112122297286987,0.3012847304344177,-0.23562996089458466
1.339502200007237,1.1139251229294154,-1.2792651863393996,0.03778382018208504,2.0535664558410645,3.381843090057373,0.2057264745235443,-0.9733705520629883,-0.10112649202346802,0.3588334918022156,0.329800546169281,-0.29303842782974243
1.3695424758004944,1.0665393677105341,-1.2093357450781443,0.08447309583425522,2.1247096061706543,3.3043622970581055,0.1750185191631317,-0.979816734790802,-0.09658271819353104,0.21748335659503937,0.3473244309425354,-0.3548179268836975
1.3984445749332117,1.0066094738136726,-1.1261221711406597,0.2085457742214203,2.2252349853515625,3.221747636795044,0.14492188394069672,-0.9851841926574707,-0.09170620143413544,0.10143129527568817,0.3574221730232239,-0.4146870970726013
1.4264286125266639,0.9302450401918216,-1.025797991824019,0.34764453768730164,2.3013312816619873,3.1556496620178223,0.11534733325242996,-0.9895970821380615,-0.08598002791404724,0.010064654052257538,0.3591649532318115,-0.4552643895149231
1.4530546346535427,0.8262278724472152,-0.8972955655260717,0.4524388611316681,2.360062599182129,3.0512218475341797,0.08638577908277512,-0.9930764436721802,-0.07960467040538788,-0.08830837905406952,0.3604012131690979,-0.4578555226325989
1.4770647177617875,0.6751738615267863,-0.7215237528081668,0.5175046324729919,2.3640530109405518,2.905503273010254,0.058500636368989944,-0.9956104159355164,-0.07306093722581863,-0.21688684821128845,0.36113452911376953,-0.4286021590232849
1.4971004812599804,0.4467695312035588,-0.46894021796088303,0.6062158346176147,2.2640345096588135,2.7684786319732666,0.03181231766939163,-0.9972856640815735,-0.0664033517241478,-0.34560930728912354,0.3548142910003662,-0.40042388439178467
1.5110509479498233,0.10389892026141019,-0.10355351720187979,0.716196596622467,2.0593771934509277,2.634099006652832,0.006192787550389767,-0.9982157945632935,-0.05938933789730072,-0.46079790592193604,0.3443766236305237,-0.37801897525787354
1.5158061984823306,-0.33732716321775097,0.35802807222897864,0.8156949877738953,1.858872413635254,2.473849058151245,-0.018190477043390274,-0.9984884262084961,-0.05186425521969795,-0.5751628279685974,0.33062654733657837,-0.3466188907623291
1.510715894215169,-0.7542120943896434,0.7933828640693334,0.9122751355171204,1.6801398992538452,2.287602424621582,-0.041115641593933105,-0.9981957077980042,-0.043763548135757446,-0.6914130449295044,0.3085135221481323,-0.3061814308166504
1.4991663103075947,-1.0603642383552585,1.116025944430468,1.012279748916626,1.465496301651001,2.1018404960632324,-0.062446556985378265,-0.9974356889724731,-0.03496545925736427,-0.801704466342926,0.28060823678970337,-0.2585524320602417
1.4849506971498305,-1.2702619805939188,1.3400581576554425,1.0985819101333618,1.2056684494018555,1.8681319952011108,-0.08189699798822403,-0.9963175058364868,-0.02538166753947735,-0.9069793820381165,0.2687327265739441,-0.19991421699523926
1.4705735061759564,-1.4199346119482903,1.5012384809497108,1.1660181283950806,0.9595828652381897,1.5810714960098267,-0.09892023354768753,-0.9949818849563599,-0.015037531033158302,-1.004686951637268,0.2552357316017151,-0.1348494291305542
1.45743963544785,-1.53395735905671,1.6248104031624446,1.1988056898117065,0.81914883852005,1.2643852233886719,-0.11303779482841492,-0.993582010269165,-0.004166080616414547,-1.0872337818145752,0.23531168699264526,-0.06976264715194702
1.4463477915417642,-1.6264455837901062,1.7258094026959718,1.2082215547561646,0.736887514591217,0.9195785522460938,-0.1239350363612175,-0.9922662973403931,0.00690402090549469,-1.1480681896209717,0.22221630811691284,-0.00864338967949152
1.4378873589183967,-1.7064372297732815,1.8134893117003112,1.1841598749160767,0.6476742029190063,0.5415565967559814,-0.1313018947839737,-0.9911805987358093,0.01791994273662567,-1.1963348388671875,0.21492016315460205,0.05104994773864746
1.4324786615254426,-1.780241613448095,1.8940702576891948,1.1390280723571777,0.5632573366165161,0.1450478434562683,-0.13486427068710327,-0.9904493689537048,0.02866709791123867,-1.229530930519104,0.21838515996932983,0.10661745071411133
1.43039044240107,-1.8516347972498763,1.971766606339735,1.0421470403671265,0.5450541377067566,-0.2650830149650574,-0.1344624161720276,-0.990159273147583,0.038787342607975006,-1.2382030487060547,0.23736697435379028,0.1510627269744873
1.431779228144249,-1.9224447060757468,2.048782941884015,0.9009379744529724,0.5414956212043762,-0.6565107107162476,-0.13009022176265717,-0.9903526902198792,0.047729797661304474,-1.2131714820861816,0.23415756225585938,0.1917111873626709
1.4363912175644948,-1.996128817583041,2.1286116026878013,0.7583364248275757,0.5360057353973389,-1.0107405185699463,-0.12206178903579712,-0.9909812211990356,0.05529201403260231,-1.1502161026000977,0.20330727100372314,0.22723984718322754
1.4438305699262417,-2.076740502010004,2.215472681675558,0.5872616171836853,0.5700108408927917,-1.3226238489151,-0.11076092720031738,-0.9919506907463074,0.06136663630604744,-1.0618007183074951,0.17858093976974487,0.2531019449234009
1.453712172306404,-2.1663861877293784,2.3119203961854535,0.3749763071537018,0.6424772143363953,-1.566331148147583,-0.09670280665159225,-0.99315345287323,0.06553374975919724,-0.9551923274993896,0.16296863555908203,0.27682793140411377
1.465396293465706,-2.268157143330963,2.421036992778195,0.15447162091732025,0.680374801158905,-1.7343413829803467,-0.08064402639865875,-0.994450569152832,0.06756249815225601,-0.8287798166275024,0.14235395193099976,0.296603798866272
1.478254917909778,-2.388702251773288,2.5490453103186437,-0.08448731154203415,0.6796396374702454,-1.849584698677063,-0.06318607181310654,-0.9957211017608643,0.06743372231721878,-0.7083288431167603,0.11194723844528198,0.30999255180358887
1.4918589066595307,-2.5380030795905943,2.705608238935042,-0.3462046682834625,0.649394154548645,-1.9193904399871826,-0.0447591207921505,-0.9968860745429993,0.06492291390895844,-0.5953318476676941,0.09564089775085449,0.3163332939147949
1.5055778606536387,-2.7347511242595375,2.909013946107204,-0.6248052716255188,0.5644268989562988,-1.9405351877212524,-0.025789866223931313,-0.9978740215301514,0.059853773564100266,-0.48490655422210693,0.08722949028015137,0.3136967420578003
1.5183431134983671,-3.0119504779572894,-3.0915483031270306,-0.9289872646331787,0.4155298173427582,-1.9039620161056519,-0.006778474897146225,-0.9986246228218079,0.05199277773499489,-0.37360790371894836,0.07319420576095581,0.30588698387145996
1.527940881658546,2.8679837549182463,-2.684514600783725,-1.207277536392212,0.2457449734210968,-1.7781413793563843,0.01157746184617281,-0.9990818500518799,0.041252702474594116,-0.24050508439540863,0.05634790658950806,0.28255414962768555
1.5307209105073645,2.3519239461346535,-2.166475195262996,-1.3825812339782715,0.056609392166137695,-1.5954363346099854,0.02845279686152935,-0.9991970658302307,0.02821081131696701,-0.1036023497581482,0.03436851501464844,0.22253704071044922
1.5251074288199236,1.8828199355935578,-1.6975197266668498,-1.4283794164657593,-0.17288845777511597,-1.4023276567459106,0.04346948489546776,-0.9989564418792725,0.014021526090800762,-0.0010805875062942505,0.028360068798065186,0.12062215805053711
1.5141894042236268,1.5669655197967451,-1.3840010100781466,-1.3786486387252808,-0.3650144636631012,-1.211908221244812,0.05657652020454407,-0.9983982443809509,-0.00021673478477168828,0.07033081352710724,0.03657573461532593,0.010531842708587646
1.5016358916721992,1.3703225178515521,-1.1913359103658714,-1.2631093263626099,-0.4971250891685486,-1.0237470865249634,0.06772149354219437,-0.9976093769073486,-0.013761235401034355,0.13381657004356384,0.04501843452453613,-0.08314716815948486
1.4892859607554656,1.245319188593082,-1.0715386852633242,-1.1084821224212646,-0.6073461174964905,-0.8902232050895691,0.07714654505252838,-0.9966798424720764,-0.026035349816083908,0.16462895274162292,0.04791879653930664,-0.15429288148880005
1.4776347816235267,1.1633312154464148,-0.9958821695342991,-0.9532999396324158,-0.7056584358215332,-0.8138834834098816,0.08541221171617508,-0.995663583278656,-0.036865685135126114,0.15723305940628052,0.041424572467803955,-0.18833869695663452
1.4667640305620842,1.1089036392247027,-0.9484799886643354,-0.8089278936386108,-0.7251322865486145,-0.761315643787384,0.09296341240406036,-0.9945935010910034,-0.046277955174446106,0.15251997113227844,0.03173339366912842,-0.19667232036590576
1.4566423239584332,1.0724066233300362,-0.9187795398676785,-0.6994861364364624,-0.6600258946418762,-0.7308844327926636,0.1000504121184349,-0.993491530418396,-0.05444877967238426,0.167695552110672,0.01836329698562622,-0.1945592761039734
1.4471631606595015,1.0478364230963189,-0.9002511181064702,-0.6096278429031372,-0.5729042887687683,-0.7032893300056458,0.10683596134185791,-0.992367148399353,-0.06159079819917679,0.1845763623714447,0.012386739253997803,-0.18612027168273926
1.4382848968668671,1.0314252178471854,-0.889036151210834,-0.5371061563491821,-0.4843737483024597,-0.6806654334068298,0.11336725205183029,-0.991233229637146,-0.06785881519317627,0.1898553967475891,0.01076442003250122,-0.16967463493347168
1.429895446437781,1.0196381096401397,-0.8816208909085657,-0.5084595680236816,-0.40217819809913635,-0.6401867270469666,0.11964039504528046,-0.9900898933410645,-0.07354294508695602,0.17969128489494324,0.013420403003692627,-0.14592409133911133
1.4220504090080344,1.0079044438503237,-0.8735497222833363,-0.5079851150512695,-0.354216992855072,-0.5648759603500366,0.12533335387706757,-0.9889577031135559,-0.07908352464437485,0.19534534215927124,0.010030090808868408,-0.1139553114771843
1.415008028068021,0.9957799320441667,-0.8650344101929385,-0.4554659426212311,-0.3957061171531677,-0.4787389636039734,0.1302070915699005,-0.9878895282745361,-0.08438315242528915,0.2285270392894745,-0.005152523517608643,-0.10482567548751831
1.4091559680074723,0.9851360792371322,-0.8584767245647826,-0.35383138060569763,-0.4292319416999817,-0.38631850481033325,0.13411714136600494,-0.9869646430015564,-0.08895836025476456,0.24451446533203125,-0.009495437145233154,-0.1203768253326416
1.4045376088028012,0.9770789246536143,-0.8546201234581359,-0.2642516791820526,-0.4134044945240021,-0.3146919906139374,0.13717268407344818,-0.986210823059082,-0.09258512407541275,0.22433853149414062,-0.00016313791275024414,-0.13087975978851318
1.400713454884376,0.9719289717713127,-0.8533279246309935,-0.20421408116817474,-0.3532129228115082,-0.2969066798686981,0.13980787992477417,-0.9855707287788391,-0.09541543573141098,0.18598249554634094,0.0019128918647766113,-0.11747508496046066
1.3972307678419902,0.9695917279470074,-0.8541039307302423,-0.1688733994960785,-0.2673896253108978,-0.29189062118530273,0.14241425693035126,-0.984975278377533,-0.097682885825634,0.14927275478839874,-0.006205201148986816,-0.09515756368637085
1.3939871980567458,0.9694590631806789,-0.8564995970753968,-0.12367086112499237,-0.24561871588230133,-0.28721970319747925,0.14503474533557892,-0.9844099283218384,-0.09950859844684601,0.1348724514245987,-0.01684129238128662,-0.08016353100538254
1.3911177961029368,0.9712975326830812,-0.8613208548626275,-0.057711292058229446,-0.338609904050827,-0.2809751331806183,0.1475488543510437,-0.9839012026786804,-0.10083507746458054,0.1242406815290451,-0.023804426193237305,-0.06806431710720062
1.3886961353856764,0.9744065589078472,-0.8684192526933033,-0.00749044306576252,-0.4244673252105713,-0.2603212296962738,0.14983315765857697,-0.9834655523300171,-0.10171421617269516,0.12233786284923553,-0.02543044090270996,-0.05459672212600708
1.386731683204132,0.9779610381789846,-0.8764995697522056,0.026906944811344147,-0.4455627501010895,-0.2325551062822342,0.15179510414600372,-0.98310786485672,-0.10225977748632431,0.12744073569774628,-0.010559678077697754,-0.04091326892375946
1.3850757038342876,0.9818226249675254,-0.8849225724615694,0.043631646782159805,-0.43465209007263184,-0.2167840600013733,0.15354274213314056,-0.982803463935852,-0.1025773361325264,0.12142063677310944,-0.008102357387542725,-0.02663397043943405
1.383514986371965,0.985655336948211,-0.8933149708482535,0.04033678397536278,-0.4487268924713135,-0.21249210834503174,0.15521325170993805,-0.9825140237808228,-0.10283515602350235,0.10484227538108826,-0.025878310203552246,-0.005029074847698212
1.3819274408752527,0.9884533752863639,-0.9008697432389812,0.021458476781845093,-0.46408751606941223,-0.20807398855686188,0.15680289268493652,-0.9822172522544861,-0.10325819253921509,0.09194588661193848,-0.04204428195953369,0.014131724834442139
1.3803994819368162,0.9903894645214266,-0.9075614690823142,0.021945035085082054,-0.46694856882095337,-0.1825214922428131,0.15825770795345306,-0.9819291830062866,-0.10377750545740128,0.10420872271060944,-0.033848464488983154,0.011034727096557617
1.3791415150592388,0.9917151595907155,-0.9138167053005491,0.03710561990737915,-0.4910126030445099,-0.15789934992790222,0.15942879021167755,-0.9816903471946716,-0.10424346476793289,0.10817986726760864,-0.018843770027160645,0.0003617405891418457
1.3781146088186387,0.9929254489187127,-0.920132309880996,0.05060944706201553,-0.4934656620025635,-0.1490994691848755,0.16039903461933136,-0.9814942479133606,-0.10460096597671509,0.09898512065410614,-0.025128185749053955,0.00026154518127441406
1.3771583595949617,0.9949306561222364,-0.92690699491378,0.06297711282968521,-0.4238106608390808,-0.15352065861225128,0.16139540076255798,-0.9813106656074524,-0.10479006171226501,0.08291307091712952,-0.028348147869110107,0.00345660001039505
1.3761372023574936,0.9980904042329324,-0.9340393103137637,0.055438507348299026,-0.34759974479675293,-0.1653680056333542,0.16256757080554962,-0.9811136722564697,-0.10482240468263626,0.06674148142337799,-0.020641088485717773,0.005060628056526184
1.3750101132371633,1.0012221373606986,-0.9408772488336116,0.04560531675815582,-0.38001227378845215,-0.16316556930541992,0.16382640600204468,-0.9808950424194336,-0.10490918159484863,0.05393175780773163,-0.013566076755523682,0.01515711098909378
1.3738327712174674,1.0029986903338026,-0.9469796099743143,0.026109911501407623,-0.4519628882408142,-0.16463829576969147,0.16498659551143646,-0.9806653261184692,-0.10523930191993713,0.04779721796512604,-0.017137646675109863,0.030501827597618103
1.3725682513536235,1.0034665280416182,-0.9520409429295791,0.008408479392528534,-0.4332904815673828,-0.15290990471839905,0.1660814881324768,-0.9804170727729797,-0.1058284118771553,0.05393500626087189,-0.01618039608001709,0.037560686469078064
1.371359449194161,1.0041451920955293,-0.956873270831863,0.027065252885222435,-0.38109731674194336,-0.15510141849517822,0.1671530157327652,-0.9801782965660095,-0.10635176301002502,0.06218661367893219,-0.008255720138549805,0.02706722915172577
1.3702388100528156,1.0061960919971367,-0.962649959190645,0.04231906682252884,-0.33942660689353943,-0.15231850743293762,0.1682986468076706,-0.9799556732177734,-0.10659641772508621,0.0564938485622406,-0.0031225085258483887,0.015135392546653748
1.3693432267156131,1.0081336645887484,-0.9678196462417953,0.030604086816310883,-0.28369462490081787,-0.10683038085699081,0.16924665868282318,-0.9797768592834473,-0.10673794895410538,0.07136915624141693,0.00466388463973999,0.018054015934467316
1.368779037569865,1.0083684404618556,-0.9707636035487378,0.006899954751133919,-0.2502686083316803,-0.054006658494472504,0.16973930597305298,-0.9796637892723083,-0.1069929450750351,0.09130805730819702,0.012287020683288574,0.02818143367767334
1.3684634079746394,1.0068001256011747,-0.9716130727451108,-0.010612726211547852,-0.22442077100276947,-0.021348847076296806,0.16983260214328766,-0.9796004295349121,-0.1074243113398552,0.08273085951805115,0.017640531063079834,0.03566230088472366
1.3681530395429053,1.0045935270691269,-0.9713511027368644,-0.03236896172165871,-0.16007766127586365,-0.028443878516554832,0.1698521077632904,-0.9795380234718323,-0.10796212404966354,0.05664937198162079,0.01702868938446045,0.0393892377614975
1.367608831973301,1.002719963653457,-0.9705651829429924,-0.055469486862421036,-0.05938435345888138,-0.048146747052669525,0.1700984090566635,-0.9794283509254456,-0.10856665670871735,0.03456774353981018,0.02505207061767578,0.03791862726211548
1.3666924716485127,1.0003862457836468,-0.968401045646428,-0.12254192680120468,0.01602085679769516,-0.0575135163962841,0.17059962451457977,-0.9792430400848389,-0.10944771766662598,0.018304184079170227,0.03609728813171387,0.041820891201496124
1.3653164008838208,0.9958922497885121,-0.9633321471658279,-0.1959170699119568,0.07648792862892151,-0.0616893544793129,0.1712368130683899,-0.9789631962776184,-0.1109459176659584,0.015683338046073914,0.03180438280105591,0.05154360085725784
1.363565343691947,0.990027067801328,-0.9562908946592119,-0.23070548474788666,0.12797331809997559,-0.07682006061077118,0.17201639711856842,-0.9786043763160706,-0.11288893222808838,0.01606343686580658,0.02227497100830078,0.04651331901550293
1.3615222682221753,0.9845322842120149,-0.9491306943605666,-0.23912587761878967,0.17351683974266052,-0.09879939258098602,0.1730584055185318,-0.9781819581985474,-0.11493818461894989,0.009116262197494507,0.01985377073287964,0.02614743262529373
1.359317301292945,0.9794417120766129,-0.9419957015763566,-0.25262686610221863,0.19564299285411835,-0.0982365533709526,0.17426078021526337,-0.9777215123176575,-0.11701948195695877,0.00831061601638794,0.02902168035507202,0.012283287942409515
1.3570958481513764,0.9733764165032452,-0.9338184190551981,-0.2789623439311981,0.1864343136548996,-0.07498902082443237,0.17534394562244415,-0.9772528409957886,-0.11929627507925034,0.022242113947868347,0.028384923934936523,0.011935532093048096
1.355003944463425,0.9660118470545617,-0.9244190713081566,-0.2856830358505249,0.18059873580932617,-0.043495193123817444,0.17614179849624634,-0.9768070578575134,-0.12174634635448456,0.03699296712875366,0.016861319541931152,0.0087704136967659
1.3532023508090785,0.9582039476081817,-0.9144437105888025,-0.26711413264274597,0.20695124566555023,-0.007411227561533451,0.1766253262758255,-0.9764196872711182,-0.12412955611944199,0.041010782122612,0.014276742935180664,-0.0016027018427848816
1.3517673071518237,0.9510097464167331,-0.904994184631337,-0.22887684404850006,0.18978941440582275,0.0008470606990158558,0.1768682301044464,-0.9761089086532593,-0.12621083855628967,0.029186442494392395,0.008793175220489502,-0.01128600537776947
1.3503853035055668,0.9440001891931811,-0.8963015046781225,-0.24558179080486298,0.09967150539159775,0.0019719796255230904,0.17707140743732452,-0.9758076667785645,-0.1282384842634201,-0.002068355679512024,0.009850025177001953,-0.0058708637952804565
1.3489807531235662,0.9344572826403399,-0.8859343842055712,-0.28368186950683594,0.02409852296113968,0.040495697408914566,0.17694143950939178,-0.9754996299743652,-0.13073651492595673,0.0068506598472595215,0.02165752649307251,0.011367172002792358
1.3476975122136243,0.9228707952432454,-0.8739557242752122,-0.2860105037689209,0.001853136345744133,0.06699362397193909,0.17641329765319824,-0.9752165079116821,-0.13353361189365387,0.020562410354614258,0.018993914127349854,0.0077707767486572266
1.3466134846378373,0.9120241678937017,-0.8626607233323113,-0.2619686722755432,0.02844678983092308,0.07393042743206024,0.17579078674316406,-0.974976122379303,-0.136086568236351,0.011068373918533325,0.007294058799743652,-0.011786237359046936
1.3456766467842094,0.9021031557690241,-0.8520237171964329,-0.2249653935432434,0.06064467504620552,0.06654547899961472,0.17514796555042267,-0.9747673869132996,-0.13838952779769897,0.0009842365980148315,0.00046324729919433594,-0.02075950801372528
1.3447324501962732,0.8938205633360311,-0.8427539546961682,-0.2211681455373764,0.08608013391494751,0.042988672852516174,0.17471301555633545,-0.9745562076568604,-0.14041189849376678,-0.013351336121559143,0.002006828784942627,-0.014708787202835083
1.3434768560765458,0.8858216170044412,-0.83363034363262,-0.2565964460372925,0.09016728401184082,0.021316135302186012,0.17453165352344513,-0.9742739796638489,-0.1425788402557373,-0.026857107877731323,-0.0005947351455688477,0.0014046579599380493
1.3417945951267682,0.8773411297813836,-0.8239540093339822,-0.28922271728515625,0.10315676778554916,-0.0006972767878323793,0.17457695305347443,-0.9738934636116028,-0.1451016515493393,-0.02884027361869812,-0.007216215133666992,0.011938333511352539
1.339855609198723,0.8692225903264312,-0.814357324632131,-0.2885233759880066,0.14417876303195953,-0.016861865296959877,0.17483530938625336,-0.9734514951705933,-0.1477327197790146,-0.025955289602279663,-0.008695781230926514,0.001401066780090332
1.3378694303857979,0.8626967536587835,-0.8058204412202176,-0.2670276165008545,0.2139146476984024,-0.03323714807629585,0.17533591389656067,-0.9729949831962585,-0.15012779831886292,-0.021298423409461975,-0.008587837219238281,-0.014270320534706116
1.3358100019861547,0.8576790627473646,-0.7982513571213556,-0.2716103792190552,0.23690305650234222,-0.05264413729310036,0.17609572410583496,-0.9725175499916077,-0.1523163765668869,-0.025857672095298767,-0.01875460147857666,-0.016003265976905823
1.3335879576322522,0.8516927174904809,-0.79020444677015,-0.30000653862953186,0.1211734339594841,-0.03463040292263031,0.17680592834949493,-0.9719977378845215,-0.15479062497615814,-0.028185337781906128,-0.03044372797012329,-0.0017491579055786133
1.331489106996763,0.843066555461819,-0.780726097661327,-0.3061525821685791,0.0017237402498722076,0.01580667309463024,0.17698679864406586,-0.971502423286438,-0.15766645967960358,-0.003814801573753357,-0.03136622905731201,-0.0007806271314620972
1.3298354956929315,0.8327750748082143,-0.770420489438569,-0.2716139853000641,-0.04794400930404663,0.06196361407637596,0.17654313147068024,-0.97110915184021,-0.1605602502822876,0.01568707823753357,-0.021169960498809814,-0.027809366583824158
1.328789394543476,0.8230186401719565,-0.7608068466910137,-0.20268788933753967,-0.03342792019248009,0.0900690108537674,0.17571325600147247,-0.9708589911460876,-0.16296596825122833,0.018058106303215027,-0.023220717906951904,-0.055707573890686035
1.3283264727694115,0.8150187196101449,-0.7527297441257992,-0.14677821099758148,0.004109783098101616,0.10187719762325287,0.1747305542230606,-0.9707479476928711,-0.16467425227165222,0.012006476521492004,-0.028000831604003906,-0.06519924104213715
1.3280806089754205,0.8081841222896785,-0.7455556846535691,-0.14007796347141266,0.01706952415406704,0.09796155244112015,0.17377404868602753,-0.9706888794898987,-0.16602995991706848,-0.004752457141876221,-0.02494722604751587,-0.051361918449401855
1.3276871705408584,0.8012853279986354,-0.738299649677582,-0.1635785847902298,0.010269234888255596,0.08752328902482986,0.17289859056472778,-0.9705942273139954,-0.16749031841754913,-0.016770675778388977,-0.026567697525024414,-0.02396152913570404
1.3270791440306202,0.7942838548492275,-0.7309130743350932,-0.16999094188213348,0.024751238524913788,0.07029050588607788,0.1721426248550415,-0.9704476594924927,-0.1691102683544159,-0.020943298935890198,-0.028179049491882324,-0.01692478358745575
1.3264101029297743,0.7882811719865799,-0.724240033883243,-0.15100333094596863,0.06929785013198853,0.06048154830932617,0.17158514261245728,-0.9702860116958618,-0.17059862613677979,-0.02227787673473358,-0.02457195520401001,-0.026178613305091858
1.3258707304761397,0.7840474867292347,-0.7189492005870477,-0.12314559519290924,0.0993761271238327,0.03736104816198349,0.17123058438301086,-0.9701553583145142,-0.17169377207756042,-0.020992547273635864,-0.025267064571380615,-0.030790209770202637
1.3251030446121574,0.7811961018847845,-0.7152934583692959,-0.104273721575737,0.025527015328407288,-0.008710036054253578,0.1712644249200821,-0.9699689149856567,-0.17270982265472412,-0.03802467882633209,-0.029359638690948486,-0.023624882102012634
1.3239650305585253,0.7783088573161882,-0.7126333411033634,-0.12057200074195862,-0.07788006216287613,-0.04096784070134163,0.1715402901172638,-0.9696915149688721,-0.1739899069070816,-0.0665140450000763,-0.03238379955291748,-0.011572122573852539
1.3226812168252202,0.7747661982408329,-0.7100058868078404,-0.11051081120967865,-0.10020510852336884,-0.036160651594400406,0.1717936396598816,-0.9693770408630371,-0.17548604309558868,-0.05141705274581909,-0.021147310733795166,-0.01627105474472046
1.3217079122858242,0.7722590655472525,-0.7082329609534948,-0.05839408189058304,-0.048647113144397736,-0.04031305015087128,0.17201144993305206,-0.9691375494003296,-0.17659205198287964,-0.029006078839302063,-0.008584737777709961,-0.04488915205001831
1.3213176684046264,0.7722566591470065,-0.7084441422176637,0.013852736912667751,0.006829680874943733,-0.03340420499444008,0.1722748726606369,-0.9690412878990173,-0.17686332762241364,-0.020877152681350708,-0.007795989513397217,-0.06332516670227051
1.3213927317702177,0.7739571855979032,-0.7099978024522716,0.04539388790726662,0.030612241476774216,-0.028670702129602432,0.17252452671527863,-0.9690598249435425,-0.17651808261871338,-0.01908212900161743,-0.01308751106262207,-0.05066990852355957
1.3214762807023777,0.7757994954752918,-0.7115858734376553,0.02612551487982273,0.032317861914634705,-0.034154221415519714,0.17279231548309326,-0.9690804481506348,-0.17614170908927917,-0.03619563579559326,-0.008840084075927734,-0.018010959029197693
1.3212581645472317,0.7768788668337072,-0.7125053011526515,-0.01034381240606308,0.01204934436827898,-0.04557545483112335,0.17313095927238464,-0.9690265655517578,-0.1761062890291214,-0.052678078413009644,-0.003614485263824463,0.011113166809082031
1.320780451072918,0.7770164165228866,-0.7127256113097359,-0.0358976274728775,-0.025002170354127884,-0.06698630750179291,0.173479825258255,-0.9689084887504578,-0.17641259729862213,-0.05940510332584381,-0.0050449371337890625,0.022176846861839294
1.3201343804757615,0.776248249587643,-0.7125720606887875,-0.05916992947459221,-0.08457814157009125,-0.08752727508544922,0.17378243803977966,-0.9687484502792358,-0.17699208855628967,-0.06484994292259216,-0.008851706981658936,0.019033193588256836
1.3191307861896766,0.7748914704729467,-0.7122754753268443,-0.07972767949104309,-0.11174583435058594,-0.10319613665342331,0.17422233521938324,-0.9684990048408508,-0.1779223531484604,-0.06353507936000824,-0.012809038162231445,0.016606569290161133
1.3177152333477309,0.7731194894010642,-0.7117662529476395,-0.08065365999937057,-0.12339529395103455,-0.1188746988773346,0.17486414313316345,-0.9681455492973328,-0.17921194434165955,-0.05685266852378845,-0.009469926357269287,0.0028815269470214844
1.3161345594327027,0.7719269265012133,-0.7118167697415628,-0.05989453196525574,-0.10626403987407684,-0.13375476002693176,0.17571739852428436,-0.9677485823631287,-0.18051660060882568,-0.04812341928482056,-0.004724621772766113,-0.015299305319786072
1.3147217651949112,0.7722457936309381,-0.7131793189583557,-0.03596602752804756,-0.07258917391300201,-0.14259272813796997,0.17672859132289886,-0.9673916697502136,-0.1814396232366562,-0.037568435072898865,-0.003158867359161377,-0.027086839079856873
1.313627798761181,0.7740488821340399,-0.7155714449328491,-0.021831007674336433,-0.019348081201314926,-0.1452876627445221,0.1777954250574112,-0.9671140313148499,-0.18187764286994934,-0.025253325700759888,-0.003222942352294922,-0.029807448387145996
1.3128312612268764,0.7769740757585866,-0.7186834040094587,-0.005359889008104801,0.006849966943264008,-0.14720940589904785,0.17886686325073242,-0.9669111371040344,-0.18190611898899078,-0.016055583953857422,-0.002662956714630127,-0.02420949935913086
1.3121529053125278,0.7802887640136947,-0.7222080398038833,-0.0031282100826501846,-0.01945534721016884,-0.1510135382413864,0.179930180311203,-0.9667378664016724,-0.18177831172943115,-0.015547245740890503,-0.0054302215576171875,-0.014342784881591797
1.3114596503321128,0.7828804703961314,-0.7253764092454207,-0.012636760249733925,-0.06681886315345764,-0.1423819661140442,0.1808730661869049,-0.9665603041648865,-0.18178613483905792,-0.008662372827529907,-0.005348324775695801,-0.0008919835090637207
1.3107134147153428,0.7842915158520827,-0.727822404085435,-0.029530206695199013,-0.11268681287765503,-0.13404619693756104,0.18163898587226868,-0.9663686752319336,-0.1820414513349533,0.0037400424480438232,-0.0036173462867736816,0.009067952632904053
1.3098579348411437,0.7847947672523624,-0.7297752206703738,-0.03205595165491104,-0.14639177918434143,-0.13122963905334473,0.18231476843357086,-0.966148316860199,-0.18253491818904877,0.005398869514465332,-0.003395259380340576,0.010248064994812012
1.3088442688763162,0.7848975691460276,-0.7315179412775623,-0.03705483675003052,-0.15642482042312622,-0.1264895647764206,0.1830258071422577,-0.9658862948417664,-0.1832091361284256,0.005878016352653503,8.106231689453125e-05,0.004757747054100037
1.3077052042354127,0.7849447888992422,-0.7332038756622253,-0.04015102609992027,-0.1472851186990738,-0.127040296792984,0.1838115155696869,-0.9655907154083252,-0.18397825956344604,0.009654656052589417,-0.00013810396194458008,0.0012543946504592896
1.3065151116612916,0.7851310977543666,-0.7348901772646501,-0.04739982634782791,-0.13281355798244476,-0.12214478850364685,0.18465818464756012,-0.9652805328369141,-0.18475684523582458,0.017902255058288574,-0.0025540590286254883,3.409385681152344e-05
1.3053125363775375,0.7852274119212083,-0.7363301740963271,-0.05813289433717728,-0.11865860223770142,-0.1112777590751648,0.18549644947052002,-0.9649657011032104,-0.18555980920791626,0.02631080150604248,-0.0013735294342041016,0.0019051432609558105
1.3041012158812901,0.7847059120505968,-0.736979287458656,-0.0830049067735672,-0.10634340345859528,-0.094061940908432,0.18622536957263947,-0.9646471738815308,-0.18648336827754974,0.033531710505485535,-0.0024091601371765137,0.008733883500099182
1.302803993105006,0.7836188765324315,-0.7368994708094255,-0.10149390250444412,-0.09411230683326721,-0.09285952150821686,0.18690547347068787,-0.9643044471740723,-0.18757177889347076,0.037658125162124634,-0.003224790096282959,0.015559583902359009
1.3014535338492692,0.782351714950593,-0.7364740319397662,-0.11612866818904877,-0.07880483567714691,-0.08212441951036453,0.18758581578731537,-0.9639459848403931,-0.18873226642608643,0.03980064392089844,0.000277101993560791,0.012371301651000977
1.3001705398775658,0.7805966995053479,-0.7354718457673637,-0.11336270719766617,-0.08733654022216797,-0.06146388500928879,0.1881246566772461,-0.9636037945747375,-0.1899399310350418,0.045228034257888794,0.004817605018615723,0.0021653473377227783
1.2991369360115566,0.7783645305379988,-0.7341258472352153,-0.0987987220287323,-0.09728366136550903,-0.03002667799592018,0.18839916586875916,-0.9633269309997559,-0.19106823205947876,0.05311696231365204,0.003304898738861084,-0.00947791337966919
1.2982332826978447,0.7751952277359914,-0.7316808467010152,-0.13219529390335083,-0.07633017003536224,0.0017027556896209717,0.18840184807777405,-0.9630841016769409,-0.19228611886501312,0.06146082282066345,0.004984676837921143,0.0016582012176513672
1.2972519582595048,0.7701714965601422,-0.7274331394670915,-0.1765056550502777,-0.11697971075773239,0.0377405621111393,0.1880912035703659,-0.9628194570541382,-0.19390824437141418,0.0740547627210617,0.005711913108825684,0.04980441927909851
1.2962855161751068,0.7630883593303702,-0.7212869944371484,-0.19501729309558868,-0.11288110911846161,0.07708264142274857,0.18735605478286743,-0.9625579118728638,-0.19590802490711212,0.07738392055034637,-0.0025452375411987305,0.03306634724140167
1.2954457023918053,0.7558904273522699,-0.7149037035588065,-0.1775367110967636,-0.10895758867263794,0.08092576265335083,0.186495840549469,-0.9623299241065979,-0.19784000515937805,0.0606355220079422,-0.0036888718605041504,0.014780402183532715
1.2948462432057224,0.7502552907533224,-0.7100182545394051,-0.11367889493703842,-0.08995939791202545,0.06877322494983673,0.18577107787132263,-0.9621667861938477,-0.19930948317050934,0.03728190064430237,-0.004736959934234619,-0.02908390760421753
1.2947179806608096,0.7470476252861842,-0.7074941962634165,-0.021369341760873795,-0.08010930567979813,0.04675028845667839,0.18521493673324585,-0.9621317982673645,-0.19999520480632782,0.022396162152290344,-0.004756808280944824,-0.07545635104179382
1.295166838573256,0.7462928893384035,-0.7074923562055146,0.07874554395675659,-0.07058584690093994,0.033236343413591385,0.18477024137973785,-0.9622540473937988,-0.19981731474399567,0.020017966628074646,0.0041089653968811035,-0.10476323962211609
1.2960930229070844,0.7481646086277404,-0.7100784665398565,0.1473194658756256,-0.06006228178739548,0.002397756092250347,0.18453764915466309,-0.9625056982040405,-0.19881793856620789,0.01446746289730072,0.009029746055603027,-0.11441437900066376
1.2971938748404876,0.7520576302885875,-0.7148620148928408,0.18750843405723572,-0.09226442873477936,-0.024603236466646194,0.18458658456802368,-0.9628037810325623,-0.19732442498207092,-0.004944860935211182,-0.0007277727127075195,-0.09860444068908691
1.2985431285930016,0.7571790117130393,-0.7213275382736383,0.23554466664791107,-0.1297026127576828,-0.022440757602453232,0.18470251560211182,-0.9631674289703369,-0.19543243944644928,-0.0015512555837631226,-0.012601792812347412,-0.08754172921180725
1.3002999403774596,0.7627182937299205,-0.7285579282223148,0.2746262848377228,-0.16381503641605377,-0.0005596934352070093,0.18461257219314575,-0.9636383652687073,-0.19318237900733948,0.019885718822479248,-0.011932373046875,-0.08327627182006836
1.3024501809179683,0.7678839402564127,-0.7358478420752678,0.29685840010643005,-0.2062981128692627,0.032549887895584106,0.18416833877563477,-0.9642106890678406,-0.19073514640331268,0.035161495208740234,-0.0136793851852417,-0.06443744897842407
1.3048596828771808,0.7722258568383509,-0.7427243769720069,0.3050609529018402,-0.25162166357040405,0.049144044518470764,0.18337304890155792,-0.9648467898368835,-0.1882687211036682,0.03421728312969208,-0.02296149730682373,-0.038095295429229736
1.30726906704803,0.7754594174623715,-0.7489013812884954,0.2843814790248871,-0.2852639853954315,0.06311079859733582,0.18235263228416443,-0.9654771685600281,-0.186013862490654,0.023839369416236877,-0.03049445152282715,-0.01277749240398407
1.3095614563210813,0.7776650049560409,-0.7540923820580436,0.26013630628585815,-0.26643624901771545,0.071754090487957,0.18120943009853363,-0.9660717844963074,-0.18403397500514984,0.020771175622940063,-0.027824759483337402,0.005872488021850586
1.3117048078869173,0.7795621728433143,-0.7587162802437337,0.24036253988742828,-0.24663636088371277,0.05931608006358147,0.18010243773460388,-0.9666231274604797,-0.18221695721149445,0.002896219491958618,-0.023260414600372314,0.011700153350830078
1.3136457010841467,0.7817528974288583,-0.7635714081004134,0.22824116051197052,-0.24166318774223328,0.0390145368874073,0.17917869985103607,-0.9671185612678528,-0.18048979341983795,-0.020578846335411072,-0.02058279514312744,0.017205610871315002
1.3152926640637457,0.7844933625751446,-0.7686056537551419,0.18206971883773804,-0.17994846403598785,0.01612980291247368,0.1785476952791214,-0.9675361514091492,-0.17887109518051147,-0.030842602252960205,-0.01870054006576538,0.026374876499176025
1.316483095723839,0.7871493606773585,-0.7728821112571906,0.14188608527183533,-0.11874476820230484,-0.00039218063466250896,0.1782057285308838,-0.967836320400238,-0.17758266627788544,-0.03393389284610748,-0.015928328037261963,0.032731130719184875
1.3172862830279641,0.7898392418946666,-0.7767286149384197,0.11100348085165024,-0.09720666706562042,-0.021577555686235428,0.1781303882598877,-0.9680380821228027,-0.17655518651008606,-0.04200676083564758,-0.01699298620223999,0.031352728605270386
1.3177047166090177,0.792383868238895,-0.7803958372878822,0.08879165351390839,-0.10573490709066391,-0.036895524710416794,0.17829114198684692,-0.9681429266929626,-0.17581741511821747,-0.047279179096221924,-0.016873061656951904,0.026464462280273438
1.3180294188979695,0.7944053661648915,-0.7836806955746884,0.07780628651380539,-0.12111722677946091,-0.02899967133998871,0.17842184007167816,-0.9682241678237915,-0.1752362847328186,-0.03357015550136566,-0.011969983577728271,0.019581496715545654
1.3183424150583707,0.7961974337231518,-0.786614135942375,0.06783248484134674,-0.08656217902898788,-0.024663247168064117,0.1785190850496292,-0.9683023691177368,-0.1747043877840042,-0.023657605051994324,-0.009358882904052734,0.014578744769096375
1.3186370923045638,0.7979854893554307,-0.7891327336779587,0.0616704523563385,-0.04371138662099838,-0.01887194626033306,0.17862655222415924,-0.9683759808540344,-0.1741853505373001,-0.01715804636478424,-0.005195796489715576,0.01402921974658966
1.3189451073704639,0.799597124298811,-0.7910847443453549,0.04412953928112984,-0.007868433371186256,-0.010999642312526703,0.178693026304245,-0.9684527516365051,-0.17368921637535095,-0.008435457944869995,-0.0032421350479125977,0.018171802163124084
1.3192143024336902,0.8006919514496479,-0.7921653205471652,0.018029622733592987,0.012069465592503548,-0.0028051771223545074,0.17869646847248077,-0.9685198068618774,-0.1733125001192093,-0.003357723355293274,0.0017991065979003906,0.026294171810150146
1.319414870475132,0.8008589349938567,-0.7921814527188171,-0.010519463568925858,0.015720393508672714,0.0055297184735536575,0.17858552932739258,-0.9685696959495544,-0.1731470376253128,-0.005886569619178772,0.008913934230804443,0.034444764256477356
1.319638125321036,0.7997775585049907,-0.7910569647021849,-0.03691864758729935,-0.013194546103477478,0.014251739718019962,0.17824307084083557,-0.9686252474784851,-0.17318934202194214,-0.003941938281059265,0.015744388103485107,0.03853066265583038
1.3198356692102113,0.7970612645811476,-0.7886966034982436,-0.06359472870826721,-0.0706341341137886,0.019540242850780487,0.17763559520244598,-0.9686743021011353,-0.17353962361812592,-0.00556221604347229,0.017914235591888428,0.042771920561790466
1.3197561400308813,0.792697634702709,-0.7852936575924448,-0.10468877851963043,-0.13368193805217743,0.03226448968052864,0.17693164944648743,-0.9686545729637146,-0.17436730861663818,-0.001684442162513733,0.016353309154510498,0.047597452998161316
1.3193750485500562,0.7863190170163203,-0.7802401545323133,-0.15573225915431976,-0.15232433378696442,0.05296098068356514,0.17607702314853668,-0.9685598015785217,-0.17575304210186005,0.007944002747535706,0.015632987022399902,0.0513329952955246
1.3187394745520233,0.7783873575364745,-0.773496730355433,-0.1935853213071823,-0.1286853402853012,0.06901362538337708,0.17510931193828583,-0.9684014916419983,-0.1775819957256317,0.01577812433242798,0.013720035552978516,0.046265020966529846
1.3179397868000153,0.7701934507669775,-0.7662162863372335,-0.2112428843975067,-0.10922030359506607,0.06350380927324295,0.17418773472309113,-0.968201756477356,-0.179566890001297,0.012488305568695068,0.01261991262435913,0.03056494891643524
1.316936518277935,0.7628927717077355,-0.7596920590350772,-0.21198312938213348,-0.09591925889253616,0.0338590070605278,0.17354290187358856,-0.9679502844810486,-0.18153542280197144,-0.006932184100151062,0.007821500301361084,0.01509268581867218
1.3157940581010246,0.7569357519328573,-0.7543439811697016,-0.20714229345321655,-0.06896834075450897,0.0020198505371809006,0.17321789264678955,-0.9676627516746521,-0.18336999416351318,-0.01245129108428955,0.005931675434112549,0.004277706146240234
1.3144802645306877,0.752790190678786,-0.7504737112840912,-0.1901198774576187,-0.026399333029985428,-0.030611680820584297,0.17332522571086884,-0.9673305153846741,-0.18501408398151398,-0.016663238406181335,0.007812023162841797,-0.008238360285758972
1.3131116806578835,0.7502483160687727,-0.7477904683088415,-0.167778879404068,0.024937355890870094,-0.050993915647268295,0.17375688254833221,-0.9669826030731201,-0.18642234802246094,-0.01752212643623352,0.008394896984100342,-0.01995265483856201
1.3117578997081631,0.7491099172559443,-0.746021858750671,-0.14083769917488098,0.08107694983482361,-0.0601331852376461,0.17443548142910004,-0.9666367173194885,-0.18757808208465576,-0.0053681135177612305,0.0131913423538208,-0.0295085608959198
1.3105387200473937,0.7494376426474987,-0.7452341230681581,-0.10199417173862457,0.12264276295900345,-0.06341313570737839,0.17529992759227753,-0.966323733329773,-0.1883838176727295,0.007805541157722473,0.011825382709503174,-0.03703413903713226
1.309526324291127,0.750491147041743,-0.7450629081902281,-0.08018150925636292,0.10507811605930328,-0.05710364878177643,0.17616553604602814,-0.9660627245903015,-0.18891456723213196,0.014981329441070557,0.004667341709136963,-0.034641802310943604
1.308732192142576,0.7509144786636547,-0.7446958036883309,-0.06556448340415955,0.04350077360868454,-0.033325884491205215,0.17676855623722076,-0.9658572673797607,-0.18940041959285736,0.021610945463180542,-0.0004818439483642578,-0.0276251882314682
1.308151312789143,0.7501345939713443,-0.7437549700950453,-0.06178971007466316,-0.018600936979055405,-0.01631094142794609,0.17700369656085968,-0.9657066464424133,-0.1899491399526596,0.02537362277507782,-0.004584610462188721,-0.02269721031188965
1.3076696135849817,0.748472736621184,-0.7424763051129959,-0.056329432874917984,-0.059712689369916916,-0.0065379394218325615,0.17700396478176117,-0.9655814170837402,-0.1905834674835205,0.022687792778015137,-0.005213260650634766,-0.020781144499778748
1.3072963763167185,0.7464843883381364,-0.7410905327451771,-0.046522919088602066,-0.06119710952043533,-0.0009516233112663031,0.17686964571475983,-0.9654843211174011,-0.19119985401630402,0.023295164108276367,-0.004562795162200928,-0.02739739418029785
1.3070057741715069,0.7449453247808661,-0.739922057821554,-0.02861742302775383,-0.01623203046619892,-0.006801523268222809,0.17676520347595215,-0.9654085636138916,-0.19167791306972504,0.023689523339271545,-0.005981266498565674,-0.034686148166656494
1.3067871876145578,0.7445948423737212,-0.7394788646950949,-0.00367846991866827,0.034718722105026245,-0.00896766223013401,0.1768413931131363,-0.9653515219688416,-0.19189544022083282,0.022285833954811096,-0.011348485946655273,-0.04423418641090393
1.3067005421019353,0.7456031626156651,-0.7400810102397402,0.03508943319320679,0.047909095883369446,-0.02107306197285652,0.17709141969680786,-0.9653289318084717,-0.19177834689617157,0.01709192991256714,-0.013553023338317871,-0.053628623485565186
1.3067322237586199,0.7479461793776785,-0.7419837975592585,0.06710372120141983,0.057486988604068756,-0.031134113669395447,0.17751920223236084,-0.9653372168540955,-0.19134017825126648,0.011827096343040466,-0.011133790016174316,-0.052876636385917664
1.3068772854726212,0.7514200479332352,-0.7448695321124127,0.09058986604213715,0.07610594481229782,-0.02898387610912323,0.17808759212493896,-0.9653750658035278,-0.19062042236328125,0.016019493341445923,-0.006503164768218994,-0.04959860444068909
1.3072218867828675,0.755403419406696,-0.7482664594816457,0.11345624178647995,0.057369865477085114,-0.017969930544495583,0.1786169558763504,-0.9654648900032043,-0.18966683745384216,0.018770739436149597,-0.009525954723358154,-0.044906362891197205
1.3078859658393491,0.7593321290407365,-0.751882709976219,0.1383911520242691,0.03802173584699631,9.562261402606964e-05,0.17891959846019745,-0.9656376838684082,-0.18849891424179077,0.02573128044605255,-0.010131418704986572,-0.0376971960067749
