attitudeX,attitudeY,attitudeZ,gyroX,gyroY,gyroZ,gravityX,gravityY,gravityZ,accX,accY,accZ
0.5749827172110417,0.8220177180554226,-1.5158246541472695,-1.2719534635543823,-0.290517121553421,-1.1079230308532715,0.6147327423095703,-0.5438202619552612,-0.5712820291519165,0.2839183211326599,-0.309786856174469,-0.31374305486679077
0.5598439484601955,0.8161572816739687,-1.514048068303215,-1.0034258365631104,-0.6919758915901184,-0.86717289686203,0.6173017024993896,-0.5310539603233337,-0.5804483890533447,0.6072313189506531,-0.26597362756729126,-0.4384726285934448
0.5487417140871144,0.8063200760881458,-1.512350660314858,-0.7255598902702332,-1.0949370861053467,-0.5331531167030334,0.6157795190811157,-0.5216140747070312,-0.5905373692512512,0.9071086049079895,-0.26482391357421875,-0.5455405712127686
0.5421450373617069,0.7922417536035827,-1.5101419850595268,-0.4637104570865631,-1.4733189344406128,-0.14125646650791168,0.6098414063453674,-0.5159746408462524,-0.6015509963035583,1.1560276746749878,-0.29246652126312256,-0.6608544588088989
0.540135720975827,0.7743792343273596,-1.5066886075578403,-0.2392091006040573,-1.7077817916870117,0.2714991569519043,0.5997232794761658,-0.5142524242401123,-0.6130877137184143,1.3189778327941895,-0.2893364429473877,-0.8050947189331055
0.5421814997369406,0.7544979541878563,-1.5018024165065658,-0.04699518904089928,-1.7285587787628174,0.5950763821601868,0.5866948366165161,-0.5160058736801147,-0.6241211891174316,1.3347225189208984,-0.23216313123703003,-0.9567657113075256
0.5472056814021394,0.7344141070820376,-1.496212708204402,0.14587660133838654,-1.693711280822754,0.7607407569885254,0.5722979307174683,-0.520302951335907,-0.633845329284668,1.2572765350341797,-0.13181191682815552,-1.113011360168457
0.5544575991679511,0.7150910179960511,-1.4915333665491006,0.42554473876953125,-1.6654261350631714,0.7765780091285706,0.5574552416801453,-0.5264822244644165,-0.6419190764427185,1.14475417137146,-0.032401442527770996,-1.2548552751541138
0.5639672682785398,0.6977928231502969,-1.4895203391840435,0.7998310923576355,-1.5704219341278076,0.7070618867874146,0.5430267453193665,-0.5345432758331299,-0.6475996375083923,1.0818662643432617,0.07511645555496216,-1.408644199371338
0.5759989602827374,0.6832764834930923,-1.490820768961145,1.1905437707901,-1.45143723487854,0.6571172475814819,0.5294702053070068,-0.5446728467941284,-0.650378942489624,1.0841467380523682,0.1803845763206482,-1.5340235233306885
0.5911995054442277,0.6722452409547979,-1.4948830802872803,1.5967092514038086,-1.1666675806045532,0.7370450496673584,0.5170475840568542,-0.5573573112487793,-0.6496264934539795,1.146587610244751,0.2915034294128418,-1.6223461627960205
0.6105752126615772,0.6659643211047667,-1.5004633247019663,1.9974310398101807,-0.7042815089225769,0.9511168599128723,0.5061894059181213,-0.5733388662338257,-0.6442475318908691,1.2159174680709839,0.4071096181869507,-1.6577544212341309
0.6343767063213982,0.6646162505981508,-1.5065428212608114,2.333880662918091,-0.28943994641304016,1.2035551071166992,0.49676162004470825,-0.5926756262779236,-0.6340059041976929,1.222903847694397,0.5164884924888611,-1.6103636026382446
0.6622786156004382,0.6664877877002295,-1.512614528084292,2.6334028244018555,-0.08514808118343353,1.464703917503357,0.48753130435943604,-0.6149153709411621,-0.6198325157165527,1.1678335666656494,0.6579604148864746,-1.5207924842834473
0.6941812643900257,0.6701476681574755,-1.5187197035644584,2.951658248901367,0.04615427181124687,1.7332792282104492,0.4773649573326111,-0.6397563815116882,-0.6023573875427246,1.1116394996643066,0.8130046725273132,-1.4400315284729004
0.7303237051533018,0.6743353593241725,-1.5248803726125957,3.2624566555023193,-0.05664055049419403,2.0263330936431885,0.4651358723640442,-0.667110800743103,-0.5819035172462463,1.053327202796936,0.9421200156211853,-1.3598690032958984
0.7706799196344996,0.6765722757327917,-1.5310860086280236,3.5887866020202637,-0.34409844875335693,2.2918505668640137,0.4492046535015106,-0.6966232061386108,-0.559402585029602,0.9812915325164795,1.0691514015197754,-1.270629644393921
0.8153536714992108,0.6769806133544299,-1.538035598158488,3.973609685897827,-0.5695707201957703,2.5276129245758057,0.42949578166007996,-0.7279680967330933,-0.5344116687774658,0.9069452285766602,1.1560686826705933,-1.2242553234100342
0.8646722513665747,0.6765922187811485,-1.5464918861366845,4.4034600257873535,-0.7417736053466797,2.752777099609375,0.40629541873931885,-0.7608826160430908,-0.5059462785720825,0.7936251759529114,1.2589600086212158,-1.19060218334198
0.9187532548402618,0.677124283514882,-1.557303020412308,4.850813388824463,-0.8319813013076782,2.9406704902648926,0.38020044565200806,-0.794845700263977,-0.47293543815612793,0.6670712232589722,1.400177240371704,-1.1599838733673096
0.9774604471842046,0.6799697375743723,-1.5721525839536061,5.362825870513916,-1.006197214126587,3.074331760406494,0.35156381130218506,-0.8290801048278809,-0.434774786233902,0.5004106760025024,1.5529723167419434,-1.103173851966858
1.041355305767882,0.6879094723004344,-1.5930493453208905,5.913156509399414,-0.9375789761543274,3.2485530376434326,0.3206687271595001,-0.8630895018577576,-0.3901897668838501,0.452021062374115,1.7173681259155273,-1.0832295417785645
1.1104218816808116,0.7052301849874234,-1.6224712797860967,6.42306661605835,-0.7439967393875122,3.440894842147827,0.28798869252204895,-0.8958861827850342,-0.3383052349090576,0.20992082357406616,1.8440368175506592,-1.0306065082550049
1.183560699127946,0.7381321316728933,-1.6651695926884238,6.824594020843506,-0.4749490022659302,3.541020631790161,0.2541102170944214,-0.9259564876556396,-0.27934321761131287,0.061517804861068726,1.9322583675384521,-0.9530786871910095
1.2587777789288432,0.7980037869126344,-1.7327738735238354,7.154994964599609,-0.26755571365356445,3.537238836288452,0.2197868674993515,-0.9517158269882202,-0.21431446075439453,-0.08656242489814758,2.0198159217834473,-0.8613996505737305
1.33345195593218,0.9094981917558227,-1.850481959779383,7.400509357452393,-0.12039317190647125,3.474501371383667,0.1855572760105133,-0.9719657897949219,-0.1443982720375061,-0.2159070521593094,2.064098358154297,-0.7642779350280762
1.402390242788467,1.1337182693787997,-2.079771054866302,7.557270526885986,0.014532032422721386,3.366580009460449,0.15185365080833435,-0.9858531951904297,-0.07094843685626984,-0.3017866015434265,2.097196578979492,-0.6574451327323914
1.4514190430190559,1.6099952608161217,-2.559798877198755,7.638490676879883,0.1569293886423111,3.252309560775757,0.11900258809328079,-0.9928829669952393,0.004667165223509073,-0.36694270372390747,2.1287472248077393,-0.5651224851608276
1.4513767079921853,2.3206965515784126,3.0102018061149254,7.671115398406982,0.2690199613571167,3.108321189880371,0.0871788039803505,-0.9928779602050781,0.08119921386241913,-0.3996178209781647,2.129077911376953,-0.4913860559463501
1.4023846820528427,2.795777693581536,2.5335861260236174,7.695634365081787,0.33890289068222046,2.9273860454559326,0.05681554973125458,-0.9858522415161133,0.15769261121749878,-0.41857096552848816,2.10863995552063,-0.43764570355415344
1.3332254707549815,3.021206357880971,2.307368855495453,7.731154918670654,0.3944372534751892,2.7361607551574707,0.028263606131076813,-0.9719125032424927,0.23363900184631348,-0.4236951768398285,2.077564239501953,-0.410274863243103
1.2573858707817258,3.1360959337968204,2.1925606577488184,7.731145858764648,0.4698238968849182,2.5332539081573486,0.00169465655926615,-0.9512876272201538,0.3083001375198364,-0.4233103096485138,2.065438747406006,-0.3943597078323364
1.179526405958543,-3.0812652259067077,2.128109069995946,7.656167030334473,0.5879490971565247,2.3268580436706543,-0.02299269661307335,-0.924425482749939,0.3806692659854889,-0.41534659266471863,2.0576040744781494,-0.3785941004753113
1.1018914069048111,-3.0396086097057946,2.089706920705128,7.5039801597595215,0.7600425481796265,2.1106624603271484,-0.04600772261619568,-0.8920636773109436,0.44956159591674805,-0.3959173858165741,2.021671772003174,-0.37581586837768555
1.0257774524105199,-3.01050302774951,2.0663437735712202,7.298018455505371,0.9621710181236267,1.9040855169296265,-0.06776683777570724,-0.8551174998283386,0.513985812664032,-0.37447869777679443,1.9758145809173584,-0.38541537523269653
0.9518515224390149,-2.988244095990516,2.0521993045666376,7.071059703826904,1.1075448989868164,1.7210664749145508,-0.08862081170082092,-0.8144910931587219,0.5733673572540283,-0.33769452571868896,1.9345474243164062,-0.4037051200866699
0.8803915718861095,-2.9701747503108105,2.0439647979566185,6.821252346038818,1.1859703063964844,1.5745728015899658,-0.10863357782363892,-0.7709882855415344,0.6275158524513245,-0.28777456283569336,1.8775250911712646,-0.42504698038101196
0.8117232807965082,-2.954351207216793,2.0392313379305995,6.532840728759766,1.2673239707946777,1.4906123876571655,-0.1281171292066574,-0.7254742980003357,0.6762198209762573,-0.23316529393196106,1.827708125114441,-0.44356900453567505
0.7460344182810864,-2.9384978277170615,2.0360738709094077,6.228238105773926,1.4656099081039429,1.4955519437789917,-0.1481267660856247,-0.6787318587303162,0.7192922234535217,-0.1862085908651352,1.8047847747802734,-0.4826895594596863
0.6830610872980857,-2.9205641682879424,2.0332430176861767,5.965868949890137,1.7407341003417969,1.5676101446151733,-0.17004702985286713,-0.6311702728271484,0.7567750215530396,-0.15052492916584015,1.790853500366211,-0.537567138671875
0.6217564799952798,-2.9000667741207913,2.0302568989398977,5.844371318817139,1.9667203426361084,1.7011141777038574,-0.19442275166511536,-0.582463800907135,0.7892629504203796,-0.1375017762184143,1.7699179649353027,-0.6129018068313599
0.5604253295443711,-2.878192190421249,2.0271908218216446,5.887406826019287,2.0250260829925537,1.8359556198120117,-0.2205369919538498,-0.5315465331077576,0.8178154826164246,-0.19169454276561737,1.7654025554656982,-0.6600547432899475
0.4976388030921361,-2.8571787083288593,2.025043416172009,6.0759782791137695,1.9263488054275513,1.8991613388061523,-0.24656228721141815,-0.4773520529270172,0.8434112071990967,-0.2870681583881378,1.7400931119918823,-0.6571470499038696
0.43257079655794,-2.8385877695620314,2.0244284392808107,6.305713176727295,1.7185428142547607,1.9646191596984863,-0.2709052860736847,-0.4192062020301819,0.8665316104888916,-0.33494505286216736,1.695725917816162,-0.6130066514015198
0.3652860180085721,-2.822706296419898,2.0250512572686077,6.49288272857666,1.498621940612793,2.0233206748962402,-0.2928243577480316,-0.3572164475917816,0.886932909488678,-0.392386794090271,1.6649863719940186,-0.5272376537322998
0.2966973641997063,-2.809462265528844,2.0271330600507316,6.579063892364502,1.270807147026062,1.9612400531768799,-0.31181132793426514,-0.2923634648323059,0.9040447473526001,-0.5223714113235474,1.6143239736557007,-0.3761976957321167
0.22808079149636046,-2.7991780680032883,2.0316178872213024,6.615877628326416,0.9974017143249512,1.741484522819519,-0.32706692814826965,-0.22610843181610107,0.9175522327423096,-0.7129721641540527,1.534366488456726,-0.18116319179534912
0.16021785013819495,-2.791899811541645,2.0389472194887177,6.583352565765381,0.7544713616371155,1.5156646966934204,-0.33822140097618103,-0.1595332771539688,0.9274459481239319,-0.8493703007698059,1.4260889291763306,0.024657011032104492
0.09409614685604029,-2.785493572114886,2.0479844515999215,6.378705024719238,0.7838231325149536,1.3578237295150757,-0.34707844257354736,-0.09395734965801239,0.9331175684928894,-0.9524668455123901,1.3829892873764038,0.26666563749313354
0.03148944580643162,-2.77719051136499,2.058120948595009,5.986400127410889,0.9968613386154175,1.1496318578720093,-0.3562140464782715,-0.03148424252867699,0.93387371301651,-1.087862491607666,1.3623710870742798,0.5733588337898254
-0.025601772440946538,-2.76651407878434,2.069160969064033,5.403164863586426,1.1174585819244385,0.8966662883758545,-0.36622563004493713,0.025598974898457527,0.9301739931106567,-1.1999822854995728,1.2562613487243652,0.9715288877487183
-0.07518032108245785,-2.7548482239024485,2.081380405493431,4.646669864654541,1.0557070970535278,0.49439606070518494,-0.3761099576950073,0.07510951906442642,0.9235259890556335,-1.3539011478424072,1.1212100982666016,1.4106721878051758
-0.11448243614397681,-2.7441221402887193,2.094928637812489,3.5752804279327393,0.8098785877227783,0.009616615250706673,-0.3845534324645996,0.11423252522945404,0.916007399559021,-1.524397373199463,0.9775032997131348,1.9222493171691895
-0.14063009877038343,-2.735090116193912,2.1087513472417645,2.2848219871520996,0.6758006811141968,-0.4802449643611908,-0.39149582386016846,0.1401670277118683,0.9094415903091431,-1.6043691635131836,0.8652955889701843,2.38988995552063
-0.15285417140393337,-2.725269518566772,2.121982235826665,0.9876431822776794,0.9461224675178528,-0.9361249208450317,-0.3996853828430176,0.15225964784622192,0.9039186835289001,-1.6232181787490845,0.7723008990287781,2.6236236095428467
-0.15108060367516893,-2.7111941785931695,2.133776046249891,-0.3558211624622345,1.5311065912246704,-1.31113862991333,-0.41248026490211487,0.15050651133060455,0.8984473943710327,-1.6656447649002075,0.7549957633018494,2.7417807579040527
-0.13623614033925005,-2.691372733781601,2.142526279337737,-1.551206350326538,2.151524305343628,-1.4861149787902832,-0.43113139271736145,0.1358150988817215,0.892008900642395,-1.5880184173583984,0.8285098075866699,2.794041395187378
-0.1115017409202051,-2.6672096273997883,2.1468027492879274,-2.4403116703033447,2.507295608520508,-1.4471980333328247,-0.4539530277252197,0.11127083748579025,0.8840504884719849,-1.3944966793060303,0.8833732604980469,2.7154672145843506
-0.0810361593342474,-2.6422963935861796,2.1461735860694957,-2.9141459465026855,2.4117088317871094,-1.276254415512085,-0.4772365391254425,0.08094749599695206,0.8750386834144592,-1.2227756977081299,0.9565433263778687,2.5668864250183105
-0.0489403536796136,-2.6210814356277354,2.1420756493095827,-3.0343780517578125,1.8005824089050293,-1.149530291557312,-0.49672818183898926,0.04892081767320633,0.8665261268615723,-1.1414096355438232,0.969649076461792,2.3739216327667236
-0.01691210878759009,-2.608115868859217,2.1365630635344286,-3.0349738597869873,0.7995742559432983,-1.1296483278274536,-0.5084574222564697,0.016911301761865616,0.8609212040901184,-1.1396445035934448,0.9084884524345398,2.2596843242645264
0.015449785232848292,-2.604865335219116,2.1309495849889952,-3.1022448539733887,-0.11198636889457703,-1.2154333591461182,-0.5112652778625488,-0.01544917095452547,0.8592842221260071,-1.1714588403701782,0.8629833459854126,2.194228410720825
0.049730474930722565,-2.6090125122342678,2.1256457112726364,-3.343378782272339,-0.7132530808448792,-1.358527660369873,-0.5071301460266113,-0.0497099794447422,0.860434889793396,-1.2142139673233032,0.8480039834976196,2.1162803173065186
0.08774470285605586,-2.61761660761577,2.1201377133738224,-3.7735424041748047,-1.0470995903015137,-1.5206944942474365,-0.49840205907821655,-0.08763214945793152,0.8625060319900513,-1.1981770992279053,0.8676919341087341,2.044308662414551
0.1307844221861382,-2.6283783260447233,2.1140500268913653,-4.279726982116699,-1.2220873832702637,-1.6834367513656616,-0.48678696155548096,-0.13041190803050995,0.8637309074401855,-1.1636189222335815,0.9168651103973389,1.9350665807724
0.17910494737234048,-2.640181615074387,2.1074271194193943,-4.770008087158203,-1.3279914855957031,-1.8564412593841553,-0.47297435998916626,-0.17814891040325165,0.8628776669502258,-1.129503607749939,0.9847437739372253,1.7716283798217773
0.23216052548313404,-2.652734698555118,2.1005311633779145,-5.150554180145264,-1.4654566049575806,-1.9726966619491577,-0.45701882243156433,-0.23008061945438385,0.8591837882995605,-1.0999423265457153,1.1025476455688477,1.579643726348877
0.2879966234173659,-2.666802834532947,2.093639971831829,-5.305835247039795,-1.7065906524658203,-2.0025181770324707,-0.4383235573768616,-0.2840319275856018,0.8527590036392212,-1.0491336584091187,1.218235969543457,1.3298884630203247
0.3447592360276237,-2.6837058264516527,2.0871329057812473,-5.349695205688477,-2.0798323154449463,-1.979158639907837,-0.4160417914390564,-0.3379700779914856,0.8442070484161377,-1.0109754800796509,1.2978699207305908,1.1030128002166748
0.4017140543300503,-2.7047826676658575,2.081115733874976,-5.368403434753418,-2.5753695964813232,-1.9335339069366455,-0.38937291502952576,-0.390996515750885,0.8339725732803345,-0.9973000288009644,1.3508812189102173,0.9614831805229187
0.4589669903157782,-2.7315494227056405,2.0761844655474877,-5.408593654632568,-3.173389196395874,-1.9542499780654907,-0.35739293694496155,-0.4430222511291504,0.8221928477287292,-1.0427076816558838,1.389280915260315,0.8511772751808167
0.5171706809836151,-2.7649529690103893,2.073336210291668,-5.5070881843566895,-3.7313625812530518,-2.03592586517334,-0.31969764828681946,-0.4944228231906891,0.8082939386367798,-1.1375318765640259,1.4361495971679688,0.7531835436820984
0.5769983268965307,-2.8044688510126217,2.07351830957428,-5.662461757659912,-4.102973461151123,-2.166696310043335,-0.277223140001297,-0.5455107092857361,0.790926992893219,-1.2262253761291504,1.5112700462341309,0.630520761013031
0.6391545538090776,-2.8491191989962026,2.0778960146381977,-5.9132490158081055,-4.268579006195068,-2.3570566177368164,-0.23140694200992584,-0.5965170860290527,0.7685168385505676,-1.2962877750396729,1.5946555137634277,0.5093609094619751
0.7046250105717424,-2.8980676193936215,2.0876116917909475,-6.28867769241333,-4.2639360427856445,-2.557257652282715,-0.1837022304534912,-0.6477481722831726,0.7393750548362732,-1.3248884677886963,1.6997501850128174,0.42563337087631226
0.7743262193449535,-2.95096080281086,2.1036481670557756,-6.782835006713867,-4.099725246429443,-2.7373032569885254,-0.1354573518037796,-0.6992345452308655,0.701941967010498,-1.3111827373504639,1.8366398811340332,0.35857439041137695
0.8486405943906833,-3.0081815131728398,2.1276582272229683,-7.308306694030762,-3.822554588317871,-2.896916389465332,-0.08792395144701004,-0.7503825426101685,0.6551303863525391,-1.2844668626785278,1.9812631607055664,0.2843075394630432
0.9270376817611177,-3.072041061331993,2.1624482109289036,-7.784475803375244,-3.5179097652435303,-3.033115863800049,-0.04171163588762283,-0.7998454570770264,0.5987548828125,-1.2525084018707275,2.1338603496551514,0.19061267375946045
1.0080532083365807,3.1359855505415077,2.212518838714789,-8.160900115966797,-3.242185592651367,-3.1372292041778564,0.0029914206825196743,-0.8457947969436646,0.5335000157356262,-1.2122657299041748,2.275665283203125,0.07691264152526855
1.0894908988720706,3.0416896635372805,2.285102884472324,-8.40896987915039,-3.001859426498413,-3.2090256214141846,0.04617185518145561,-0.8863913416862488,0.46062833070755005,-1.1640307903289795,2.3799827098846436,-0.03879919648170471
1.1682335212979027,2.9156038771136354,2.392412069329619,-8.531880378723145,-2.7798380851745605,-3.2697553634643555,0.08778562396764755,-0.9200599789619446,0.3818157911300659,-1.1212940216064453,2.445175886154175,-0.14080321788787842
1.2397482637162367,2.737543256343263,2.5540581693576145,-8.546154975891113,-2.6110849380493164,-3.3019967079162598,0.1277855783700943,-0.9457021951675415,0.29886141419410706,-1.0805292129516602,2.4817283153533936,-0.21670806407928467
1.2967640439871233,2.4809152205547513,2.7957928117381465,-8.434173583984375,-2.509754180908203,-3.313678026199341,0.1660635769367218,-0.9626875519752502,0.2136715203523636,-1.039644479751587,2.4821882247924805,-0.27601897716522217
1.328668466973561,2.135403270167653,3.12715952194926,-8.202879905700684,-2.4536125659942627,-3.331139087677002,0.20255674421787262,-0.970829963684082,0.12829658389091492,-1.0099451541900635,2.453923225402832,-0.3228003978729248
1.3269742100317208,1.755879930656855,-2.7906176510849643,-7.893580913543701,-2.456604480743408,-3.3635494709014893,0.23729023337364197,-0.9704223275184631,0.04442698881030083,-0.9832925200462341,2.401010036468506,-0.3438655138015747
1.2946634726819353,1.4356369879097648,-2.4851431014642285,-7.540018081665039,-2.4981696605682373,-3.394658327102661,0.27015072107315063,-0.9621169567108154,-0.03673737496137619,-0.9593597650527954,2.340367078781128,-0.343053936958313
1.243125146273405,1.207274934663221,-2.2727427351292806,-7.169816493988037,-2.5666115283966064,-3.407268762588501,0.3008069694042206,-0.9467943906784058,-0.11443554610013962,-0.929743766784668,2.283266067504883,-0.3306785821914673
1.1822636750527742,1.0507825897956082,-2.133500689037077,-6.801808834075928,-2.6034464836120605,-3.3779003620147705,0.32875385880470276,-0.9254659414291382,-0.18823790550231934,-0.8868136405944824,2.2243552207946777,-0.30855774879455566
1.1179103592885071,0.9408537783470305,-2.0416430322862813,-6.448091506958008,-2.579662561416626,-3.3068432807922363,0.3535773754119873,-0.8991880416870117,-0.25776734948158264,-0.8290717601776123,2.162692070007324,-0.27436771988868713
1.0531585335000648,0.8600154149873529,-1.9794367981745158,-6.108177185058594,-2.5557408332824707,-3.2119839191436768,0.3750072717666626,-0.8689904808998108,-0.32283905148506165,-0.7698590159416199,2.083773136138916,-0.23573946952819824
0.9892485181204278,0.7976809720548629,-1.9363499929119197,-5.818014144897461,-2.5452256202697754,-3.1494431495666504,0.3931679427623749,-0.8356134295463562,-0.38362622261047363,-0.731760561466217,1.989300012588501,-0.18624374270439148
0.9260584882819763,0.7469414833186087,-1.9056812755889856,-5.686097621917725,-2.5704948902130127,-3.1248531341552734,0.40831053256988525,-0.7992573380470276,-0.44098782539367676,-0.7099462747573853,1.9115467071533203,-0.09369540214538574
0.8623247206356935,0.7026825803987119,-1.8823474446318733,-5.787863731384277,-2.6178884506225586,-3.1173434257507324,0.42050912976264954,-0.7593572735786438,-0.4965365529060364,-0.7057417631149292,1.8679234981536865,0.037872642278671265
0.7964585326427674,0.6617121370810257,-1.8625231717645148,-6.111907958984375,-2.6324708461761475,-3.0849854946136475,0.42966270446777344,-0.7148842215538025,-0.5516615509986877,-0.6930447220802307,1.8683419227600098,0.18004900217056274
0.7272818188876465,0.6224749080781452,-1.8439555215595491,-6.537542343139648,-2.631406307220459,-3.0247857570648193,0.435527503490448,-0.6648416519165039,-0.6068784594535828,-0.6605336666107178,1.880234718322754,0.27274149656295776
0.6546846213609998,0.584556801782399,-1.826191218384581,-6.91396951675415,-2.679676055908203,-2.939845323562622,0.4377335011959076,-0.6089091300964355,-0.6615278720855713,-0.62596595287323,1.8705058097839355,0.2766401767730713
0.5794734518584699,0.5474366596840675,-1.809877548543643,-7.1381707191467285,-2.859255075454712,-2.8630921840667725,0.4355291426181793,-0.5475834012031555,-0.7144696116447449,-0.582456111907959,1.8520419597625732,0.20558899641036987
0.5030852176941488,0.509985607553085,-1.796080157798766,-7.179769992828369,-3.2014992237091064,-2.7834715843200684,0.42768073081970215,-0.4821307957172394,-0.7646169662475586,-0.5316389203071594,1.825911283493042,0.0741262435913086
0.4269768272736618,0.4710882369334286,-1.785337372573933,-7.091251373291016,-3.590731620788574,-2.6695005893707275,0.4131098985671997,-0.41412094235420227,-0.8110758662223816,-0.477639377117157,1.8023197650909424,-0.09354144334793091
0.35237469781170083,0.4303286799725254,-1.7774000808674755,-6.922394275665283,-3.9118006229400635,-2.4876811504364014,0.3915368914604187,-0.34512755274772644,-0.8529864549636841,-0.4286615550518036,1.8187603950500488,-0.2603558897972107
0.2802568026239374,0.3884962755697391,-1.7717240889138006,-6.682853698730469,-4.049716472625732,-2.2472782135009766,0.36401820182800293,-0.27660244703292847,-0.8893716335296631,-0.3953140377998352,1.8549563884735107,-0.4519064426422119
0.21142719388066114,0.34698710178896536,-1.7679035131191725,-6.376817226409912,-4.020215034484863,-2.00309681892395,0.3324935734272003,-0.20985552668571472,-0.9194610714912415,-0.3881119191646576,1.901292324066162,-0.6753570437431335
0.14644602684012392,0.3071208740897634,-1.766160559814112,-5.990675926208496,-3.8491382598876953,-1.8554279804229736,0.2990794777870178,-0.14592313766479492,-0.9430047273635864,-0.3603740930557251,1.897449016571045,-0.9348639249801636
0.0857235094159349,0.2696170180682268,-1.7677198443847935,-5.5180344581604,-3.6642708778381348,-1.908394455909729,0.2653842270374298,-0.08561855554580688,-0.9603336453437805,-0.3432956635951996,1.798997402191162,-1.2154629230499268
0.029766007014761696,0.2337280221297915,-1.774096773989462,-4.954082012176514,-3.584890365600586,-2.1058597564697266,0.2315031886100769,-0.02976161241531372,-0.9723787903785706,-0.3112151622772217,1.676062822341919,-1.5185270309448242
-0.019682352607821495,0.19742278317486056,-1.785688830251105,-4.144655704498291,-3.6681666374206543,-2.253133773803711,0.19610483944416046,0.019681081175804138,-0.980385422706604,-0.18296708166599274,1.5362728834152222,-1.8794931173324585
-0.059436683440355534,0.1597703711494825,-1.80168176624155,-3.064199447631836,-3.6872458457946777,-2.273854970932007,0.1588105708360672,0.05940169468522072,-0.9855204820632935,-0.015393272042274475,1.4111182689666748,-2.319838523864746
-0.08727402811068076,0.12215783801748797,-1.820148763687434,-1.9301942586898804,-3.5071442127227783,-2.1282172203063965,0.12139047682285309,0.0871632769703865,-0.9887704253196716,0.17275315523147583,1.3150583505630493,-2.6808462142944336
-0.1041924039102753,0.08751109881931071,-1.8386538825415584,-1.0972795486450195,-2.9997501373291016,-1.872969627380371,0.08692546933889389,0.10400398820638657,-0.9907709956169128,0.3480567932128906,1.2126463651657104,-2.84686017036438
-0.11453092945275781,0.05943200042334994,-1.855712306886267,-0.7743713855743408,-2.195530414581299,-1.6652207374572754,0.059007879346609116,0.11428070068359375,-0.9916945099830627,0.4561745524406433,1.1113052368164062,-2.8054094314575195
-0.12312198655073815,0.04056002111781056,-1.8716613393427426,-0.8036785125732422,-1.165121078491211,-1.5857676267623901,0.04024194926023483,0.12281115353107452,-0.9916138648986816,0.4614822268486023,1.0451728105545044,-2.684976100921631
-0.13205078700567804,0.03234437470125934,-1.8871831182436272,-0.8519951701164246,-0.09790855646133423,-1.5400067567825317,0.03205719217658043,0.1316673457622528,-0.990775465965271,0.435212641954422,1.0698401927947998,-2.6312031745910645
-0.14049950771050668,0.03332559665240292,-1.9019771778690062,-0.703097403049469,0.6412643790245056,-1.4223945140838623,0.03299110382795334,0.14003771543502808,-0.9895963668823242,0.4707930088043213,1.1963269710540771,-2.6424379348754883
-0.14603058931436005,0.039773085519460114,-1.915147669825052,-0.27136489748954773,0.9764103889465332,-1.204832673072815,0.03933938592672348,0.14551213383674622,-0.9885740280151367,0.578260064125061,1.3468585014343262,-2.683682441711426
-0.1460109985348937,0.04832889412223948,-1.9261021059252605,0.39429113268852234,1.0244073867797852,-0.9476773738861084,0.04779602959752083,0.14549274742603302,-0.9882041215896606,0.7074834704399109,1.430816411972046,-2.7330942153930664
-0.13868190666759378,0.05736871566880045,-1.9345317822226513,1.1567331552505493,1.0234887599945068,-0.623444139957428,0.056786760687828064,0.13823778927326202,-0.9887697100639343,0.787268340587616,1.4903937578201294,-2.739623785018921
-0.12377585534994054,0.06736379849829117,-1.93972505424288,1.8582885265350342,1.1242786645889282,-0.2046630084514618,0.0667978897690773,0.12346004694700241,-0.9900988340377808,0.8355305790901184,1.5348803997039795,-2.661954879760742
-0.10222251973350473,0.0796952621811723,-1.940980220008068,2.425961971282959,1.37899911403656,0.27756649255752563,0.07919534295797348,0.10204458236694336,-0.9916223883628845,0.8268409967422485,1.5727906227111816,-2.4963231086730957
-0.07508737334382432,0.09558618637158131,-1.9380403234107553,2.905531167984009,1.7538045644760132,0.7755007743835449,0.09517177194356918,0.07501683384180069,-0.9926302433013916,0.7488528490066528,1.5933486223220825,-2.277496099472046
-0.04281282164248955,0.11558798634585814,-1.931332686778853,3.342237949371338,2.1486072540283203,1.2219696044921875,0.11522509157657623,0.04279974475502968,-0.9924169182777405,0.6123291850090027,1.5948498249053955,-2.059325695037842
-0.005747802365706251,0.1389183536091314,-1.921758494042284,3.744915008544922,2.4414031505584717,1.6007112264633179,0.13846968114376068,0.005747770890593529,-0.9903500080108643,0.41659924387931824,1.595372200012207,-1.8090121746063232
0.03601811906727892,0.16426457759300278,-1.9103186670498646,4.143132209777832,2.634392261505127,1.9031105041503906,0.16342079639434814,-0.03601033240556717,-0.985899031162262,0.21710282564163208,1.5969996452331543,-1.5598468780517578
0.08249739986679597,0.1906013109462865,-1.8980150399160742,4.546784400939941,2.7519712448120117,2.135749578475952,0.18880504369735718,-0.08240385353565216,-0.9785510897636414,0.025321483612060547,1.6036745309829712,-1.3363902568817139
0.13373017360128775,0.21727904497063158,-1.8857385366425687,4.965047359466553,2.829559803009033,2.3124918937683105,0.2136486917734146,-0.13333192467689514,-0.9677690267562866,-0.1605786830186844,1.6234441995620728,-1.1408277750015259
0.189818705243364,0.24422719261287096,-1.8741842825697281,5.401496410369873,2.910491704940796,2.453861951828003,0.2374633103609085,-0.18868085741996765,-0.9528959393501282,-0.3230193853378296,1.652517557144165,-0.9745942950248718
0.25078395479890214,0.27166753719505427,-1.8640258597192516,5.848459720611572,3.0069823265075684,2.5563254356384277,0.2599440813064575,-0.24816346168518066,-0.9331902265548706,-0.4590103030204773,1.7006323337554932,-0.8376990556716919
0.3166021739745238,0.3001527212416066,-1.8559213120536453,6.301270961761475,3.12530779838562,2.633958578109741,0.28097113966941833,-0.311339408159256,-0.9078121781349182,-0.5731006860733032,1.768874168395996,-0.7260074019432068
0.38715574837109223,0.33017522322976234,-1.8502451575404475,6.740279197692871,3.2495200634002686,2.744030475616455,0.3002130091190338,-0.3775562047958374,-0.8759700059890747,-0.6485865116119385,1.8572314977645874,-0.6222904920578003
0.46231359069579736,0.3621690164620001,-1.8469841505284077,7.145773410797119,3.396981954574585,2.9062585830688477,0.3171096742153168,-0.4460200071334839,-0.8369633555412292,-0.6893631219863892,1.9737910032272339,-0.534176230430603
0.5418187661903846,0.39659218387673795,-1.8460304402688006,7.50830078125,3.554687023162842,3.1251354217529297,0.33095163106918335,-0.5156950950622559,-0.7902718186378479,-0.7165107727050781,2.1018919944763184,-0.4544181227684021
0.6253198405018987,0.43388427013409386,-1.8474397050387563,7.813540935516357,3.7186779975891113,3.3832504749298096,0.340848833322525,-0.585356593132019,-0.7356491684913635,-0.7296428680419922,2.232466697692871,-0.3786696791648865
0.7124436846815234,0.4743318642843243,-1.8514057718100314,8.059725761413574,3.8428657054901123,3.681197166442871,0.34564879536628723,-0.6536850333213806,-0.6732182502746582,-0.7289649248123169,2.330671787261963,-0.3129420280456543
0.8027012886917206,0.5180945225080676,-1.858492459393287,8.244179725646973,3.897585153579712,3.9838783740997314,0.34406614303588867,-0.7192354798316956,-0.603588342666626,-0.7339282631874084,2.4072999954223633,-0.24396109580993652
0.8955912581250515,0.5658528857720313,-1.869924006152634,8.392840385437012,3.9084935188293457,4.2798333168029785,0.3351157307624817,-0.7805787920951843,-0.5276307463645935,-0.778185248374939,2.483581781387329,-0.19058525562286377
0.9906860745954008,0.6198879725582409,-1.887970506790093,8.50541877746582,3.9467084407806396,4.5579833984375,0.3184248208999634,-0.8364022374153137,-0.44613566994667053,-0.8467299342155457,2.578528642654419,-0.15795981884002686
1.0873307312814604,0.6848407392616527,-1.9172103261521651,8.599407196044922,3.9573709964752197,4.781276702880859,0.2940410375595093,-0.8853892683982849,-0.3600359261035919,-0.9200176000595093,2.6741466522216797,-0.14010143280029297
1.1846719843876135,0.7701090272859173,-1.9676996211674096,8.714265823364258,3.8799142837524414,4.940921306610107,0.2621947228908539,-0.9263755679130554,-0.27033731341362,-0.9880248308181763,2.7459709644317627,-0.1381862759590149
1.281086255354505,0.8985350460267618,-2.0634837942734237,8.878569602966309,3.6554489135742188,5.024106502532959,0.22351589798927307,-0.9583267569541931,-0.17790555953979492,-1.0379843711853027,2.802229404449463,-0.15195898711681366
1.371972556503186,1.1350631540165101,-2.2708404348699545,9.098685264587402,3.3273375034332275,5.053881645202637,0.17906032502651215,-0.9802995920181274,-0.08336663246154785,-1.0693343877792358,2.8628833293914795,-0.18077832460403442
1.4395687074868178,1.6689248177486222,-2.7790920572112268,9.330619812011719,3.044464111328125,5.037376403808594,0.130221888422966,-0.9914020299911499,0.012819650582969189,-1.085879921913147,2.9227375984191895,-0.22001874446868896
1.435372790060142,2.519007341026951,2.676914791785762,9.51088809967041,2.8305070400238037,4.946401596069336,0.0787290707230568,-0.9908442497253418,0.10967813432216644,-1.0767149925231934,2.9550623893737793,-0.25672709941864014
1.3619006549436357,3.014552618805539,2.2025811134167896,9.615489959716797,2.6799793243408203,4.779967308044434,0.026274723932147026,-0.9782605171203613,0.20570853352546692,-1.0565787553787231,2.9283337593078613,-0.2745715379714966
1.265803634289463,-3.056416493601822,2.01046370120271,9.654708862304688,2.5247106552124023,4.534142971038818,-0.02554628625512123,-0.9538491368293762,0.2991972863674164,-1.0345276594161987,2.878242015838623,-0.29684749245643616
1.1637277917335502,-2.950334951729761,1.9238433798697643,9.645776748657227,2.4169251918792725,4.228705406188965,-0.07526171207427979,-0.9182853698730469,0.38869959115982056,-1.0095161199569702,2.7983362674713135,-0.3225833773612976
1.0606372607650465,-2.888510027441898,1.8818208400259906,9.568044662475586,2.389404296875,3.92134428024292,-0.12226924300193787,-0.8726668357849121,0.47276079654693604,-0.9779505133628845,2.690324306488037,-0.3279702663421631
0.9588767450963068,-2.8472301551289543,1.861539967770776,9.356388092041016,2.4022841453552246,3.638068437576294,-0.16666223108768463,-0.8185468316078186,0.549731969833374,-0.9667759537696838,2.5849499702453613,-0.2754703760147095
0.8606340031225624,-2.816118482575476,1.8525612898635349,8.939284324645996,2.3833422660827637,3.389979362487793,-0.20846855640411377,-0.7582560777664185,0.6177288293838501,-0.9260377883911133,2.481553077697754,-0.1436535120010376
0.7676162813483146,-2.7894985611217686,1.8489991198116567,8.377596855163574,2.4060308933258057,3.2437968254089355,-0.2481531947851181,-0.6944219470024109,0.6754242777824402,-0.833923876285553,2.3414251804351807,-0.016885578632354736
0.6803408571022268,-2.7642424496340876,1.8475023727018094,7.802151679992676,2.43174409866333,3.1739583015441895,-0.28642410039901733,-0.6290580034255981,0.7226663827896118,-0.7422928810119629,2.1985466480255127,0.03830444812774658
0.5984115832447536,-2.739234278186083,1.8469937344684537,7.2854838371276855,2.4910314083099365,3.1005148887634277,-0.323543518781662,-0.5633307695388794,0.760248601436615,-0.6864205002784729,2.0629796981811523,0.042012691497802734
0.5213791748120854,-2.714678074505104,1.8477986488845202,6.838074684143066,2.4750139713287354,2.949392080307007,-0.35904884338378906,-0.49807652831077576,0.7893058657646179,-0.6637020707130432,1.8996573686599731,0.044800519943237305
0.4489920125055865,-2.6913063377681676,1.8506697465848914,6.449215888977051,2.46958589553833,2.70066499710083,-0.3920862376689911,-0.43405768275260925,0.8110871911048889,-0.7263830900192261,1.701940894126892,0.05417776107788086
0.3816519339452155,-2.6680075373490344,1.8565226856124917,6.036030292510986,2.662942886352539,2.301821231842041,-0.4232650101184845,-0.37245404720306396,0.8259082436561584,-0.8505234122276306,1.528643012046814,0.07962441444396973
0.3208444298804441,-2.6429328838636166,1.8659217615451493,5.488492012023926,2.994123935699463,1.8015732765197754,-0.45384350419044495,-0.31536799669265747,0.8334077596664429,-0.9501328468322754,1.3408349752426147,0.19475966691970825
0.2678443233523376,-2.6141689441578575,1.8780360492396013,4.853955268859863,3.443387746810913,1.3810911178588867,-0.48536261916160583,-0.2646532356739044,0.8332956433296204,-0.9838146567344666,1.2217607498168945,0.3440724015235901
0.22217778165967042,-2.5810387576264446,1.891372772923151,4.287599563598633,3.7659752368927,1.1476637125015259,-0.5185872316360474,-0.22035439312458038,0.8261423110961914,-0.9091319441795349,1.1660940647125244,0.45773208141326904
0.18172699743456583,-2.545942937802296,1.9044313898729324,3.8784542083740234,3.69838809967041,1.1466608047485352,-0.5518080592155457,-0.18072840571403503,0.814153254032135,-0.7587084174156189,1.0793489217758179,0.561075747013092
0.14385976254140526,-2.5131836987858156,1.916367817958081,3.6766886711120605,3.154975652694702,1.2826467752456665,-0.5817859172821045,-0.1433640569448471,0.8006073832511902,-0.6123212575912476,1.0088731050491333,0.6462615728378296
0.10598393715432114,-2.4877305468929753,1.9274467191632956,3.7127246856689453,2.1428771018981934,1.4799343347549438,-0.6048435568809509,-0.10578563809394836,0.7892869710922241,-0.5464627146720886,0.931286096572876,0.7430769205093384
0.06627330979189561,-2.4732720689218315,1.938908591192813,3.9513821601867676,0.9431436657905579,1.567404866218567,-0.6183083653450012,-0.06622480601072311,0.7831403613090515,-0.6573569178581238,0.8698441982269287,0.8468796014785767
0.024482246328604223,-2.4695482849815504,1.9525238664541869,4.257293701171875,-0.03558012470602989,1.4681440591812134,-0.6224006414413452,-0.024479800835251808,0.7823160886764526,-0.8973596692085266,0.8477525115013123,0.9205647706985474
-0.018369920282064287,-2.4731752496445676,1.9689263216038715,4.43769645690918,-0.6149806380271912,1.2743620872497559,-0.6196402907371521,0.018368886783719063,0.7846712470054626,-1.1401865482330322,0.8007839322090149,0.9958617091178894
-0.060103884932996385,-2.4787497147068605,1.9869856991368269,4.281126976013184,-0.5489765405654907,1.0236605405807495,-0.6142491102218628,0.06006770581007004,0.7868226766586304,-1.3285914659500122,0.7869476675987244,1.127026081085205
-0.09740126742190033,-2.479791315393702,2.005103869754319,3.7557740211486816,0.100261390209198,0.6976235508918762,-0.6116260290145874,0.09724733233451843,0.7851472496986389,-1.506934642791748,0.8138549327850342,1.3248989582061768
-0.12724411539052638,-2.4724356411592536,2.022216856551705,2.992976665496826,0.9948803782463074,0.29458266496658325,-0.61531001329422,0.1269010305404663,0.7780038714408875,-1.6759345531463623,0.8179689645767212,1.5537832975387573
-0.14761095029169,-2.455870064930025,2.0378416648290383,2.102017879486084,1.8663747310638428,-0.1514052003622055,-0.6263461709022522,0.14707548916339874,0.7655450105667114,-1.8075833320617676,0.804416835308075,1.766681432723999
-0.1583626238999246,-2.4317714046513386,2.051444501228404,1.2843581438064575,2.46737003326416,-0.5115124583244324,-0.6435433626174927,0.1577015370130539,0.7489873766899109,-1.8238943815231323,0.8008403182029724,1.8833367824554443
-0.1613067031725437,-2.404478463346812,2.062741906456664,0.6496901512145996,2.543288469314575,-0.7475928664207458,-0.6634283065795898,0.16060808300971985,0.7307994961738586,-1.7338647842407227,0.7907316088676453,1.913045048713684
-0.15859313143053255,-2.379774432182856,2.071527119180773,0.15855073928833008,2.0324928760528564,-0.8722125887870789,-0.6815760731697083,0.15792915225028992,0.7145015597343445,-1.599414587020874,0.7675316333770752,1.9464938640594482
-0.15209270620917456,-2.3627847254552985,2.0779231770839504,-0.1924528330564499,1.1245101690292358,-0.9316905736923218,-0.6943225264549255,0.15150700509548187,0.7035349011421204,-1.4738138914108276,0.7492344975471497,1.9633808135986328
-0.14316570857768135,-2.355970389207454,2.082576407807143,-0.4094158113002777,0.10243839025497437,-0.9720116853713989,-0.7000295519828796,0.14267714321613312,0.6997158527374268,-1.3760662078857422,0.7528001666069031,1.8870151042938232
-0.1325724576255337,-2.3588427195182504,2.0861573813457204,-0.5886178016662598,-0.732721209526062,-1.022451639175415,-0.6990432739257812,0.1321844607591629,0.7027555704116821,-1.3341751098632812,0.788637638092041,1.7715483903884888
-0.11980548369931689,-2.3685922734723523,2.088758550217449,-0.8888146877288818,-1.2320681810379028,-1.1386722326278687,-0.6932807564735413,0.11951908469200134,0.7106877565383911,-1.3505425453186035,0.8398467302322388,1.6941736936569214
-0.1030510838758521,-2.3818497930448745,2.0895811916984957,-1.4318727254867554,-1.390024185180664,-1.2991894483566284,-0.6850813627243042,0.10286878794431686,0.7211670279502869,-1.3689959049224854,0.8782713413238525,1.7083375453948975
-0.08041798000933595,-2.3956666351459037,2.0874277587296404,-2.171518564224243,-1.3039565086364746,-1.4748351573944092,-0.6764591932296753,0.08033133298158646,0.7320864200592041,-1.3497556447982788,0.9279694557189941,1.7389373779296875
-0.05071300694018423,-2.4083146629833254,2.0815968705172474,-2.9902942180633545,-1.1488497257232666,-1.6621326208114624,-0.6684482097625732,0.05069127306342125,0.7420291900634766,-1.3081295490264893,0.9710372090339661,1.7072199583053589
-0.013446184348313527,-2.419917393947021,2.072188173395404,-3.7953293323516846,-1.1241706609725952,-1.8834326267242432,-0.6605833768844604,0.013445778749883175,0.7506320476531982,-1.2717437744140625,0.9928103089332581,1.6221246719360352
0.03143054311398592,-2.4316793337996603,2.060081756275805,-4.5275959968566895,-1.2630207538604736,-2.175156354904175,-0.6514460444450378,-0.031425368040800095,0.7580437064170837,-1.2779819965362549,1.0327833890914917,1.469968318939209
0.08379370376249125,-2.4448896990866276,2.0465013183469742,-5.16892147064209,-1.5367404222488403,-2.5179057121276855,-0.6394409537315369,-0.0836956799030304,0.7642709612846375,-1.3050627708435059,1.0980236530303955,1.2584949731826782
0.14307663779064625,-2.460439491874097,2.0325764692401984,-5.692923069000244,-1.8752652406692505,-2.866628885269165,-0.6232550740242004,-0.14258898794651031,0.768909215927124,-1.3059442043304443,1.1862138509750366,0.9883385896682739
0.20845080020633,-2.4785870560779353,2.0193652231382755,-6.108145236968994,-2.1970722675323486,-3.222914457321167,-0.6021648645401001,-0.20694448053836823,0.771084725856781,-1.2808308601379395,1.288640022277832,0.6936370134353638
0.2792322222752399,-2.499370372776552,2.0080969060639777,-6.414682388305664,-2.477463960647583,-3.624483585357666,-0.5757763981819153,-0.27561768889427185,0.769750714302063,-1.2655473947525024,1.3879681825637817,0.40625929832458496
0.3548108271834356,-2.522863945362329,2.0002873554026173,-6.616208553314209,-2.674510955810547,-4.063298225402832,-0.543873131275177,-0.34741297364234924,0.7638758420944214,-1.2679860591888428,1.4952553510665894,0.1487523317337036
0.4342618415113111,-2.5489608725196233,1.9971182515548065,-6.733985424041748,-2.7448346614837646,-4.46287202835083,-0.5067023038864136,-0.42074087262153625,0.7524827122688293,-1.2445948123931885,1.6189219951629639,-0.06397557258605957
0.5165129342729093,-2.57701323580018,1.9988744155424285,-6.8252668380737305,-2.6588480472564697,-4.745451927185059,-0.4652601182460785,-0.493850976228714,0.7346049547195435,-1.1922869682312012,1.780822992324829,-0.22438156604766846
0.600694816015687,-2.605989338840217,2.005100960770026,-6.936328887939453,-2.447739839553833,-4.912533283233643,-0.4210180640220642,-0.5652157664299011,0.7094190120697021,-1.0959041118621826,1.9669643640518188,-0.3334118723869324
0.6862490757833495,-2.6358437572334306,2.015610439769587,-7.022948265075684,-2.252436876296997,-5.021787166595459,-0.37479397654533386,-0.6336398124694824,0.6767790913581848,-0.9691543579101562,2.0903658866882324,-0.40294498205184937
0.7724310797716222,-2.6685830674356477,2.031352266700226,-7.029843330383301,-2.2001237869262695,-5.120938777923584,-0.3262847065925598,-0.6978784799575806,0.6375763416290283,-0.8796173930168152,2.1548945903778076,-0.45476096868515015
0.858289552933936,-2.7080506175092656,2.0546368647727142,-6.953508377075195,-2.294717311859131,-5.239688873291016,-0.27462515234947205,-0.7567254900932312,0.5932517051696777,-0.8443019390106201,2.2010157108306885,-0.49648046493530273
0.942907365686991,-2.759075917947249,2.0891614743916107,-6.825145244598389,-2.4859583377838135,-5.380081653594971,-0.2192649394273758,-0.8092694282531738,0.5449825525283813,-0.8443032503128052,2.2377820014953613,-0.5217586755752563
1.0251978523184344,-2.8276124054672636,2.1400152333964733,-6.67094612121582,-2.723705291748047,-5.486714839935303,-0.16026967763900757,-0.8548168540000916,0.49355995655059814,-0.8344202637672424,2.264652729034424,-0.5392448902130127
1.1036587610411484,-2.9206876697007353,2.213854610879733,-6.521938800811768,-2.9362001419067383,-5.52303409576416,-0.09867343306541443,-0.892861008644104,0.43938860297203064,-0.8140920400619507,2.287743330001831,-0.5425686836242676
1.176364842963847,-3.0479217221669397,2.3204628633387663,-6.388061046600342,-3.086085081100464,-5.5055155754089355,-0.035943593829870224,-0.9232152104377747,0.38259899616241455,-0.7975831031799316,2.3068058490753174,-0.5370180010795593
1.240398036059525,3.059479059741833,2.474623529681221,-6.2790045738220215,-3.194674015045166,-5.453865051269531,0.026609361171722412,-0.9459131956100464,0.32332682609558105,-0.7933483123779297,2.3170833587646484,-0.515953779220581
1.2908841518756529,2.817586415715728,2.694012302750373,-6.161253929138184,-3.2750678062438965,-5.377599239349365,0.08795566856861115,-0.9610797166824341,0.2618963420391083,-0.7998545169830322,2.3146867752075195,-0.49680542945861816
1.320569476467393,2.504421390172228,2.9840991732283566,-6.01234769821167,-3.300691843032837,-5.30958890914917,0.14731772243976593,-0.9688562750816345,0.19903598725795746,-0.809961199760437,2.2959892749786377,-0.48793062567710876
1.3231340081308414,2.156556767187744,-2.9743980841526465,-5.856339454650879,-3.273458957672119,-5.264712333679199,0.20427222549915314,-0.9694881439208984,0.13552090525627136,-0.8128843307495117,2.257192611694336,-0.46520233154296875
1.2992083897968103,1.8419345528059337,-2.6827276578115673,-5.722538948059082,-3.2105908393859863,-5.212032794952393,0.258461594581604,-0.9633461236953735,0.07184816896915436,-0.7983328104019165,2.210477352142334,-0.42083191871643066
1.2560908234070869,1.5974713163248848,-2.4605431480781235,-5.6602911949157715,-3.090054750442505,-5.138242244720459,0.3094263970851898,-0.9508875608444214,0.008255904540419579,-0.7706996202468872,2.163167953491211,-0.3623971939086914
1.2011426522978261,1.4168979451861514,-2.300972733939516,-5.69811487197876,-2.9181406497955322,-5.0945281982421875,0.3570224940776825,-0.9324524998664856,-0.055383119732141495,-0.7696659564971924,2.1188690662384033,-0.2769228219985962
1.1385016723722394,1.2818725615157749,-2.185161647667063,-5.840299129486084,-2.7266674041748047,-5.0972771644592285,0.40159040689468384,-0.9080067873001099,-0.11936917155981064,-0.7987462282180786,2.0941638946533203,-0.17056310176849365
1.0701519791703427,1.1781048437038908,-2.098636707760315,-6.027754306793213,-2.5430500507354736,-5.143601894378662,0.4434550702571869,-0.877273440361023,-0.1836811602115631,-0.8171887397766113,2.077880859375,-0.07861743867397308
0.9971499215771671,1.0964823284995717,-2.032276411486967,-6.230466842651367,-2.3536181449890137,-5.213767051696777,0.48278775811195374,-0.8399276733398438,-0.24786564707756042,-0.8081510066986084,2.0633621215820312,-0.011655867099761963
0.9200864160440716,1.0311926742524962,-1.9801735461108303,-6.450417518615723,-2.154752731323242,-5.3193182945251465,0.5196817517280579,-0.7956539988517761,-0.31123271584510803,-0.7830942869186401,2.0508875846862793,0.045043110847473145
0.839121687965188,0.9779838957779492,-1.9384267348338449,-6.693634986877441,-2.0508244037628174,-5.453265190124512,0.5541175007820129,-0.7440565824508667,-0.3732738196849823,-0.732904851436615,2.0311660766601562,0.1093883216381073
0.7543060182251865,0.9324305805380945,-1.9040710554056046,-6.978614330291748,-2.1588337421417236,-5.581157684326172,0.5852351784706116,-0.6847831010818481,-0.4342484474182129,-0.6428372263908386,2.0249321460723877,0.163725346326828
0.6661163218089137,0.8903250834982346,-1.8755484888484715,-7.172525882720947,-2.566462755203247,-5.657003402709961,0.6111159920692444,-0.6179372072219849,-0.49466240406036377,-0.5432907342910767,2.040834426879883,0.168307363986969
0.5766684991402249,0.8479909744837906,-1.852976323187947,-7.087757110595703,-3.2740981578826904,-5.581728935241699,0.6286734342575073,-0.545234203338623,-0.5545173287391663,-0.4143943190574646,2.042945384979248,0.049283504486083984
0.4894578277873974,0.8027824218356929,-1.836943672107517,-6.688514709472656,-4.113156318664551,-5.312442779541016,0.6348382830619812,-0.47014743089675903,-0.613140881061554,-0.2698328495025635,2.0162289142608643,-0.17116093635559082
0.40765331563746493,0.7533139586546045,-1.8274187708748726,-6.110550880432129,-4.907858848571777,-4.9192423820495605,0.6280036568641663,-0.3964560329914093,-0.6696522235870361,-0.13779985904693604,1.977510690689087,-0.38588982820510864
0.3326121023989325,0.6990544517890068,-1.8236752438749286,-5.543153285980225,-5.61869478225708,-4.5040411949157715,0.6082260012626648,-0.3265130817890167,-0.7234986424446106,-0.026347458362579346,1.9191949367523193,-0.5438963770866394
0.26404056876413917,0.6397650366248179,-1.8242403922562263,-5.129118919372559,-6.207793235778809,-4.0657429695129395,0.5763166546821594,-0.2609831988811493,-0.7744331955909729,0.07888036966323853,1.8286406993865967,-0.6555594205856323
0.2007602647952693,0.576466504759772,-1.8271327310741927,-4.922386169433594,-6.486380100250244,-3.606844425201416,0.5341174006462097,-0.19941438734531403,-0.8215548992156982,0.1779797077178955,1.7570773363113403,-0.7729427814483643
0.14131408030244239,0.5122344959368671,-1.8308536632980776,-4.8409423828125,-6.401131629943848,-3.1561784744262695,0.48524048924446106,-0.1408442109823227,-0.8629626631736755,0.29626888036727905,1.6782435178756714,-0.947507917881012
0.08499438935958245,0.45042666009963866,-1.8348300517202107,-4.731804370880127,-5.958341598510742,-2.7483136653900146,0.43377813696861267,-0.08489209413528442,-0.8970116376876831,0.37490710616111755,1.6341016292572021,-1.218283772468567
0.032331954594455245,0.39434698472834195,-1.8395148728216846,-4.436246395111084,-5.267460823059082,-2.4117794036865234,0.3840045630931854,-0.03232632204890251,-0.9227651357650757,0.4183024764060974,1.642067551612854,-1.5976663827896118
-0.015212796476467666,0.34507093464019467,-1.8455107801918218,-3.9501428604125977,-4.55880880355835,-2.134873628616333,0.33822429180145264,0.015212209895253181,-0.9409425854682922,0.4890156388282776,1.6061714887619019,-2.0275022983551025
-0.05628163949388944,0.3029322679639868,-1.8531108759214454,-3.3159141540527344,-3.7736692428588867,-1.9117640256881714,0.2978478670120239,0.05625193193554878,-0.9529545307159424,0.5464208722114563,1.5430521965026855,-2.4359309673309326
-0.08977038573985763,0.2687926855028724,-1.8622202987768406,-2.564415454864502,-2.8946614265441895,-1.7124714851379395,0.2644983232021332,0.08964986354112625,-0.9602101445198059,0.5536168813705444,1.530055284500122,-2.771692991256714
-0.11433621646235864,0.24304776134244052,-1.8726682390131881,-1.6242319345474243,-2.028912305831909,-1.536162257194519,0.23909057676792145,0.11408726125955582,-0.9642716646194458,0.5262139439582825,1.5426967144012451,-3.0502548217773438
-0.12825133948943737,0.22504017225646433,-1.8844325690770771,-0.525817334651947,-1.2876685857772827,-1.3725006580352783,0.22131283581256866,0.12790003418922424,-0.9667792916297913,0.49534666538238525,1.555922508239746,-3.2462639808654785
-0.13096087530535158,0.2136555662824168,-1.8972261672405981,0.5305691361427307,-0.6623338460922241,-1.2176517248153687,0.21021808683872223,0.13058684766292572,-0.9688939452171326,0.4908163845539093,1.548154592514038,-3.28518009185791
-0.12378595700475968,0.20826647428988262,-1.9106729839138947,1.3909410238265991,-0.07360731810331345,-1.0836215019226074,0.2051820456981659,0.12347006797790527,-0.9709044694900513,0.49096962809562683,1.5357401371002197,-3.1467714309692383
-0.10914907533745409,0.20895004756349117,-1.9241577436380508,1.9845404624938965,0.5241016745567322,-0.9137629270553589,0.20619849860668182,0.1089324802160263,-0.9724278450012207,0.4667293131351471,1.56060791015625,-2.8915247917175293
-0.08947205168022235,0.21596928135441587,-1.9364699743387717,2.3423917293548584,1.1192563772201538,-0.6342878937721252,0.21343712508678436,0.08935272693634033,-0.9728621244430542,0.48501864075660706,1.5989559888839722,-2.5908889770507812
-0.06619081061212685,0.22929677150085528,-1.9464095860896324,2.615903854370117,1.6912235021591187,-0.26357296109199524,0.22679503262043,0.0661424919962883,-0.9716939926147461,0.5485955476760864,1.6058392524719238,-2.3216867446899414
-0.039470729548151076,0.2486195782391404,-1.95355367655139,2.8991031646728516,2.22778582572937,0.1425052136182785,0.2458745688199997,0.03946048021316528,-0.9684981107711792,0.5872399806976318,1.579710602760315,-2.1109695434570312
-0.00907555530443172,0.27319592245094315,-1.958013354864933,3.185343027114868,2.6847848892211914,0.5597101449966431,0.2697990834712982,0.009075431153178215,-0.9628738760948181,0.5838080644607544,1.5509679317474365,-1.9066176414489746
0.025180743444955807,0.3020540784089944,-1.9601037148402864,3.480565309524536,3.056922674179077,0.9737536907196045,0.29738759994506836,-0.025178082287311554,-0.9544247984886169,0.5408843755722046,1.524781346321106,-1.6847810745239258
0.06351318477790786,0.33412072009884475,-1.9603442998067673,3.794987440109253,3.3239214420318604,1.3669692277908325,0.32727742195129395,-0.06347049027681351,-0.9427942633628845,0.4476400911808014,1.5169464349746704,-1.4754490852355957
0.10628245394117311,0.3683987878328392,-1.9594106583439055,4.150112152099609,3.516737222671509,1.7369003295898438,0.3580900728702545,-0.1060824766755104,-0.9276410937309265,0.3208954930305481,1.5359225273132324,-1.2850358486175537
0.15383139457447295,0.40413803092648315,-1.9580737609284968,4.533980369567871,3.6340489387512207,2.0790300369262695,0.38858285546302795,-0.1532253921031952,-0.9085842370986938,0.19094586372375488,1.563244342803955,-1.1196140050888062
0.20645071710633525,0.44074061873828085,-1.9570694340546932,4.949235916137695,3.693971633911133,2.403083086013794,0.4175502061843872,-0.2049872875213623,-0.8852299451828003,0.06317788362503052,1.6004798412322998,-0.9708186388015747
0.26423290839942537,0.477887618938192,-1.9570671255206609,5.377220630645752,3.7007877826690674,2.708242654800415,0.4439426362514496,-0.26116886734962463,-0.8571497797966003,-0.06363260746002197,1.6588128805160522,-0.8381779789924622
0.3272209392188342,0.5153890212671834,-1.9585922422610025,5.796362400054932,3.687769651412964,3.025634527206421,0.4667211174964905,-0.32141268253326416,-0.8239328265190125,-0.18505921959877014,1.7461105585098267,-0.716701328754425
0.39524815175174244,0.553723087421092,-1.9618685368261548,6.177400588989258,3.7315640449523926,3.3631222248077393,0.48531457781791687,-0.38503721356391907,-0.78499436378479,-0.27071502804756165,1.8459746837615967,-0.6119019985198975
0.4679688295788737,0.593798127551797,-1.9670345778598743,6.4959492683410645,3.8264482021331787,3.725039482116699,0.4993577301502228,-0.45107442140579224,-0.7397118806838989,-0.34304672479629517,1.9454591274261475,-0.5116461515426636
0.5448271094954809,0.6363329275778481,-1.9741924204088508,6.725161552429199,3.962737798690796,4.097170352935791,0.5082127451896667,-0.5182702541351318,-0.6878341436386108,-0.422321081161499,2.052755117416382,-0.40783846378326416
0.6250988062909533,0.6819921650389033,-1.9834821791364474,6.858885288238525,4.113767147064209,4.482909679412842,0.5111467242240906,-0.5851774215698242,-0.6295207738876343,-0.48851799964904785,2.1460752487182617,-0.3085438013076782
0.70815190599768,0.7312012378959999,-1.9950945717561197,6.907205581665039,4.262621879577637,4.882880687713623,0.5072104930877686,-0.6504311561584473,-0.5653996467590332,-0.5463799238204956,2.2270760536193848,-0.22636359930038452
0.7935032012755824,0.784572501061399,-2.009505348229257,6.891092777252197,4.4120330810546875,5.285465240478516,0.4955214262008667,-0.7128146290779114,-0.4963403642177582,-0.5962600111961365,2.3079988956451416,-0.1745886206626892
0.8808382608596488,0.8431832781964711,-2.0278032957131575,6.8361053466796875,4.557103157043457,5.690969944000244,0.4753188192844391,-0.7712727189064026,-0.4233322739601135,-0.6517105102539062,2.381441354751587,-0.14647668600082397
0.9698288234900974,0.9089287903516288,-2.0521033320386297,6.758731365203857,4.668658256530762,6.0652079582214355,0.44604557752609253,-0.8247889280319214,-0.3475148677825928,-0.7082679271697998,2.4543514251708984,-0.14308571815490723
1.0599855111544005,0.9854755501658499,-2.0866275592851533,6.684953212738037,4.731959819793701,6.402029991149902,0.40750229358673096,-0.872348427772522,-0.2700924575328827,-0.7613232135772705,2.5164220333099365,-0.1518893539905548
1.1507333847422274,1.080095082895059,-2.139191776094024,6.62481164932251,4.742025375366211,6.714219093322754,0.35969656705856323,-0.9130632877349854,-0.1921820044517517,-0.808884859085083,2.5798723697662354,-0.17065680027008057
1.2407843920912134,1.208207871972029,-2.22609471113238,6.576271057128906,4.649853229522705,6.988246440887451,0.3029848337173462,-0.9460384845733643,-0.11494060605764389,-0.8475558161735535,2.6426022052764893,-0.1849251389503479
1.3270055071358056,1.4069896245290043,-2.3850076735136363,6.531164646148682,4.565216541290283,7.228105068206787,0.23815159499645233,-0.9704298973083496,-0.03936353325843811,-0.8752976655960083,2.7177443504333496,-0.20129811763763428
1.4003335725804629,1.770698748109527,-2.709894302068723,6.479827404022217,4.470524311065674,7.444291114807129,0.16625957190990448,-0.9855063557624817,0.0336855910718441,-0.876266360282898,2.7845330238342285,-0.23575782775878906
1.4342499010662693,2.433680019789117,2.9471070535572257,6.463175296783447,4.209410190582275,7.628248691558838,0.08851408958435059,-0.9906920194625854,0.10341570526361465,-0.8859842419624329,2.8098599910736084,-0.26734089851379395
1.4003010929852888,3.1015111837906884,2.313408919050854,6.463521480560303,3.974745750427246,7.6955389976501465,0.006798809859901667,-0.9855008721351624,0.16953392326831818,-0.9416133165359497,2.8195462226867676,-0.28296780586242676
1.3247277474624581,-2.823438644614949,1.9876582114424801,6.4035258293151855,3.841155529022217,7.593548774719238,-0.07619930803775787,-0.9698776006698608,0.23136837780475616,-0.9986603856086731,2.7935469150543213,-0.26594480872154236
1.2362051863073142,-2.6395532051705586,1.835817886009065,6.276277542114258,3.777893304824829,7.347018718719482,-0.1580226719379425,-0.9445446729660034,0.2878616452217102,-1.0377476215362549,2.671595573425293,-0.23431861400604248
1.145498840216567,-2.5314878410362094,1.760002530034568,6.108919620513916,3.699596643447876,6.931051254272461,-0.23639607429504395,-0.9109160304069519,0.3381555676460266,-1.0953606367111206,2.5092434883117676,-0.21401003003120422
1.0572023049960675,-2.461619124915664,1.7220833100756456,5.885114669799805,3.446014642715454,6.376168727874756,-0.3089226186275482,-0.8709843754768372,0.3820379674434662,-1.112967610359192,2.3036930561065674,-0.15124884247779846
0.9737457275070368,-2.4136297737058983,1.7039994360703934,5.548247337341309,3.0488150119781494,5.864771842956543,-0.37406355142593384,-0.8269973993301392,0.41970399022102356,-1.0347193479537964,2.0637834072113037,-0.031367987394332886
0.8958027847881365,-2.3767015287825024,1.694283193769169,5.053889751434326,2.7837436199188232,5.564249515533447,-0.4327118396759033,-0.7807109951972961,0.450833261013031,-0.8716247081756592,1.9205732345581055,0.08833593130111694
0.8229420654553062,-2.342166016232554,1.6853791432230316,4.4234724044799805,2.788302421569824,5.524886131286621,-0.48757854104042053,-0.7331498265266418,0.4740869402885437,-0.6701515913009644,1.8665573596954346,0.14947867393493652
0.7538515112448536,-2.304741700313496,1.6734572910753676,3.77620530128479,3.0091779232025146,5.687664031982422,-0.5413529872894287,-0.6844518184661865,0.4883263111114502,-0.5111677646636963,1.8081090450286865,0.13890144228935242
0.6869894228013063,-2.263005452025053,1.658236446671393,3.2425620555877686,3.3070216178894043,5.874341011047363,-0.5952070355415344,-0.6342124342918396,0.49346044659614563,-0.45879387855529785,1.7610281705856323,0.07084000110626221
0.621274400458235,-2.2195222356494737,1.642481409173966,2.9948368072509766,3.3960139751434326,5.91304349899292,-0.6479519605636597,-0.5820719003677368,0.49127456545829773,-0.5858127474784851,1.6756691932678223,-0.030214965343475342
0.5560113167714344,-2.1808291253217087,1.6312901327722626,3.2253618240356445,3.0174832344055176,5.657652378082275,-0.6961661577224731,-0.5278025269508362,0.4865976572036743,-0.8941963911056519,1.5308847427368164,-0.16144812107086182
0.4912955135495234,-2.153286749271956,1.6300455069977513,3.868201971054077,2.3111026287078857,5.1128129959106445,-0.7363221645355225,-0.4717685580253601,0.48504021763801575,-1.2273619174957275,1.3170139789581299,-0.28679803013801575
0.42803410598276753,-2.138475531198314,1.640079680848939,4.450834274291992,1.5360661745071411,4.506547927856445,-0.7670848965644836,-0.4150830805301666,0.4891693592071533,-1.4282276630401611,1.0915205478668213,-0.24650898575782776
0.36756597511256267,-2.1322291645415747,1.657111513500895,4.579102516174316,1.0744708776474,4.025750160217285,-0.7899512648582458,-0.35934504866600037,0.4968377649784088,-1.4980583190917969,0.9820258021354675,0.0037876665592193604
0.31113466705459353,-2.127797851097209,1.6753918724479309,4.2519612312316895,1.0851900577545166,3.698216438293457,-0.8080883622169495,-0.3061390221118927,0.5032615065574646,-1.5343799591064453,0.9276752471923828,0.3147163391113281
0.2598755395513912,-2.1193056208108096,1.6911051699556092,3.6612091064453125,1.5224342346191406,3.418682813644409,-0.8246506452560425,-0.25696027278900146,0.5039077401161194,-1.6286728382110596,0.889177680015564,0.5362381339073181
0.21427710304624026,-2.104187480415068,1.703451629532929,3.0885870456695557,2.065840005874634,3.131807565689087,-0.8413951992988586,-0.21264111995697021,0.49682822823524475,-1.7618764638900757,0.8133643269538879,0.6460245847702026
0.17389749254074166,-2.0836008666272,1.713746598744058,2.712761878967285,2.3985073566436768,2.8357927799224854,-0.8582299947738647,-0.17302235960960388,0.48322343826293945,-1.9067542552947998,0.7198973894119263,0.6861643195152283
0.13740760702453458,-2.0608726389902423,1.7242977725039426,2.646765947341919,2.409308433532715,2.538888454437256,-0.8739807605743408,-0.13697561621665955,0.46625667810440063,-2.038861036300659,0.6716436147689819,0.6866668462753296
0.10361673965035041,-2.0401381807693606,1.7376378457708432,2.8184914588928223,1.9880934953689575,2.2168500423431396,-0.8870826363563538,-0.10343142598867416,0.44987350702285767,-2.1817498207092285,0.6136547923088074,0.7245038747787476
0.0723513599602675,-2.0254897469061874,1.7548257509796317,3.0022311210632324,1.1963255405426025,1.830911636352539,-0.8960453867912292,-0.07228825241327286,0.4380379319190979,-2.3194546699523926,0.5597149729728699,0.9053152203559875
0.044672090627858006,-2.0191556700818976,1.7750352846564987,2.990870714187622,0.3161395192146301,1.371256709098816,-0.9002603888511658,-0.044657234102487564,0.4330551028251648,-2.4637227058410645,0.5177407264709473,1.1901289224624634
0.022219847423182518,-2.020028835774211,1.7960710642099138,2.689798593521118,-0.3129734396934509,0.8405267000198364,-0.900558352470398,-0.022218018770217896,0.43416714668273926,-2.5702056884765625,0.4814923107624054,1.4809787273406982
0.0064430620167957135,-2.0251256980995325,1.8156239156157963,2.1714224815368652,-0.5951630473136902,0.2837987244129181,-0.8985368609428406,-0.00644301762804389,0.4388507008552551,-2.6303632259368896,0.4619331359863281,1.690086007118225
-0.0017295867029573674,-2.030982797130501,1.8323407388007897,1.5317678451538086,-0.5423041582107544,-0.2829507291316986,-0.895968496799469,0.0017295858124271035,0.4441145956516266,-2.6526308059692383,0.4827522337436676,1.7746353149414062
-0.0022058780176088667,-2.0354797353167124,1.8454755408420407,0.8527876138687134,-0.3458222448825836,-0.7913742661476135,-0.8939614295959473,0.0022058761678636074,0.4481387734413147,-2.6111197471618652,0.5127934813499451,1.767529010772705
0.004642286261242335,-2.037707185569343,1.8545480748968772,0.1470552235841751,-0.10938828438520432,-1.2298208475112915,-0.8929533362388611,-0.00464226957410574,0.4501250386238098,-2.5267090797424316,0.565814733505249,1.7159514427185059
0.018176851488890537,-2.0384278624888985,1.859060507434602,-0.5535768866539001,-0.043381042778491974,-1.5763529539108276,-0.8924909830093384,-0.018175849691033363,0.4506989121437073,-2.383296489715576,0.6480586528778076,1.644500732421875
0.03752329108014942,-2.03940488170049,1.8590479528062795,-1.1781436204910278,-0.1913287490606308,-1.8671786785125732,-0.8915694952011108,-0.03751448541879654,0.4513273537158966,-2.2004714012145996,0.684441328048706,1.5239838361740112
0.06214543913375274,-2.0431236044199435,1.8553606026316198,-1.6868500709533691,-0.6128451228141785,-2.1794819831848145,-0.8887931108474731,-0.0621054470539093,0.45408186316490173,-2.039872407913208,0.7043020725250244,1.369175672531128
0.09180460618349105,-2.051545355168925,1.8492219472905072,-2.097010612487793,-1.1688618659973145,-2.51792311668396,-0.882915198802948,-0.09167570620775223,0.46049612760543823,-1.9081616401672363,0.7199105620384216,1.194838285446167
0.12629587777956286,-2.0651966863426927,1.8417928638470316,-2.4136412143707275,-1.702306866645813,-2.8681259155273438,-0.8732422590255737,-0.12596039474010468,0.47072452306747437,-1.7916440963745117,0.7667379975318909,0.9851163625717163
0.1654371198132166,-2.0832685713030563,1.8340996582401794,-2.675727128982544,-2.104832649230957,-3.239036798477173,-0.8596352338790894,-0.1646834909915924,0.4836384952068329,-1.694624900817871,0.8361770510673523,0.7577248811721802
0.20924230238533972,-2.1045810654695396,1.8267570052458357,-2.9349634647369385,-2.4083144664764404,-3.609051465988159,-0.8421106338500977,-0.20771878957748413,0.4976978003978729,-1.6012794971466064,0.9255226850509644,0.5611706972122192
0.257830804550934,-2.128535221518457,1.8200062077704948,-3.2120232582092285,-2.682086229324341,-3.9928629398345947,-0.820408821105957,-0.25498366355895996,0.5117744207382202,-1.492701768875122,1.0030152797698975,0.4243675470352173
0.31143451902417074,-2.1553103667244073,1.8142550804690722,-3.4899537563323975,-2.9824423789978027,-4.411446571350098,-0.7938616275787354,-0.30642446875572205,0.5252500772476196,-1.3873212337493896,1.0622838735580444,0.3122132420539856
0.3705636156352033,-2.1855081722430585,1.8103591596127362,-3.77066969871521,-3.28887939453125,-4.919839859008789,-0.7614884376525879,-0.36214083433151245,0.5375770330429077,-1.328355312347412,1.1079752445220947,0.21320098638534546
0.4359313457556922,-2.2192226056704083,1.8091836091815243,-4.10458517074585,-3.5042169094085693,-5.470358848571777,-0.7224944233894348,-0.4222548305988312,0.5474514961242676,-1.300256609916687,1.2050000429153442,0.13689005374908447
0.5076826185631239,-2.2555116120206438,1.8110411464398255,-4.487890243530273,-3.5342118740081787,-5.960773468017578,-0.6769015789031982,-0.4861534535884857,0.552683413028717,-1.2514584064483643,1.377846598625183,0.06697589159011841
0.5851481749854694,-2.292554152144903,1.8156720969886666,-4.899850368499756,-3.330531120300293,-6.30559778213501,-0.6257607340812683,-0.5523229241371155,0.5507838129997253,-1.176088571548462,1.5967717170715332,-0.014101743698120117
0.6672091089099879,-2.328084308399611,1.8226188299760397,-5.299180507659912,-2.9264209270477295,-6.521449089050293,-0.57086181640625,-0.6187959909439087,0.5396372675895691,-1.0748138427734375,1.8357454538345337,-0.11234545707702637
0.7530094150566533,-2.3613168857965547,1.8319398964585785,-5.640690803527832,-2.489495038986206,-6.689373016357422,-0.5132799744606018,-0.6838376522064209,0.5185655355453491,-0.9399367570877075,2.0194849967956543,-0.20307469367980957
0.8417352498795494,-2.393590911853884,1.8446791029953955,-5.890964508056641,-2.1395795345306396,-6.82294225692749,-0.4531121551990509,-0.7458001971244812,0.48833537101745605,-0.805661678314209,2.1381494998931885,-0.27195048332214355
0.9323751223125426,-2.4278734919921403,1.8626543770875392,-6.038530349731445,-1.9273945093154907,-6.920108795166016,-0.39012429118156433,-0.8030375838279724,0.45048147439956665,-0.6978883743286133,2.2458019256591797,-0.3253442347049713
1.0237025930404948,-2.468946925573784,1.8892981937344568,-6.052476406097412,-1.8696273565292358,-6.993828773498535,-0.3241192698478699,-0.8540399670600891,0.40689384937286377,-0.6283496618270874,2.350301504135132,-0.37689512968063354
1.1142048794530548,-2.524916385288324,1.9311659312046499,-5.938533782958984,-1.9759154319763184,-7.0604166984558105,-0.25497928261756897,-0.8975605368614197,0.3596814274787903,-0.5941265821456909,2.4258198738098145,-0.41963326930999756
1.2020502547841663,-2.6097028502118076,2.0007415261484485,-5.722721576690674,-2.2174489498138428,-7.1154375076293945,-0.18280507624149323,-0.9327800273895264,0.3106507956981659,-0.5789137482643127,2.466212034225464,-0.4463777244091034
1.2842972943898652,-2.7479147963985393,2.1215674801574345,-5.457707405090332,-2.505465030670166,-7.121996879577637,-0.10840034484863281,-0.95923912525177,0.2609787881374359,-0.5624218583106995,2.4872541427612305,-0.46079275012016296
1.3553014630229363,-2.986198097566055,2.3398879276843148,-5.155838966369629,-2.7884795665740967,-7.077641487121582,-0.03309464827179909,-0.9768707156181335,0.21125473082065582,-0.5627915859222412,2.498476982116699,-0.4705321788787842
1.4028419760757098,2.8895736272486987,2.724936163199421,-4.83867883682251,-3.008553981781006,-6.995546817779541,0.041684284806251526,-0.9859287738800049,0.16188468039035797,-0.5754978060722351,2.4869818687438965,-0.47642946243286133
1.4090178752464777,2.3491301753121743,-3.042184146066014,-4.528036594390869,-3.1701853275299072,-6.883882522583008,0.11469774693250656,-0.9869424104690552,0.11308856308460236,-0.5973485708236694,2.4595530033111572,-0.46701622009277344
1.3735533717265516,1.9084509004567969,-2.6273320114125953,-4.255548000335693,-3.2421486377716064,-6.7486419677734375,0.18490071594715118,-0.9806106090545654,0.06491866707801819,-0.6257729530334473,2.4264724254608154,-0.43607354164123535
1.3160982011216171,1.6394194051783861,-2.3848133658377373,-4.049149990081787,-3.227654218673706,-6.565248489379883,0.251359760761261,-0.9677394032478333,0.017276208847761154,-0.6447466611862183,2.38584566116333,-0.3872714042663574
1.2506709974518344,1.474801985226733,-2.24687658379903,-3.935324192047119,-3.1999123096466064,-6.338935375213623,0.31323665380477905,-0.9491959810256958,-0.030161648988723755,-0.6408734321594238,2.3320541381835938,-0.31575512886047363
1.1830175526592748,1.362638959715666,-2.1613162482779056,-3.982922077178955,-3.1474759578704834,-6.101703643798828,0.3699705898761749,-0.925751268863678,-0.07814402133226395,-0.6341612935066223,2.2682042121887207,-0.20629513263702393
1.1146271463626105,1.2762056931465895,-2.1008991552363074,-4.205474853515625,-3.088117837905884,-5.875367164611816,0.4215356707572937,-0.8977466225624084,-0.12790197134017944,-0.6336328387260437,2.2200427055358887,-0.07980073988437653
1.0456751556376604,1.2034692178943296,-2.0529868102629028,-4.524144172668457,-2.9768991470336914,-5.659032344818115,0.46787524223327637,-0.8652632236480713,-0.180034339427948,-0.6248576641082764,2.1727278232574463,0.021922707557678223
0.9760060814206986,1.1396756080301627,-2.012299971246015,-4.845875263214111,-2.866178035736084,-5.463398456573486,0.509063184261322,-0.8282660245895386,-0.23415794968605042,-0.6078944206237793,2.1151466369628906,0.08373677730560303
0.9052929910380515,1.0826186794114432,-1.9768856251676257,-5.130341053009033,-2.8118796348571777,-5.331518650054932,0.5453295707702637,-0.7866060733795166,-0.2895970344543457,-0.5992389917373657,2.062744379043579,0.11175587773323059
0.8330745932436389,1.030777813773787,-1.946224393257353,-5.3803277015686035,-2.8671324253082275,-5.267971515655518,0.5768917202949524,-0.7400028705596924,-0.34582048654556274,-0.5856808423995972,2.0076115131378174,0.12891674041748047
0.7590581069481633,0.9821596105148067,-1.919858659466418,-5.618495464324951,-3.090238571166992,-5.2344489097595215,0.6033843159675598,-0.6882384419441223,-0.4028090834617615,-0.5475219488143921,1.9449371099472046,0.1438979208469391
0.6830657281919617,0.9340942328998012,-1.8971194124424267,-5.882988452911377,-3.52616024017334,-5.20249080657959,0.6236628293991089,-0.6311739087104797,-0.4611551761627197,-0.49367332458496094,1.8829439878463745,0.16412755846977234
0.6049848009642378,0.8837517066054759,-1.8773191695863445,-6.168869972229004,-4.15972375869751,-5.135693550109863,0.6359026432037354,-0.5687495470046997,-0.5216816067695618,-0.4365009069442749,1.8342524766921997,0.174635648727417
0.5250520508019532,0.8292299419864498,-1.8603850591497304,-6.4083476066589355,-4.90642786026001,-5.03632926940918,0.6380805373191833,-0.5012580156326294,-0.5844600796699524,-0.3839913010597229,1.808814287185669,0.1382473111152649
0.4441244141925845,0.7699350782942642,-1.8468839516107771,-6.52065896987915,-5.651766300201416,-4.8656229972839355,0.6285591721534729,-0.4296674132347107,-0.6483049988746643,-0.3426553010940552,1.808695673942566,0.03903675079345703
0.3640004183715545,0.7058824536461658,-1.8372953730898118,-6.452569484710693,-6.361086368560791,-4.570962429046631,0.6062025427818298,-0.3560153841972351,-0.7111761569976807,-0.26750320196151733,1.8254367113113403,-0.13483214378356934
0.2868869012565728,0.6368509651238784,-1.8318294393800503,-6.19636344909668,-7.028124809265137,-4.186092853546143,0.5703622698783875,-0.282967746257782,-0.7711135149002075,-0.14293313026428223,1.8136836290359497,-0.3786972761154175
0.21467885012322135,0.5638142344609007,-1.8309622132723657,-5.754064559936523,-7.434828281402588,-3.826143264770508,0.5221464037895203,-0.21303366124629974,-0.8258206844329834,-0.012808084487915039,1.7355098724365234,-0.7140963077545166
0.14840457413043376,0.4899752667197856,-1.8351052820957503,-5.264025688171387,-7.3661603927612305,-3.531977415084839,0.4654313027858734,-0.14786043763160706,-0.8726459741592407,0.10961136221885681,1.5828274488449097,-1.0964702367782593
0.08786425404938283,0.41956941926675423,-1.8435670599476637,-4.854683876037598,-6.793076038360596,-3.2835748195648193,0.4057958126068115,-0.08775124698877335,-0.9097414612770081,0.2468225359916687,1.4570292234420776,-1.4562253952026367
0.032653409959576156,0.3571956108448436,-1.8552818785933058,-4.436916828155518,-5.726468563079834,-3.0360665321350098,0.3494618535041809,-0.03264760598540306,-0.9363816380500793,0.3952280282974243,1.3794188499450684,-1.826237440109253
-0.015981114381340734,0.3064472420485359,-1.8690036244969348,-3.8036746978759766,-4.395751953125,-2.6844489574432373,0.3016347885131836,0.01598043367266655,-0.9532896280288696,0.5274819731712341,1.3605759143829346,-2.2394747734069824
-0.0553559654228765,0.26845610178090334,-1.88287819465537,-2.922031879425049,-3.1078717708587646,-2.1775596141815186,0.2648368775844574,0.05532769858837128,-0.9627046585083008,0.6402076482772827,1.4072576761245728,-2.613039970397949
-0.08399704762242076,0.24135798267999703,-1.8952803438446348,-1.9799566268920898,-2.167743682861328,-1.6558719873428345,0.23817875981330872,0.08389830589294434,-0.9675908088684082,0.6979784369468689,1.4721472263336182,-2.8290858268737793
-0.1024075130938204,0.22206796328410364,-1.9057650960965784,-1.1404647827148438,-1.508819818496704,-1.228096842765808,0.21909338235855103,0.10222861170768738,-0.9703336358070374,0.6715315580368042,1.4992270469665527,-2.86690092086792
-0.11272614403865812,0.20863523345433965,-1.914564350492754,-0.5227083563804626,-0.9859292507171631,-0.9268758296966553,0.2058103233575821,0.1124875545501709,-0.9721052646636963,0.6017610430717468,1.499145746231079,-2.7718522548675537
-0.11740549702540339,0.20055604256650214,-1.9221203676688112,-0.10686935484409332,-0.45047855377197266,-0.7385610938072205,0.19784285128116608,0.11713596433401108,-0.9732098579406738,0.5065028071403503,1.5006160736083984,-2.622828960418701
-0.11840348262978845,0.19785828412919676,-1.9287078475878554,0.16319088637828827,0.06412644684314728,-0.5762834548950195,0.1951935738325119,0.1181270182132721,-0.9736249446868896,0.43217146396636963,1.5005710124969482,-2.4701311588287354
-0.11674109257929281,0.20018609794039302,-1.9341328815028749,0.37497684359550476,0.5154742002487183,-0.41354385018348694,0.19749823212623596,0.11647610366344452,-0.9733589887619019,0.40345385670661926,1.500940203666687,-2.334761619567871
-0.11238567463997358,0.20681627043429598,-1.9384647877533676,0.6620477437973022,0.900658130645752,-0.2569214701652527,0.20404961705207825,0.11214923858642578,-0.9725154638290405,0.406027227640152,1.4889860153198242,-2.258288860321045
-0.10431109222426524,0.21717006623127927,-1.9422627491820257,1.0850616693496704,1.2416781187057495,-0.1421361118555069,0.2142958641052246,0.10412202775478363,-0.9712033271789551,0.4175857901573181,1.4604684114456177,-2.2348971366882324
-0.09136977784016508,0.23072387058958682,-1.9461509710930922,1.6086682081222534,1.5305442810058594,-0.034155841916799545,0.22772836685180664,0.0912427008152008,-0.9694403409957886,0.4377073645591736,1.4346513748168945,-2.203380584716797
-0.0727380781585816,0.24707454639577592,-1.9502427663068476,2.193345308303833,1.7939567565917969,0.1316102147102356,0.24392169713974,0.07267395406961441,-0.967068076133728,0.46135473251342773,1.427081823348999,-2.12092924118042
-0.048009039575607405,0.2661832554083118,-1.9541207725840608,2.763946056365967,2.0659639835357666,0.37595710158348083,0.26274794340133667,0.047990597784519196,-0.9636703133583069,0.46355506777763367,1.4500409364700317,-1.9764389991760254
-0.01747724460507482,0.288207676266374,-1.9573826334896438,3.2580888271331787,2.3433876037597656,0.6713258028030396,0.2841908633708954,0.017476355656981468,-0.9586084485054016,0.42685335874557495,1.4895120859146118,-1.7777807712554932
0.018294091670363128,0.31313937580337914,-1.9597505882821742,3.686004877090454,2.628833532333374,0.9904322028160095,0.3079953193664551,-0.018293071538209915,-0.9512119889259338,0.35386988520622253,1.529554009437561,-1.553731918334961
0.05889647961854,0.34091956898839865,-1.9612545205996372,4.070431232452393,2.8949780464172363,1.3290578126907349,0.3337741494178772,-0.058862436562776566,-0.9408134818077087,0.2645686864852905,1.56809401512146,-1.342679500579834
0.10409735641740465,0.37132034608982833,-1.9619015637418211,4.41780424118042,3.152336359024048,1.6974494457244873,0.3608819544315338,-0.1039094552397728,-0.926804780960083,0.1788824200630188,1.5993165969848633,-1.151564359664917
0.1538080940148538,0.40405906195875246,-1.961672279483704,4.736918926239014,3.375791311264038,2.0953729152679443,0.388512521982193,-0.1532023698091507,-0.9086182117462158,0.08519655466079712,1.6443827152252197,-0.9723784923553467
0.20807087579959865,0.43880720450849015,-1.9606814922435938,5.0546698570251465,3.587047576904297,2.5075480937957764,0.41569629311561584,-0.2065727710723877,-0.8857337832450867,-0.023148715496063232,1.7108910083770752,-0.8164299130439758
0.26701544102759994,0.47540356682514656,-1.9593024298924757,5.370962142944336,3.7606749534606934,2.916370391845703,0.4414777457714081,-0.2638538181781769,-0.8576004505157471,-0.12363719940185547,1.766493558883667,-0.6903731822967529
0.33078614537328127,0.5134256155943999,-1.958066718717157,5.712470054626465,3.890592336654663,3.3269081115722656,0.46453675627708435,-0.3247866630554199,-0.8238441944122314,-0.21249210834503174,1.820056438446045,-0.589928388595581
0.39983626642004194,0.5529760889642895,-1.9575015507173317,6.087643146514893,4.031235218048096,3.7637290954589844,0.48379504680633545,-0.38926753401756287,-0.783845067024231,-0.2923430800437927,1.9001622200012207,-0.5197590589523315
0.47449234501625437,0.5943162771323554,-1.958086134486576,6.470284938812256,4.154400825500488,4.224801540374756,0.49808260798454285,-0.4568869471549988,-0.7369993329048157,-0.3716026246547699,1.9963308572769165,-0.4608766436576843
0.554760051780972,0.6377702931059865,-1.960586516017967,6.839166641235352,4.259512424468994,4.667478084564209,0.506110668182373,-0.5267393589019775,-0.6829330921173096,-0.4621501564979553,2.1083128452301025,-0.40588831901550293
0.6405031433600131,0.6841822718168367,-1.9660139674205486,7.201472759246826,4.385538101196289,5.124974250793457,0.5067662596702576,-0.5975989103317261,-0.6213400363922119,-0.5521612167358398,2.2294654846191406,-0.3589608669281006
0.7316441670089852,0.7350740343621741,-1.9754764963552613,7.526674747467041,4.565006732940674,5.611014366149902,0.49900928139686584,-0.6680939197540283,-0.5519422292709351,-0.6221020221710205,2.360614061355591,-0.3318621516227722
0.8277632949270881,0.7924226537869548,-1.9905415675866398,7.781611442565918,4.74812650680542,6.097252368927002,0.48172369599342346,-0.7364200353622437,-0.47500306367874146,-0.7036628127098083,2.501617670059204,-0.3017456531524658
0.9279376054050908,0.8592222640447718,-2.0142554162031647,7.969144821166992,4.922515392303467,6.527798652648926,0.45401158928871155,-0.8003852963447571,-0.3914802670478821,-0.7973039150238037,2.6334540843963623,-0.2719261050224304
1.0306424393095017,0.9409835851421929,-2.0520938733258287,8.035104751586914,5.101131916046143,6.8860182762146,0.4155993163585663,-0.8576295375823975,-0.30290040373802185,-0.8948931694030762,2.75467848777771,-0.23575004935264587
1.133693079631587,1.0472484582371973,-2.113491557756258,7.967507362365723,5.243381500244141,7.192881107330322,0.3666137754917145,-0.905981719493866,-0.2116396725177765,-0.9650025367736816,2.8619754314422607,-0.1870877593755722
1.234600472564028,1.1972034310638544,-2.2180468724019393,7.819858551025391,5.2967987060546875,7.49974250793457,0.30714237689971924,-0.9440164566040039,-0.12040053308010101,-0.9913313388824463,2.9526071548461914,-0.1478336900472641
1.328734495538138,1.4385253306855812,-2.414365785921549,7.647387981414795,5.229378700256348,7.8004255294799805,0.2376105934381485,-0.9708458185195923,-0.03161356970667839,-0.9942024946212769,3.0372369289398193,-0.1395290493965149
1.4023429322867973,1.892331555728478,-2.824403449010338,7.479199409484863,5.094656467437744,8.071410179138184,0.1590660810470581,-0.9858452677726746,0.05298397317528725,-0.9782952666282654,3.1145377159118652,-0.15337157249450684
1.4189392457040668,2.633830752890694,2.758721624020221,7.341028690338135,4.7662177085876465,8.247335433959961,0.07355330139398575,-0.9884918332099915,0.1321892887353897,-0.9458677768707275,3.1293303966522217,-0.16856621205806732
1.363149055505766,-3.063644539517912,2.210082553648404,7.241923809051514,4.243846893310547,8.338600158691406,-0.016053419560194016,-0.9785186648368835,0.20553278923034668,-0.9297779202461243,3.093966484069824,-0.1520659625530243
1.2736867576110957,-2.7689079333302837,1.9475599254350902,7.064801216125488,3.7923038005828857,8.309765815734863,-0.10659807920455933,-0.9561866521835327,0.2726607322692871,-0.937209963798523,3.0118050575256348,-0.0673384964466095
1.1751622786893483,-2.610082713084313,1.8179381335002878,6.706728458404541,3.5387091636657715,8.117143630981445,-0.19533094763755798,-0.9227523803710938,0.33222535252571106,-0.9847227931022644,2.8744583129882812,0.07361254096031189
1.0776163937234111,-2.510297277368776,1.7456213587183917,6.097172260284424,3.341628074645996,7.70871639251709,-0.2794135808944702,-0.8808318376541138,0.38218212127685547,-1.0141044855117798,2.6519501209259033,0.23608869314193726
0.9865643857684648,-2.438043743998818,1.7001097542268238,5.255317687988281,3.2757818698883057,7.178862571716309,-0.35681888461112976,-0.8341359496116638,0.4205918312072754,-0.9970477223396301,2.347792625427246,0.3613753318786621
0.9042325383197527,-2.377742787431497,1.6665963020692611,4.316427707672119,3.35310435295105,6.730650901794434,-0.4276748597621918,-0.7859508991241455,0.4465150833129883,-0.8932480812072754,2.0688180923461914,0.399294912815094
0.8298906655751216,-2.320436495211461,1.6377317346698104,3.4607911109924316,3.7309494018554688,6.467021465301514,-0.4940236210823059,-0.7378575801849365,0.4598987400531769,-0.7496898174285889,1.8861424922943115,0.2929546535015106
0.760580638232454,-2.259655753916672,1.6099419354216076,2.7489824295043945,4.461019992828369,6.51566743850708,-0.5592439770698547,-0.689342200756073,0.460492879152298,-0.6209776997566223,1.8668781518936157,0.09155482053756714
0.6926749866826329,-2.1927305741153007,1.5820909078854126,2.249774932861328,5.153199195861816,6.756470680236816,-0.6254463195800781,-0.6385979652404785,0.44834062457084656,-0.5506400465965271,1.9220452308654785,-0.08695155382156372
0.6236244585972355,-2.124272124439961,1.5569151030990274,2.1367032527923584,5.330061912536621,6.856698513031006,-0.6905725002288818,-0.5839812159538269,0.42670321464538574,-0.6508124470710754,1.8479430675506592,-0.20912814140319824
0.5538557440798846,-2.0635564825792785,1.5401343654794166,2.4368643760681152,4.834661483764648,6.532492637634277,-0.7493190169334412,-0.525970458984375,0.402338445186615,-0.9093114137649536,1.59527587890625,-0.26894611120224
0.48635160590231824,-2.017020510848749,1.5350950085773458,2.875856399536133,3.9000372886657715,5.824950218200684,-0.7974810600280762,-0.4674036502838135,0.38152024149894714,-1.2206006050109863,1.279690146446228,-0.24684622883796692
0.4247628913778761,-1.985764278144632,1.5413167522514892,3.235469102859497,2.877091884613037,4.855627059936523,-0.8338077068328857,-0.4121047556400299,0.36733436584472656,-1.5308928489685059,1.002238392829895,-0.14284715056419373
0.37150588524913297,-1.9666395875739868,1.5556654412438884,3.3303730487823486,2.092832565307617,3.877553701400757,-0.8597288131713867,-0.3630189895629883,0.35928240418434143,-1.6946841478347778,0.8256044387817383,0.014237433671951294
0.3269043231183136,-1.9531597343996643,1.5734321532466655,3.0773813724517822,1.8860130310058594,3.130370616912842,-0.8786506056785583,-0.32111284136772156,0.35335439443588257,-1.6704216003417969,0.7499306797981262,0.18061155080795288
0.2894762664991242,-1.9380128512797876,1.5895369564069168,2.466310739517212,2.14612078666687,2.727883815765381,-0.8944974541664124,-0.2854503095149994,0.3440813422203064,-1.5331757068634033,0.7371105551719666,0.36117973923683167
0.2574072654009634,-1.917074164016138,1.6004259879795988,1.739596962928772,2.6212077140808105,2.5498440265655518,-0.909651517868042,-0.25457409024238586,0.32821688055992126,-1.4309247732162476,0.7247278690338135,0.4939875900745392
0.22894363690486508,-1.8904056064098695,1.6064310694344026,1.2594305276870728,2.9483108520507812,2.4310994148254395,-0.9245864152908325,-0.22694885730743408,0.30599725246429443,-1.500523567199707,0.6556903123855591,0.4547905921936035
0.20296908480724424,-1.861881988998123,1.6107827809468707,1.152786135673523,2.860830068588257,2.2343828678131104,-0.9382688403129578,-0.20157834887504578,0.28110113739967346,-1.7198580503463745,0.6038153171539307,0.3330650329589844
0.17962744579121057,-1.8367052787355478,1.616877736177122,1.2868494987487793,2.3410282135009766,1.8995436429977417,-0.9493299722671509,-0.17866303026676178,0.2585582733154297,-1.9576220512390137,0.4844796657562256,0.29078856110572815
0.15966690788880464,-1.8187720576774702,1.6261875606926222,1.4926780462265015,1.5293357372283936,1.4787743091583252,-0.9570804834365845,-0.15898935496807098,0.24232013523578644,-2.1443140506744385,0.3482136130332947,0.3736313581466675
0.1436175189356693,-1.8094116150185056,1.6387444753733835,1.6721690893173218,0.7275868654251099,1.0323158502578735,-0.961662769317627,-0.1431243121623993,0.2339240461587906,-2.292762279510498,0.2601287066936493,0.49642255902290344
0.13158335030318688,-1.8076299098604767,1.6536876307882133,1.7407660484313965,0.049951378256082535,0.6162328124046326,-0.9636824727058411,-0.13120396435260773,0.23259752988815308,-2.3780839443206787,0.20057044923305511,0.6372296810150146
0.12325114105543569,-1.8119238707565155,1.66956017154664,1.6910877227783203,-0.484771728515625,0.2648495137691498,-0.963702917098999,-0.122939333319664,0.2369862198829651,-2.394024133682251,0.170760378241539,0.7825754880905151
0.1182162076463448,-1.8202360863472677,1.6852423008845547,1.5533990859985352,-0.7597511410713196,-0.034823231399059296,-0.962287425994873,-0.11794105172157288,0.24513813853263855,-2.398766040802002,0.18224158883094788,0.8793123960494995
0.11622072497535083,-1.8295610925761767,1.6997028240811358,1.3045146465301514,-0.7301645278930664,-0.2880372405052185,-0.9601853489875793,-0.11595926433801651,0.25416040420532227,-2.411778211593628,0.2252122014760971,0.9354909658432007
0.11730188993552024,-1.8372101010693203,1.7118052920538331,0.9384577870368958,-0.4898217022418976,-0.5522834658622742,-0.9580917954444885,-0.11703306436538696,0.2614642381668091,-2.4158096313476562,0.25411802530288696,0.9843852519989014
0.12257190372009472,-1.8417446955935202,1.7205539457405656,0.44056978821754456,-0.21263571083545685,-0.9346878528594971,-0.956288754940033,-0.12226521968841553,0.2656373381614685,-2.4506938457489014,0.24494586884975433,1.0577116012573242
0.13353324597507718,-1.8435556443903558,1.725325530158534,-0.12173375487327576,-0.04684967175126076,-1.438200831413269,-0.9544581770896912,-0.13313676416873932,0.26699161529541016,-2.4841558933258057,0.23324966430664062,1.1245640516281128
0.15144053028504748,-1.8441415341319687,1.7261619633612586,-0.6792621612548828,-0.06784804165363312,-2.053288698196411,-0.9518529772758484,-0.15086233615875244,0.26686426997184753,-2.482198715209961,0.23899710178375244,1.1311458349227905
0.1767548161797811,-1.8450782435069377,1.7233629722550083,-1.2100030183792114,-0.23099541664123535,-2.652414321899414,-0.9476217031478882,-0.17583587765693665,0.2666356563568115,-2.3960671424865723,0.29117709398269653,1.0991477966308594
0.2089146912506163,-1.847532441185034,1.717283979271219,-1.6654036045074463,-0.5025795698165894,-3.1808383464813232,-0.9410360455513,-0.20739831030368805,0.26727670431137085,-2.219043731689453,0.39050382375717163,1.0153007507324219
0.24673560860180607,-1.852383079971739,1.708749102498389,-1.983483076095581,-0.8527559041976929,-3.5963692665100098,-0.9315235018730164,-0.24423973262310028,0.2694646716117859,-2.001399040222168,0.5196455717086792,0.8743493556976318
0.2887961192422107,-1.860188148489735,1.6991860210837137,-2.116399049758911,-1.204789638519287,-3.9286391735076904,-0.9187271595001221,-0.28479841351509094,0.2735515236854553,-1.778752088546753,0.649376630783081,0.6844867467880249
0.3341441914792235,-1.8714897790667142,1.6904772642593064,-2.0758025646209717,-1.5858111381530762,-4.2407307624816895,-0.9023043513298035,-0.3279608190059662,0.2798011600971222,-1.5942929983139038,0.7354315519332886,0.48995888233184814
0.38257448179193837,-1.8876981465336193,1.6842044558774545,-1.97208833694458,-2.0977489948272705,-4.612913131713867,-0.8815120458602905,-0.37331005930900574,0.28909584879875183,-1.4704320430755615,0.7669868469238281,0.3617829382419586
0.43486051285867233,-1.9106528624569998,1.6811155269667615,-1.9350768327713013,-2.729463815689087,-5.088887691497803,-0.8550546169281006,-0.42128390073776245,0.30232635140419006,-1.4244863986968994,0.7900736331939697,0.3307451605796814
0.4922600819308942,-1.9413338802995055,1.6812028504224426,-2.0477311611175537,-3.3668880462646484,-5.658578872680664,-0.8214579224586487,-0.47261881828308105,0.319121390581131,-1.4342947006225586,0.8595053553581238,0.34785547852516174
0.5557852097248818,-1.9793698445686985,1.684194928903999,-2.2974863052368164,-3.8954265117645264,-6.250654220581055,-0.7795641422271729,-0.5276104807853699,0.3375016152858734,-1.4347305297851562,0.9809948205947876,0.34194180369377136
0.625575460922136,-2.0236665667105096,1.6900058994765526,-2.6448729038238525,-4.26661491394043,-6.781746864318848,-0.7289111614227295,-0.5855638384819031,0.3546881675720215,-1.391465425491333,1.1425402164459229,0.2945275604724884
0.7012020654161402,-2.0729240488051768,1.698829339924832,-3.062220811843872,-4.439358234405518,-7.232794761657715,-0.6697510480880737,-0.6451365947723389,0.36773917078971863,-1.3359708786010742,1.3502452373504639,0.2212500274181366
0.781946430550061,-2.1256146797952273,1.710987229187427,-3.515138864517212,-4.399764060974121,-7.546677589416504,-0.6031093597412109,-0.7046618461608887,0.3737797141075134,-1.2601262331008911,1.582423448562622,0.13880881667137146
0.8664067670279173,-2.1805807318669803,1.7269169857128908,-3.9348063468933105,-4.20524263381958,-7.677065849304199,-0.5308583974838257,-0.7620069980621338,0.3708566427230835,-1.1404825448989868,1.8149244785308838,0.026558518409729004
0.9526043630171039,-2.2378140606945713,1.747990921930962,-4.212749004364014,-3.8696389198303223,-7.644966125488281,-0.45534536242485046,-0.8149276375770569,0.35854417085647583,-1.0206069946289062,2.0003981590270996,-0.11554792523384094
1.0387368492501856,-2.2998238315221027,1.7779473851472118,-4.320219039916992,-3.4728996753692627,-7.607234477996826,-0.37836238741874695,-0.861764132976532,0.33794105052948,-0.9664251804351807,2.1258785724639893,-0.2495928704738617
1.1239293923027966,-2.37381912763611,1.8242485984204495,-4.313518524169922,-3.1361947059631348,-7.648197174072266,-0.30013763904571533,-0.9018054604530334,0.3109082281589508,-0.9600551724433899,2.1957814693450928,-0.33326250314712524
1.207141982790932,-2.474339209921237,1.9003905334367819,-4.233051300048828,-2.9548110961914062,-7.768213748931885,-0.22011324763298035,-0.9346032738685608,0.27940478920936584,-0.9747567772865295,2.225740909576416,-0.3716747760772705
1.2857170001619438,-2.6291723789407135,2.032439162602293,-4.084456920623779,-2.954155206680298,-7.8905181884765625,-0.13788573443889618,-0.9596393704414368,0.24511250853538513,-0.9627460241317749,2.2439866065979004,-0.39788350462913513
1.3530022540138307,-2.8895780226097263,2.269720236141986,-3.8919272422790527,-3.110339879989624,-7.974746227264404,-0.05387983098626137,-0.976376473903656,0.20925100147724152,-0.9379262328147888,2.255368232727051,-0.4021068513393402
1.394910493612975,2.9633099019302915,2.6753496400817327,-3.7069666385650635,-3.307541608810425,-8.028867721557617,0.03103090077638626,-0.9845719337463379,0.17220640182495117,-0.9550574421882629,2.2727952003479004,-0.38892698287963867
1.392785233512636,2.429110767069602,-3.1004461186858414,-3.5108025074005127,-3.5571038722991943,-8.052560806274414,0.11575449258089066,-0.9841977953910828,0.133997842669487,-0.9994825720787048,2.292593240737915,-0.39040660858154297
1.3484152465457278,2.0138713467298173,-2.71492073644349,-3.3224899768829346,-3.8316433429718018,-8.060036659240723,0.19925576448440552,-0.9753750562667847,0.0945553332567215,-1.0655888319015503,2.2804746627807617,-0.3916440010070801
1.2815125422153975,1.7596082532470907,-2.4930031140220765,-3.1895856857299805,-3.997469902038574,-7.998178482055664,0.28019604086875916,-0.9584484100341797,0.053542133420705795,-1.1246938705444336,2.2554759979248047,-0.3746023178100586
1.2061383113010837,1.6007054051163476,-2.3679538242070928,-3.139941453933716,-4.028120517730713,-7.762029647827148,0.3564700186252594,-0.934245765209198,0.010664870031177998,-1.080759048461914,2.2568318843841553,-0.3412923812866211
1.1294487958378927,1.4908970990989128,-2.2921511655337583,-3.1768200397491455,-3.9383738040924072,-7.344376087188721,0.4257957339286804,-0.9041768908500671,-0.034093331545591354,-0.9651481509208679,2.246461868286133,-0.2873178720474243
1.0550723684839778,1.406920792231979,-2.2413445514185875,-3.2603375911712646,-3.804335355758667,-6.796538352966309,0.48655781149864197,-0.869935929775238,-0.08045644313097,-0.8372963666915894,2.2196671962738037,-0.21622025966644287
0.9846489057642244,1.3375453906117818,-2.2041233334157644,-3.3150649070739746,-3.7131736278533936,-6.217024326324463,0.5381763577461243,-0.8330779075622559,-0.12785732746124268,-0.731230616569519,2.1595396995544434,-0.15970981121063232
0.9182986816330115,1.2768338445635607,-2.1755931155376738,-3.3131327629089355,-3.7871854305267334,-5.7081804275512695,0.5811271667480469,-0.7945697903633118,-0.17592652142047882,-0.6831933259963989,2.0520007610321045,-0.10654425621032715
0.855420155677669,1.2203938317904395,-2.1535943681484033,-3.281418561935425,-4.08046293258667,-5.321914196014404,0.6160454750061035,-0.7548465728759766,-0.22515517473220825,-0.7212700247764587,1.930230975151062,-0.03764703869819641
0.7950024892254273,1.1654194292264848,-2.136853433104873,-3.2749593257904053,-4.418990612030029,-5.054543972015381,0.6435276865959167,-0.713865339756012,-0.2761671841144562,-0.8162420392036438,1.8350963592529297,0.016844063997268677
0.7358158680685714,1.1108297888274126,-2.1237914167317147,-3.394395112991333,-4.640192985534668,-4.877939224243164,0.664239764213562,-0.6711921691894531,-0.3290690779685974,-0.9076328277587891,1.7727546691894531,0.07362166047096252
0.6765959683165794,1.0560324651747977,-2.11246226140331,-3.670427083969116,-4.821351051330566,-4.750729084014893,0.6786653995513916,-0.6261425018310547,-0.38387343287467957,-0.9573519825935364,1.7296276092529297,0.1524738073348999
0.6162693645227335,1.0000324677385881,-2.1012566053950796,-4.0793375968933105,-4.9846906661987305,-4.624601364135742,0.6866886615753174,-0.5779948234558105,-0.4408862590789795,-0.9573796391487122,1.695136547088623,0.24281185865402222
0.5541008922303288,0.9432072150320495,-2.0893634362389206,-4.543202877044678,-5.013242721557617,-4.494632244110107,0.6883313059806824,-0.5261789560317993,-0.49933528900146484,-0.9390332698822021,1.6858925819396973,0.29424190521240234
0.48965539409003533,0.8870517118399623,-2.0769405013387447,-4.980706214904785,-4.938375949859619,-4.380216598510742,0.6841212511062622,-0.47032180428504944,-0.5574723482131958,-0.8976528644561768,1.698333978652954,0.2815934419631958
0.42308672702220157,0.832599078474043,-2.064928679699288,-5.292998313903809,-4.864049434661865,-4.270414352416992,0.674462080001831,-0.4105769693851471,-0.6136183142662048,-0.8319938778877258,1.6889125108718872,0.21156448125839233
0.35521952553080943,0.7800315697633982,-2.054292582603384,-5.473421096801758,-4.813443660736084,-4.1274495124816895,0.6593948602676392,-0.3477962017059326,-0.6665105223655701,-0.7316452860832214,1.6725947856903076,0.09709823131561279
0.2871126288598681,0.7289401063929858,-2.0454961664620224,-5.553014278411865,-4.833226680755615,-3.952042818069458,0.638813853263855,-0.2831842303276062,-0.7153485417366028,-0.5951279997825623,1.656093716621399,-0.024473845958709717
0.2195456998698247,0.6780568299435171,-2.038602136476927,-5.5682291984558105,-4.983098030090332,-3.747171401977539,0.6122239828109741,-0.2177862524986267,-0.7600993514060974,-0.4585527181625366,1.6469091176986694,-0.15640461444854736
0.1531940696021871,0.6257606716776084,-2.033925215105297,-5.491024971008301,-5.279686450958252,-3.5570068359375,0.5788545608520508,-0.15259556472301483,-0.8010256290435791,-0.2956209182739258,1.6304244995117188,-0.3464200496673584
0.08850852605610225,0.5707060922908868,-2.032223979335395,-5.3470025062561035,-5.665408134460449,-3.44016170501709,0.5381117463111877,-0.08839301019906998,-0.8382257223129272,-0.13639366626739502,1.5824878215789795,-0.6074224710464478
0.026068022690692368,0.5120356341697127,-2.0342367947794786,-5.087368011474609,-6.028129577636719,-3.313608407974243,0.4897863566875458,-0.026065070182085037,-0.8714527487754822,0.025731772184371948,1.5598479509353638,-0.9325938820838928
-0.03198852177285521,0.4509131307445801,-2.0402954458452367,-4.575402736663818,-6.093645095825195,-3.105832099914551,0.43556463718414307,0.031983066350221634,-0.8995891213417053,0.21395617723464966,1.5500023365020752,-1.3927388191223145
-0.08243133836430018,0.391205132200599,-2.0496990981613266,-3.8083181381225586,-5.620749473571777,-2.6760201454162598,0.3800080418586731,0.08233802020549774,-0.9213111996650696,0.37435591220855713,1.5904676914215088,-1.9550774097442627
-0.12237461405062695,0.33891884585064763,-2.0594507918033687,-2.9432220458984375,-4.538651943206787,-1.9437199831008911,0.3299812972545624,0.12206940352916718,-0.9360616207122803,0.6081595420837402,1.6437538862228394,-2.4717295169830322
-0.15200293915021412,0.29922733623380376,-2.066043218665554,-2.30356764793396,-3.179760217666626,-1.1587131023406982,0.2913830578327179,0.1514182835817337,-0.944546639919281,0.8142839670181274,1.6427863836288452,-2.780367851257324
-0.17526556772111002,0.27400055708793636,-2.0681207537542083,-2.0757832527160645,-1.7921671867370605,-0.5753103494644165,0.26643961668014526,0.17436964809894562,-0.9479478597640991,0.8163697719573975,1.6387253999710083,-2.8354382514953613
-0.19629964740341807,0.26272401033370446,-2.066501953163713,-2.0449869632720947,-0.5384503602981567,-0.2542606592178345,0.25472429394721985,0.19504138827323914,-0.947140097618103,0.6906186938285828,1.6082422733306885,-2.79439115524292
-0.2155672354426672,0.2632292479790896,-2.0630010555900657,-1.8020364046096802,0.44565504789352417,-0.09167469292879105,0.25417765974998474,0.2139015644788742,-0.9432072043418884,0.5037416219711304,1.6160544157028198,-2.8297266960144043
-0.23053884537572142,0.2715025049323349,-2.05933233130977,-1.2323267459869385,0.9864959716796875,-0.014668412506580353,0.26108410954475403,0.22850213944911957,-0.937881588935852,0.3632749915122986,1.6311627626419067,-2.931671142578125
-0.23876196140242867,0.28299056514895177,-2.056864911774547,-0.45435479283332825,1.1617871522903442,0.028111008927226067,0.27130722999572754,0.23649989068508148,-0.9329845905303955,0.3065430819988251,1.6177786588668823,-2.979231595993042
-0.23888827881551516,0.2952484513379423,-2.056342808534024,0.4024433493614197,1.2628237009048462,0.06428533047437668,0.28271427750587463,0.236622616648674,-0.9295603036880493,0.312195360660553,1.5656996965408325,-2.9633078575134277
-0.2307693806884905,0.30869108151713043,-2.057728805975325,1.2126874923706055,1.508790135383606,0.17521850764751434,0.2957580089569092,0.2287265807390213,-0.9274758100509644,0.35943907499313354,1.4971339702606201,-2.8801870346069336
-0.2148763121781902,0.32560278508001866,-2.060094678816222,1.925766110420227,1.9894886016845703,0.38865312933921814,0.31252360343933105,0.2132265865802765,-0.9256691932678223,0.4154578745365143,1.4373623132705688,-2.7292532920837402
-0.19195012219689472,0.3481943472480028,-2.062432286719923,2.529160737991333,2.627626419067383,0.7052427530288696,0.3349345922470093,0.19077356159687042,-0.9227265119552612,0.42742496728897095,1.4122995138168335,-2.5162534713745117
-0.16234282860559018,0.37791589318373286,-2.0639392045439418,3.0902864933013916,3.3571674823760986,1.129687786102295,0.3641325831413269,0.16163067519664764,-0.9172148108482361,0.3967926502227783,1.4295710325241089,-2.2848877906799316
-0.12579686558103526,0.4151656203768896,-2.064270656693231,3.651618003845215,4.070061206817627,1.6282246112823486,0.4001542925834656,0.12546534836292267,-0.9078188538551331,0.33812692761421204,1.4708480834960938,-2.0594358444213867
-0.08218126232833046,0.45887552511330243,-2.0637920836031896,4.177658557891846,4.5994415283203125,2.136887550354004,0.44144532084465027,0.08208879083395004,-0.8935253024101257,0.24123284220695496,1.541751503944397,-1.8157336711883545
-0.03187455312150613,0.5065431121100771,-2.063200892287631,4.648622512817383,4.863111972808838,2.622304916381836,0.48491090536117554,0.031869154423475266,-0.8739826679229736,0.1262187957763672,1.6340701580047607,-1.5419261455535889
0.024688919872567956,0.5555122051891003,-2.063244549723726,5.074431896209717,4.865777969360352,3.082224130630493,0.5272178053855896,-0.024686411023139954,-0.8493714928627014,0.011722564697265625,1.750272274017334,-1.2759947776794434
0.08717229770682641,0.6036118479566769,-2.0644918689163587,5.482109069824219,4.6987528800964355,3.5399107933044434,0.5654644966125488,-0.08706193417310715,-0.8201647400856018,-0.10194826126098633,1.893855094909668,-1.0477094650268555
0.15547798389590695,0.6502036242909469,-2.0670851429357944,5.8374247550964355,4.538441181182861,4.036799430847168,0.5980465412139893,-0.15485233068466187,-0.7863593697547913,-0.2051481008529663,2.0418457984924316,-0.8664879202842712
0.2291231246399674,0.6961238553425796,-2.071014769332463,6.104441165924072,4.479072093963623,4.5096893310546875,0.6244897842407227,-0.22712364792823792,-0.747279942035675,-0.32679086923599243,2.1828579902648926,-0.7116281390190125
0.30703504818682514,0.7425177108764742,-2.076488786657353,6.2640838623046875,4.4830708503723145,4.9303178787231445,0.644524335861206,-0.30223366618156433,-0.7023127675056458,-0.46895676851272583,2.312441825866699,-0.5708348751068115
0.3883821218276664,0.79008380681389,-2.0838528764896895,6.373863220214844,4.499190330505371,5.3219380378723145,0.6575028300285339,-0.37869152426719666,-0.6513698697090149,-0.5790574550628662,2.430372953414917,-0.4661075472831726
0.47302936903700193,0.8396091296779566,-2.093704989644896,6.503802299499512,4.558538436889648,5.737486362457275,0.6626431941986084,-0.4555850923061371,-0.5944292545318604,-0.6424558758735657,2.554858684539795,-0.41992926597595215
0.5611545954154361,0.8924197112009995,-2.1070220064836116,6.629911422729492,4.6510210037231445,6.146177291870117,0.659188449382782,-0.5321640968322754,-0.5312926769256592,-0.6695645451545715,2.6559433937072754,-0.4115326404571533
0.6522948912113782,0.9497999720167015,-2.1250799144196457,6.7114644050598145,4.733508110046387,6.5274553298950195,0.6463230848312378,-0.6070117354393005,-0.4623887240886688,-0.7118443846702576,2.7356433868408203,-0.38548117876052856
0.7457411345829906,1.0137843998641354,-2.1495948827860722,6.740495681762695,4.882394790649414,6.882033824920654,0.6235442757606506,-0.6785164475440979,-0.3883400857448578,-0.7721954584121704,2.812549591064453,-0.3625296950340271
0.8407048688046268,1.0877504352162692,-2.182823624543773,6.693024158477783,5.144186496734619,7.235708236694336,0.5906296968460083,-0.7451134324073792,-0.30977845191955566,-0.8410722613334656,2.8959312438964844,-0.35193419456481934
0.936412925469027,1.176384902897134,-2.2283488727286698,6.587328910827637,5.47196626663208,7.602157115936279,0.5471767783164978,-0.8054372668266296,-0.22774653136730194,-0.8956264853477478,2.965669631958008,-0.35462048649787903
1.0318834990589778,1.2865105462754,-2.292687174389291,6.444975852966309,5.77191162109375,7.976879596710205,0.49260422587394714,-0.8582671284675598,-0.1439390778541565,-0.9388018250465393,3.022451877593994,-0.3733186721801758
1.1257351038956884,1.429839724716091,-2.38843942226705,6.319531440734863,5.929147720336914,8.393991470336914,0.42624324560165405,-0.9025843143463135,-0.06048290431499481,-0.9542279243469238,3.0881922245025635,-0.39786064624786377
1.2147814447200018,1.6297318704704955,-2.540746125077491,6.23693323135376,5.888087272644043,8.809284210205078,0.34793710708618164,-0.9372932314872742,0.02052963711321354,-0.9426484107971191,3.1768102645874023,-0.4260472059249878
1.2905370156792373,1.930270258305295,-2.795829524974925,6.173231601715088,5.636014938354492,9.137640953063965,0.2589249610900879,-0.9609837532043457,0.09730461239814758,-0.9223924279212952,3.2309727668762207,-0.43154847621917725
1.335018425808724,2.373185015397533,3.0861735712400056,6.0829267501831055,5.256077289581299,9.357136726379395,0.16234980523586273,-0.9723328948020935,0.16796253621578217,-0.9143944978713989,3.248715400695801,-0.40609121322631836
1.3282567197834851,2.8873844295203606,2.6092135729378367,5.984794616699219,4.7517476081848145,9.46393871307373,0.060397520661354065,-0.9707311987876892,0.2324507087469101,-0.8947634100914001,3.247769594192505,-0.3752882182598114
1.2728584182229137,-2.994866908295428,2.240029948694558,5.908896446228027,4.152942657470703,9.467864990234375,-0.042916882783174515,-0.9559438228607178,0.29039525985717773,-0.8619903922080994,3.1977193355560303,-0.36093664169311523
1.1899887433924312,-2.7417986016385303,2.0132727388706573,5.8370232582092285,3.6358115673065186,9.42846965789795,-0.1446649432182312,-0.9283648133277893,0.34236133098602295,-0.8520697355270386,3.147007942199707,-0.35304245352745056
1.094865953402928,-2.5824180094556564,1.8767611973072171,5.733447551727295,3.3788371086120605,9.325170516967773,-0.24305088818073273,-0.8888668417930603,0.388384073972702,-0.8697726726531982,3.1162073612213135,-0.37405604124069214
0.9948478042857529,-2.473946898611104,1.7908392021812218,5.605269432067871,3.440591812133789,9.16811466217041,-0.3372018337249756,-0.8386760950088501,0.4276880621910095,-0.9310324192047119,3.048591375350952,-0.4218897521495819
0.8936889632946192,-2.393221365517129,1.7351126315253693,5.481620788574219,3.628063440322876,8.863510131835938,-0.42632773518562317,-0.7793883085250854,0.45912840962409973,-1.0414305925369263,2.9427030086517334,-0.46250057220458984
0.7940814823837329,-2.3300341416755366,1.7003151109381416,5.394834995269775,3.7631804943084717,8.35688591003418,-0.508434534072876,-0.7132200598716736,0.48250529170036316,-1.117236852645874,2.709512233734131,-0.4576335549354553
0.6981671280743648,-2.2787631098414796,1.6807356593037892,5.268871307373047,3.772266387939453,7.7682929039001465,-0.581935465335846,-0.6428147554397583,0.4981364607810974,-1.0844004154205322,2.4377520084381104,-0.41467103362083435
0.6071021054659025,-2.235961939324772,1.6710353424686588,5.03690242767334,3.5467214584350586,7.264073848724365,-0.6462146639823914,-0.5704898238182068,0.5069006681442261,-0.9648389220237732,2.194437026977539,-0.30023568868637085
0.5210593364159226,-2.1998618660631784,1.666657557144518,4.709537506103516,3.1751163005828857,6.876035213470459,-0.7012733221054077,-0.4977991580963135,0.5103057026863098,-0.8636834025382996,2.0231897830963135,-0.15097647905349731
0.4398687630419059,-2.1686469483003186,1.6647841822472385,4.334970474243164,2.895226001739502,6.5585479736328125,-0.7478664517402649,-0.4258207380771637,0.509286642074585,-0.8123296499252319,1.9210903644561768,-0.03133547306060791
0.36319608290501193,-2.1396659220743763,1.663709497805736,3.9122567176818848,2.8240389823913574,6.312976837158203,-0.7875500917434692,-0.3552636206150055,0.5035397410392761,-0.8009355068206787,1.8274927139282227,0.004974484443664551
0.290824255303494,-2.1103637669737156,1.662502037401546,3.502809524536133,2.9548590183258057,6.0652899742126465,-0.8219045996665955,-0.2867419719696045,0.49219080805778503,-0.8312630653381348,1.730940580368042,-0.03015473484992981
0.2230073106765223,-2.0802005149847687,1.6625520494393804,3.3154702186584473,3.0375266075134277,5.5849809646606445,-0.8514158129692078,-0.22116345167160034,0.4755810797214508,-1.020456075668335,1.5445430278778076,-0.1195482611656189
0.16121222814528324,-2.0507761246890848,1.6668695353724179,3.2783281803131104,2.9835948944091797,4.846421241760254,-0.8755027651786804,-0.16051483154296875,0.4557737708091736,-1.2859809398651123,1.2649917602539062,-0.18265682458877563
0.10641641093156025,-2.0224968977362385,1.6754674125494362,3.1245734691619873,2.875009298324585,4.171900272369385,-0.8946164846420288,-0.10621567070484161,0.43402689695358276,-1.3304810523986816,1.0446312427520752,-0.14395743608474731
0.05785173640716373,-1.9949529880372998,1.6860262993755983,2.886537551879883,2.791256904602051,3.740699291229248,-0.9098613262176514,-0.05781947076320648,0.4108637571334839,-1.2389881610870361,0.9637795686721802,-0.07272914052009583
0.012981990344978005,-1.9678445367330266,1.6973214049884966,2.776010751724243,2.681687355041504,3.5916013717651367,-0.9221286773681641,-0.012981625273823738,0.3866652548313141,-1.1327266693115234,1.002361536026001,-0.06304174661636353
-0.03081013825001894,-1.9417010947353603,1.7100310947267945,2.8586158752441406,2.499053716659546,3.5545847415924072,-0.9315575361251831,0.03080526366829872,0.36228683590888977,-1.1121437549591064,1.0388816595077515,-0.09443411231040955
-0.07415605945808379,-1.9170633331425602,1.7251212759629164,2.9834015369415283,2.2479753494262695,3.473208427429199,-0.9380608201026917,0.07408811151981354,0.3384559452533722,-1.2448155879974365,1.0073480606079102,-0.03947538137435913
-0.11628338343447002,-1.8942271557784136,1.7425785510145038,3.0344467163085938,1.9685308933258057,3.3117599487304688,-0.9417476058006287,0.11602149903774261,0.3156750798225403,-1.4490454196929932,0.9092622995376587,0.10209527611732483
-0.15598859447881197,-1.8735266864590514,1.7617712448059253,3.001284122467041,1.6293364763259888,3.028865337371826,-0.9429365992546082,0.155356764793396,0.294507771730423,-1.695918321609497,0.800514817237854,0.29626667499542236
-0.1915023085393886,-1.8556829405112931,1.7822624088898433,2.888425350189209,1.2129441499710083,2.556098222732544,-0.9421496391296387,0.19033394753932953,0.275910884141922,-2.006626605987549,0.7031444311141968,0.5006852149963379
-0.22098908425406735,-1.8410137202163832,1.8031941856340372,2.6259360313415527,0.8800631761550903,1.9714741706848145,-0.940276563167572,0.21919475495815277,0.26044926047325134,-2.290344715118408,0.616895318031311,0.7043485641479492
-0.24361259398161922,-1.8282550249915153,1.8227863824216994,2.2052624225616455,0.7896949052810669,1.4005275964736938,-0.9384862780570984,0.24121011793613434,0.24710553884506226,-2.4676568508148193,0.5800331830978394,0.8892621994018555
-0.259673590046993,-1.8158786429991143,1.8396259132983968,1.746368169784546,0.8507638573646545,0.8990391492843628,-0.9375929236412048,0.25676509737968445,0.23450149595737457,-2.574324131011963,0.6173956394195557,1.0191757678985596
-0.2699787565152589,-1.8032711444726637,1.853683427593737,1.3790111541748047,0.9275475740432739,0.46539610624313354,-0.9378501176834106,0.26671096682548523,0.222041055560112,-2.6538398265838623,0.6858036518096924,1.077183723449707
-0.2751852403400562,-1.7905483333137346,1.865511310398808,1.0711089372634888,0.9683029055595398,0.03390338644385338,-0.9392313957214355,0.27172520756721497,0.2097858190536499,-2.7044758796691895,0.7517428398132324,1.1080242395401
-0.2750292280190759,-1.7785283099534333,1.8752467959382506,0.7479289770126343,0.8707361221313477,-0.47018158435821533,-0.941726565361023,0.27157506346702576,0.19849008321762085,-2.743988275527954,0.7715920209884644,1.1538505554199219
-0.2688429346500943,-1.7692934786211334,1.8826421674991076,0.39086148142814636,0.5516640543937683,-1.0275373458862305,-0.945148229598999,0.26561611890792847,0.19011269509792328,-2.757732629776001,0.7668240666389465,1.2247889041900635
-0.2562739622958363,-1.7648037469484084,1.8872656710224522,-0.012010090053081512,0.08295813947916031,-1.6025077104568481,-0.94919353723526,0.25347796082496643,0.1864963173866272,-2.7132973670959473,0.7858744859695435,1.2859920263290405
-0.237224494958532,-1.7666062579405002,1.888550267436022,-0.4846363067626953,-0.5152855515480042,-2.166513442993164,-0.9534196257591248,0.23500576615333557,0.18911218643188477,-2.623164176940918,0.8110605478286743,1.3262685537338257
-0.2118834225565898,-1.7753192450161888,1.8861297508414299,-0.9808210134506226,-1.099896788597107,-2.688295602798462,-0.95726078748703,0.21030157804489136,0.19855806231498718,-2.504333019256592,0.8510234951972961,1.3173261880874634
-0.18045213637130322,-1.7898197281048343,1.8799849339376589,-1.520818829536438,-1.5305787324905396,-3.1812446117401123,-0.960260808467865,0.1794743835926056,0.2137484848499298,-2.380574941635132,0.9249262809753418,1.253902792930603
-0.14303791787060738,-1.8082350725681615,1.8698044851259845,-2.118788719177246,-1.795576810836792,-3.626072406768799,-0.9620174169540405,0.14255066215991974,0.232811838388443,-2.2477450370788574,1.0213592052459717,1.1700048446655273
-0.09969066305118898,-1.8286881701083544,1.855826533488796,-2.6678431034088135,-1.9297906160354614,-4.073075294494629,-0.9621291160583496,0.09952562302350998,0.2537764310836792,-2.1143784523010254,1.1246107816696167,1.0312882661819458
-0.050262419813116944,-1.8495077769686095,1.8391275557984192,-3.1370184421539307,-1.9533249139785767,-4.550368309020996,-0.9601966142654419,0.05024125799536705,0.2747696340084076,-2.0217981338500977,1.208242654800415,0.8550063371658325
0.0055054465264189004,-1.8690818535205453,1.8204573800934576,-3.597569704055786,-1.8541077375411987,-5.047339916229248,-0.9558272957801819,-0.005505418870598078,0.29387742280960083,-1.943830966949463,1.3281372785568237,0.6854163408279419
0.06780842823862708,-1.8861782302647316,1.7996895706232994,-4.099706649780273,-1.7042123079299927,-5.54203987121582,-0.9484933614730835,-0.06775647401809692,0.30946677923202515,-1.8209006786346436,1.4645917415618896,0.5419888496398926
0.1369952488095193,-1.90020905074166,1.7766082809557722,-4.611013412475586,-1.5712348222732544,-6.095324993133545,-0.9373672008514404,-0.1365671306848526,0.3204566240310669,-1.6789811849594116,1.583756446838379,0.422387033700943
0.21356684906541815,-1.911380053761425,1.7514096100893848,-5.0709357261657715,-1.545996069908142,-6.6980791091918945,-0.921146035194397,-0.21194705367088318,0.3264484405517578,-1.5545315742492676,1.720674991607666,0.2925852835178375
0.29759143612284195,-1.920572315637986,1.7247989276144042,-5.410458564758301,-1.637904405593872,-7.328667163848877,-0.8981563448905945,-0.29321837425231934,0.327624648809433,-1.4209506511688232,1.8654382228851318,0.1390499770641327
0.38866375829899724,-1.9287420554156616,1.69783646721771,-5.615786552429199,-1.8062273263931274,-7.943420886993408,-0.8667619824409485,-0.37895217537879944,0.3242204189300537,-1.2715895175933838,2.0251009464263916,-0.02343928813934326
0.48606842431063874,-1.9368003636762947,1.6713370837041455,-5.7284722328186035,-2.0385756492614746,-8.507963180541992,-0.8256130218505859,-0.46715331077575684,0.3164352774620056,-1.1124211549758911,2.1987054347991943,-0.162504643201828
0.588660103117024,-1.9453318636615047,1.6455676450827368,-5.78173303604126,-2.28120756149292,-8.941984176635742,-0.774030864238739,-0.5552471280097961,0.30426397919654846,-0.9579484462738037,2.3890180587768555,-0.2633552849292755
0.6945009326818536,-1.9534869139835236,1.6202321485159619,-5.765981197357178,-2.3163716793060303,-9.130927085876465,-0.7127913236618042,-0.6400020718574524,0.2869240939617157,-0.8175582885742188,2.634554862976074,-0.3706950545310974
0.8006164869656412,-1.9577510777475533,1.5945370037965085,-5.647565841674805,-1.9881362915039062,-9.030089378356934,-0.6447842717170715,-0.7177854776382446,0.2627493143081665,-0.658026397228241,2.89689302444458,-0.5006186962127686
0.9040117961347546,-1.9553553365819725,1.567478527544898,-5.376255989074707,-1.6017824411392212,-8.709590911865234,-0.5732924342155457,-0.7858143448829651,0.232016459107399,-0.46273356676101685,3.052766799926758,-0.6235874891281128
1.0024895968136056,-1.9459114377616087,1.5391493771050297,-4.947074890136719,-1.0388336181640625,-8.303997039794922,-0.5007817149162292,-0.8428134918212891,0.19718755781650543,-0.26520949602127075,3.0421390533447266,-0.7175885438919067
1.0957572599299321,-1.927976895315643,1.5074724367784313,-4.670496940612793,-0.9604359865188599,-7.916258335113525,-0.42850688099861145,-0.8892748355865479,0.15991336107254028,-0.06812101602554321,2.9122390747070312,-0.6004499197006226
1.1837237036627424,-1.9021487989257544,1.4666243418750133,-4.4353251457214355,-1.3179781436920166,-7.443477153778076,-0.3569457232952118,-0.9260180592536926,0.12280243635177612,0.03202500939369202,2.7022173404693604,-0.5034177303314209
1.2660215579919911,-1.8660798250420494,1.4122101370512612,-4.113414764404297,-1.6955819129943848,-7.045599937438965,-0.2870909869670868,-0.9539145827293396,0.08732616156339645,0.0893828272819519,2.432720184326172,-0.48565685749053955
1.3434504339702986,-1.8113710379328074,1.3358481625340388,-3.838609457015991,-2.1058850288391113,-6.78364896774292,-0.2189013659954071,-0.9742680191993713,0.05370217561721802,0.027189910411834717,2.2652530670166016,-0.4297856092453003
