attitudeX,attitudeY,attitudeZ,gyroX,gyroY,gyroZ,gravityX,gravityY,gravityZ,accX,accY,accZ
0.7071125259501204,0.899110031282545,-1.5697768462919115,0.12171687185764313,0.2756469249725342,-0.2901500165462494,0.5950963497161865,-0.6496413350105286,-0.4731031358242035,-0.08626145124435425,-0.07220625877380371,-0.017710983753204346
0.7054685832673679,0.9035065665660549,-1.573303758819046,0.09265565127134323,0.13741691410541534,-0.30001452565193176,0.5980086922645569,-0.6483906507492065,-0.4711425006389618,-0.06260830163955688,-0.06648361682891846,0.006100445985794067
0.7035588116259969,0.906227704446085,-1.5767197506806296,0.08013027161359787,-0.03968542069196701,-0.3215680420398712,0.6002621650695801,-0.6469355225563049,-0.47027626633644104,-0.0551723837852478,-0.05814260244369507,0.03100636601448059
0.7014405719535424,0.9072347500361978,-1.5802039844248201,0.07599660009145737,-0.20731334388256073,-0.3367583155632019,0.6018136739730835,-0.6453188061714172,-0.47051453590393066,-0.041739702224731445,-0.060217082500457764,0.049600958824157715
0.6991791657697691,0.9067261292824831,-1.5837320087723155,0.06844920665025711,-0.3423508107662201,-0.34893882274627686,0.6027219295501709,-0.6435896754264832,-0.47171875834465027,-0.024413764476776123,-0.06598979234695435,0.05599316954612732
0.6967986305278225,0.9051045397315709,-1.5873360708781763,0.07107022404670715,-0.43028464913368225,-0.3642866313457489,0.603159487247467,-0.641765832901001,-0.47364041209220886,-0.019007205963134766,-0.07300162315368652,0.0514756441116333
0.6942440730280154,0.9030198884026568,-1.591196812312108,0.08194124698638916,-0.47432589530944824,-0.40386998653411865,0.6034561395645142,-0.6398046612739563,-0.4759104251861572,-0.025437891483306885,-0.0778467059135437,0.046039968729019165
0.6913285884481029,0.9008760118156416,-1.595600773049474,0.08444938063621521,-0.517139732837677,-0.47438958287239075,0.6038941144943237,-0.6375612616539001,-0.47835931181907654,-0.048977673053741455,-0.07694679498672485,0.0460016131401062
0.687752976237108,0.8987197994176622,-1.6006428464387006,0.07530248910188675,-0.5574554800987244,-0.571235716342926,0.604641318321228,-0.6348025798797607,-0.48107659816741943,-0.08190560340881348,-0.07650119066238403,0.06101745367050171
0.6832844333593822,0.8963806088202401,-1.6063252732456241,0.05047811567783356,-0.635597825050354,-0.6740717887878418,0.6057238578796387,-0.6313434839248657,-0.4842561185359955,-0.10288572311401367,-0.081226646900177,0.07976093888282776
0.6777788096056616,0.8933192630762424,-1.612493709574588,0.005272554233670235,-0.7524136304855347,-0.7805436849594116,0.6069377064704895,-0.6270643472671509,-0.4882796108722687,-0.11352938413619995,-0.08715379238128662,0.10424649715423584
0.6710772991305012,0.8891942212285501,-1.619026032044709,-0.05652792379260063,-0.8796732425689697,-0.8966818451881409,0.6081681847572327,-0.6218300461769104,-0.4934157133102417,-0.12446445226669312,-0.09305953979492188,0.13338464498519897
0.6630378977446182,0.8839244109072466,-1.6257304085688755,-0.14536699652671814,-0.9962259531021118,-1.0065792798995972,0.6094053387641907,-0.6155139207839966,-0.4997676908969879,-0.1350247859954834,-0.09450805187225342,0.15894746780395508
0.653625982987674,0.8774502164526964,-1.6323144331453496,-0.2510758340358734,-1.0922281742095947,-1.10274338722229,0.610585629940033,-0.6080690026283264,-0.5073826909065247,-0.13651031255722046,-0.08835738897323608,0.1801580786705017
0.6428410941091339,0.8698935135992576,-1.6386366922337627,-0.3620443046092987,-1.1764099597930908,-1.1921597719192505,0.611710786819458,-0.5994718670845032,-0.5161817073822021,-0.12973129749298096,-0.08383196592330933,0.19184094667434692
0.6306546390338206,0.8613303207194338,-1.6446814031758579,-0.47759178280830383,-1.2464168071746826,-1.2871841192245483,0.6127657294273376,-0.5896735787391663,-0.5261210203170776,-0.1359589695930481,-0.07533496618270874,0.2053813934326172
0.616995690193389,0.85184906567519,-1.6503867562282009,-0.6105242967605591,-1.3088085651397705,-1.3747684955596924,0.6137539744377136,-0.5785874128341675,-0.5371617674827576,-0.14578205347061157,-0.060786426067352295,0.22336488962173462
0.6019117025273738,0.8415560933657145,-1.65553253029489,-0.7498483061790466,-1.3212999105453491,-1.4327999353408813,0.614630937576294,-0.5662192106246948,-0.5492035746574402,-0.13770216703414917,-0.0477028489112854,0.23613911867141724
0.5857282382871967,0.8309769682053969,-1.6600109231316797,-0.8608054518699646,-1.2807115316390991,-1.45292329788208,0.6154745221138,-0.5528063774108887,-0.5617794990539551,-0.10519003868103027,-0.04076051712036133,0.22788679599761963
0.5689289512693169,0.8205315730782766,-1.6638268239631138,-0.9372395873069763,-1.2196102142333984,-1.4398332834243774,0.6162800788879395,-0.5387300252914429,-0.5744291543960571,-0.07186168432235718,-0.033322036266326904,0.20258784294128418
0.5519260009001832,0.8103310826680671,-1.667134028886797,-0.9778762459754944,-1.1677302122116089,-1.4104686975479126,0.6169366836547852,-0.5243282318115234,-0.5869149565696716,-0.053658366203308105,-0.021173477172851562,0.1819467544555664
0.5350787703573864,0.8004732733641985,-1.6701578871051956,-0.9734563827514648,-1.1140333414077759,-1.366628885269165,0.6173737645149231,-0.5099087953567505,-0.59903484582901,-0.039126574993133545,-0.008325517177581787,0.16657030582427979
0.5188088762375049,0.7909145857346617,-1.6730667278235571,-0.9349859356880188,-1.0906763076782227,-1.3012254238128662,0.6174370050430298,-0.49584609270095825,-0.6106622219085693,-0.024419307708740234,0.003322899341583252,0.15558409690856934
0.5034281636987471,0.7812863756096792,-1.6760018505173506,-0.8715057969093323,-1.119146704673767,-1.2307239770889282,0.6168267726898193,-0.48243120312690735,-0.6219202876091003,-0.0072838664054870605,0.01774004101753235,0.15474200248718262
0.4890091744858794,0.771206266731495,-1.6791167605052673,-0.7972627282142639,-1.1940516233444214,-1.17379891872406,0.6153113842010498,-0.46975141763687134,-0.6330288648605347,0.011611342430114746,0.023172438144683838,0.16531652212142944
0.4755894457754355,0.7602868593692117,-1.6825516649995473,-0.715270459651947,-1.2988674640655518,-1.1220293045043945,0.6126518249511719,-0.4578625559806824,-0.6442201733589172,0.0320320725440979,0.018180489540100098,0.178552508354187
0.46314938992594396,0.7485428606679186,-1.6863103421241743,-0.634270966053009,-1.381043553352356,-1.06490159034729,0.6088735461235046,-0.4467679262161255,-0.6554933190345764,0.05029094219207764,0.0115261971950531,0.19014614820480347
0.45172473581803585,0.7361433303030734,-1.6902909996356092,-0.5641521215438843,-1.4362486600875854,-0.9992566704750061,0.6040870547294617,-0.4365179240703583,-0.6667316555976868,0.06224912405014038,0.009958446025848389,0.19964492321014404
0.4412879556608413,0.723575312197272,-1.6944671794393606,-0.4839960038661957,-1.4214987754821777,-0.95068359375,0.5986437797546387,-0.4271043837070465,-0.6776484847068787,0.06578493118286133,0.014766126871109009,0.2101345658302307
0.4318859769592479,0.711724522404436,-1.6991653348593443,-0.3683069348335266,-1.332453727722168,-0.9259412288665771,0.5931679010391235,-0.41858434677124023,-0.6877056360244751,0.06489795446395874,0.018483608961105347,0.21526306867599487
0.4237003184645331,0.7012548174599776,-1.7048342743587834,-0.2019597589969635,-1.2311146259307861,-0.9231129288673401,0.5881264209747314,-0.41113635897636414,-0.6964727640151978,0.0629662275314331,0.022784918546676636,0.21566832065582275
0.41698319481756246,0.6921172998998432,-1.7118998944921886,-0.0033734706230461597,-1.1749509572982788,-0.9225080013275146,0.5834872126579285,-0.40500399470329285,-0.7039279341697693,0.06481307744979858,0.03249114751815796,0.22205543518066406
0.41199226181994125,0.6836141070126708,-1.7203877850373335,0.21092896163463593,-1.2239634990692139,-0.9023234248161316,0.5787500143051147,-0.4004356861114502,-0.7104222774505615,0.07408207654953003,0.05110093951225281,0.24057364463806152
0.40887683956740595,0.6743277460835944,-1.7300750808511836,0.4037843346595764,-1.4252713918685913,-0.8615522384643555,0.572904109954834,-0.39757901430130005,-0.7167370319366455,0.08204901218414307,0.06917932629585266,0.2781231999397278
0.4074485082886223,0.6621913669723262,-1.7402486309623446,0.49629586935043335,-1.832959532737732,-0.7673227190971375,0.5645120739936829,-0.39626801013946533,-0.7240840792655945,0.08053803443908691,0.08874240517616272,0.33559542894363403
0.40704513442617973,0.6448845651467103,-1.7492692980315427,0.39757490158081055,-2.349186897277832,-0.5851798057556152,0.5519925951957703,-0.39589762687683105,-0.7338727712631226,0.06789577007293701,0.11408305168151855,0.41633743047714233
0.4065830620156113,0.6214081256232454,-1.755150326750389,0.1255849003791809,-2.8066134452819824,-0.3380107581615448,0.5347198247909546,-0.39547327160835266,-0.746776819229126,0.06255501508712769,0.13134363293647766,0.506161093711853
0.4047571203620779,0.5918624295214029,-1.7565475307784029,-0.2982255518436432,-3.1912286281585693,-0.08184689283370972,0.5128276348114014,-0.39379552006721497,-0.7628452777862549,0.057713866233825684,0.12241792678833008,0.5743535161018372
0.40010921219319295,0.5569914427398298,-1.753033283863279,-0.8443288207054138,-3.4776675701141357,0.11281633377075195,0.48688238859176636,-0.3895189166069031,-0.7818059325218201,0.020960688591003418,0.09821340441703796,0.6159735321998596
0.39100731018660895,0.5178985771772737,-1.7449285692944756,-1.4899301528930664,-3.686119556427002,0.2308506965637207,0.45769140124320984,-0.38111990690231323,-0.8032846450805664,-0.050815701484680176,0.07721057534217834,0.6356516480445862
0.3759968125415185,0.47586941397631183,-1.7329287751993825,-2.2032957077026367,-3.777945041656494,0.2896452844142914,0.426108717918396,-0.3671998977661133,-0.8267984390258789,-0.14006739854812622,0.0657777488231659,0.6367807388305664
0.3542080118854952,0.4326434413296915,-1.7178729820647378,-2.92710018157959,-3.7536284923553467,0.32375961542129517,0.39324435591697693,-0.34684765338897705,-0.851502001285553,-0.22265103459358215,0.07119759917259216,0.601624071598053
0.3255384203911189,0.3897990829959982,-1.7008460728269972,-3.5826656818389893,-3.6460962295532227,0.3243604302406311,0.36004433035850525,-0.31981897354125977,-0.8764039874076843,-0.306745320558548,0.09380576014518738,0.5180055499076843
0.2904722312380922,0.3486499268896229,-1.6832801467397753,-4.127197742462158,-3.498528003692627,0.2559729814529419,0.3273179829120636,-0.28640469908714294,-0.9004639387130737,-0.4056718051433563,0.10267361998558044,0.36823737621307373
0.24987281865259103,0.30961408732818785,-1.6669934864321074,-4.518609046936035,-3.4171247482299805,0.07395924627780914,0.2952285706996918,-0.24728073179721832,-0.9228717684745789,-0.4986739456653595,0.10267318785190582,0.17502331733703613
0.20546103503933047,0.27329620181036796,-1.6541581055477117,-4.636076927185059,-3.2159879207611084,-0.24740685522556305,0.26422983407974243,-0.2040185183286667,-0.942634105682373,-0.5889825820922852,0.10837644338607788,-0.08306163549423218
0.16008321906132594,0.24169282879791815,-1.646994143016606,-4.434822082519531,-2.7937281131744385,-0.7144267559051514,0.23628631234169006,-0.1594003587961197,-0.9585198760032654,-0.6744576096534729,0.08524264395236969,-0.4330359101295471
0.11653205064779418,0.21670386161093727,-1.6469923356072993,-4.0037312507629395,-2.1598243713378906,-1.2577036619186401,0.2135535031557083,-0.11626848578453064,-0.9699879288673401,-0.7313299179077148,0.06390032172203064,-0.7585582137107849
0.07658004255960388,0.19870495621336906,-1.653379615368456,-3.5165460109710693,-1.5050126314163208,-1.5978697538375854,0.196821391582489,-0.07650521397590637,-0.977449893951416,-0.7185040712356567,0.08018258959054947,-0.9849371314048767
0.04170386797588246,0.18821152194908272,-1.6642973978757483,-2.8755853176116943,-0.7422327399253845,-1.8629330396652222,0.18693962693214417,-0.04169178009033203,-0.9814863204956055,-0.5475810170173645,0.07259084284305573,-1.1110124588012695
0.01338454177679251,0.1838051100026856,-1.6790617230741463,-2.113085985183716,-0.241240456700325,-2.0606582164764404,0.18275552988052368,-0.013384141959249973,-0.9830672740936279,-0.3659067153930664,0.0941794365644455,-1.216243028640747
-0.007108795154713619,0.18321077974329847,-1.6968872727528166,-1.2485754489898682,0.09831926226615906,-2.16743803024292,0.18218295276165009,0.007108735386282206,-0.983238935470581,-0.2125936597585678,0.12584109604358673,-1.301032304763794
-0.01888254081310881,0.18493717275758656,-1.7169265205467785,-0.34774523973464966,0.27501869201660156,-2.1815545558929443,0.18385200202465057,0.0188814178109169,-0.9827725887298584,-0.0770098865032196,0.1560606062412262,-1.3275301456451416
-0.021941804049229584,0.18762122301338388,-1.7382737189227275,0.5291481614112854,0.335942804813385,-2.1007165908813477,0.18647749722003937,0.021940043196082115,-0.9822142124176025,0.013275370001792908,0.20198269188404083,-1.289132833480835
-0.01652039147333093,0.19062764394483123,-1.7600059052152954,1.3333303928375244,0.34549474716186523,-1.943199872970581,0.18944935500621796,0.016519639641046524,-0.9817515015602112,0.07632830739021301,0.24722853302955627,-1.2065266370773315
-0.0035064408883544933,0.1939424003990199,-1.7813972448484447,2.0075273513793945,0.3593909740447998,-1.7434477806091309,0.1927276849746704,0.0035064336843788624,-0.9812459945678711,0.12106938660144806,0.2749359607696533,-1.0988168716430664
0.015671772104275228,0.19782131969637143,-1.802061395916342,2.5212035179138184,0.38894858956336975,-1.556687831878662,0.1965094804763794,-0.015671130269765854,-0.980376660823822,0.14569945633411407,0.28833043575286865,-0.9739079475402832
0.039443641150326454,0.20258141080484784,-1.8219657548088937,2.8913259506225586,0.4586590528488159,-1.3900355100631714,0.20104213058948517,-0.03943341597914696,-0.9787885546684265,0.1412430852651596,0.29776471853256226,-0.8430039882659912
0.0664714282375274,0.20875678297972539,-1.8410820058493491,3.144291400909424,0.5779619812965393,-1.233307123184204,0.2067861557006836,-0.0664224922657013,-0.976128876209259,0.13105875253677368,0.3030557930469513,-0.723791778087616
0.09558714725164429,0.21672121470503686,-1.8593171098642078,3.280594825744629,0.7136205434799194,-1.0832862854003906,0.21404710412025452,-0.09544165432453156,-0.9721495509147644,0.11516134440898895,0.30174049735069275,-0.6104310154914856
0.12567105747594723,0.22637354219367295,-1.87661338948735,3.3088884353637695,0.8300486207008362,-0.9441819787025452,0.22267505526542664,-0.1253405213356018,-0.9668017029762268,0.08573566377162933,0.2934771478176117,-0.4900921583175659
0.15563917068978614,0.2374914011521844,-1.8928323032672716,3.2270054817199707,0.9348910450935364,-0.7969024777412415,0.23242145776748657,-0.15501157939434052,-0.9601831436157227,0.0517277717590332,0.2811560034751892,-0.36926931142807007
0.18448778558754564,0.2499900258071592,-1.9076318345194787,3.043050765991211,1.0597251653671265,-0.6408194303512573,0.24319609999656677,-0.18344303965568542,-0.9524727463722229,0.02552652359008789,0.2676105499267578,-0.2451743483543396
0.2113791456855614,0.2639837965297316,-1.9208295401473823,2.788597583770752,1.2157903909683228,-0.49660030007362366,0.25512078404426575,-0.20980854332447052,-0.9438716769218445,0.004217654466629028,0.2577974796295166,-0.12905001640319824
0.23571969453360642,0.2795554628100396,-1.9324785590585527,2.4886438846588135,1.373639464378357,-0.3879601061344147,0.26829802989959717,-0.23354284465312958,-0.9345982670783997,-0.022707730531692505,0.25160926580429077,-0.028780639171600342
0.25713412701321203,0.2965409276925454,-1.9427829430287138,2.170095920562744,1.5096817016601562,-0.314460813999176,0.28260669112205505,-0.2543099522590637,-0.9249107837677002,-0.04914715886116028,0.24465113878250122,0.056349992752075195
0.2754686551405245,0.3146992857070094,-1.9519344225586863,1.844697117805481,1.6241166591644287,-0.26722219586372375,0.2978605628013611,-0.27199795842170715,-0.9150388836860657,-0.06597268581390381,0.23397305607795715,0.12557971477508545
0.29083661378647435,0.3337102149359165,-1.9600194504885216,1.5541167259216309,1.7148126363754272,-0.22261929512023926,0.3137950897216797,-0.2867538034915924,-0.9051546454429626,-0.07082933187484741,0.2204543650150299,0.17682212591171265
0.3035884196898745,0.3532552059980604,-1.96703961584656,1.2925506830215454,1.7590471506118774,-0.1850908249616623,0.330133318901062,-0.29894644021987915,-0.8953452110290527,-0.06676653027534485,0.20557790994644165,0.21416234970092773
0.31396823578931954,0.37260616386028145,-1.9730857887177524,1.0505374670028687,1.7235984802246094,-0.1554461419582367,0.34624791145324707,-0.30883529782295227,-0.8858516812324524,-0.06197658181190491,0.18920642137527466,0.2495754361152649
0.3221860553486332,0.3911591160386428,-1.9781842973915384,0.8337926864624023,1.659372091293335,-0.12999430298805237,0.3616426885128021,-0.3166408836841583,-0.8768997192382812,-0.05765703320503235,0.17381861805915833,0.2831955552101135
0.32853165527596206,0.40892772696484486,-1.9824583331976926,0.6506344676017761,1.609829306602478,-0.12293779104948044,0.3763595521450043,-0.32265356183052063,-0.8684746623039246,-0.04448080062866211,0.15894201397895813,0.30740898847579956
0.33320913038694416,0.4259373440072206,-1.9861366068034507,0.48521411418914795,1.5369348526000977,-0.13464371860027313,0.3904489576816559,-0.32707732915878296,-0.8605638146400452,-0.04001551866531372,0.14838165044784546,0.32612472772598267
0.3363501129317453,0.4416888050983025,-1.9892954048814309,0.3368578553199768,1.3860584497451782,-0.1449497938156128,0.40351396799087524,-0.3300439417362213,-0.853374183177948,-0.03745552897453308,0.14471065998077393,0.3436849117279053
0.3380482828477744,0.4554865884107242,-1.991844082843386,0.17789669334888458,1.197630524635315,-0.1395811289548874,0.415002703666687,-0.33164647221565247,-0.8472210168838501,-0.02498796582221985,0.14368870854377747,0.3656078577041626
0.33842815387178393,0.4672986025913025,-1.993611975831707,0.03988470882177353,1.048293113708496,-0.12319717556238174,0.4249241054058075,-0.3320048153400421,-0.8421474099159241,-0.005307316780090332,0.13290813565254211,0.38417017459869385
0.3376651090443903,0.4775625318708266,-1.9946122653600125,-0.08953559398651123,0.9351881742477417,-0.11552087962627411,0.4336616098880768,-0.3312849700450897,-0.8379665017127991,0.010338693857192993,0.11978292465209961,0.39247095584869385
0.33577830264119246,0.48650496857363495,-1.9950272302554308,-0.2070329636335373,0.8207680583000183,-0.12931965291500092,0.44142910838127136,-0.3295041024684906,-0.8346061706542969,0.017967313528060913,0.1091977059841156,0.3995933532714844
0.33282872116561263,0.494132970223764,-1.995002752036701,-0.3139956593513489,0.6971643567085266,-0.14131079614162445,0.44824156165122986,-0.3267178237438202,-0.8320666551589966,0.029465436935424805,0.09919402003288269,0.39969366788864136
0.32896176967040514,0.5002296508303283,-1.9944293701925737,-0.4139326810836792,0.5499186515808105,-0.12912550568580627,0.45390865206718445,-0.32306063175201416,-0.8304208517074585,0.0523780882358551,0.08339083194732666,0.39911597967147827
0.3243068398446048,0.5046375399906196,-1.9932523607550765,-0.5047917366027832,0.4065263569355011,-0.12313898652791977,0.45828673243522644,-0.31865182518959045,-0.8297194242477417,0.08137091994285583,0.06534069776535034,0.399162232875824
0.31896194116817655,0.5075011026139112,-1.9915999423160529,-0.5804099440574646,0.27095845341682434,-0.1202569231390953,0.4614819586277008,-0.31358101963996887,-0.8298803567886353,0.10159793496131897,0.04565194249153137,0.39634764194488525
0.31295769153002023,0.508898317918362,-1.989573048120015,-0.6500830054283142,0.12634454667568207,-0.1276991367340088,0.46355000138282776,-0.30787399411201477,-0.8308640122413635,0.11066880822181702,0.03709152340888977,0.393135130405426
0.30620001887793763,0.5083994402740117,-1.98715192681475,-0.7560055255889893,-0.09100599586963654,-0.12056659907102585,0.46413761377334595,-0.3014375865459442,-0.8328935503959656,0.11583372950553894,0.0387728214263916,0.39429497718811035
0.29848685026697674,0.5051086406029038,-1.9837052384528888,-0.9112270474433899,-0.3561825156211853,-0.043487001210451126,0.46250560879707336,-0.29407429695129395,-0.8364262580871582,0.1276281476020813,0.04108360409736633,0.4019017815589905
0.2898073411243038,0.49903487450732115,-1.9785136224658808,-1.0869226455688477,-0.5434262752532959,0.08452359586954117,0.4586211144924164,-0.2857676148414612,-0.8414294719696045,0.15377521514892578,0.03520303964614868,0.40145760774612427
0.28006514226156626,0.49099308529240426,-1.9712540945051569,-1.2869517803192139,-0.6494727730751038,0.21305307745933533,0.4531309902667999,-0.2764182388782501,-0.8475053310394287,0.16542989015579224,0.01613384485244751,0.3830278515815735
0.2689247083318047,0.48145181447703594,-1.9620451348915875,-1.5088036060333252,-0.7572555541992188,0.30773043632507324,0.4464225172996521,-0.2656949460506439,-0.8544666171073914,0.14734280109405518,0.005242705345153809,0.36174505949020386
0.25599265097200524,0.4702261897114657,-1.9509976582696191,-1.7600973844528198,-0.91362065076828,0.4040130376815796,0.43832290172576904,-0.2532058358192444,-0.8624151349067688,0.11554071307182312,0.008729517459869385,0.3456000089645386
0.24114465949405803,0.45689014390981414,-1.9380938964370338,-1.998255968093872,-1.1151847839355469,0.49892503023147583,0.42839452624320984,-0.2388143241405487,-0.8714619278907776,0.09911713004112244,0.009657829999923706,0.3190632462501526
0.2246157932586707,0.4417248575556714,-1.9238823452750162,-2.1542837619781494,-1.235379695892334,0.5465189218521118,0.41676050424575806,-0.2227318286895752,-0.881306529045105,0.07869243621826172,-0.01713632047176361,0.24840253591537476
0.20693948372954074,0.4262869051480147,-1.909452698904311,-2.214052677154541,-1.2098195552825928,0.5095455646514893,0.40467071533203125,-0.2054656445980072,-0.8910810947418213,0.024498075246810913,-0.054055824875831604,0.1428358554840088
0.1885487305379388,0.41200166866664967,-1.896004641178402,-2.195794105529785,-1.1161632537841797,0.39366447925567627,0.3933473527431488,-0.18743354082107544,-0.9000813961029053,-0.04859021306037903,-0.06413809955120087,0.03475552797317505
0.17001944378383355,0.3988938317274981,-1.8843693290624086,-2.090801954269409,-1.0999120473861694,0.2438058853149414,0.3827991187572479,-0.16920150816440582,-0.9082046747207642,-0.11046016216278076,-0.05285964906215668,-0.05781400203704834
0.15215108746565112,0.3859679149238826,-1.8750317258231322,-1.8921209573745728,-1.1883900165557861,0.08802720904350281,0.3721069395542145,-0.15156471729278564,-0.9157317280769348,-0.1399291455745697,-0.04805074632167816,-0.14881294965744019
0.13586833108279153,0.37247729116164635,-1.8684195930684,-1.6005557775497437,-1.3168025016784668,-0.08370783925056458,0.3605700731277466,-0.13545069098472595,-0.9228447079658508,-0.1582689881324768,-0.06317295134067535,-0.24271315336227417
0.12184503213990376,0.3581730022776625,-1.8649545436898831,-1.2523162364959717,-1.4418978691101074,-0.28330138325691223,0.34796470403671265,-0.1215437650680542,-0.929595410823822,-0.17801225185394287,-0.0808793157339096,-0.3267369270324707
0.11041270531597858,0.3430849181442778,-1.8649304270552733,-0.8990386128425598,-1.58268141746521,-0.49955084919929504,0.33434543013572693,-0.11018849909305573,-0.9359869956970215,-0.19459012150764465,-0.08961007744073868,-0.3790459632873535
0.10092848711826048,0.32586470909765364,-1.8679080149604506,-0.6728949546813965,-1.8263944387435913,-0.6819323301315308,0.31849899888038635,-0.10075721889734268,-0.9425531029701233,-0.2060568928718567,-0.09200705587863922,-0.39303338527679443
0.09364473406238868,0.30852534118812874,-1.8739406842203992,-0.33496248722076416,-1.7523775100708008,-0.9194493293762207,0.30232349038124084,-0.09350793063640594,-0.9486078023910522,-0.19662576913833618,-0.09148962050676346,-0.358460009098053
0.08870866901981246,0.2916663796686803,-1.8837087111276345,-0.038920432329177856,-1.8066543340682983,-1.2357749938964844,0.28641796112060547,-0.08859237283468246,-0.9540000557899475,-0.1950787901878357,-0.10997023433446884,-0.3593086004257202
0.08574735067176698,0.2736896477240582,-1.897643807841595,0.24024567008018494,-2.0393457412719727,-1.5871425867080688,0.26929253339767456,-0.08564230799674988,-0.9592428803443909,-0.21689379215240479,-0.10179664194583893,-0.34802329540252686
0.08474179019543326,0.2533211619057947,-1.9156669903323058,0.49801889061927795,-2.3216145038604736,-1.9111409187316895,0.24972116947174072,-0.08464040607213974,-0.9646114706993103,-0.18874697387218475,-0.08126839250326157,-0.3279910087585449
0.08592604007080491,0.2303863511007426,-1.937169177509768,0.7493276596069336,-2.6308810710906982,-2.1725752353668213,0.2275111973285675,-0.08582033962011337,-0.9699863791465759,-0.12675735354423523,-0.06620295345783234,-0.3000941872596741
0.0893259220614984,0.20403807011411085,-1.9614794236748725,0.9465299248695374,-3.0641672611236572,-2.39164662361145,0.20181742310523987,-0.08920717984437943,-0.9753521680831909,-0.07361301779747009,-0.061519116163253784,-0.2631274461746216
0.09457174937175973,0.17311618308138216,-1.988058286594838,1.0582661628723145,-3.5847830772399902,-2.5919206142425537,0.17148305475711823,-0.0944308415055275,-0.9806510210037231,-0.04958052933216095,-0.04944426566362381,-0.21252524852752686
0.1011303439184706,0.1378525763511562,-2.016433492399842,1.1049727201461792,-3.9799246788024902,-2.74981427192688,0.13671427965164185,-0.10095804929733276,-0.9854525327682495,-0.05019688606262207,-0.010019108653068542,-0.153814435005188
0.10897879269723229,0.0999027716730883,-2.0455651615383585,1.1257128715515137,-4.173418045043945,-2.795346736907959,0.09914500266313553,-0.1087632104754448,-0.9891111254692078,-0.01342107355594635,0.05627300590276718,-0.09505629539489746
0.11787062492303883,0.06086519234683667,-2.074790256279821,1.1028110980987549,-4.249060153961182,-2.8284659385681152,0.06040555611252785,-0.11759787797927856,-0.9912224411964417,0.05484413355588913,0.11282189935445786,-0.05232614278793335
0.12775690020293914,0.022156178189945024,-2.1036889751595105,1.111593246459961,-4.150208473205566,-2.7885401248931885,0.021973811089992523,-0.1274096518754959,-0.9916067719459534,0.06365856528282166,0.0680072158575058,-0.07635587453842163
0.13902421399717238,-0.014401544343027201,-2.131501410897556,1.1528240442276,-3.857079267501831,-2.698063373565674,-0.01426210068166256,-0.13857680559158325,-0.99024897813797,0.07734198868274689,0.04702410101890564,-0.08358830213546753
0.15152343164048607,-0.04768216426985145,-2.1579558395239884,1.1766926050186157,-3.5457563400268555,-2.596877336502075,-0.04711797460913658,-0.1509442776441574,-0.9874187111854553,0.09179575741291046,0.0626569539308548,-0.08612865209579468
0.16505986330822298,-0.07771521165342064,-2.182985418662963,1.2121171951293945,-3.2228660583496094,-2.486069440841675,-0.07658180594444275,-0.16431137919425964,-0.9834312200546265,0.07592571526765823,0.08897876739501953,-0.08535540103912354
0.17966194278783754,-0.10457283260431925,-2.2064371292531453,1.2670772075653076,-2.932615041732788,-2.3614869117736816,-0.10270222276449203,-0.17869697511196136,-0.9785293340682983,0.05758202075958252,0.09887827932834625,-0.08664095401763916
0.19525579953621858,-0.12846665689990885,-2.2281778551717917,1.3232799768447876,-2.6485629081726074,-2.228131055831909,-0.12567918002605438,-0.19401748478412628,-0.9729141592979431,0.047218531370162964,0.09616288542747498,-0.09042507410049438
0.2117073612955825,-0.15007148039520038,-2.248170288488759,1.38266921043396,-2.469862699508667,-2.093076229095459,-0.14617080986499786,-0.21012945473194122,-0.9666849374771118,0.053900957107543945,0.09451362490653992,-0.08774322271347046
0.22889627667178272,-0.17034310279600118,-2.2665070491365027,1.4282997846603394,-2.378632068634033,-1.9752354621887207,-0.16509896516799927,-0.22690272331237793,-0.9598215818405151,0.053358882665634155,0.08995512127876282,-0.07888996601104736
0.2467451226422491,-0.18993566347894367,-2.283465014314649,1.4808498620986938,-2.3270606994628906,-1.8999624252319336,-0.18307757377624512,-0.24424895644187927,-0.9522736072540283,0.053393155336380005,0.07907257974147797,-0.07027888298034668
0.2652316752726707,-0.2091665483067524,-2.2994915935797744,1.5160083770751953,-2.32296085357666,-1.8633508682250977,-0.200383722782135,-0.262132853269577,-0.9439982771873474,0.0564475953578949,0.07101655006408691,-0.05996900796890259
0.28419423518386094,-0.22842222910004364,-2.314943368678612,1.5288481712341309,-2.352271318435669,-1.854876160621643,-0.21735799312591553,-0.2803840935230255,-0.9349547028541565,0.053860098123550415,0.0720253586769104,-0.04168415069580078
0.3034816856566901,-0.2475760847514645,-2.3300670303614037,1.5214192867279053,-2.3287317752838135,-1.855790376663208,-0.23385611176490784,-0.298844575881958,-0.9252044558525085,0.04391475021839142,0.08151370286941528,-0.022885143756866455
0.32286007384126475,-0.26603158791790366,-2.3449605484143072,1.4932725429534912,-2.2589311599731445,-1.8554933071136475,-0.24932090938091278,-0.3172801434993744,-0.9149712920188904,0.04482264816761017,0.09093129634857178,-0.010474324226379395
0.34201960590355424,-0.28356274518743296,-2.35952607001807,1.4339079856872559,-2.179361581802368,-1.8224197626113892,-0.26357293128967285,-0.3353903889656067,-0.9044570922851562,0.05347469449043274,0.10144266486167908,7.62939453125e-06
0.3604029775631104,-0.3002534136329935,-2.3736612098011984,1.3030260801315308,-2.1300017833709717,-1.7623875141143799,-0.2767609655857086,-0.35265135765075684,-0.8938905596733093,0.0690430998802185,0.10324648022651672,0.008712947368621826
0.37723868575694963,-0.31654950313199387,-2.3873649807033255,1.1166146993637085,-2.094921112060547,-1.684669017791748,-0.2894011437892914,-0.3683547377586365,-0.8834940791130066,0.08023372292518616,0.09915921092033386,0.03136700391769409
0.3921184992352349,-0.33186774105054184,-2.4007375055210454,0.9060702919960022,-1.9429519176483154,-1.601714015007019,-0.30108100175857544,-0.3821469843387604,-0.8736783862113953,0.09310373663902283,0.09422895312309265,0.061056315898895264
0.4047564780206443,-0.3451483323143045,-2.413839025550095,0.6633380651473999,-1.7156500816345215,-1.501530408859253,-0.3109981417655945,-0.3937949240207672,-0.8649888634681702,0.09789389371871948,0.0897483229637146,0.08416610956192017
0.41464379451313577,-0.35622867190975516,-2.426641111098183,0.3764132559299469,-1.516196370124817,-1.3690927028656006,-0.31918972730636597,-0.4028639495372772,-0.85779869556427,0.08881253004074097,0.09144732356071472,0.10364830493927002
0.42127730989392653,-0.3655032643103514,-2.4390397370916346,0.06346893310546875,-1.3338838815689087,-1.20685613155365,-0.3261692523956299,-0.40892642736434937,-0.8522868156433105,0.09025311470031738,0.08586734533309937,0.11843061447143555
0.424459978556828,-0.37304906110740627,-2.450793959704519,-0.2462420016527176,-1.1270650625228882,-1.0092304944992065,-0.3321150541305542,-0.4118287265300751,-0.8485850691795349,0.1077345609664917,0.07518935203552246,0.1444377303123474
0.4240042350042293,-0.3789026416618126,-2.461665765533849,-0.5630937218666077,-0.9450550079345703,-0.791013240814209,-0.33714601397514343,-0.41141340136528015,-0.8468008041381836,0.11741945147514343,0.06944870948791504,0.1751089096069336
0.4198714210077707,-0.38376003143433834,-2.471663386857337,-0.8790422081947327,-0.8466664552688599,-0.5957577228546143,-0.3418889343738556,-0.40764304995536804,-0.8467226028442383,0.12028557062149048,0.05585169792175293,0.19044208526611328
0.41228118570110867,-0.3879234970407103,-2.4810988998723373,-1.1663211584091187,-0.7400228381156921,-0.43464821577072144,-0.3465717136859894,-0.4007004201412201,-0.8481316566467285,0.11929205060005188,0.03250586986541748,0.18307733535766602
0.4016110395377709,-0.39147705678513073,-2.490250556790659,-1.4334276914596558,-0.7055470943450928,-0.3118356764316559,-0.351194828748703,-0.39090171456336975,-0.850798487663269,0.10610812902450562,0.02787989377975464,0.16529738903045654
0.38817889613361833,-0.39501180755841314,-2.499401143807601,-1.678127646446228,-0.6888261437416077,-0.2198980152606964,-0.35618850588798523,-0.3785034418106079,-0.854321300983429,0.08194229006767273,0.03254091739654541,0.14834290742874146
0.3724536108013021,-0.39789458291770824,-2.5086272413760193,-1.8674089908599854,-0.5598530769348145,-0.14647634327411652,-0.36091169714927673,-0.36390191316604614,-0.8586723208427429,0.07938706874847412,0.03129088878631592,0.11341780424118042
0.354916853825615,-0.3995380156660277,-2.5178508769735752,-2.0170528888702393,-0.42615383863449097,-0.07851168513298035,-0.3647489547729492,-0.3475123941898346,-0.8638248443603516,0.07805156707763672,0.03296774625778198,0.07837867736816406
0.3359738573771441,-0.40007150088567506,-2.5268847779588293,-2.1153223514556885,-0.28776809573173523,-0.01484727580100298,-0.3677080273628235,-0.3296887278556824,-0.869537889957428,0.0595109760761261,0.03632327914237976,0.05433708429336548
0.3161392598143375,-0.39931420149196856,-2.5355575974351234,-2.157830238342285,-0.11417420208454132,0.04571859911084175,-0.3695194125175476,-0.3108994662761688,-0.8756694197654724,0.04971045255661011,0.03674483299255371,0.031095445156097412
0.295955680875881,-0.39741262228668245,-2.5436838874025636,-2.1449027061462402,-0.011853691190481186,0.0907001867890358,-0.37020716071128845,-0.291654109954834,-0.8819776177406311,0.04328763484954834,0.03841927647590637,0.016682207584381104
0.27585463362628226,-0.39543168999492573,-2.55114378691068,-2.093153953552246,-0.02366827428340912,0.1397327035665512,-0.3706430196762085,-0.2723693549633026,-0.8879407048225403,0.033896803855895996,0.0441436767578125,0.003022491931915283
0.2562928650476604,-0.3941653466915063,-2.557803012642151,-1.9926481246948242,-0.07771611213684082,0.1773834228515625,-0.3714936077594757,-0.2534962594509125,-0.8931585550308228,0.03294685482978821,0.03358662128448486,-0.02986091375350952
0.23773768525310318,-0.3939065491251728,-2.5636585077258554,-1.8541206121444702,-0.15959472954273224,0.1953536421060562,-0.37300369143486023,-0.23550455272197723,-0.8974440693855286,0.03091689944267273,0.015198186039924622,-0.055894553661346436
0.2205773053126198,-0.39489602975447347,-2.5688473407759242,-1.6886025667190552,-0.2729165554046631,0.18070842325687408,-0.3753911554813385,-0.21879297494888306,-0.9006726145744324,0.011881053447723389,0.002041921019554138,-0.07242614030838013
0.20517279660187085,-0.39711470277920935,-2.573691964334263,-1.5053550004959106,-0.3676569163799286,0.13070064783096313,-0.37864720821380615,-0.2037363350391388,-0.9028387069702148,-0.01481589674949646,-0.0059041231870651245,-0.08811277151107788
0.19175166892220144,-0.40018796008795315,-2.5783646922518346,-1.3133467435836792,-0.433509886264801,0.06490801274776459,-0.38245099782943726,-0.19057874381542206,-0.9041078090667725,-0.031580984592437744,-0.00632062554359436,-0.10341477394104004
0.18054110365919054,-0.40409205107802876,-2.583076686806863,-1.1031378507614136,-0.5178148746490479,-0.04171749949455261,-0.3867935538291931,-0.17956191301345825,-0.9045155048370361,-0.053666651248931885,-0.01121869683265686,-0.12800097465515137
0.1718895269280315,-0.4086759012646011,-2.58812254823703,-0.8689460158348083,-0.5704583525657654,-0.19425611197948456,-0.3915383517742157,-0.17104433476924896,-0.9041247367858887,-0.0872519314289093,-0.02620600163936615,-0.16061830520629883
0.16624869522066665,-0.4136870420886456,-2.5939768280634077,-0.619113564491272,-0.6207425594329834,-0.42084795236587524,-0.3964456617832184,-0.16548393666744232,-0.903020441532135,-0.13350734114646912,-0.05093143880367279,-0.1983131766319275
0.16411211773614742,-0.41862544221780407,-2.6012325250497166,-0.34456369280815125,-0.5873162746429443,-0.7227689623832703,-0.4010430872440338,-0.16337643563747406,-0.9013726115226746,-0.2010687291622162,-0.07464537024497986,-0.23708564043045044
0.1660299951304706,-0.4223898623071082,-2.61051410918808,-0.04979836940765381,-0.46318820118904114,-1.111314296722412,-0.4043042063713074,-0.16526824235916138,-0.8995690941810608,-0.2777331471443176,-0.09564174711704254,-0.2665686011314392
0.17239045582843507,-0.4245128941178404,-2.6225350498050983,0.23612971603870392,-0.37063801288604736,-1.573367953300476,-0.405771940946579,-0.1715378612279892,-0.897732675075531,-0.3466237187385559,-0.10377642512321472,-0.2820311188697815
0.18339978015427705,-0.42498690640169595,-2.63799595438137,0.5102264881134033,-0.2576081156730652,-2.0991921424865723,-0.40539416670799255,-0.18237338960170746,-0.8957653045654297,-0.39415112137794495,-0.09522971510887146,-0.29954713582992554
0.1990178504595979,-0.42303897942465013,-2.657287297475406,0.77321857213974,-0.07872474938631058,-2.618056297302246,-0.40242999792099,-0.1977066695690155,-0.8938468098640442,-0.4115806221961975,-0.06276081502437592,-0.31123125553131104
0.21897448337962486,-0.41810982201342584,-2.680180994132265,1.0329492092132568,0.11193973571062088,-3.071397542953491,-0.3963380455970764,-0.2172287106513977,-0.8920357823371887,-0.41033312678337097,-0.01060020923614502,-0.3030173182487488
0.24270813599074056,-0.4100981700192828,-2.706068452483469,1.2739465236663818,0.30590754747390747,-3.4154531955718994,-0.3870137631893158,-0.24033226072788239,-0.8902026414871216,-0.3860270380973816,0.04392115771770477,-0.2766369581222534
0.26942450665106343,-0.3989885120835031,-2.7340773968737944,1.4878623485565186,0.49220842123031616,-3.6337852478027344,-0.3744715750217438,-0.2661767601966858,-0.888212263584137,-0.3268224000930786,0.10174804925918579,-0.24051088094711304
0.2981813623782129,-0.3850501258124232,-2.7634533205628995,1.6558369398117065,0.6372039318084717,-3.7328667640686035,-0.35903099179267883,-0.2937822937965393,-0.8858829736709595,-0.26111671328544617,0.15613281726837158,-0.20115315914154053
0.3278846459264253,-0.36920202873923125,-2.79334089059655,1.750857949256897,0.6718209981918335,-3.6992685794830322,-0.3416461646556854,-0.3220410943031311,-0.8829311728477478,-0.1919078826904297,0.201664537191391,-0.1633792519569397
0.3572112003642469,-0.35264129636173813,-2.8227317152287195,1.7634472846984863,0.6651272177696228,-3.5084915161132812,-0.3235760033130646,-0.3496628403663635,-0.8792237639427185,-0.10434147715568542,0.2327805459499359,-0.141116201877594
0.38502731027066794,-0.33566684382651285,-2.850231309790641,1.7259252071380615,0.741783618927002,-3.1531999111175537,-0.30528298020362854,-0.3755844533443451,-0.8750649094581604,0.0012515783309936523,0.23608863353729248,-0.1338919997215271
0.41054774370692654,-0.3182894636703826,-2.87433206215885,1.6664652824401855,0.866585373878479,-2.655630350112915,-0.2869376242160797,-0.39911162853240967,-0.8708482980728149,0.09667578339576721,0.22687041759490967,-0.11229074001312256
0.4333311241456489,-0.30082737990676284,-2.8933956891047177,1.6015576124191284,1.074752926826477,-2.009180784225464,-0.26892316341400146,-0.41989636421203613,-0.8668144941329956,0.16365274786949158,0.23155716061592102,-0.0750037431716919
0.4529720768711674,-0.2831745804458537,-2.905810094882634,1.494435429573059,1.3919079303741455,-1.2540208101272583,-0.2512272894382477,-0.4376398026943207,-0.8633401989936829,0.23099413514137268,0.22410833835601807,-0.041857004165649414
0.46885659454971224,-0.26555596226815037,-2.9112163121004784,1.2707122564315796,1.6150025129318237,-0.5518836975097656,-0.234124094247818,-0.4518665671348572,-0.8608150482177734,0.2793053388595581,0.19490855932235718,-0.0007572174072265625
0.48020781541054236,-0.249134877565296,-2.9109358445381224,0.9218931198120117,1.6712056398391724,0.004386393819004297,-0.2186788022518158,-0.4619635045528412,-0.8595169186592102,0.2644856870174408,0.18387210369110107,0.0737655758857727
0.4867962117100182,-0.23442423411077618,-2.906456583364632,0.541793704032898,1.676914930343628,0.4315640926361084,-0.20530012249946594,-0.4677966833114624,-0.8596616983413696,0.19496990740299225,0.1860126256942749,0.16860634088516235
0.4890041021020511,-0.2212632187147596,-2.8989407700683008,0.19014744460582733,1.6342300176620483,0.7460476756095886,-0.19374150037765503,-0.4697469472885132,-0.861279308795929,0.16665713489055634,0.14798486232757568,0.21082764863967896
0.4875009850167478,-0.2099576017748823,-2.8892554708726914,-0.10422533005475998,1.522329330444336,0.9776718020439148,-0.18413898348808289,-0.46841946244239807,-0.8641042113304138,0.16250202059745789,0.10472625494003296,0.21877950429916382
0.4832729873654865,-0.20088669017001073,-2.877548760576713,-0.28465938568115234,1.372964859008789,1.2151758670806885,-0.17668689787387848,-0.4646798074245453,-0.8676718473434448,0.15326465666294098,0.07701504230499268,0.20391452312469482
0.47722341563739373,-0.19377331156356264,-2.8635754539472105,-0.4048004448413849,1.3476320505142212,1.4359878301620483,-0.1710485965013504,-0.45931458473205566,-0.8716493248939514,0.12005375325679779,0.07908084988594055,0.18411880731582642
0.46975870036293876,-0.18725731975284998,-2.84783133642782,-0.5320205092430115,1.3899174928665161,1.5811429023742676,-0.16599902510643005,-0.4526711404323578,-0.8760896921157837,0.11273060739040375,0.07268154621124268,0.15325039625167847
0.46082797448170876,-0.18026391687640086,-2.8310788616728972,-0.6757521033287048,1.516571044921875,1.6696938276290894,-0.16058659553527832,-0.44468986988067627,-0.8811713457107544,0.08128666877746582,0.07171928882598877,0.13478761911392212
0.4503824840165504,-0.17161199945210384,-2.8138077162816195,-0.8295487761497498,1.7278400659561157,1.737661361694336,-0.1537417322397232,-0.43530991673469543,-0.8870562314987183,0.0544833242893219,0.09786182641983032,0.12123286724090576
0.4384860672707198,-0.160900382754218,-2.7958029424928172,-0.969631552696228,1.9707361459732056,1.8594839572906494,-0.14505071938037872,-0.4245692491531372,-0.893700897693634,0.05046150088310242,0.12682455778121948,0.10135775804519653
0.42542386112406605,-0.1479741372695991,-2.77621833239613,-1.0491737127304077,2.234523296356201,2.053344249725342,-0.13429296016693115,-0.4127069115638733,-0.9009097814559937,0.06170690059661865,0.1665216088294983,0.07966649532318115
0.41190889825559035,-0.1341247310405077,-2.7543960813941912,-1.0516533851623535,2.246351718902588,2.254655361175537,-0.12253813445568085,-0.40035930275917053,-0.9081282019615173,0.12951141595840454,0.17632979154586792,0.07148879766464233
0.39857462868159305,-0.12286750362168943,-2.7305437912902235,-1.0229121446609497,1.8113105297088623,2.412465810775757,-0.1129518523812294,-0.3881050944328308,-0.9146673083305359,0.19705830514431,0.1486336588859558,0.09218806028366089
0.3854908839628808,-0.11798664258625839,-2.7051949492415828,-1.0146597623825073,1.0688214302062988,2.528423547744751,-0.10907459259033203,-0.3760140538215637,-0.9201717972755432,0.25551319122314453,0.1463540494441986,0.1649990677833557
0.37202733323995013,-0.12110283404133734,-2.6790648184726833,-1.0905741453170776,0.24115313589572906,2.588188886642456,-0.11254290491342545,-0.3635048270225525,-0.9247693419456482,0.31813985109329224,0.1445717215538025,0.2325696349143982
0.35689017439355564,-0.13163889187733185,-2.652848721068791,-1.3085360527038574,-0.44458019733428955,2.646357297897339,-0.12298811227083206,-0.3493620455265045,-0.9288811087608337,0.35655441880226135,0.1335417926311493,0.29135358333587646
0.3385824112838808,-0.14734443667366948,-2.6260729048919393,-1.6145979166030884,-0.839572548866272,2.849024772644043,-0.13847683370113373,-0.33215031027793884,-0.9330061078071594,0.3790621757507324,0.13163462281227112,0.3204572796821594
0.3161841700341783,-0.16629553537091996,-2.5976668162666186,-1.9595435857772827,-1.1054139137268066,3.1513242721557617,-0.15732461214065552,-0.3109421730041504,-0.937317430973053,0.3860538601875305,0.12447977066040039,0.329804003238678
0.2891195542507323,-0.1874749302151753,-2.567241076467784,-2.3371798992156982,-1.3063225746154785,3.506096839904785,-0.17864307761192322,-0.28510844707489014,-0.9417005181312561,0.3851250410079956,0.11205852031707764,0.3552594780921936
0.2569604175027382,-0.20996899740721964,-2.5346361725890736,-2.7027223110198975,-1.4201682806015015,3.910679578781128,-0.20158620178699493,-0.2541419565677643,-0.9459254145622253,0.37675708532333374,0.13684767484664917,0.38568371534347534
0.21993169794159692,-0.23268912307655917,-2.4994674002167296,-2.991986036300659,-1.4303908348083496,4.353011131286621,-0.2250405102968216,-0.21816296875476837,-0.9496113657951355,0.3970681130886078,0.18267107009887695,0.3796039819717407
0.17848766061594373,-0.2531263849087136,-2.4622131288951272,-3.2775516510009766,-1.1366639137268066,4.684574604034424,-0.2464534044265747,-0.17754146456718445,-0.9527537822723389,0.4352351725101471,0.19579100608825684,0.29899096488952637
0.13278604597469562,-0.26898515391237643,-2.4240415967051625,-3.568082809448242,-0.9121240377426147,4.92229700088501,-0.26341375708580017,-0.1323961764574051,-0.9555545449256897,0.38690316677093506,0.17519712448120117,0.24730253219604492
0.08362801770657122,-0.2826456387548582,-2.385520037943661,-3.759276866912842,-1.0401947498321533,5.087784290313721,-0.2779226005077362,-0.08353057503700256,-0.9569648504257202,0.3575887680053711,0.15442295372486115,0.18688428401947021
0.03225031772901437,-0.2966114165456517,-2.346703178901797,-3.828395128250122,-1.314487099647522,5.237478733062744,-0.2921293079853058,-0.0322447270154953,-0.9558351039886475,0.3202359974384308,0.17050465941429138,0.13121962547302246
-0.020167105167931392,-0.31189530125774795,-2.30751952996717,-3.7903623580932617,-1.7081612348556519,5.334203243255615,-0.30680063366889954,0.020165737718343735,-0.9515601396560669,0.2639692425727844,0.20305512845516205,0.0994178056716919
-0.0726597731887943,-0.3291652259527118,-2.268676138798342,-3.6973390579223633,-2.0824077129364014,5.281344413757324,-0.3224002718925476,0.07259585708379745,-0.9438155889511108,0.16998028755187988,0.20569397509098053,0.06609958410263062
-0.12443239071379736,-0.3475095553152791,-2.2316320270535885,-3.599973678588867,-2.275660991668701,5.0569868087768555,-0.33792418241500854,0.12411153316497803,-0.9329541921615601,0.06351014971733093,0.19784896075725555,0.04942452907562256
-0.17504356412323382,-0.36543539601551833,-2.19777456675994,-3.522430419921875,-2.297978639602661,4.704468727111816,-0.35189521312713623,0.17415103316307068,-0.9196962714195251,-0.04132375121116638,0.19244138896465302,0.049472272396087646
-0.22403353693384434,-0.38271406548771914,-2.1679986778586113,-3.438847780227661,-2.33244252204895,4.268617153167725,-0.36410704255104065,0.22216415405273438,-0.904471755027771,-0.14060792326927185,0.1728096455335617,0.042899489402770996
-0.27085228109611525,-0.4002600504920315,-2.1427689505156278,-3.325266122817993,-2.397311210632324,3.796565532684326,-0.3754521906375885,0.2675527334213257,-0.8873844742774963,-0.217183917760849,0.1357981562614441,0.03965193033218384
-0.3150397276701465,-0.41844629880409895,-2.1221384781466686,-3.1819679737091064,-2.4073328971862793,3.3221638202667236,-0.3863428235054016,0.3098542392253876,-0.8687517642974854,-0.2573186457157135,0.09812003374099731,0.02462029457092285
-0.3560461691668415,-0.4367321098759891,-2.1058166147330004,-2.9740097522735596,-2.3006556034088135,2.8650379180908203,-0.3964522182941437,0.34857112169265747,-0.8493078351020813,-0.28218236565589905,0.06533882021903992,-0.019481778144836426
-0.39324571732083236,-0.45440123429359464,-2.093228459350205,-2.704103469848633,-2.145921468734741,2.438697338104248,-0.4054213762283325,0.383188396692276,-0.8299398422241211,-0.3226364552974701,0.025808215141296387,-0.058838844299316406
-0.4261556349296326,-0.47152165437888033,-2.083923495874022,-2.408045530319214,-2.019666910171509,2.0028982162475586,-0.41361573338508606,0.41337332129478455,-0.8111994862556458,-0.36996883153915405,-0.008145630359649658,-0.07793015241622925
-0.45444112298258216,-0.4886721788627219,-2.0781389134563493,-2.117046356201172,-1.9123799800872803,1.5098950862884521,-0.4218073785305023,0.4389602243900299,-0.7933425903320312,-0.4170292317867279,-0.03399193286895752,-0.10544580221176147
-0.4778843658616066,-0.5066647383149427,-2.0763746233463842,-1.8470176458358765,-1.8551373481750488,0.9846475720405579,-0.43089956045150757,0.4599016010761261,-0.776412308216095,-0.45545291900634766,-0.04329082369804382,-0.13885557651519775
-0.49645792652406734,-0.5261422311632848,-2.078803370477209,-1.5833063125610352,-1.8177684545516968,0.47019386291503906,-0.44157296419143677,0.47631406784057617,-0.7603540420532227,-0.47493091225624084,-0.037257611751556396,-0.15868282318115234
-0.5100649327535093,-0.5471014878046535,-2.0850271179718196,-1.302570104598999,-1.749538779258728,-0.01702841930091381,-0.453997403383255,0.48823392391204834,-0.7453281283378601,-0.495587557554245,-0.027403175830841064,-0.1767147183418274
-0.5186820909118062,-0.5683508476755584,-2.0944443424236088,-1.0208920240402222,-1.5407708883285522,-0.4525633752346039,-0.4674495756626129,0.4957360029220581,-0.7319404482841492,-0.5031619668006897,-0.01967698335647583,-0.1982659101486206
-0.5224992895879825,-0.5883478325784635,-2.106272883986507,-0.737358033657074,-1.2806748151779175,-0.8364048004150391,-0.48093801736831665,0.49904751777648926,-0.7208676934242249,-0.47812265157699585,-0.005288302898406982,-0.24299943447113037
-0.5219030105099843,-0.6069216836798048,-2.119867994119063,-0.4883333444595337,-1.0801843404769897,-1.1649705171585083,-0.49441322684288025,0.49853071570396423,-0.7120553255081177,-0.42912495136260986,0.011234968900680542,-0.2663992643356323
-0.5174761142597972,-0.6240890003247345,-2.1344496760831415,-0.24615898728370667,-0.8976381421089172,-1.3912324905395508,-0.5078485012054443,0.4946882724761963,-0.7052470445632935,-0.3579351305961609,0.0440843403339386,-0.28736764192581177
-0.5098523092166329,-0.6392211163324749,-2.148762212842607,0.002971482463181019,-0.722528338432312,-1.4983898401260376,-0.5206966996192932,0.48804834485054016,-0.700488269329071,-0.2859744429588318,0.0635111927986145,-0.3005950450897217
-0.4997120728727429,-0.6521028509939145,-2.161900151698123,0.22779513895511627,-0.5807671546936035,-1.5433995723724365,-0.532652735710144,0.47917282581329346,-0.6976206302642822,-0.22932541370391846,0.07136434316635132,-0.3039357662200928
-0.4876162644372127,-0.6629459579188262,-2.1737099916643987,0.40592706203460693,-0.4710768759250641,-1.5750774145126343,-0.5437131524085999,0.4685212969779968,-0.6963216662406921,-0.18329185247421265,0.07711780071258545,-0.29272252321243286
-0.474093514313457,-0.672519405668843,-2.18462101475742,0.5064256191253662,-0.4436257481575012,-1.6067310571670532,-0.5542507171630859,0.4565321207046509,-0.6959773898124695,-0.1514071822166443,0.0886034369468689,-0.24144625663757324
-0.45988938793914363,-0.6818096241051032,-2.194962451290459,0.5437220931053162,-0.49109527468681335,-1.5922093391418457,-0.5647224187850952,0.44384899735450745,-0.6957634091377258,-0.10362768173217773,0.11938348412513733,-0.17574232816696167
-0.44578282690469845,-0.6913578231377261,-2.20460588389205,0.5282096266746521,-0.5617431998252869,-1.521597981452942,-0.5752749443054199,0.43116432428359985,-0.6950943470001221,-0.04482698440551758,0.10860013961791992,-0.13449549674987793
-0.43241457124453364,-0.7005012855542497,-2.213612668344521,0.46977803111076355,-0.47826990485191345,-1.4399995803833008,-0.5852697491645813,0.41906434297561646,-0.6941502094268799,-0.0077021121978759766,0.07094120979309082,-0.12230181694030762
-0.4199215127551017,-0.7080221855035062,-2.2225794094066313,0.36811167001724243,-0.2835950553417206,-1.4192838668823242,-0.5938323736190796,0.40768879652023315,-0.6936519742012024,0.01116025447845459,0.03319871425628662,-0.10459625720977783
-0.4083319136113845,-0.7141740840686348,-2.2322559879503414,0.2278943657875061,-0.1889687031507492,-1.4344955682754517,-0.601142942905426,0.3970789313316345,-0.693509578704834,-0.006202638149261475,0.008667558431625366,-0.05130237340927124
-0.3972696967936069,-0.7203834732295635,-2.243273107142811,0.11053046584129333,-0.19931551814079285,-1.5470569133758545,-0.608298122882843,0.3869021236896515,-0.6930224895477295,-0.05753439664840698,-0.012146204710006714,0.003676176071166992
-0.3857472466717601,-0.7276183314486112,-2.256184120932593,0.03826771676540375,-0.25055819749832153,-1.768938660621643,-0.6162203550338745,0.37625157833099365,-0.6918867826461792,-0.1432247757911682,-0.07093840837478638,0.0322951078414917
-0.3726860129358307,-0.7353727417097236,-2.2715883788485773,-0.0018299161456525326,-0.12380102276802063,-2.1065781116485596,-0.6248106360435486,0.364118367433548,-0.6906732320785522,-0.29077768325805664,-0.1076943576335907,0.037093520164489746
-0.3571315135253232,-0.741573239178787,-2.289951413777738,-0.0031998460181057453,0.20050755143165588,-2.513669490814209,-0.6328303813934326,0.34958818554878235,-0.6908790469169617,-0.4008152484893799,-0.08881539106369019,0.00980299711227417
-0.33846327624310346,-0.7454547549671391,-2.311187719417865,0.05461921542882919,0.44615277647972107,-2.9374265670776367,-0.6398230195045471,0.33203795552253723,-0.6930925250053406,-0.4390344023704529,-0.07575127482414246,-0.04622626304626465
-0.31606030414592545,-0.7481997687153991,-2.3349814289571826,0.17945408821105957,0.5158439874649048,-3.4038751125335693,-0.646622359752655,0.3108244240283966,-0.6966115832328796,-0.47549372911453247,-0.07698345184326172,-0.10534459352493286
-0.2889159380884388,-0.7505730402951646,-2.3613881146271587,0.36357855796813965,0.5925648808479309,-3.973001003265381,-0.6537888646125793,0.2849132716655731,-0.700988233089447,-0.5327345132827759,-0.07780566811561584,-0.1594090461730957
-0.2560569200662557,-0.7516597215227092,-2.39080287266783,0.569641649723053,0.7760476469993591,-4.637698173522949,-0.6605886220932007,0.2532680034637451,-0.7067375779151917,-0.6224161386489868,-0.06828564405441284,-0.18658816814422607
-0.2168280257221404,-0.7506222860778713,-2.4239327705660743,0.7648026943206787,0.9870074391365051,-5.397933006286621,-0.6661226153373718,0.21513301134109497,-0.714141845703125,-0.7460631132125854,-0.040114641189575195,-0.183380126953125
-0.17087795801656422,-0.7464819475772863,-2.461385688076051,0.9658161997795105,1.2869873046875,-6.200916767120361,-0.6691704988479614,0.1700475811958313,-0.7233911156654358,-0.8692969083786011,0.023418664932250977,-0.17358148097991943
-0.11828126893840783,-0.7381292880924685,-2.5031572678297396,1.1907546520233154,1.5611906051635742,-6.947455406188965,-0.6682036519050598,0.1180056631565094,-0.7345601916313171,-0.9355103373527527,0.12129799276590347,-0.14278972148895264
-0.059850727113899035,-0.725874357201553,-2.548822109601495,1.4088464975357056,1.6730451583862305,-7.560625076293945,-0.662601113319397,0.059815000742673874,-0.7465801239013672,-0.9364131093025208,0.2461542934179306,-0.10203737020492554
0.0029291019058545332,-0.7100519995088612,-2.597665182843939,1.6054844856262207,1.7670446634292603,-7.973371982574463,-0.6518704295158386,-0.0029290977399796247,-0.7583247423171997,-0.8641666173934937,0.3681787848472595,-0.08609664440155029
0.06796119948661028,-0.6900464381875369,-2.6486775222055052,1.7453268766403198,1.845150351524353,-8.108538627624512,-0.6351034641265869,-0.06790889799594879,-0.7694361209869385,-0.6707131862640381,0.4650799632072449,-0.08978629112243652
0.13243198184238686,-0.6668197490684379,-2.700381470322613,1.8110158443450928,1.7211620807647705,-7.905053615570068,-0.6130744218826294,-0.1320452243089676,-0.7789119482040405,-0.4163750410079956,0.5855517387390137,-0.0794101357460022
0.193720594765565,-0.6425505712147027,-2.7515630857267146,1.7260169982910156,1.4597355127334595,-7.504578590393066,-0.5880303978919983,-0.19251121580600739,-0.785595178604126,-0.2016424536705017,0.6283480525016785,-0.03253531455993652
0.2498009028032379,-0.6175566314288884,-2.802147856254655,1.4933640956878662,1.3292245864868164,-7.018909931182861,-0.5610722303390503,-0.2472110539674759,-0.7899903059005737,-0.06678116321563721,0.5953251123428345,0.00848090648651123
0.29918690710738244,-0.5902329051820425,-2.85213195722228,1.153353214263916,1.434619426727295,-6.45932149887085,-0.5318304300308228,-0.2947433292865753,-0.7939035296440125,0.028168320655822754,0.6000106930732727,0.08043307065963745
0.34082406977833585,-0.5592471210683218,-2.901134237630512,0.7731328010559082,1.6801711320877075,-5.823071002960205,-0.5000308156013489,-0.3342638611793518,-0.7988973259925842,0.09762603044509888,0.6084491014480591,0.15755510330200195
0.3742266716595093,-0.5248114698198195,-2.9479776586436452,0.4181528687477112,1.8866305351257324,-5.0928544998168945,-0.4663724899291992,-0.3655528426170349,-0.8055233359336853,0.19853493571281433,0.5996226668357849,0.1997036337852478
0.3993513363827844,-0.48991521673666344,-2.991037549947059,0.10002736002206802,1.790692925453186,-4.283829689025879,-0.433525025844574,-0.3888207972049713,-0.81294184923172,0.3189620077610016,0.5652735233306885,0.20979249477386475
0.4168122299720426,-0.4583359252537319,-3.0286373225115555,-0.13310444355010986,1.516114354133606,-3.4183263778686523,-0.4045751094818115,-0.4048476815223694,-0.8200106024742126,0.4384496212005615,0.5038009881973267,0.20558494329452515
0.42770820089626493,-0.4321155522033514,-3.059035008740403,-0.2783971130847931,1.2361280918121338,-2.5031979084014893,-0.3810674548149109,-0.41478654742240906,-0.8262807130813599,0.5326024889945984,0.42441487312316895,0.19690144062042236
0.4332055879363319,-0.4115394643209789,-3.0812125805252366,-0.3614075779914856,1.0235323905944824,-1.6211121082305908,-0.36306872963905334,-0.419782429933548,-0.8318436145782471,0.5740214586257935,0.32682591676712036,0.15278172492980957
0.43447662641885104,-0.39622508673404483,-3.0953466724907046,-0.40651753544807434,0.8505114912986755,-0.8487627506256104,-0.35008129477500916,-0.420935720205307,-0.8368131518363953,0.5505359768867493,0.2556830644607544,0.08971232175827026
0.4326187373350815,-0.38506287531987926,-3.102817879982416,-0.447336345911026,0.7660524845123291,-0.29375144839286804,-0.3410121500492096,-0.4192497134208679,-0.8413919806480408,0.4726192057132721,0.2181236445903778,0.05570167303085327
0.4287794572415773,-0.37577644396613896,-3.1058045846849653,-0.4586401879787445,0.8571449518203735,0.060709208250045776,-0.3337722718715668,-0.4157610535621643,-0.8460134863853455,0.3324600160121918,0.20103943347930908,0.04158538579940796
0.42392644541991437,-0.366305737227908,-3.105762593578715,-0.4332434833049774,1.0216060876846313,0.2778545618057251,-0.326463907957077,-0.4113425016403198,-0.8510103821754456,0.18315339088439941,0.2235831618309021,0.04105859994888306
0.4189418573133996,-0.35683501690693226,-3.1040791864372363,-0.3851841688156128,0.9703614115715027,0.34467652440071106,-0.3191019892692566,-0.4067940413951874,-0.8559746146202087,0.09170025587081909,0.21636441349983215,0.03055042028427124
0.41465572954536384,-0.34883524721930154,-3.1019400211931547,-0.2759588658809662,0.7899162769317627,0.30812516808509827,-0.3128373324871063,-0.4028748571872711,-0.8601306080818176,0.049150168895721436,0.182431161403656,0.021553337574005127
0.41187982322634975,-0.3427341569028579,-3.0998956182223445,-0.11181926727294922,0.5910137891769409,0.23137715458869934,-0.3079584538936615,-0.40033265948295593,-0.8630732297897339,0.02417546510696411,0.16186830401420593,0.028737902641296387
0.4111145104698575,-0.3382617805095586,-3.0980164541840227,0.08348525315523148,0.4645082950592041,0.14522363245487213,-0.3041969835758209,-0.39963123202323914,-0.8647306561470032,-0.009508460760116577,0.1397130787372589,0.016174137592315674
0.41257358697876856,-0.33407159275539966,-3.0964560542226174,0.28672078251838684,0.5253329873085022,0.022978149354457855,-0.3003794252872467,-0.4009682834148407,-0.8654459118843079,-0.049107879400253296,0.12426543235778809,-0.006883800029754639
0.41647780771094745,-0.3281229468394102,-3.0955235414577755,0.5055308938026428,0.7485545873641968,-0.11523137986660004,-0.2947191596031189,-0.40454185009002686,-0.8657289147377014,-0.0938764214515686,0.13772672414779663,-0.029962003231048584
0.42284073799026395,-0.3199744210760475,-3.095308223729034,0.7060186862945557,0.8635779619216919,-0.2533210217952728,-0.2868395745754242,-0.4103526473045349,-0.8656406402587891,-0.1228589415550232,0.1659831702709198,-0.04388999938964844
0.43131901557364083,-0.31131417106991965,-3.0959117029808527,0.8608599305152893,0.8008392453193665,-0.3701898455619812,-0.27825653553009033,-0.41806939244270325,-0.8647493124008179,-0.11050689220428467,0.17025142908096313,-0.05147993564605713
0.44136795156287484,-0.303080210586219,-3.0970036523766407,0.9881340861320496,0.7695178389549255,-0.4098491370677948,-0.26985934376716614,-0.42717671394348145,-0.8629577159881592,-0.06295013427734375,0.17256858944892883,-0.05055546760559082
0.4524744808697865,-0.294821189928786,-3.097526383759226,1.0888556241989136,0.8395211696624756,-0.31581932306289673,-0.26132825016975403,-0.4371923506259918,-0.8605639934539795,-0.0030150115489959717,0.18731442093849182,-0.05186581611633301
0.4637349253457417,-0.2865582932997195,-3.096395899231204,1.1136904954910278,0.9023955464363098,-0.12282972037792206,-0.2528010904788971,-0.44729170203208923,-0.857917070388794,0.058648258447647095,0.17705857753753662,-0.04824131727218628
0.47454092393957537,-0.2785706462377054,-3.0929565908143943,1.1265027523040771,1.0225046873092651,0.11075027287006378,-0.2445969134569168,-0.45693016052246094,-0.8552117943763733,0.09936372935771942,0.14880943298339844,-0.03954833745956421
0.4849215798956672,-0.2693506401293748,-3.087185119548942,1.1440584659576416,1.375791311264038,0.30151525139808655,-0.2354266494512558,-0.4661389887332916,-0.8528122901916504,0.0946948230266571,0.11733835935592651,-0.02932882308959961
0.49509005268234124,-0.2567504642317331,-3.0796675713712665,1.1532564163208008,1.8596837520599365,0.44629427790641785,-0.22344741225242615,-0.47511088848114014,-0.8510822057723999,0.04856643080711365,0.09835615754127502,-0.0537792444229126
0.5050312203677801,-0.23825995039349518,-3.070795921961528,1.1452878713607788,2.794665813446045,0.5684846639633179,-0.20654819905757904,-0.48383477330207825,-0.8504362106323242,-0.0005288422107696533,0.12261345982551575,-0.09959125518798828
0.514679753416799,-0.2080226505135755,-3.060750915624149,1.1232211589813232,4.163918495178223,0.7156298756599426,-0.17977029085159302,-0.4922561049461365,-0.8516845703125,-0.032830432057380676,0.15027615427970886,-0.1920166015625
0.5242062283520312,-0.1681323364734545,-3.049079368853714,1.1176941394805908,4.858027935028076,0.9118058085441589,-0.14487098157405853,-0.500525951385498,-0.8535140156745911,-0.05430199205875397,0.1598583459854126,-0.27584999799728394
0.5336560870159919,-0.12501989586235537,-3.0356970369147516,1.081125259399414,5.026390075683594,1.0839048624038696,-0.10735608637332916,-0.5086844563484192,-0.8542335033416748,-0.04437731206417084,0.1913931965827942,-0.22221308946609497
0.5433585856959581,-0.08270980713649785,-3.021036721751116,1.119423508644104,4.874593734741211,1.207127571105957,-0.07071700692176819,-0.5170137882232666,-0.8530508875846863,-0.01990494132041931,0.1696169376373291,-0.21820765733718872
0.5546615440475599,-0.04380049328100191,-3.0053549308560856,1.3145989179611206,4.499476909637451,1.3123666048049927,-0.037221964448690414,-0.5266556143760681,-0.8492634892463684,-0.014139115810394287,0.10999912023544312,-0.26066088676452637
0.5688722294720602,-0.009470871457101744,-2.9887962847689313,1.590590476989746,4.112316608428955,1.4012504816055298,-0.007979176007211208,-0.538682222366333,-0.8424712419509888,-0.03321954607963562,0.09594851732254028,-0.27061164379119873
0.5860095694910102,0.021212466223591978,-2.971756225221008,1.7850992679595947,3.877502918243408,1.469867467880249,0.01767192967236042,-0.5530408024787903,-0.8329667448997498,-0.07420573383569717,0.12455880641937256,-0.27234941720962524
0.6040547036299104,0.0495078966813088,-2.9543917911211692,1.6645002365112305,3.7251319885253906,1.51675283908844,0.0407303050160408,-0.5679843425750732,-0.8220309615135193,-0.0848434567451477,0.10686373710632324,-0.2721462845802307
0.6201364128572979,0.07814620986528753,-2.9366975509574145,1.35139000415802,4.084375858306885,1.5801461935043335,0.06353061646223068,-0.5811461806297302,-0.8113155961036682,0.0017007291316986084,0.01763916015625,-0.21199989318847656
0.6341995788884865,0.11004666088445214,-2.91782471221609,1.1730750799179077,4.456415176391602,1.7266876697540283,0.08846885710954666,-0.5925329327583313,-0.8006734848022461,0.04853983223438263,-0.012279689311981201,-0.19506937265396118
0.6473555527884466,0.14414500750353137,-2.8970792701415866,0.9999813437461853,4.835931777954102,1.894899845123291,0.11458402872085571,-0.603079080581665,-0.7894087433815002,0.015054672956466675,0.06654953956604004,-0.16960614919662476
0.6587398243998537,0.18333103276398316,-2.8738315910360597,0.6112005710601807,5.834092140197754,2.1113991737365723,0.1441608965396881,-0.6121208071708679,-0.7775125503540039,-0.028300896286964417,0.08457869291305542,-0.1287374496459961
0.6672001953437589,0.2279875470576702,-2.8472579235617923,0.19938397407531738,6.23341178894043,2.3120362758636475,0.17754976451396942,-0.61878901720047,-0.7652295231819153,-0.09460294246673584,0.04145747423171997,-0.15038937330245972
0.6736280600334231,0.27290771151457327,-2.8173169874921817,-0.11707626283168793,6.499932289123535,2.536522150039673,0.21065692603588104,-0.6238256692886353,-0.7526388764381409,-0.09314894676208496,-0.002547621726989746,-0.10156339406967163
0.678780642972325,0.31929029053147523,-2.7835328138634123,-0.43410640954971313,6.940277576446533,2.7903707027435303,0.2443149834871292,-0.6278443932533264,-0.7390004396438599,-0.03562048077583313,0.002249300479888916,-0.05499064922332764
0.6831010632849156,0.36598811826855937,-2.745233492408758,-0.7391794919967651,7.13732385635376,3.0870437622070312,0.27757248282432556,-0.6312013268470764,-0.724250316619873,0.009399652481079102,0.01885080337524414,-0.08014726638793945
0.6875926135915177,0.4103960224518035,-2.7023782037888466,-0.9187386631965637,7.094394683837891,3.367697238922119,0.3083164691925049,-0.6346786618232727,-0.7086071372032166,-0.005063235759735107,0.037907421588897705,-0.08951908349990845
0.6933836980280663,0.4513615690241896,-2.6560610028186424,-1.0042327642440796,6.948342800140381,3.564835786819458,0.3354693055152893,-0.639143168926239,-0.6920667886734009,-0.02672290802001953,0.08051890134811401,-0.10065782070159912
0.7005806295548573,0.4893501541621291,-2.6080504932820454,-1.0372458696365356,6.749421119689941,3.6073977947235107,0.35934004187583923,-0.6446616649627686,-0.674748957157135,-0.06208351254463196,0.11246567964553833,-0.11092609167098999
0.7090651389905317,0.5243140084718265,-2.560000366232369,-1.0247597694396973,6.398586273193359,3.6014790534973145,0.3799555003643036,-0.6511245369911194,-0.6570165157318115,-0.09734737873077393,0.13928371667861938,-0.11362862586975098
0.7189490324268231,0.5544177246600338,-2.5117541201340687,-1.0278077125549316,5.881846904754639,3.652216672897339,0.39615148305892944,-0.6585941910743713,-0.6397794485092163,-0.09027373790740967,0.16842085123062134,-0.09136068820953369
0.7299277486453353,0.5781741894321836,-2.4623519987789986,-1.093834638595581,5.397951126098633,3.7447826862335205,0.4072610139846802,-0.6668158173561096,-0.6240954995155334,-0.07883080840110779,0.17442995309829712,-0.04890859127044678
0.7411803143215961,0.5964370245671915,-2.4111287266332115,-1.2420880794525146,5.121454238891602,3.7907891273498535,0.41434913873672485,-0.6751590371131897,-0.6103072762489319,-0.08863502740859985,0.15043985843658447,-0.01774442195892334
0.7517034566833218,0.6115124586445243,-2.358083077541157,-1.4420506954193115,5.085992813110352,3.786078453063965,0.419400155544281,-0.682884156703949,-0.5981411933898926,-0.11195069551467896,0.12699121236801147,0.005932331085205078
0.7609695903132194,0.6253827608568464,-2.303331161202567,-1.6564223766326904,5.176688194274902,3.746521472930908,0.4239332973957062,-0.6896238923072815,-0.5871110558509827,-0.1419965624809265,0.1361570954322815,0.009794831275939941
0.7686074215851187,0.6390944923596402,-2.2472497223385237,-1.880397081375122,5.301100730895996,3.6466383934020996,0.4287891983985901,-0.6951348185539246,-0.5769985914230347,-0.1723957359790802,0.15445488691329956,0.0005064010620117188
0.7742734602676546,0.6530476349615324,-2.1904324542537807,-2.1042726039886475,5.360390663146973,3.517063856124878,0.43439799547195435,-0.6991968154907227,-0.5678223371505737,-0.20052647590637207,0.16439157724380493,0.003750741481781006
0.7780897624906791,0.6660474260994984,-2.1330683828786223,-2.285468339920044,5.218033790588379,3.3921937942504883,0.44009068608283997,-0.7019201517105103,-0.5600252747535706,-0.2195095717906952,0.16250669956207275,0.019818484783172607
0.7802982514432062,0.6767703683625983,-2.0758182128589566,-2.415783166885376,4.914813995361328,3.2325611114501953,0.44509848952293396,-0.7034913897514343,-0.5540642738342285,-0.23120072484016418,0.1480715274810791,0.03575378656387329
0.7807593634506546,0.6843345160912415,-2.019533367307366,-2.526880979537964,4.4853515625,3.0100765228271484,0.44907164573669434,-0.7038190364837646,-0.5504302382469177,-0.24220818281173706,0.12296271324157715,0.061126708984375
0.7790853920595194,0.689065716684535,-1.9651872945153197,-2.6124191284179688,4.080142974853516,2.7267942428588867,0.4524192810058594,-0.7026289105415344,-0.5492081046104431,-0.2572745680809021,0.07836127281188965,0.07978677749633789
0.7750739001064545,0.6920733274213693,-1.9137070983174722,-2.6606764793395996,3.733053207397461,2.406160593032837,0.45586398243904114,-0.6997688412666321,-0.5500105619430542,-0.2780532240867615,0.03262406587600708,0.07492822408676147
0.769047406848759,0.6946528914506092,-1.8652517462840166,-2.6782162189483643,3.535543203353882,2.1623425483703613,0.45997241139411926,-0.695451021194458,-0.5520627498626709,-0.2792930006980896,0.004838228225708008,0.042831242084503174
0.7621693670492455,0.6976035241507178,-1.8192643908198465,-2.5972352027893066,3.4097578525543213,2.045214891433716,0.464661180973053,-0.6904922723770142,-0.5543559789657593,-0.21383708715438843,-0.0038895010948181152,-0.023753702640533447
0.7560098057052426,0.7010708252773353,-1.775538654844771,-2.4004921913146973,3.2724454402923584,2.0113606452941895,0.4693150520324707,-0.6860237121582031,-0.5559810400009155,-0.13911473751068115,0.006397247314453125,-0.10730314254760742
0.7517296523397361,0.7047436369274067,-1.7343937274335122,-2.105863571166992,3.057666540145874,2.000084400177002,0.4732517600059509,-0.6829032897949219,-0.5564852356910706,-0.08981361985206604,0.03458791971206665,-0.1712825894355774
0.7499299026144588,0.7079192735378275,-1.69650970835456,-1.7455687522888184,2.7128052711486816,1.9635814428329468,0.4758149981498718,-0.6815874576568604,-0.555912435054779,-0.05647292733192444,0.05091118812561035,-0.1976580023765564
0.7506682637666192,0.7099405750226491,-1.6626457305200104,-1.3527177572250366,2.2898595333099365,1.8709698915481567,0.47660955786705017,-0.6821275949478149,-0.5545677542686462,-0.05941897630691528,0.033186495304107666,-0.19775152206420898
0.7536223020807922,0.710818858497027,-1.6336425341200962,-0.9605079293251038,1.8284693956375122,1.7025727033615112,0.47577965259552,-0.6842846870422363,-0.552619457244873,-0.09058669209480286,-0.006816446781158447,-0.18117564916610718
0.7580547012157284,0.710725386469811,-1.6101245565735227,-0.5973647236824036,1.3743352890014648,1.4481135606765747,0.47374463081359863,-0.6875101327896118,-0.550359845161438,-0.13678470253944397,-0.044484496116638184,-0.15456563234329224
0.7632234449704369,0.710690447248371,-1.5928934049791423,-0.2478717416524887,0.9920662045478821,1.1047934293746948,0.4714009463787079,-0.6912543177604675,-0.5476757884025574,-0.2066761553287506,-0.06965571641921997,-0.13304924964904785
0.7686067854477481,0.7117032489923885,-1.582372012154483,0.0686551108956337,0.6701627969741821,0.7431208491325378,0.4695180356502533,-0.6951343417167664,-0.5443721413612366,-0.266499787569046,-0.09043389558792114,-0.12040740251541138
0.7739430801910092,0.7145550713703465,-1.5781260831100021,0.33157938718795776,0.518190324306488,0.4196152687072754,0.46863114833831787,-0.6989606022834778,-0.5402211546897888,-0.288012832403183,-0.09139889478683472,-0.11093229055404663
0.7791694657379525,0.7205383356540722,-1.5790408749252591,0.5301981568336487,0.5679025053977966,0.17839401960372925,0.4694383442401886,-0.7026887536048889,-0.5346551537513733,-0.2792069613933563,-0.07846969366073608,-0.11179858446121216
0.7842641560370405,0.7301096155249946,-1.583692546353503,0.6550871133804321,0.6902278661727905,0.012618381530046463,0.4721403121948242,-0.7063044905662537,-0.5274633169174194,-0.23692601919174194,-0.05591785907745361,-0.11625909805297852
0.7891562120730478,0.7427474856222274,-1.59076007528241,0.7275514006614685,0.8324810862541199,-0.08054925501346588,0.4764258563518524,-0.7097591161727905,-0.5189030766487122,-0.17382872104644775,-0.030444681644439697,-0.10217529535293579
0.7939428916719152,0.7575968920725015,-1.5989787248502807,0.7513443827629089,0.9568576216697693,-0.0977783128619194,0.4817383885383606,-0.7131229043006897,-0.5092975497245789,-0.10168766975402832,-0.025631368160247803,-0.07924914360046387
0.798778115765434,0.7734379973561817,-1.6071468816316796,0.726820707321167,1.0319898128509521,-0.04918872192502022,0.4873308539390564,-0.7165042757987976,-0.49912965297698975,-0.02607285976409912,-0.03486907482147217,-0.05477958917617798
0.8036992866723536,0.7891334236328451,-1.6144153463667517,0.6739681363105774,1.0418716669082642,0.023629825562238693,0.49259600043296814,-0.719928503036499,-0.48892971873283386,0.027271032333374023,-0.04331618547439575,-0.019645631313323975
0.8085176145148875,0.8035294796265754,-1.6203497216810059,0.5774059295654297,0.9706700444221497,0.08765782415866852,0.49708062410354614,-0.7232642769813538,-0.4793742597103119,0.042348116636276245,-0.03682178258895874,0.03311583399772644
0.8129643046765619,0.8159363004644956,-1.6245568764572231,0.4484767019748688,0.8950495719909668,0.15742678940296173,0.5006422996520996,-0.7263278961181641,-0.4709620773792267,0.041319429874420166,-0.021932661533355713,0.09039270877838135
0.8168885647241337,0.8261282408974464,-1.6266631468295438,0.29067298769950867,0.8320009708404541,0.21582858264446259,0.5033164024353027,-0.7290195822715759,-0.4638998210430145,0.04395538568496704,-0.022094249725341797,0.1249869167804718
0.8200932163554322,0.8340945193202188,-1.6264119553115068,0.11800774931907654,0.7895632386207581,0.27970823645591736,0.5052629113197327,-0.731209397315979,-0.45830363035202026,0.04582357406616211,-0.034232497215270996,0.14887070655822754
0.822682341541104,0.8402675295379627,-1.6238654442837541,-0.024479683488607407,0.8276757597923279,0.3325745463371277,0.5066705346107483,-0.7329731583595276,-0.45391103625297546,0.02488464117050171,-0.03417772054672241,0.1388629674911499
0.8247396118723919,0.8460102590502112,-1.619600044418449,-0.13051185011863708,0.9271370768547058,0.3535812795162201,0.5081389546394348,-0.7343710660934448,-0.4499933421611786,-0.009268045425415039,-0.003910183906555176,0.09983474016189575
0.8262938212267276,0.8512695362077005,-1.6142320176758538,-0.2280024290084839,0.8818185925483704,0.3587259352207184,0.5096396207809448,-0.7354251146316528,-0.4465620219707489,-0.011836767196655273,0.02442646026611328,0.07946610450744629
0.8274487208828083,0.8539125692668964,-1.6073765873973465,-0.3026990592479706,0.5984196662902832,0.4437819719314575,0.5101774334907532,-0.7362071871757507,-0.44465506076812744,0.014892816543579102,0.010407567024230957,0.14752072095870972
0.8291911753191612,0.8519941482041775,-1.5984714183297544,-0.3780037462711334,0.40355241298675537,0.6093301773071289,0.5083571076393127,-0.7373852729797363,-0.44478750228881836,0.08472150564193726,-0.009593427181243896,0.12235412001609802
0.831301241076256,0.8485209488462414,-1.5873991004189338,-0.4667474627494812,0.5314232707023621,0.6677178740501404,0.5056408643722534,-0.7388089299201965,-0.4455209970474243,0.09990429878234863,0.013100802898406982,0.044916749000549316
0.832843710119833,0.8456186047963747,-1.5755031985215413,-0.5108126401901245,0.6436461210250854,0.609615683555603,0.5034921169281006,-0.7398475408554077,-0.4462301731109619,0.013582468032836914,-0.003011345863342285,0.03402933478355408
0.8336939502404538,0.8438909820173015,-1.5640942910619067,-0.5221153497695923,0.6771809458732605,0.5424797534942627,0.5022501349449158,-0.7404192686080933,-0.44668111205101013,-0.06391090154647827,-0.015195965766906738,-0.023640453815460205
0.8343567303798416,0.8425109764556944,-1.5530221295018922,-0.48537755012512207,0.6913956999778748,0.5458831787109375,0.5012669563293457,-0.740864634513855,-0.44704708456993103,-0.06613200902938843,-0.003337085247039795,-0.04652887582778931
0.8355164242200886,0.8418643173993371,-1.5428124051895347,-0.3774678409099579,0.6636900305747986,0.5279518365859985,0.5003366470336914,-0.7416430115699768,-0.4467986822128296,-0.02824491262435913,0.013997077941894531,-0.06139528751373291
0.837137468282645,0.8411015656220256,-1.5341573090824403,-0.2722475826740265,0.44473063945770264,0.48922768235206604,0.49909886717796326,-0.7427294254302979,-0.44637805223464966,-0.022582054138183594,-0.00044995546340942383,-0.04582458734512329
0.8392116160770907,0.8383227743929154,-1.526474816518581,-0.22062619030475616,0.13786284625530243,0.51236492395401,0.4967101216316223,-0.7441166639328003,-0.44673213362693787,-0.005727976560592651,-0.013421237468719482,0.0016333460807800293
0.8417953902726428,0.8324103490426058,-1.5186423960851967,-0.20955073833465576,-0.1515037566423416,0.5708405375480652,0.4926365613937378,-0.7458402514457703,-0.44836539030075073,0.039178043603897095,-0.021310627460479736,0.04135257005691528
0.844753998896533,0.8234536871919967,-1.5102154165861068,-0.21843290328979492,-0.37216368317604065,0.6172639727592468,0.4869803786277771,-0.7478078007698059,-0.45125800371170044,0.06363308429718018,-0.03135180473327637,0.06629407405853271
0.8477585527695223,0.8121985758415312,-1.501161714474378,-0.24766729772090912,-0.5076286792755127,0.6417816877365112,0.4802377223968506,-0.7497991919517517,-0.4551626145839691,0.05960303544998169,-0.033785462379455566,0.07317417860031128
0.8505847798998388,0.7994702439017358,-1.4914414857157032,-0.2898978590965271,-0.5665103793144226,0.6492310762405396,0.47288423776626587,-0.751666247844696,-0.4597591459751129,0.043244391679763794,-0.03646552562713623,0.06072664260864258
0.8529887209137562,0.78603813572421,-1.481119521122285,-0.33842718601226807,-0.5518694519996643,0.6408241391181946,0.46538639068603516,-0.7532495260238647,-0.46479108929634094,0.017600148916244507,-0.042984604835510254,0.041390299797058105
0.8548407433285942,0.7728992950662935,-1.470461082087225,-0.3784465193748474,-0.45894134044647217,0.6093242764472961,0.45826470851898193,-0.7544664144515991,-0.4698658883571625,-0.010297119617462158,-0.046314895153045654,0.02154749631881714
0.8560354489729219,0.7611603124447166,-1.4600287937815961,-0.3962191343307495,-0.30938223004341125,0.5363085269927979,0.4520954489707947,-0.7552499771118164,-0.4745599925518036,-0.0340656042098999,-0.04363912343978882,0.004040032625198364
0.8565036024806744,0.7515577330581962,-1.4504694353738288,-0.3917554020881653,-0.17318420112133026,0.43443888425827026,0.44727623462677,-0.7555567622184753,-0.4786209464073181,-0.061823904514312744,-0.04484301805496216,-0.0031294524669647217
0.8562039522114995,0.7439736929810383,-1.4422711655304354,-0.3792665898799896,-0.11031945049762726,0.3094952702522278,0.4437868595123291,-0.7553604245185852,-0.4821659028530121,-0.08671584725379944,-0.04732823371887207,-0.005764305591583252
0.8552114624530462,0.7380812517752975,-1.4356766862992838,-0.3461850583553314,-0.07218591123819351,0.19323602318763733,0.4414422810077667,-0.7547096610069275,-0.485326886177063,-0.09905025362968445,-0.052190423011779785,-0.010904073715209961
0.8537865294119379,0.7339366908681523,-1.43081121091548,-0.2915433943271637,-0.025737006217241287,0.0854499340057373,0.4401468336582184,-0.7537740468978882,-0.48795029520988464,-0.09937220811843872,-0.051523804664611816,-0.014323174953460693
0.8520640895936865,0.7315340286004789,-1.4278310257675086,-0.22396060824394226,-0.009879481047391891,-0.022864025086164474,0.43983978033065796,-0.7526410818099976,-0.489971786737442,-0.09863799810409546,-0.04455435276031494,-0.016818225383758545
0.8501730162048415,0.7305444440168531,-1.4266371197262866,-0.1644153594970703,-0.014336084015667439,-0.10566619783639908,0.4403036832809448,-0.7513945698738098,-0.49146604537963867,-0.09495148062705994,-0.033639609813690186,-0.011387258768081665
0.8482881264636208,0.730223456486968,-1.4265791411084254,-0.12555265426635742,-0.04315255209803581,-0.13262110948562622,0.44108983874320984,-0.7501494884490967,-0.49266165494918823,-0.07432955503463745,-0.019183456897735596,-0.0012347698211669922
0.8465705285994006,0.7298478179367706,-1.4268684623057275,-0.1065315455198288,-0.07378662377595901,-0.12191440910100937,0.44176316261291504,-0.7490125894546509,-0.4937868118286133,-0.04845258593559265,-0.007899582386016846,0.010830968618392944
0.8451142601047947,0.7291371461084191,-1.4271367701777586,-0.08739593625068665,-0.10812489688396454,-0.09565377235412598,0.4421384334564209,-0.7480469346046448,-0.49491363763809204,-0.025603950023651123,-0.0015411376953125,0.019617736339569092
0.8440320330066845,0.728011443416374,-1.4273642198814014,-0.05376278981566429,-0.15149591863155365,-0.06911543011665344,0.44211944937705994,-0.7473282814025879,-0.4960150718688965,-0.008632451295852661,0.0025772452354431152,0.023191094398498535
0.8433300784793457,0.7264482317535912,-1.4276216334708698,-0.02758178301155567,-0.1996336132287979,-0.049568627029657364,0.44169187545776367,-0.7468616962432861,-0.4970976412296295,0.003529191017150879,0.005299746990203857,0.027447402477264404
0.8428725601186133,0.7244350068671689,-1.427826056428493,-0.025049865245819092,-0.2354288399219513,-0.030594071373343468,0.4409165680408478,-0.746557354927063,-0.498241662979126,0.006318598985671997,0.007345318794250488,0.03696852922439575
0.8424616740844193,0.7218286670950287,-1.4277873945073771,-0.03778323903679848,-0.2780386209487915,-0.019752608612179756,0.4398191571235657,-0.7462839484214783,-0.49961936473846436,-0.001189887523651123,0.009909987449645996,0.05458158254623413
0.842011004775979,0.7187290560601786,-1.4275899684449858,-0.04351726174354553,-0.3122832179069519,-0.021931489929556847,0.4384898245334625,-0.745983898639679,-0.5012333393096924,-0.004255115985870361,0.01577448844909668,0.06812793016433716
0.8415318915089064,0.7153360934379864,-1.4274959497385324,-0.03298765420913696,-0.3504718542098999,-0.03310025483369827,0.4370209574699402,-0.7456647157669067,-0.5029879212379456,-0.00258791446685791,0.016447126865386963,0.07101166248321533
0.8410823544114077,0.7117632886185394,-1.4277515686161133,-0.014133792370557785,-0.40505629777908325,-0.04860844835639,0.4354400038719177,-0.7453651428222656,-0.5047998428344727,-0.0011595487594604492,0.01456063985824585,0.07537186145782471
0.8405966568394357,0.7077233987029229,-1.4282924489150934,-0.014925817027688026,-0.47811800241470337,-0.06431736797094345,0.43363243341445923,-0.7450412511825562,-0.5068298578262329,0.002875804901123047,0.011230766773223877,0.08385634422302246
0.8400068580550821,0.7029996619904928,-1.4288020234222434,-0.02956274338066578,-0.5456377267837524,-0.06210373342037201,0.43151742219924927,-0.7446476817131042,-0.5092076659202576,0.00731012225151062,0.002170264720916748,0.08965212106704712
0.8393323778307874,0.6974181010781667,-1.4291270568279024,-0.038623884320259094,-0.6135233044624329,-0.05952286347746849,0.42899107933044434,-0.7441973686218262,-0.5119932293891907,0.0066931843757629395,-0.0032697319984436035,0.08099353313446045
0.838621776195823,0.6911731790513546,-1.4294816398837817,-0.03889594227075577,-0.6903871297836304,-0.06798393279314041,0.4261223375797272,-0.7437224984169006,-0.5150694847106934,0.005854010581970215,-0.006384313106536865,0.061502158641815186
0.8378154918511157,0.6841528463504479,-1.429983921495221,-0.04472986236214638,-0.7762959003448486,-0.08863648027181625,0.4228747487068176,-0.7431832551956177,-0.5185128450393677,-0.0077135562896728516,-0.006938815116882324,0.04887795448303223
0.8367516691218403,0.6767413343450419,-1.4306195953319278,-0.06793909519910812,-0.7825794219970703,-0.1092427521944046,0.41951513290405273,-0.7424710392951965,-0.5222488641738892,-0.01619476079940796,-0.010916411876678467,0.037675559520721436
0.8353841248062466,0.6697297461956223,-1.4312176877492946,-0.09595102071762085,-0.6930479407310486,-0.12362702190876007,0.41647300124168396,-0.7415542602539062,-0.5259730219841003,-0.020156383514404297,-0.016075193881988525,0.016894102096557617
0.8336851758411397,0.663872976758965,-1.4317288666156744,-0.12777234613895416,-0.5462741851806641,-0.14198358356952667,0.41416099667549133,-0.7404133677482605,-0.5293946266174316,-0.034705400466918945,-0.013004601001739502,-0.004861235618591309
0.831599774727576,0.65956617183943,-1.4322926097211155,-0.1556849330663681,-0.39433711767196655,-0.17595086991786957,0.4128224551677704,-0.7390100955963135,-0.5323925018310547,-0.04967844486236572,-0.004352390766143799,-0.015520036220550537
0.8291009124714117,0.656900189917258,-1.4330291647778997,-0.1767810732126236,-0.24687883257865906,-0.20551368594169617,0.41252800822257996,-0.7373242974281311,-0.5349518060684204,-0.05113881826400757,-0.00014823675155639648,-0.02275681495666504
0.8263216326906077,0.65571852440292,-1.4339426252424912,-0.18091456592082977,-0.12954768538475037,-0.22714388370513916,0.4131435751914978,-0.7354439496994019,-0.5370611548423767,-0.03545793890953064,-0.00233381986618042,-0.030657291412353516
0.8235170287907376,0.6557945332379236,-1.4351998882561714,-0.1563788801431656,-0.045565925538539886,-0.24945896863937378,0.4144405126571655,-0.7335407137870789,-0.5386623740196228,-0.010738611221313477,-0.010706782341003418,-0.04227018356323242
0.8208394292099461,0.6569472492168188,-1.4370081986998715,-0.1156676635146141,0.009800396859645844,-0.27056318521499634,0.41625913977622986,-0.7317182421684265,-0.5397377014160156,-0.002837449312210083,-0.021501362323760986,-0.055950045585632324
0.8183412880950274,0.6590673844739399,-1.4393825367657551,-0.0804329514503479,0.06759517639875412,-0.2869452238082886,0.41852059960365295,-0.7300131916999817,-0.5402973294258118,-0.005999207496643066,-0.02712792158126831,-0.06721597909927368
0.8159938297790817,0.6620748125185223,-1.4422065127718142,-0.048325348645448685,0.12861113250255585,-0.30287307500839233,0.421195924282074,-0.7284068465232849,-0.5403863191604614,-0.007026553153991699,-0.024919569492340088,-0.07745712995529175
0.8138570396673258,0.6661977244316448,-1.4455162581592806,-0.008339609950780869,0.2132139652967453,-0.31457749009132385,0.42438122630119324,-0.7269412279129028,-0.539867639541626,-0.013355165719985962,-0.019534051418304443,-0.08400315046310425
0.8118984432527527,0.6714667414799037,-1.4492951458283299,0.023397013545036316,0.286286324262619,-0.3306523561477661,0.42810484766960144,-0.7255948185920715,-0.5387377142906189,-0.017887532711029053,-0.01615011692047119,-0.08311885595321655
0.8101860854976631,0.6776363245965613,-1.453375130232252,0.06062629818916321,0.3546192944049835,-0.31730183959007263,0.4321988821029663,-0.7244154810905457,-0.5370534658432007,-0.011330872774124146,-0.011485457420349121,-0.08303314447402954
0.8088992278527057,0.6845102072204614,-1.4574985755105867,0.09818992018699646,0.41282880306243896,-0.2810972332954407,0.43646934628486633,-0.723527729511261,-0.5347917079925537,0.00272446870803833,-0.001646280288696289,-0.08447092771530151
0.8081306915122429,0.6916781596701748,-1.461424221862073,0.12035214155912399,0.4506615698337555,-0.22814974188804626,0.4406459629535675,-0.7229970097541809,-0.532077431678772,0.02357223629951477,0.009282410144805908,-0.0820276141166687
0.8075951301955675,0.6982135296796146,-1.46422162507585,0.035459354519844055,0.395403653383255,-0.12787480652332306,0.4443627595901489,-0.7226269245147705,-0.529482901096344,0.04974740743637085,0.010972201824188232,-0.04493415355682373
0.8071407929670176,0.7011185062916722,-1.464769703071893,-0.04451843723654747,0.11403539776802063,0.01179866585880518,0.4461107850074768,-0.7223128080368042,-0.5284406542778015,0.09678173065185547,-0.0014573931694030762,0.05271744728088379
0.8073191887288682,0.7011460398742179,-1.463662414920322,-0.017280425876379013,0.07734262198209763,0.11486992239952087,0.44604212045669556,-0.7224361300468445,-0.5283297896385193,0.12515544891357422,-0.0007388591766357422,0.006815016269683838
0.8081815868488857,0.7013690832692676,-1.4624480919999787,0.03595924377441406,0.1476803570985794,0.10990386456251144,0.44575777649879456,-0.7230321764945984,-0.5277541875839233,0.08120453357696533,-0.014699816703796387,-0.06208944320678711
0.8091236392031607,0.70284936532094,-1.4620109408871218,0.059939414262771606,0.20220059156417847,0.05655062943696976,0.4460981488227844,-0.7236826419830322,-0.5265739560127258,0.007637321949005127,-0.013530611991882324,-0.08267897367477417
0.8098584707218827,0.7050003540678447,-1.4620890810830622,0.0550454780459404,0.2169334441423416,0.03353756293654442,0.4468849003314972,-0.7241895794868469,-0.5252078175544739,-0.021073102951049805,0.0083388090133667,-0.05795246362686157
0.8104208454555678,0.7073296924561385,-1.4621686102806437,0.03725982457399368,0.23782354593276978,0.03208507224917412,0.44784238934516907,-0.7245773077011108,-0.5238558650016785,-0.014355361461639404,0.01402127742767334,-0.03785055875778198
0.81078659424795,0.709662300018282,-1.4620709739283237,0.007114115636795759,0.23507609963417053,0.027154525741934776,0.44889041781425476,-0.7248293161392212,-0.522608757019043,-0.0036083757877349854,0.005026459693908691,-0.01909339427947998
0.8108790726148986,0.7114395281076539,-1.4615616763661383,-0.037867471575737,0.1905919909477234,0.04312976449728012,0.44977477192878723,-0.7248930335044861,-0.5217593908309937,0.010720312595367432,-0.0031648874282836914,0.0022587180137634277
0.8108112185229545,0.7122109399878102,-1.4603102904302667,-0.08543834835290909,0.14359751343727112,0.07795116305351257,0.45020923018455505,-0.7248462438583374,-0.5214494466781616,0.03260946273803711,-0.0018230676651000977,0.015559673309326172
0.810652732424365,0.7119195289405956,-1.4581930102181977,-0.12714344263076782,0.10633055865764618,0.12236256152391434,0.4501323401927948,-0.7247371077537537,-0.5216676592826843,0.044694989919662476,-0.0012913942337036133,0.023804008960723877
0.810535827915051,0.7106422722415101,-1.4552463768712236,-0.1544431746006012,0.06587182730436325,0.1686873733997345,0.44952094554901123,-0.7246565222740173,-0.5223063826560974,0.052722156047821045,0.0009778738021850586,0.025602340698242188
0.8105112733059837,0.7085143261836003,-1.4516127541470227,-0.16946925222873688,0.032903485000133514,0.2080739289522171,0.44842007756233215,-0.7246395945549011,-0.5232753157615662,0.05476909875869751,0.0017238855361938477,0.023244857788085938
0.8106901251699985,0.7058360019742675,-1.4475197593616782,-0.16733796894550323,0.022113244980573654,0.23949413001537323,0.44693291187286377,-0.7247628569602966,-0.5243757963180542,0.04977133870124817,0.00151139497756958,0.019828736782073975
0.8110175147996911,0.702931329634197,-1.4432231428997695,-0.16634035110473633,0.015416990034282207,0.24975821375846863,0.4452544152736664,-0.7249884009361267,-0.5254906415939331,0.042263954877853394,0.0018895864486694336,0.020989418029785156
0.8113052521293308,0.6997047858710772,-1.4388554088049887,-0.1739988923072815,-0.02276553586125374,0.24620376527309418,0.4434221684932709,-0.7251865267753601,-0.5267648696899414,0.0268232524394989,-0.0020778775215148926,0.026658177375793457
0.8114983655358227,0.6962376549134037,-1.4343869868305725,-0.19427832961082458,-0.02096497267484665,0.25768521428108215,0.4415033459663391,-0.725319504737854,-0.5281916856765747,0.012979775667190552,-0.009269177913665771,0.025567293167114258
0.8116519527601556,0.693063381362396,-1.4297950775287522,-0.1947208195924759,0.03373533487319946,0.2652006149291992,0.43975335359573364,-0.7254251837730408,-0.5295047760009766,0.008855104446411133,-0.007881700992584229,0.013498425483703613
0.8118467999042771,0.6907467096906821,-1.425476589793545,-0.16917337477207184,0.09772790223360062,0.24104683101177216,0.43843546509742737,-0.7255592942237854,-0.5304132699966431,-0.005101025104522705,-0.004909515380859375,0.0015894174575805664
0.8119892655443484,0.6897265320002681,-1.4219803011268506,-0.13556253910064697,0.1580236405134201,0.18953350186347961,0.43782830238342285,-0.7256573438644409,-0.5307804346084595,-0.02405562996864319,-0.004719913005828857,-0.0025293827056884766
0.812044266461465,0.689890658816331,-1.4193686104693894,-0.1048261895775795,0.19890902936458588,0.14458918571472168,0.43789005279541016,-0.7256951928138733,-0.530677855014801,-0.03046506643295288,-0.004498958587646484,0.0019456148147583008
0.8121613201667592,0.6900877019558151,-1.4169797695779593,-0.08662422001361847,0.17966942489147186,0.12492518126964569,0.43794041872024536,-0.7257757186889648,-0.5305259227752686,-0.029310017824172974,-0.007699072360992432,0.009636759757995605
0.812356613953257,0.6902627811459514,-1.4149872512720623,-0.057313207536935806,0.14332421123981476,0.11285733431577682,0.43794310092926025,-0.7259100675582886,-0.5303400158882141,-0.025223344564437866,-0.008266627788543701,0.014470934867858887
0.812785894977581,0.690612982055484,-1.4136650987426125,-0.009661005809903145,0.09262126684188843,0.09893975406885147,0.43793022632598877,-0.7262052297592163,-0.5299463272094727,-0.016970664262771606,-0.007238984107971191,0.012765049934387207
0.8135441896968499,0.6907986293641657,-1.412919113441697,0.039386168122291565,0.035136401653289795,0.08490356057882309,0.43767762184143066,-0.7267263531684875,-0.5294404625892639,-0.013513714075088501,-0.0072367191314697266,0.013586640357971191
0.8145866195790135,0.6905476916362777,-1.412482886351708,0.06732109189033508,-0.03300492838025093,0.09966638684272766,0.43706199526786804,-0.7274420261383057,-0.528965950012207,-0.003727555274963379,-0.004903614521026611,0.018559575080871582
0.8159298152529585,0.6894574483309386,-1.4117065126782842,0.0684255063533783,-0.06407762318849564,0.15357036888599396,0.43586307764053345,-0.728363037109375,-0.5286877155303955,0.02019163966178894,-0.007766783237457275,0.018022000789642334
0.8176534987246075,0.6877166906080655,-1.410086910863575,0.059443965554237366,-0.03090016171336174,0.21638809144496918,0.4341444969177246,-0.7295429706573486,-0.528474748134613,0.03558218479156494,-0.008402585983276367,0.009431898593902588
0.8196608884621935,0.6858700115624475,-1.4078053515479876,0.05243266001343727,0.011861149221658707,0.2503194510936737,0.43223944306373596,-0.7309144139289856,-0.52814120054245,0.032207608222961426,-0.0023161768913269043,0.004032492637634277
0.8218352354465761,0.6840806369193103,-1.4051911732582607,0.04193995147943497,0.02172364853322506,0.26473796367645264,0.43028828501701355,-0.73239666223526,-0.5276808142662048,0.018457412719726562,0.00591045618057251,0.00589144229888916
0.8238476517389718,0.6819732759086033,-1.4021536696058714,-0.017550010234117508,0.011391650885343552,0.27622470259666443,0.428245484828949,-0.7337653636932373,-0.5274412035942078,0.0086137056350708,0.0033423304557800293,0.016729652881622314
0.8252405188420919,0.6794443209451729,-1.3983258160356389,-0.10942719131708145,0.04968627914786339,0.2874666154384613,0.4262675940990448,-0.7347109913825989,-0.527726948261261,0.006136000156402588,-0.009917974472045898,0.03155702352523804
0.8258384928984092,0.6769406917705655,-1.3937521408916111,-0.20122447609901428,0.10966705530881882,0.2615514099597931,0.4246697425842285,-0.7351164817810059,-0.5284499526023865,0.0010200142860412598,-0.02481698989868164,0.037605345249176025
0.8255306046283026,0.674994094785594,-1.389075166546528,-0.2659050524234772,0.15590237081050873,0.2078641653060913,0.42378172278404236,-0.7349077463150024,-0.5294523239135742,-0.017012864351272583,-0.02787923812866211,0.033923208713531494
0.8244161504124711,0.6738164441116495,-1.3848234346222985,-0.29513829946517944,0.1765698343515396,0.14912228286266327,0.42366868257522583,-0.7341514825820923,-0.5305907130241394,-0.033440351486206055,-0.02369159460067749,0.02213740348815918
0.8227123774911741,0.6729655561118596,-1.3808601326884404,-0.32364097237586975,0.19211725890636444,0.11540395021438599,0.42399612069129944,-0.7329936027526855,-0.5319283604621887,-0.033371031284332275,-0.02324730157852173,0.012809157371520996
0.8206205116530855,0.6725066263404417,-1.3769208062532639,-0.34616678953170776,0.2551172375679016,0.09276095032691956,0.42470622062683105,-0.7315689921379089,-0.5333212018013,-0.02266758680343628,-0.02877652645111084,0.007549166679382324
0.8183415396266044,0.6726264750309189,-1.3730458317336616,-0.3418070375919342,0.29861852526664734,0.06188492104411125,0.4258077144622803,-0.730013370513916,-0.5345728993415833,-0.024516820907592773,-0.031247615814208984,-0.0004916787147521973
0.8160581970755291,0.673024781519419,-1.3696107256761898,-0.30183324217796326,0.2682150900363922,0.019244251772761345,0.4270586371421814,-0.7284509539604187,-0.5357053875923157,-0.03220689296722412,-0.020892977714538574,-0.01132214069366455
0.8137512627186282,0.673494333147819,-1.3670551883009812,-0.28117573261260986,0.20406685769557953,-0.031171996146440506,0.4283570945262909,-0.7268685698509216,-0.5368168354034424,-0.03321543335914612,-0.01145845651626587,-0.017611145973205566
0.8111669947785886,0.6741696815429175,-1.3650748629703795,-0.29443827271461487,0.2317160665988922,-0.07613255083560944,0.4298907220363617,-0.7250913381576538,-0.5379931330680847,-0.02643299102783203,-0.022741973400115967,-0.019868135452270508
0.8081565742675447,0.6758617405112213,-1.3634788571058731,-0.3106926381587982,0.34314921498298645,-0.13172048330307007,0.4321639835834503,-0.7230148911476135,-0.5389655232429504,-0.028218001127243042,-0.047950685024261475,-0.03085857629776001
0.8046801824778801,0.6793390221044044,-1.3625984050676945,-0.3054949641227722,0.47513121366500854,-0.21349284052848816,0.4356120228767395,-0.7206089496612549,-0.5394116640090942,-0.05261635780334473,-0.04818993806838989,-0.054124534130096436
0.8007573541138746,0.6847579497519025,-1.3628786396595345,-0.2767004668712616,0.5621050596237183,-0.3101951479911804,0.4403132498264313,-0.7178835272789001,-0.5392287373542786,-0.08630925416946411,-0.03190290927886963,-0.07039034366607666
0.7965383744652906,0.6918001772724542,-1.364407521762941,-0.23508404195308685,0.6239362359046936,-0.3814821243286133,0.4460277855396271,-0.714940071105957,-0.5384421944618225,-0.09257310628890991,-0.020091116428375244,-0.07499158382415771
0.7923905224606841,0.7001073310723214,-1.3668947140371932,-0.17517022788524628,0.6772171258926392,-0.4091087579727173,0.45239201188087463,-0.7120338082313538,-0.5369817018508911,-0.06141597032546997,-0.022707462310791016,-0.08109068870544434
0.7886597980400152,0.7093386568867573,-1.3700997483710586,-0.10289976000785828,0.6992201805114746,-0.41311413049697876,0.45905667543411255,-0.7094093561172485,-0.5347946286201477,-0.028453588485717773,-0.028139472007751465,-0.08303362131118774
