attitudeX,attitudeY,attitudeZ,gyroX,gyroY,gyroZ,gravityX,gravityY,gravityZ,accX,accY,accZ
1.0232343703263167,0.7136092632217679,-2.1560540605270706,0.1336940973997116,0.18323568999767303,0.27212727069854736,0.3407720625400543,-0.8537963032722473,-0.39358121156692505,0.058687835931777954,-0.00336611270904541,0.0032462477684020996
1.0258487589909395,0.7119293231394935,-2.1520612856392822,-0.008536538109183311,0.15960226953029633,0.37797248363494873,0.3386511206626892,-0.8551544547080994,-0.39246201515197754,0.07559454441070557,-0.00402224063873291,0.036413490772247314
1.0281233140293509,0.7073938679536881,-2.145134135538994,-0.10946879535913467,0.11380843818187714,0.4540468454360962,0.33560270071029663,-0.8563313484191895,-0.3925144374370575,0.08262553811073303,-0.009131968021392822,0.04243206977844238
1.0302271783162809,0.7005618493833912,-2.1362146445758423,-0.16038364171981812,0.042506832629442215,0.5131801962852478,0.3317510187625885,-0.8574159145355225,-0.39341986179351807,0.08690446615219116,-0.015127420425415039,0.03163403272628784
1.0323485357499744,0.692118061865947,-2.1262644635014314,-0.16250453889369965,-0.01844789646565914,0.5354797840118408,0.3272557556629181,-0.8585056662559509,-0.39480578899383545,0.0835261344909668,-0.024383127689361572,0.006347626447677612
1.0345751194149264,0.6832588312239919,-2.1162621751847928,-0.14009696245193481,-0.030435582622885704,0.5300397872924805,0.3225378096103668,-0.8596453666687012,-0.39620620012283325,0.06637826561927795,-0.030964374542236328,-0.021365761756896973
1.0368275303339036,0.6748781874320765,-2.1067131908821675,-0.1165991723537445,-0.00011725910007953644,0.5040357112884521,0.3179953396320343,-0.860793948173523,-0.39738237857818604,0.0390755832195282,-0.03337109088897705,-0.0427573025226593
1.03904766151685,0.6676003274162801,-2.097895925941201,-0.0915079340338707,0.06967566907405853,0.4708423614501953,0.31391093134880066,-0.8619217276573181,-0.3981843590736389,0.021568894386291504,-0.03706502914428711,-0.05307894945144653
1.041286551617407,0.6617737850710274,-2.089772916865284,-0.05939360707998276,0.16768968105316162,0.4474989175796509,0.3103989362716675,-0.8630548119544983,-0.3984832465648651,0.013590991497039795,-0.04150146245956421,-0.05693045258522034
1.0436208075893731,0.6575462147994063,-2.0824057317225884,-0.025815404951572418,0.25473856925964355,0.4177021384239197,0.3074793815612793,-0.8642314672470093,-0.3981962203979492,0.009003221988677979,-0.04352903366088867,-0.05709540843963623
1.0459775190183014,0.6549512976395433,-2.076099839174636,0.013352654874324799,0.30622372031211853,0.36515259742736816,0.30520376563072205,-0.8654147386550903,-0.39737656712532043,-0.0001652240753173828,-0.04648113250732422,-0.04827159643173218
1.0483685530171833,0.6539135864727904,-2.071280668787436,0.07352571189403534,0.31365954875946045,0.3062248229980469,0.3035315275192261,-0.8666102886199951,-0.3960494101047516,-0.0034826695919036865,-0.05160254240036011,-0.03865817189216614
1.0509330994410082,0.6542208923813055,-2.0681061775931977,0.13542714715003967,0.29607829451560974,0.25437697768211365,0.3022997975349426,-0.8678871393203735,-0.39419126510620117,-0.0013048648834228516,-0.057955145835876465,-0.03412291407585144
1.0535768904062985,0.6555417720886156,-2.0662957550660175,0.16899575293064117,0.2818024456501007,0.20868727564811707,0.3014204204082489,-0.869197428226471,-0.39197131991386414,-0.000623852014541626,-0.05566823482513428,-0.0302392840385437
1.0561227603129548,0.657436088856694,-2.065380076018447,0.17304393649101257,0.254486620426178,0.17068904638290405,0.30080923438072205,-0.8704534769058228,-0.38964682817459106,-0.0018894672393798828,-0.04859870672225952,-0.01367342472076416
1.0584205494814702,0.6595449261984847,-2.0649503877553497,0.15972892940044403,0.2422991842031479,0.14724311232566833,0.3004038333892822,-0.8715822696685791,-0.3874298930168152,0.002864629030227661,-0.0512998104095459,0.009378224611282349
1.0604163810669802,0.6616053133597272,-2.0645960869027062,0.13168367743492126,0.2343338280916214,0.12287057936191559,0.30013221502304077,-0.8725589513778687,-0.3854369819164276,0.01653352379798889,-0.06198084354400635,0.0239105224609375
1.0620374432873876,0.6635886486646199,-2.064102762448585,0.09421194344758987,0.24513080716133118,0.11418308317661285,0.3000243902206421,-0.8733497262001038,-0.3837261199951172,0.030984580516815186,-0.07953119277954102,0.024839460849761963
1.0634063308899249,0.6653276308060777,-2.06325539724612,0.07233154773712158,0.24707992374897003,0.12390782684087753,0.299952894449234,-0.8740156888961792,-0.38226285576820374,0.05189958214759827,-0.1035386323928833,0.016235142946243286
1.0647898632620376,0.6664907486540921,-2.0617695068461104,0.05477333068847656,0.24501757323741913,0.15916356444358826,0.2996494472026825,-0.8746870756149292,-0.38096287846565247,0.07402309775352478,-0.12526708841323853,0.005489915609359741
1.0662561689960994,0.6670514321221152,-2.0595579602337204,0.04376320168375969,0.25377196073532104,0.18822099268436432,0.2990691661834717,-0.8753968477249146,-0.37978672981262207,0.0836670994758606,-0.13738995790481567,-0.0038801729679107666
1.0678568590381816,0.6674481067866709,-2.057029893057015,0.0583685077726841,0.26586776971817017,0.20129312574863434,0.29835209250450134,-0.8761695027351379,-0.378567099571228,0.08151552081108093,-0.13928765058517456,-0.013446420431137085
1.0697271711905665,0.6683076710559845,-2.054813882479297,0.10158898681402206,0.29723334312438965,0.1933390349149704,0.2976614534854889,-0.8770694732666016,-0.3770236670970917,0.06832072138786316,-0.13550376892089844,-0.03140830993652344
1.0718413195931882,0.6702988138207363,-2.053455457665768,0.1482374519109726,0.3373059332370758,0.1639116406440735,0.29725900292396545,-0.8780830502510071,-0.37497636675834656,0.052075743675231934,-0.12763899564743042,-0.05576393008232117
1.074057822368533,0.673713276949626,-2.0532915990596763,0.18447043001651764,0.3738679885864258,0.12470834702253342,0.2973225712776184,-0.8791415095329285,-0.3724372088909149,0.04160571098327637,-0.12133145332336426,-0.06700059771537781
1.0763116679044953,0.6785498715760826,-2.0541744692244173,0.21337264776229858,0.43282797932624817,0.09131204336881638,0.29787594079971313,-0.8802133798599243,-0.3694513142108917,0.04013681411743164,-0.11490374803543091,-0.06540879607200623
1.0785263155162457,0.6845685755746,-2.055856066337694,0.22787797451019287,0.46642759442329407,0.06594272702932358,0.29886090755462646,-0.8812622427940369,-0.3661409318447113,0.0483071506023407,-0.11974489688873291,-0.06273782253265381
1.0808314713204263,0.6908311167491935,-2.057746850983866,0.23837082087993622,0.4444389343261719,0.09650569409132004,0.2998526692390442,-0.8823493719100952,-0.3626953065395355,0.057401448488235474,-0.13484728336334229,-0.062246620655059814
1.0836077635492878,0.6961523166180265,-2.058960649625463,0.2603343427181244,0.4021507501602173,0.17621804773807526,0.3002062439918518,-0.8836525082588196,-0.3592134714126587,0.08489510416984558,-0.15656960010528564,-0.06424835324287415
1.087236940700103,0.7001553780319392,-2.0593165720652844,0.3184005618095398,0.32668471336364746,0.26221925020217896,0.29957371950149536,-0.8853456377983093,-0.3555543124675751,0.1193869411945343,-0.19432055950164795,-0.06975388526916504
1.0920693299288116,0.7029702882208724,-2.05947438296643,0.4341353476047516,0.19876784086227417,0.34803926944732666,0.2978040277957916,-0.8875820636749268,-0.35144150257110596,0.14857664704322815,-0.24756509065628052,-0.08614999055862427
1.0985880598891762,0.7052385961459838,-2.0606576323792396,0.6308297514915466,0.03839787095785141,0.4027547240257263,0.2948435842990875,-0.8905660510063171,-0.3463519215583801,0.19156089425086975,-0.3300609588623047,-0.12229123711585999
1.10692733169911,0.7083090772347186,-2.064719189071673,0.872920572757721,-0.14778494834899902,0.3873363137245178,0.29106393456459045,-0.8943281769752502,-0.3397926688194275,0.22712460160255432,-0.42702198028564453,-0.16863012313842773
1.116720408342918,0.713837585787201,-2.0734262864632966,1.1079381704330444,-0.29571661353111267,0.289292573928833,0.2871898114681244,-0.8986667394638062,-0.33154237270355225,0.22393396496772766,-0.4957273006439209,-0.20607051253318787
1.1272052277879547,0.7239174779457018,-2.088296367919246,1.3054158687591553,-0.35234585404396057,0.11138550937175751,0.2842605412006378,-0.9032162427902222,-0.32155337929725647,0.20749983191490173,-0.5304996967315674,-0.22600820660591125
1.137550198504931,0.7403360804519691,-2.1100535310605366,1.448551893234253,-0.2900601029396057,-0.11097273230552673,0.2831832468509674,-0.9076077342033386,-0.30992817878723145,0.21001136302947998,-0.5495455861091614,-0.2404715120792389
1.1468684782797354,0.7640460446350508,-2.138645386883833,1.5155621767044067,-0.16594985127449036,-0.35474032163619995,0.28458768129348755,-0.9114803075790405,-0.29700785875320435,0.21968483924865723,-0.5611912608146667,-0.2563368082046509
1.1542557982202148,0.7942819048435067,-2.172957785365122,1.4817583560943604,-0.05240410566329956,-0.5951478481292725,0.2886250615119934,-0.9144940972328186,-0.2835419476032257,0.24566149711608887,-0.5595964193344116,-0.2602201998233795
1.1589969032647103,0.8291055222942677,-2.210886073039725,1.3650420904159546,0.07271026074886322,-0.8101931810379028,0.2951221466064453,-0.9164020419120789,-0.2703893780708313,0.28686338663101196,-0.5400036573410034,-0.24840939044952393
1.1607135560080508,0.8663205205866935,-2.2499411992311864,1.185364007949829,0.2192016988992691,-0.9845439195632935,0.3037789463996887,-0.9170878529548645,-0.25820255279541016,0.31243208050727844,-0.4914511442184448,-0.24506273865699768
1.1595248869570636,0.9041262515198657,-2.2876531806739107,0.9893426895141602,0.42697879672050476,-1.089036464691162,0.31417739391326904,-0.9166132807731628,-0.24720998108386993,0.33468741178512573,-0.42330682277679443,-0.262509822845459
1.1561645124382574,0.9413329698190168,-2.3224477692824546,0.8311394453048706,0.6335474252700806,-1.1147749423980713,0.32564374804496765,-0.9152647256851196,-0.23716409504413605,0.3718355894088745,-0.33563560247421265,-0.30005204677581787
1.1517103176123837,0.9773916728641784,-2.3538858061286323,0.7453745603561401,0.8181208372116089,-1.0615177154541016,0.33735838532447815,-0.9134612679481506,-0.2275475263595581,0.4062024652957916,-0.23779910802841187,-0.35401058197021484
1.1472914895994362,1.0126033119295288,-2.382703462594416,0.7577646374702454,0.952386736869812,-0.9485540986061096,0.3485802412033081,-0.9116541743278503,-0.21766574680805206,0.44391554594039917,-0.14071393013000488,-0.4161689579486847
1.1440311652128687,1.0477950141211645,-2.4104448641526535,0.8780064582824707,1.010229229927063,-0.7768212556838989,0.3585960865020752,-0.9103094935417175,-0.20674997568130493,0.48658832907676697,-0.053756117820739746,-0.4830235242843628
1.1427287118944536,1.0839955095292533,-2.438936594396067,1.061690092086792,1.0409314632415771,-0.5875506401062012,0.36689165234565735,-0.909769594669342,-0.19419053196907043,0.5214293599128723,0.022150516510009766,-0.5447009801864624
1.143523658800253,1.1225396045694904,-2.4695222381287123,1.262082815170288,1.0939157009124756,-0.41351884603500366,0.37345030903816223,-0.9100993275642395,-0.17959478497505188,0.5270929932594299,0.08559060096740723,-0.576325535774231
1.1460332618505142,1.1640552106300404,-2.502825856181284,1.435674786567688,1.1334983110427856,-0.2728690505027771,0.3784834146499634,-0.9111363887786865,-0.16303634643554688,0.4897112250328064,0.14328360557556152,-0.5751380920410156
1.1496444099028857,1.2085467622947854,-2.539033926103783,1.5779105424880981,1.1501222848892212,-0.17444872856140137,0.3822809159755707,-0.9126186370849609,-0.14487427473068237,0.4445166289806366,0.1994534134864807,-0.5626757144927979
1.1537895264614761,1.256077703564346,-2.5782676142101817,1.6953762769699097,1.1786648035049438,-0.10646851360797882,0.385132372379303,-0.9143053293228149,-0.12537531554698944,0.4093622863292694,0.24345266819000244,-0.5516265630722046
1.1580026690257452,1.306477718913584,-2.6202274743203016,1.7677358388900757,1.2123509645462036,-0.050466716289520264,0.3872380554676056,-0.9160036444664001,-0.10480640828609467,0.38355982303619385,0.2783691883087158,-0.5417389273643494
1.1619677505005266,1.3586324593484713,-2.6639873439976123,1.7994415760040283,1.1824792623519897,-0.0058110980316996574,0.3886213004589081,-0.917587161064148,-0.08371122926473618,0.34453311562538147,0.3166502118110657,-0.5292342305183411
1.165460041217796,1.4116763988104737,-2.7088112533600226,1.7999573945999146,1.1960917711257935,0.03710993379354477,0.3893464207649231,-0.9189698696136475,-0.06248098611831665,0.3099029064178467,0.37035536766052246,-0.5076178312301636
1.1684668679828834,1.4651591942689701,-2.7536008968171233,1.7512938976287842,1.2573814392089844,0.09573835879564285,0.3893805146217346,-0.9201513528823853,-0.04128672927618027,0.2917109727859497,0.4389653205871582,-0.474551796913147
1.1711926514162434,1.5183107653125238,-2.7972953537923697,1.6755586862564087,1.3173601627349854,0.1778581291437149,0.3885180354118347,-0.9212152361869812,-0.020410332828760147,0.2635206878185272,0.4997062683105469,-0.446600079536438
1.1738835722012138,1.5705439226036155,-2.8392932348829096,1.5817573070526123,1.37856924533844,0.27380141615867615,0.3865731656551361,-0.9222588539123535,-9.757269435795024e-05,0.23549720644950867,0.5438865423202515,-0.41768795251846313
1.1767511787368836,1.6215515208895035,-2.8792310161597925,1.4722710847854614,1.4433722496032715,0.3756318986415863,0.3834325075149536,-0.9233635663986206,0.01947792060673237,0.20253556966781616,0.5981529355049133,-0.38616180419921875
1.1799978124536803,1.6714605854012448,-2.9171533566121877,1.363662600517273,1.5206878185272217,0.4884149134159088,0.37899839878082275,-0.9246051907539368,0.03828098252415657,0.16178837418556213,0.663451075553894,-0.3589290380477905
1.1837844438072396,1.720889833385357,-2.953586332642528,1.278481364250183,1.613664984703064,0.6033161878585815,0.37317976355552673,-0.9260409474372864,0.05643629655241966,0.11125636100769043,0.7315677404403687,-0.3371673822402954
1.1880604516362518,1.7708098353941566,-2.989490061772726,1.2223057746887207,1.7073489427566528,0.7043479681015015,0.3660147786140442,-0.9276463985443115,0.07420001924037933,0.054944783449172974,0.7920872569084167,-0.325878381729126
1.1926438119166443,1.8220650691407345,-3.025687923643625,1.186171531677246,1.8167307376861572,0.7857934236526489,0.3576103746891022,-0.929348349571228,0.09179636836051941,0.0024513602256774902,0.834926962852478,-0.32134950160980225
1.1973496138341209,1.8752403292280861,-3.062411513121301,1.1390433311462402,1.985419511795044,0.8520307540893555,0.3480498492717743,-0.9310754537582397,0.10936152189970016,-0.03384077548980713,0.8582910299301147,-0.3156297206878662
1.20217293048685,1.930345262164204,-3.0991317960343836,1.0510408878326416,2.1750104427337646,0.9204566478729248,0.3372909128665924,-0.9328242540359497,0.1267835944890976,-0.046839773654937744,0.8754358887672424,-0.30131351947784424
1.2073333760108174,1.986085489422328,-3.134765215896815,0.9073852300643921,2.2919719219207764,0.9917638301849365,0.3252948224544525,-0.9346712827682495,0.1434335708618164,-0.04590630531311035,0.900277853012085,-0.26023948192596436
1.213110968729773,2.0407149866827305,3.1149191551922177,0.7291440367698669,2.342904567718506,1.0584720373153687,0.31215739250183105,-0.9367097020149231,0.15853337943553925,-0.04869911074638367,0.9341309666633606,-0.2080632597208023
1.2197594445275004,2.0940150903111308,3.0833321328704932,0.56617671251297,2.3744730949401855,1.1544270515441895,0.29786738753318787,-0.9390166401863098,0.1718229353427887,-0.0562901496887207,0.970327615737915,-0.17048001289367676
1.2275731619296584,2.1474383364320984,3.0518129276954498,0.4475775361061096,2.3645997047424316,1.3008766174316406,0.2821074426174164,-0.9416748881340027,0.18347692489624023,-0.040453970432281494,1.0020081996917725,-0.15826930105686188
1.2367626187021439,2.2031311554402913,3.0175928843631805,0.38797813653945923,2.2929937839508057,1.5037282705307007,0.26446524262428284,-0.9447275400161743,0.19377285242080688,-0.01007068157196045,1.0297038555145264,-0.159333735704422
1.2472913812329298,2.2635337930510424,2.9772334960246227,0.37603893876075745,2.1166810989379883,1.7526706457138062,0.24461789429187775,-0.948127031326294,0.20302030444145203,0.016307488083839417,1.052222490310669,-0.17076314985752106
1.2586936014174137,2.3297176542000417,2.9283500434470717,0.3961934745311737,1.8295971155166626,1.9752764701843262,0.22279638051986694,-0.9516900181770325,0.21130019426345825,0.021222203969955444,1.0528253316879272,-0.17480114102363586
1.2704054867107177,2.403743271436933,2.86893922742687,0.43363022804260254,1.6564640998840332,2.210228204727173,0.19904720783233643,-0.9552209377288818,0.21893683075904846,-0.003765195608139038,1.0285546779632568,-0.1615026295185089
1.2819779992926048,2.4887261620478776,2.7973325470171315,0.45051467418670654,1.6419011354446411,2.4530768394470215,0.1730184406042099,-0.9585810899734497,0.22624558210372925,0.02324017882347107,1.0923091173171997,-0.16620206832885742
1.2928182770510592,2.586305653555317,2.712995913237976,0.45346418023109436,1.6862882375717163,2.6963350772857666,0.14466674625873566,-0.9616122245788574,0.23318178951740265,0.015138611197471619,1.1586946249008179,-0.1786009967327118
1.302327990913788,2.699507413044084,2.613236507322666,0.45079487562179565,1.735703468322754,2.9270381927490234,0.11348305642604828,-0.9641783237457275,0.23975440859794617,-0.033069148659706116,1.1870328187942505,-0.18572291731834412
1.3093677862145163,2.8276063176730055,2.4989577742193823,0.4503483772277832,1.8228739500045776,3.1311473846435547,0.0798262506723404,-0.966021716594696,0.24582457542419434,-0.07216630131006241,1.1890747547149658,-0.18016590178012848
1.3127913739816266,2.9687017373144946,2.372636791001549,0.44961094856262207,1.9691184759140015,3.3046622276306152,0.043894071131944656,-0.9669009447097778,0.2513483464717865,-0.08162900805473328,1.1877413988113403,-0.17807555198669434
1.3116040451009023,3.1183683578684382,2.2389686730936296,0.4510265588760376,2.093700885772705,3.4466569423675537,0.0059518651105463505,-0.966597318649292,0.2562314569950104,-0.08795255422592163,1.178755521774292,-0.19165611267089844
1.3052201823849265,-3.013330117281895,2.1043302912229818,0.4504454433917999,2.1801846027374268,3.562382936477661,-0.03357230871915817,-0.9649414420127869,0.2603098452091217,-0.11578065156936646,1.1599639654159546,-0.19339990615844727
1.293611782834741,-2.866736100864088,1.975283833532243,0.42750710248947144,2.257328510284424,3.6504313945770264,-0.07427084445953369,-0.9618297219276428,0.2633776366710663,-0.14223605394363403,1.1383891105651855,-0.17792820930480957
1.2773670668295851,-2.730075876012533,1.8566585295918507,0.37418103218078613,2.2743117809295654,3.6988296508789062,-0.11569473147392273,-0.9572576284408569,0.2650899887084961,-0.15081524848937988,1.1153080463409424,-0.14608657360076904
1.2574235649180794,-2.6070861003181043,1.7507614879743647,0.28329572081565857,2.062866449356079,3.7214863300323486,-0.15703760087490082,-0.951299250125885,0.2652721703052521,-0.1538144201040268,1.0892232656478882,-0.09899696707725525
1.2345894209115906,-2.500087104954581,1.6575970603216967,0.21313048899173737,1.6462738513946533,3.7224183082580566,-0.19741831719875336,-0.9440128207206726,0.2643216848373413,-0.15725694596767426,1.0470860004425049,-0.033639222383499146
1.2093854424536952,-2.4100725867958865,1.5768335178276218,0.18781454861164093,1.162300705909729,3.7190167903900146,-0.2362019270658493,-0.9353988766670227,0.26313111186027527,-0.1920665204524994,0.9834944009780884,0.019416123628616333
1.1818344974643655,-2.3360464800158067,1.5074161710550942,0.24506212770938873,0.7335171699523926,3.745183229446411,-0.273502916097641,-0.9253032803535461,0.26269808411598206,-0.23298203945159912,0.9217174053192139,0.04308819770812988
1.1517092442976415,-2.2766618411104353,1.4491645263963977,0.4056052565574646,0.4420855641365051,3.762859582901001,-0.30969181656837463,-0.9134607911109924,0.2639704942703247,-0.2867284119129181,0.8584070801734924,0.021353691816329956
1.1192705253916713,-2.230471688938637,1.402372123463682,0.6244372129440308,0.3350991904735565,3.72835373878479,-0.3447912037372589,-0.8997823596000671,0.2674148380756378,-0.4114801585674286,0.7851431965827942,-0.021931320428848267
1.085282986279002,-2.1943638399487098,1.3663716823102685,0.8269550204277039,0.4881937801837921,3.627108573913574,-0.37883684039115906,-0.8844355344772339,0.27250057458877563,-0.549889326095581,0.7128351330757141,-0.01258230209350586
1.0510624218937976,-2.164285093209545,1.3392290398689526,0.9223374128341675,0.7601163387298584,3.4519479274749756,-0.41172000765800476,-0.8679513931274414,0.27775466442108154,-0.6700976490974426,0.6393744945526123,0.038483887910842896
1.0179609555072922,-2.1376698636408733,1.3179753543677906,0.861015260219574,0.8719066977500916,3.2532615661621094,-0.44296813011169434,-0.8510391116142273,0.28197863698005676,-0.7630254626274109,0.583842396736145,0.13657009601593018
0.9871049942969484,-2.1137863093019527,1.299155713529275,0.6563987135887146,0.6933431029319763,3.031625986099243,-0.4718409776687622,-0.8344340324401855,0.2847566306591034,-0.8333042860031128,0.545676589012146,0.2608368396759033
0.9592017538600561,-2.0937633021805166,1.2811092094510521,0.422377347946167,0.3147095739841461,2.7895522117614746,-0.4974304735660553,-0.8187335133552551,0.2867727279663086,-0.8941863775253296,0.49959588050842285,0.39799606800079346
0.9342835697829918,-2.0775919262540765,1.262921164786157,0.17590975761413574,-0.008358759805560112,2.583513021469116,-0.5196820497512817,-0.804173469543457,0.28850629925727844,-0.9488848447799683,0.42946332693099976,0.506125807762146
0.9120196106571303,-2.0631411556922723,1.2436852674126102,-0.08644508570432663,-0.1410011500120163,2.4285430908203125,-0.53944331407547,-0.7907416820526123,0.2893594801425934,-1.0026557445526123,0.3612523674964905,0.587761640548706
0.892092991627771,-2.0477601496392546,1.2223983846896265,-0.3988746106624603,-0.10915641486644745,2.3184378147125244,-0.5577191114425659,-0.7783874273300171,0.28820571303367615,-1.059422492980957,0.3040221333503723,0.662477970123291
0.8743383230981356,-2.029372072613248,1.1977441403287945,-0.801790714263916,-0.02194831520318985,2.249959945678711,-0.5752269625663757,-0.7671192288398743,0.28397583961486816,-1.1311023235321045,0.2713000178337097,0.7580469846725464
0.8587009962260258,-2.0069185416329796,1.1681817852838476,-1.298809289932251,-0.006740334443747997,2.215170383453369,-0.5922591686248779,-0.7569944262504578,0.2760235071182251,-1.1776840686798096,0.27454179525375366,0.8642964363098145
0.8449722439460258,-1.9805267696178719,1.132642017198063,-1.837720513343811,-0.05941208824515343,2.194791316986084,-0.6088123321533203,-0.7479526996612549,0.2644137442111969,-1.1981182098388672,0.30706512928009033,0.9414732456207275
0.8328806543018099,-1.9502585050574985,1.0910046858854232,-2.3523898124694824,-0.07461661100387573,2.1561858654022217,-0.6248908042907715,-0.739872395992279,0.2491997331380844,-1.212526798248291,0.3383830785751343,0.984503984451294
0.8222625583161753,-1.9166761610438994,1.0440357845498633,-2.8121089935302734,-0.14406812191009521,2.0598275661468506,-0.6402606964111328,-0.7326875329017639,0.2307283878326416,-1.2220592498779297,0.34284061193466187,1.018813967704773
0.8131279736836635,-1.8816953334785074,0.9926546186781827,-3.226289749145508,-0.3765719532966614,1.9185574054718018,-0.6542831063270569,-0.7264403700828552,0.2102336287498474,-1.2253097295761108,0.32716357707977295,1.0706655979156494
0.805229196905872,-1.8471641664938603,0.9371571292591361,-3.6237387657165527,-0.7608146667480469,1.8039981126785278,-0.6666508316993713,-0.720989465713501,0.18907946348190308,-1.200826644897461,0.3110162615776062,1.1059188842773438
0.7978713830221865,-1.8142031712246,0.8778579542284144,-3.93033766746521,-1.1558586359024048,1.7278146743774414,-0.6776502132415771,-0.7158714532852173,0.16828128695487976,-1.1599199771881104,0.32193517684936523,1.0875171422958374
0.7903527159240611,-1.7836592745062447,0.8162160438059444,-4.107152462005615,-1.521520972251892,1.68075692653656,-0.6877148747444153,-0.7106015086174011,0.14864084124565125,-1.1481006145477295,0.3341822624206543,1.0047863721847534
0.7820866106003663,-1.7564420116400115,0.7537659578131779,-4.1775593757629395,-1.8456156253814697,1.6747552156448364,-0.6972545385360718,-0.704761266708374,0.13095013797283173,-1.1681782007217407,0.33835190534591675,0.9106912612915039
0.7725604174971035,-1.7326731188323865,0.6917993574138667,-4.161660671234131,-2.071502923965454,1.7191941738128662,-0.7067638635635376,-0.6979711055755615,0.11541857570409775,-1.2114337682724,0.31644028425216675,0.8377218246459961
0.7614759688529453,-1.712494029924278,0.6313207257792606,-4.082304000854492,-2.2731170654296875,1.7709383964538574,-0.7165639400482178,-0.6899905204772949,0.10222052037715912,-1.2319679260253906,0.2961001396179199,0.7505017518997192
0.7491420745474576,-1.6964422093559892,0.5731749518488998,-3.9517099857330322,-2.471954822540283,1.7761348485946655,-0.7265009880065918,-0.6810107827186584,0.09176526218652725,-1.2536168098449707,0.25498533248901367,0.668473482131958
0.7364004179435636,-1.6850832777303468,0.5179228964861654,-3.803819417953491,-2.7194695472717285,1.7025957107543945,-0.7360576391220093,-0.6716253757476807,0.08448996394872665,-1.2976794242858887,0.1662084460258484,0.6010875701904297
0.7242517367436787,-1.678795782327473,0.46543790188539885,-3.683326482772827,-3.0027921199798584,1.5525108575820923,-0.7446317076683044,-0.6625751852989197,0.08073395490646362,-1.3493165969848633,0.0681689977645874,0.5520938634872437
0.7135699745219555,-1.677169391503387,0.41506406958213554,-3.6200976371765137,-3.2792704105377197,1.3592205047607422,-0.7517569661140442,-0.6545369625091553,0.08026967197656631,-1.410459280014038,-0.029056966304779053,0.522345781326294
0.7048460527230415,-1.6795326727085025,0.3658146164990823,-3.6435604095458984,-3.545952320098877,1.1434564590454102,-0.7572128176689148,-0.6479165554046631,0.08266259729862213,-1.4697158336639404,-0.12324744462966919,0.4993840456008911
0.6985858755363225,-1.684086674927729,0.31624699845156573,-3.740648031234741,-3.706725835800171,0.9188356995582581,-0.7608439326286316,-0.6431354880332947,0.08656693994998932,-1.5199332237243652,-0.19983649253845215,0.4656639099121094
0.6950392956744892,-1.6889247541706156,0.2655072618688029,-3.893866777420044,-3.7156856060028076,0.6742156744003296,-0.7626762390136719,-0.640415608882904,0.09051516652107239,-1.5717506408691406,-0.2547107934951782,0.41194164752960205
0.694387097787316,-1.692152533353081,0.21297856819469932,-4.085766315460205,-3.61308217048645,0.41055285930633545,-0.7627947926521301,-0.6399145722389221,0.0930270105600357,-1.6062391996383667,-0.2805110812187195,0.3482420742511749
0.6968418313606881,-1.692629148774775,0.15821664100891636,-4.295952796936035,-3.477633476257324,0.11685168743133545,-0.7611885070800781,-0.6417989730834961,0.09319932013750076,-1.6084098815917969,-0.2746134400367737,0.2894911766052246
0.7024602509162242,-1.6900914833900078,0.10103807861737522,-4.496960163116455,-3.352484941482544,-0.1822439283132553,-0.7578303217887878,-0.6460974216461182,0.09083680808544159,-1.6023533344268799,-0.25707030296325684,0.234541654586792
0.7111331268795736,-1.6845296518413333,0.041555783504747104,-4.654618740081787,-3.2371180057525635,-0.489198237657547,-0.7527280449867249,-0.6526926755905151,0.08598131686449051,-1.5898468494415283,-0.23088282346725464,0.18136799335479736
0.7227761822473897,-1.6763570747223329,-0.019752168372517746,-4.752726078033447,-3.171813726425171,-0.8104484677314758,-0.7457976341247559,-0.6614692807197571,0.07902068644762039,-1.5631318092346191,-0.18106001615524292,0.13142859935760498
0.7373289614274781,-1.6664741788884034,-0.0825362408843764,-4.817831039428711,-3.2143490314483643,-1.1373300552368164,-0.7368812561035156,-0.6723130345344543,0.0707191452383995,-1.5358238220214844,-0.11568140983581543,0.08318101614713669
0.754590815693374,-1.6557952376353753,-0.14677659952532685,-4.8552045822143555,-3.349869966506958,-1.4355779886245728,-0.7259216904640198,-0.6849905848503113,0.061851583421230316,-1.4984434843063354,-0.04027491807937622,0.04509734734892845
0.7741227006485141,-1.6447370596598976,-0.21228323297923832,-4.840887069702148,-3.475856065750122,-1.690650463104248,-0.7130809426307678,-0.6990890502929688,0.05282202735543251,-1.45307195186615,0.047187745571136475,0.006855126470327377
0.7953887613358819,-1.6332076591975724,-0.2784537651313425,-4.747369289398193,-3.531372308731079,-1.89462411403656,-0.6986444592475891,-0.7141357660293579,0.043660033494234085,-1.4105932712554932,0.13526302576065063,-0.06018531322479248
0.8176502353703721,-1.620692442169957,-0.344373938779961,-4.573481559753418,-3.437775135040283,-2.0120432376861572,-0.6830861568450928,-0.7295407652854919,0.03411165997385979,-1.3848459720611572,0.22499358654022217,-0.153999924659729
0.8399513875939016,-1.6065041745445665,-0.40910307044596095,-4.319556713104248,-3.239800453186035,-2.046928644180298,-0.667073667049408,-0.7446106672286987,0.02382989414036274,-1.3391060829162598,0.32082825899124146,-0.24755418300628662
0.8615594465723734,-1.5910909538054503,-0.47160506872270025,-4.008656024932861,-3.064451217651367,-2.0232186317443848,-0.651120662689209,-0.7588590979576111,0.013216066174209118,-1.258486270904541,0.39681386947631836,-0.3237018585205078
0.8820140813159104,-1.5758054688495586,-0.5311899277689439,-3.689823865890503,-2.987309694290161,-1.9515740871429443,-0.635589599609375,-0.7720205783843994,0.0031837853603065014,-1.160125732421875,0.44290369749069214,-0.3597205877304077
0.9010465696319468,-1.5615791523425107,-0.5876654255159338,-3.374070644378662,-2.931476354598999,-1.856414794921875,-0.6207638382911682,-0.7839770317077637,-0.005721850786358118,-1.0688114166259766,0.48025059700012207,-0.3501741290092468
0.9186914766554942,-1.5486284422700742,-0.6407787493385964,-3.074021577835083,-2.838554859161377,-1.764133095741272,-0.606711745262146,-0.7948082089424133,-0.013451719656586647,-0.9817739725112915,0.507714033126831,-0.3308170437812805
0.9352092817540636,-1.536623171302609,-0.6908636356451268,-2.84016489982605,-2.765279769897461,-1.6977144479751587,-0.5933035016059875,-0.80472332239151,-0.02028295025229454,-0.8997384309768677,0.5230765342712402,-0.3151051998138428
0.950972219319345,-1.5254457131759098,-0.7392246249657866,-2.7075119018554688,-2.8249967098236084,-1.665623426437378,-0.5802949070930481,-0.8139806389808655,-0.026334786787629128,-0.8212858438491821,0.5416722297668457,-0.28242677450180054
0.9661205119123641,-1.5150166426422398,-0.7873215459840222,-2.6496756076812744,-2.9376308917999268,-1.6281664371490479,-0.5676114559173584,-0.8226864337921143,-0.031694065779447556,-0.7648165225982666,0.5663692355155945,-0.23370200395584106
0.9806239624202039,-1.5045350410445493,-0.8358772165731864,-2.6067311763763428,-2.9576640129089355,-1.5930936336517334,-0.5552829504013062,-0.8308447599411011,-0.03684770315885544,-0.7392268776893616,0.5780219435691833,-0.21588361263275146
0.994662034143827,-1.4930333995256901,-0.8846576839124816,-2.529188871383667,-2.8600199222564697,-1.589463710784912,-0.5431400537490845,-0.8385748863220215,-0.04232150316238403,-0.7559016346931458,0.5556311011314392,-0.24046963453292847
1.0085680458949036,-1.4803357019327716,-0.9329220942282985,-2.403597116470337,-2.7082245349884033,-1.604347586631775,-0.5308933258056641,-0.8460693955421448,-0.04815637320280075,-0.7750453352928162,0.5092162489891052,-0.2753756642341614
1.022361428817585,-1.4666078272391003,-0.9800694800598294,-2.2570137977600098,-2.545952558517456,-1.614675760269165,-0.5185250639915466,-0.8533415198326111,-0.05422068387269974,-0.7801504135131836,0.45955801010131836,-0.30158376693725586
1.0361492590568044,-1.4521835460752914,-1.0257629395823271,-2.1066882610321045,-2.3838107585906982,-1.6401342153549194,-0.5059571862220764,-0.8604485392570496,-0.06029602140188217,-0.787133514881134,0.43326354026794434,-0.3171148896217346
1.0501311543020126,-1.437079542895815,-1.0700620095660227,-1.9580919742584229,-2.2399778366088867,-1.6890692710876465,-0.4930168688297272,-0.8674885034561157,-0.06632037460803986,-0.7865852117538452,0.4122728705406189,-0.31685835123062134
1.0645779322839088,-1.421335472903019,-1.1133167634482055,-1.8332473039627075,-2.1381824016571045,-1.7611339092254639,-0.47946786880493164,-0.8745843768119812,-0.07220008969306946,-0.7688231468200684,0.3961144685745239,-0.30565327405929565
1.0795856478723918,-1.4046822820634026,-1.1565127133295574,-1.7747341394424438,-2.110020875930786,-1.8362207412719727,-0.46520087122917175,-0.8817624449729919,-0.07799511402845383,-0.7326140403747559,0.38353240489959717,-0.2764512896537781
1.0948802339663193,-1.3864881921030454,-1.2012042727466234,-1.7840919494628906,-2.1625545024871826,-1.886276125907898,-0.4503932297229767,-0.8888733983039856,-0.0839640349149704,-0.6715397238731384,0.37649857997894287,-0.2245228886604309
1.1099274798946919,-1.3662222284385872,-1.2489389674685687,-1.856543779373169,-2.2970452308654785,-1.877596378326416,-0.4354528784751892,-0.8956664204597473,-0.09034625440835953,-0.5994744300842285,0.3676818013191223,-0.17207437753677368
1.1240526163270332,-1.343870385966181,-1.3003761627750128,-1.9294089078903198,-2.457561492919922,-1.8288089036941528,-0.4209551215171814,-0.9018586874008179,-0.09719984233379364,-0.5517163872718811,0.3709900975227356,-0.15846115350723267
1.1369790810646117,-1.3195655733681673,-1.3549785000503847,-1.9575186967849731,-2.526064395904541,-1.774414300918579,-0.40714189410209656,-0.9073678255081177,-0.10449431836605072,-0.5311058163642883,0.3841897249221802,-0.19386076927185059
1.1488827728944317,-1.2932367674368814,-1.411371216674181,-1.9144008159637451,-2.4306254386901855,-1.7357081174850464,-0.3938337564468384,-0.9123070240020752,-0.11220873147249222,-0.5264999866485596,0.3782341480255127,-0.2709852457046509
1.1600846837442023,-1.2648633940304312,-1.4679259081759715,-1.8090769052505493,-2.2142856121063232,-1.7208452224731445,-0.3807228207588196,-0.9168369174003601,-0.1202508956193924,-0.5193778276443481,0.3538028597831726,-0.3647802472114563
1.1710161767220089,-1.2343698212455263,-1.524080609258541,-1.6947362422943115,-2.002913475036621,-1.7419776916503906,-0.3673969507217407,-0.9211465716362,-0.1284865289926529,-0.49779170751571655,0.3237495422363281,-0.4559098482131958
1.181914040259349,-1.2017820409499111,-1.580361033471697,-1.603931188583374,-1.8653758764266968,-1.7851824760437012,-0.3536311089992523,-0.9253334403038025,-0.13675962388515472,-0.4469975531101227,0.2987922430038452,-0.5137225985527039
1.1926952564775943,-1.1670792093605726,-1.6374174230485503,-1.5335967540740967,-1.7748368978500366,-1.8023803234100342,-0.3394792079925537,-0.9293673038482666,-0.1450193077325821,-0.3905165493488312,0.2859346270561218,-0.5413210391998291
1.2029002824150277,-1.130611199999847,-1.6956589711710346,-1.4981708526611328,-1.7806299924850464,-1.7813735008239746,-0.3253685534000397,-0.933086097240448,-0.1532507687807083,-0.3453620374202728,0.2782093286514282,-0.5488213300704956
1.212212069847145,-1.092790933423518,-1.755608244401183,-1.4921798706054688,-1.8557541370391846,-1.7662826776504517,-0.311612606048584,-0.9363946318626404,-0.1614397168159485,-0.340853214263916,0.2930077314376831,-0.546156108379364
1.220673966503663,-1.0532336590479292,-1.817963263068659,-1.4918394088745117,-1.9097340106964111,-1.78068208694458,-0.29808753728866577,-0.9393307566642761,-0.169710174202919,-0.36113789677619934,0.3261258006095886,-0.5645275115966797
1.2285328010843621,-1.0113312112890729,-1.882923575497797,-1.474724292755127,-1.910042405128479,-1.8189703226089478,-0.2844511568546295,-0.9419974088668823,-0.17812463641166687,-0.3669465482234955,0.3617819547653198,-0.6024539470672607
1.2359581105245612,-0.9670711409887921,-1.9499663493863963,-1.4196717739105225,-1.870449423789978,-1.8472782373428345,-0.27052614092826843,-0.9444634914398193,-0.18656010925769806,-0.35047608613967896,0.38321453332901,-0.6533293724060059
1.242812960329213,-0.9218081303350282,-2.0174173981007266,-1.3195077180862427,-1.8177106380462646,-1.8165693283081055,-0.256643146276474,-0.9466938972473145,-0.19469183683395386,-0.3049870729446411,0.38988548517227173,-0.6971538066864014
1.2490528488032404,-0.8777644533652752,-2.082673517785471,-1.160473108291626,-1.7264366149902344,-1.73370361328125,-0.24327293038368225,-0.9486855268478394,-0.20202504098415375,-0.26809489727020264,0.38784873485565186,-0.7492384314537048
1.2547806524149614,-0.8356515112902861,-2.144438622736179,-1.0072896480560303,-1.5565168857574463,-1.6576354503631592,-0.23051761090755463,-0.9504812359809875,-0.2084399312734604,-0.2543456554412842,0.3993947505950928,-0.8165997266769409
1.2602429837482938,-0.7944123945272608,-2.2029149750867596,-0.8594590425491333,-1.3046470880508423,-1.598357915878296,-0.21802084147930145,-0.9521646499633789,-0.21412527561187744,-0.24401530623435974,0.40969938039779663,-0.8380903005599976
1.265593939016181,-0.7535275757300295,-2.258313197804832,-0.7217941284179688,-1.077655553817749,-1.5363785028457642,-0.20559760928153992,-0.9537861347198486,-0.21913880109786987,-0.22349479794502258,0.39984631538391113,-0.8309558033943176
1.2707331560728121,-0.7134410076307467,-2.3108403191688214,-0.6112133264541626,-0.9364949464797974,-1.4649852514266968,-0.19343984127044678,-0.9553177952766418,-0.2234930396080017,-0.20934641361236572,0.39049839973449707,-0.8069025278091431
1.2755407787237056,-0.674627513356166,-2.3608351486440955,-0.524127721786499,-0.861790657043457,-1.3994637727737427,-0.18175065517425537,-0.9567278027534485,-0.2272411435842514,-0.19599592685699463,0.38112056255340576,-0.7823413610458374
1.280175580664892,-0.6367004446396701,-2.409275445041256,-0.44466400146484375,-0.8228563070297241,-1.379668116569519,-0.170365110039711,-0.9580661654472351,-0.23040130734443665,-0.1898186057806015,0.36880236864089966,-0.7598025798797607
1.2849734764105212,-0.5986334369420454,-2.4573819264985777,-0.3513377606868744,-0.7830886244773865,-1.3951019048690796,-0.1588810235261917,-0.9594299793243408,-0.2329181283712387,-0.1910945624113083,0.3569977879524231,-0.7464520335197449
1.2902427704115482,-0.5608629435625269,-2.504868528389553,-0.2128436416387558,-0.7810162901878357,-1.3887109756469727,-0.1472812443971634,-0.9609023332595825,-0.23446741700172424,-0.16779747605323792,0.343913197517395,-0.7338857650756836
1.2962944070102675,-0.525113709520097,-2.550400875650743,-0.03857783228158951,-0.8255486488342285,-1.3614569902420044,-0.13588932156562805,-0.9625603556632996,-0.23454591631889343,-0.12564632296562195,0.3206535577774048,-0.718273937702179
1.3033788967201343,-0.49218910655023046,-2.593424227920353,0.1564064472913742,-0.8680114150047302,-1.3354820013046265,-0.12486913055181503,-0.9644565582275391,-0.23287644982337952,-0.09790918976068497,0.2972201704978943,-0.7063935995101929
1.3118808649506235,-0.4612150036328886,-2.6345476243529786,0.3731986880302429,-0.8693549633026123,-1.3449695110321045,-0.11394361406564713,-0.9666682481765747,-0.22927990555763245,-0.10253281891345978,0.2871639132499695,-0.7034593820571899
1.322220298016524,-0.4303396857777221,-2.6754043788233632,0.6005444526672363,-0.860657811164856,-1.3986923694610596,-0.10263613611459732,-0.9692637324333191,-0.22359244525432587,-0.13921566307544708,0.29276537895202637,-0.7079107761383057
1.3345624694106997,-0.3964654614070705,-2.7191593612476153,0.8069420456886292,-0.8487122058868408,-1.508124589920044,-0.09037832170724869,-0.9722263216972351,-0.2158891260623932,-0.1811213195323944,0.3030061721801758,-0.6925581693649292
1.3486037032788218,-0.3560618043085749,-2.7692495488761164,0.9543493986129761,-0.828912079334259,-1.630455732345581,-0.07681762427091599,-0.9754166007041931,-0.2065471112728119,-0.1935070902109146,0.29066312313079834,-0.6659199595451355
1.3635364838534674,-0.30612739330034894,-2.8291136023797736,1.0233228206634521,-0.8891170620918274,-1.7394990921020508,-0.06201529875397682,-0.9785984754562378,-0.19621194899082184,-0.16801095008850098,0.26012319326400757,-0.6219338178634644
1.3783085327600488,-0.24453981903533442,-2.9016775414313094,1.0184342861175537,-1.015002965927124,-1.8165727853775024,-0.04631591960787773,-0.9815313816070557,-0.1856098175048828,-0.13888001441955566,0.23734498023986816,-0.553922712802887
1.391819569049103,-0.16997212605016315,-2.9886458651678285,0.9522725343704224,-1.1661112308502197,-1.861948013305664,-0.03011336736381054,-0.9840263724327087,-0.17545706033706665,-0.11240372061729431,0.21960687637329102,-0.48540109395980835
1.4032588871747513,-0.08271943567992131,-3.0903843599876892,0.8644840121269226,-1.4421288967132568,-1.8887689113616943,-0.01377812772989273,-0.9859983921051025,-0.16618449985980988,-0.08908137679100037,0.20024710893630981,-0.4297627806663513
1.4122710368170481,0.014624246132196792,3.0774523253976294,0.8103933334350586,-1.8533401489257812,-1.8985029458999634,0.002308537717908621,-0.9874611496925354,-0.1578456163406372,-0.08020465821027756,0.1926003098487854,-0.3900364637374878
1.4192706981275351,0.11866902605947073,2.950914029296378,0.8596101999282837,-2.3394222259521484,-1.8887617588043213,0.017870666459202766,-0.9885419607162476,-0.14988493919372559,-0.08743549883365631,0.19635140895843506,-0.3997671604156494
1.4253296270451097,0.22774196131973598,2.8142720908691614,1.0412484407424927,-2.85378360748291,-1.866700291633606,0.0327276811003685,-0.9894383549690247,-0.14121197164058685,-0.1084112823009491,0.20492297410964966,-0.46213579177856445
1.4316945450674667,0.344731704317271,2.665030123333445,1.377145767211914,-3.2494659423828125,-1.8147504329681396,0.04685758054256439,-0.9903409481048584,-0.13049720227718353,-0.1352975219488144,0.20799213647842407,-0.585719883441925
1.439140686478957,0.4772254800149179,2.497426132347149,1.7840975522994995,-3.4053356647491455,-1.721846342086792,0.06029724329710007,-0.9913458824157715,-0.11660893261432648,-0.13308167457580566,0.2108892798423767,-0.7245776057243347
1.447122753735478,0.6367491867179617,2.3028022346175017,2.1570489406585693,-3.2345128059387207,-1.634717345237732,0.07334752380847931,-0.9923621416091919,-0.09918487071990967,-0.1633133590221405,0.20931154489517212,-0.8315707445144653
1.4534338689791497,0.8332243172340655,2.074103121955448,2.4129793643951416,-2.8484153747558594,-1.591013789176941,0.08666098117828369,-0.9931209087371826,-0.07874425500631332,-0.2361971139907837,0.2069118618965149,-0.8882967829704285
1.4550902988458132,1.0564112943721888,1.8227097686485783,2.4559166431427,-2.446706533432007,-1.5495502948760986,0.10050899535417557,-0.9933135509490967,-0.05680064484477043,-0.29072508215904236,0.2107664942741394,-0.8418200016021729
1.4505248697725777,1.2692050259636372,1.585314778131395,2.257690668106079,-2.1479697227478027,-1.4854861497879028,0.11456717550754547,-0.992776095867157,-0.03563963621854782,-0.29071468114852905,0.2116481065750122,-0.6984912157058716
1.4408099053506913,1.4361072082697235,1.3965763255274675,1.8900007009506226,-1.9140444993972778,-1.4157793521881104,0.1284470409154892,-0.9915636777877808,-0.0174057986587286,-0.2808060646057129,0.1874712109565735,-0.5385481715202332
1.4280665888438673,1.5495277819702964,1.2639028184610206,1.4977296590805054,-1.679265022277832,-1.4032942056655884,0.1422140747308731,-0.9898313879966736,-0.0030251427087932825,-0.2793295681476593,0.1365598440170288,-0.4108237624168396
1.4133385020241722,1.6206590227424704,1.17598831714534,1.179182767868042,-1.4780824184417725,-1.505284309387207,0.15661317110061646,-0.9876291155815125,0.007815632969141006,-0.30775147676467896,0.07757967710494995,-0.3384888172149658
1.3964064840165025,1.6635917266360294,1.1180085704531637,0.9805124998092651,-1.3846877813339233,-1.7400634288787842,0.17276114225387573,-0.9848325848579407,0.016077613458037376,-0.409013032913208,0.0358426570892334,-0.3267313241958618
1.3764371165567963,1.688366025637221,1.0783307604861216,0.8914089202880859,-1.4753719568252563,-2.0717947483062744,0.19180457293987274,-0.9811716079711914,0.022654885426163673,-0.5213333964347839,0.028031349182128906,-0.3232377767562866
1.3528963601970165,1.7012954677441356,1.049068755214303,0.8809748888015747,-1.660576343536377,-2.4361424446105957,0.21434128284454346,-0.9763535857200623,0.02813122607767582,-0.596436619758606,0.03181934356689453,-0.30645155906677246
1.3256616807587218,1.7067643314341314,1.0250733710510385,0.9339905381202698,-1.918448805809021,-2.803349733352661,0.2404472827911377,-0.9701046347618103,0.03289610892534256,-0.6220238208770752,0.0409054160118103,-0.3116588592529297
1.2946222609183624,1.7070237733732747,1.0031412809722557,1.0248403549194336,-2.2566330432891846,-3.1765599250793457,0.2701510488986969,-0.9621056914329529,0.03703134506940842,-0.6193331480026245,0.05263596773147583,-0.32374393939971924
1.2597723988082408,1.703197886651946,0.9817090688695546,1.1318870782852173,-2.583970069885254,-3.5423829555511475,0.30335527658462524,-0.9520207047462463,0.040401067584753036,-0.635661244392395,0.06676679849624634,-0.33915281295776367
1.2212117024504618,1.6964876876858426,0.9601678820873488,1.2334243059158325,-2.8003005981445312,-3.897756338119507,0.3398061990737915,-0.9395150542259216,0.04293705150485039,-0.662392258644104,0.0984656810760498,-0.35462820529937744
1.1793503462772932,1.6872300222450136,0.9390977650607316,1.2764991521835327,-2.9555912017822266,-4.197170734405518,0.37894243001937866,-0.9243583679199219,0.04432213678956032,-0.6824702620506287,0.1323966383934021,-0.36956310272216797
1.1348078874036955,1.674847972787818,0.9195444612200705,1.2471848726272583,-3.0788018703460693,-4.45426607131958,0.42002302408218384,-0.9064530730247498,0.04386249557137489,-0.6848697662353516,0.17180323600769043,-0.3738490343093872
1.0879883031628075,1.6588207940800956,0.9025935386076587,1.1266134977340698,-3.133273124694824,-4.69077730178833,0.4624708592891693,-0.8856947422027588,0.04081421718001366,-0.7137830853462219,0.1958295702934265,-0.3609282970428467
1.0390738325551332,1.6391626511696265,0.8889307436826596,0.9515349268913269,-3.1709659099578857,-4.928445816040039,0.5058342218399048,-0.861935019493103,0.0346360057592392,-0.7336480617523193,0.2088741660118103,-0.3240494728088379
0.987911013203754,1.616380855641668,0.878181057737473,0.761279821395874,-3.1756744384765625,-5.189058303833008,0.5498632192611694,-0.8348779678344727,0.025082631036639214,-0.742825984954834,0.21804147958755493,-0.2751588821411133
0.934459149785013,1.5921377179950478,0.8693272669039208,0.6134781241416931,-3.1008596420288086,-5.4247965812683105,0.5941183567047119,-0.804277777671814,0.012681237421929836,-0.7591726183891296,0.2179892659187317,-0.2605907917022705
0.8789718860833315,1.568226127574231,0.8609671921992018,0.524948000907898,-2.972290515899658,-5.620948791503906,0.6379414796829224,-0.7700834274291992,-0.0016396403079852462,-0.7599354386329651,0.22976946830749512,-0.2683035731315613
0.82208000100122,1.5457641600617875,0.8522609541199252,0.46581247448921204,-2.807710647583008,-5.723739147186279,0.6804856657981873,-0.7325632572174072,-0.017037589102983475,-0.776371955871582,0.25615328550338745,-0.29170870780944824
0.7647786964294266,1.5247699736253688,0.8431466419822526,0.4009820818901062,-2.6782288551330566,-5.7289252281188965,0.7207714319229126,-0.6923773288726807,-0.03319792449474335,-0.7713391184806824,0.28864502906799316,-0.3183187246322632
0.7078682089494764,1.5046153139095289,0.8338448941359075,0.3354637920856476,-2.5840227603912354,-5.670596599578857,0.7580865025520325,-0.6502156257629395,-0.05024430900812149,-0.7561792135238647,0.3114399313926697,-0.3103055953979492
0.6519731254567313,1.4853108063707803,0.8242763706082085,0.3057514429092407,-2.4613332748413086,-5.547066688537598,0.7919855117797852,-0.6067559719085693,-0.06786869466304779,-0.7606744766235352,0.32602477073669434,-0.3006768226623535
0.5977848280442373,1.4671518130706307,0.8139370634552803,0.34899505972862244,-2.367786169052124,-5.368183135986328,0.822148859500885,-0.5628128051757812,-0.08551765233278275,-0.7636160850524902,0.3546523451805115,-0.3120958209037781
0.5457298093821676,1.4500597677290674,0.8021245989217067,0.4657571017742157,-2.3040223121643066,-5.174561977386475,0.8485262989997864,-0.5190420150756836,-0.1029488742351532,-0.7201999425888062,0.3688039779663086,-0.3303091526031494
0.4960722817115244,1.4345322439664867,0.7883891939244771,0.618797242641449,-2.1397500038146973,-4.956360340118408,0.8713065385818481,-0.4759749472141266,-0.11946813017129898,-0.6811211109161377,0.3587416708469391,-0.33393150568008423
0.4491358250610035,1.4211230945797673,0.7730246239526096,0.7343153357505798,-1.9292993545532227,-4.71631383895874,0.8907514214515686,-0.43418723344802856,-0.13432620465755463,-0.6641736030578613,0.3489820957183838,-0.3192565441131592
0.40514616646673696,1.4087870095262198,0.7570361547834056,0.7514375448226929,-1.8640639781951904,-4.463804244995117,0.9070101976394653,-0.39415308833122253,-0.14824336767196655,-0.6503725051879883,0.363391250371933,-0.26458317041397095
0.36335963342598104,1.3958347545304841,0.7414584963653994,0.6799015402793884,-1.866353988647461,-4.245372772216797,0.9204381108283997,-0.35541650652885437,-0.16270491480827332,-0.6613438129425049,0.3734218180179596,-0.1706690788269043
0.32348777868642814,1.3828885898766143,0.726895023210197,0.5747777819633484,-1.6539267301559448,-4.082996368408203,0.9314428567886353,-0.31787535548210144,-0.1771148443222046,-0.7155920267105103,0.35014766454696655,-0.10805666446685791
0.28473614495442745,1.371952223753694,0.7132873897337609,0.4779456853866577,-1.348266839981079,-4.014418125152588,0.9408248662948608,-0.28090423345565796,-0.1895827203989029,-0.7443831562995911,0.2911885976791382,-0.0955888032913208
0.24611534795034912,1.3625028849088654,0.7005725801268794,0.3549140691757202,-1.23963463306427,-4.031967639923096,0.9489027857780457,-0.24363821744918823,-0.20055915415287018,-0.7823073267936707,0.23469652235507965,-0.06892631947994232
0.20671365088237487,1.352416897512276,0.6890623086839942,0.15300670266151428,-1.2921111583709717,-4.133502006530762,0.9554662108421326,-0.20524463057518005,-0.21203555166721344,-0.8320683240890503,0.22456219792366028,-0.0038152337074279785
0.1654748205396095,1.340807892316616,0.6792082007211947,-0.09873978048563004,-1.3841465711593628,-4.313457489013672,0.9603690505027771,-0.16472068428993225,-0.2248523235321045,-0.8607443571090698,0.24362382292747498,0.06291081011295319
0.12199139318953917,1.3278852520080684,0.670911035175984,-0.33761152625083923,-1.4227261543273926,-4.498307228088379,0.9634284377098083,-0.12168904393911362,-0.23874172568321228,-0.8705022931098938,0.25668346881866455,0.09343227744102478
0.07643203018919058,1.3143367979930964,0.6638772302207429,-0.5530633926391602,-1.4136903285980225,-4.637330532073975,0.9644701480865479,-0.0763576328754425,-0.25291693210601807,-0.8499681949615479,0.25735732913017273,0.13550055027008057
0.02942761228269894,1.3002773014514528,0.6580326229308662,-0.767083466053009,-1.4598814249038696,-4.706561088562012,0.9632150530815125,-0.029423365369439125,-0.26711592078208923,-0.8232004642486572,0.2715345323085785,0.195857435464859
-0.018560855363500925,1.2852160352702147,0.6537216214468049,-1.0394492149353027,-1.5536545515060425,-4.724910259246826,0.9593331217765808,0.018559789285063744,-0.28166577219963074,-0.8035866618156433,0.32256564497947693,0.23959732055664062
-0.06746094253298647,1.2687813319027852,0.6516461289072971,-1.3961726427078247,-1.7109988927841187,-4.717203140258789,0.9525673985481262,0.06740978360176086,-0.2967680096626282,-0.7978890538215637,0.38560837507247925,0.25898733735084534
-0.11709232268290642,1.2509237841586316,0.6526203297583957,-1.818199872970581,-1.8572275638580322,-4.630283832550049,0.942775309085846,0.11682493984699249,-0.3122923970222473,-0.770396888256073,0.44536980986595154,0.2558957636356354
-0.16671756301929125,1.232908121359002,0.6571494903997716,-2.2135119438171387,-1.839371681213379,-4.426266193389893,0.9303756952285767,0.16594631969928741,-0.3268992304801941,-0.7424178719520569,0.470833420753479,0.2075144648551941
-0.21510685236408364,1.2162959249338308,0.6650038361488728,-2.482290267944336,-1.786489486694336,-4.119405746459961,0.9162067174911499,0.2134518176317215,-0.3391219973564148,-0.7205126881599426,0.4362978935241699,0.1116897463798523
-0.26135409056509806,1.2012433647861123,0.6748014650497,-2.5264086723327637,-1.6318734884262085,-3.8487441539764404,0.9008224606513977,0.2583889067173004,-0.3489326536655426,-0.7254531979560852,0.3482547104358673,0.023554295301437378
-0.30584215614870386,1.1900094510639745,0.6841305599404182,-2.3750903606414795,-1.0830342769622803,-3.779925584793091,0.885290265083313,0.3010963499546051,-0.35440418124198914,-0.7900906205177307,0.2034507393836975,-0.07125496864318848
-0.3502752732149867,1.1849130394048248,0.6912994790802989,-2.2022016048431396,-0.40173208713531494,-3.9605305194854736,0.870209813117981,0.3431563675403595,-0.3535233736038208,-0.8978739380836487,0.07923740148544312,-0.1507948637008667
-0.3967913744240305,1.1853441758916574,0.6960306997876339,-2.1178829669952393,0.11147744208574295,-4.312909126281738,0.8546349406242371,0.3864609897136688,-0.346766859292984,-1.0217949151992798,0.06333756446838379,-0.11967909336090088
-0.4466036065170512,1.1886051090463912,0.699161221723872,-2.1414968967437744,0.2324940413236618,-4.671382904052734,0.8368453979492188,0.43190476298332214,-0.33637481927871704,-1.0728073120117188,0.11217787861824036,0.02230319380760193
-0.49960821607476247,1.1915979188896904,0.701805387564153,-2.220874786376953,0.12500619888305664,-4.950154781341553,0.81541508436203,0.4790816903114319,-0.32492947578430176,-1.0590367317199707,0.1799454391002655,0.19672513008117676
-0.5550797624798613,1.1940661149761012,0.7045495869987396,-2.2963078022003174,0.10742153227329254,-5.1424946784973145,0.7902600765228271,0.5270110964775085,-0.31264761090278625,-1.0354077816009521,0.24664008617401123,0.30475878715515137
-0.612044410472196,1.1969648657378387,0.7074082695133557,-2.3000001907348633,0.1626964956521988,-5.234805583953857,0.7619472742080688,0.5745419859886169,-0.29889485239982605,-1.0131373405456543,0.30456268787384033,0.34596824645996094
-0.6692238880688345,1.2010242806218594,0.7101102844071837,-2.234335422515869,0.34657031297683716,-5.2126145362854,0.7312922477722168,0.6203774809837341,-0.28344956040382385,-0.9727624654769897,0.35974031686782837,0.36805951595306396
-0.7251381009601553,1.2080134917346232,0.7125648362138415,-2.1025896072387695,0.7646293044090271,-5.035299301147461,0.6996962428092957,0.6632388234138489,-0.2655929923057556,-0.8866621255874634,0.4254300594329834,0.3919357657432556
-0.7778522418242249,1.2209553488449987,0.7153209310479873,-1.9438385963439941,1.4806597232818604,-4.638016700744629,0.6692691445350647,0.7017509341239929,-0.24418170750141144,-0.7585330009460449,0.5111244916915894,0.3970290422439575
-0.8250195198970101,1.243530281596411,0.7202123049860316,-1.8466551303863525,2.301323413848877,-3.9626686573028564,0.6425287127494812,0.734561026096344,-0.21812115609645844,-0.5546380877494812,0.5984467267990112,0.3748747408390045
-0.8645318839742477,1.278245377042031,0.7314003486817386,-2.0154056549072266,2.922079563140869,-3.0667412281036377,0.6214212775230408,0.760791540145874,-0.18716774880886078,-0.31340736150741577,0.6790277361869812,0.4118839502334595
-0.8953601858902277,1.3276802150674147,0.7546469705943499,-2.502622365951538,3.324690341949463,-2.0679147243499756,0.6068511605262756,0.7804343104362488,-0.15051241219043732,-0.09526973962783813,0.7598793506622314,0.5695035457611084
-0.9163808064628448,1.3938214576682517,0.794992817611489,-3.257711887359619,3.5095152854919434,-0.979103684425354,0.5991883873939514,0.7934038043022156,-0.10716240108013153,0.08402395248413086,0.8416975140571594,0.7842864394187927
-0.9251516553579143,1.478429480007729,0.8552605209051116,-4.203930377960205,3.8396756649017334,0.23522983491420746,0.5991484522819519,0.7987120151519775,-0.055499374866485596,0.19401872158050537,0.9150329828262329,0.9655182957649231
-0.9182711712972076,1.5836860139112408,0.9343444366143747,-5.282482624053955,4.619541168212891,1.512821078300476,0.6071445345878601,0.7945531010627747,0.007826336659491062,0.28778356313705444,0.9858883619308472,1.043717861175537
-0.8926481725713911,1.7076753489883425,1.0268404470692372,-6.461057186126709,5.5780158042907715,2.7025763988494873,0.6214843392372131,0.7787358164787292,0.08560346066951752,0.35835886001586914,1.0283931493759155,1.0037825107574463
-0.8468428161938042,1.8422401811671132,1.1243186144822666,-7.666372776031494,6.334126949310303,3.644139051437378,0.6380997896194458,0.7491929531097412,0.17759159207344055,0.37722015380859375,1.0439131259918213,0.9469048976898193
-0.7815101822969784,1.9767321481771745,1.2181544351820757,-8.738164901733398,6.836004257202148,4.33698034286499,0.6521636247634888,0.7043522000312805,0.28030499815940857,0.4134187698364258,1.0494167804718018,0.9231100082397461
-0.6990298778448503,2.10362158697379,1.3008832794251812,-9.517060279846191,7.312954425811768,4.77339506149292,0.6593544483184814,0.6434754133224487,0.38883352279663086,0.4170464277267456,1.0771667957305908,0.8012147545814514
-0.6038499465109833,2.220790108273729,1.3686730199286923,-9.932933807373047,7.820449352264404,4.951098918914795,0.6553040146827698,0.5678157806396484,0.4981585443019867,0.3666229248046875,1.091867446899414,0.5546521544456482
-0.5012418265522711,2.3287217938227758,1.4206254101979365,-9.98849868774414,8.222259521484375,4.915968418121338,0.6369233131408691,0.4805149734020233,0.6028547286987305,0.3231901526451111,1.0204768180847168,0.316304087638855
-0.39608082822208385,2.4291120796036547,1.4577563122195352,-9.739778518676758,8.5494384765625,4.733948707580566,0.603102445602417,0.38580557703971863,0.6981555819511414,0.31463736295700073,0.8488593101501465,0.1351572871208191
-0.29280286257782934,2.5241186049382436,1.4817841684279573,-9.214863777160645,8.716498374938965,4.421381950378418,0.5543354749679565,0.2886369228363037,0.780641496181488,0.30116379261016846,0.6663954257965088,0.06368845701217651
-0.19486797931711797,2.6141104157777244,1.4943761164661906,-8.501208305358887,8.560944557189941,4.127060413360596,0.4938325583934784,0.19363701343536377,0.8477231860160828,0.3070403039455414,0.5414856672286987,0.07364845275878906
-0.10368510520535006,2.698698409468778,1.4964727202227044,-7.788092136383057,8.216116905212402,4.020933628082275,0.4262546896934509,0.10349942743778229,0.898662805557251,0.3621821999549866,0.4459238052368164,0.14137619733810425
-0.018297551743498286,2.779319273092102,1.488479059631145,-7.297750949859619,7.9627509117126465,4.139843940734863,0.35434165596961975,0.018296530470252037,0.934937059879303,0.4187144339084625,0.3285052180290222,0.2838281989097595
0.0639796710277428,2.85925915979099,1.4713897845735973,-7.247611045837402,7.905409336090088,4.274750232696533,0.2780274748802185,-0.0639360323548317,0.9584429264068604,0.4104338586330414,0.2162797749042511,0.5236126780509949
0.1466963095479112,2.9413322175960492,1.447592362543205,-7.69675350189209,7.953230857849121,4.217249393463135,0.1967879682779312,-0.1461707353591919,0.9694887399673462,0.29002845287323,0.1120368242263794,0.8328030109405518
0.23312708380626718,3.0267669421006573,1.4191941194708606,-8.465352058410645,8.004034996032715,3.9647815227508545,0.11147420853376389,-0.23102113604545593,0.9665418267250061,0.16245165467262268,0.009631320834159851,1.1202656030654907
0.32435652409240284,3.1165977279515142,1.385493653914924,-9.208976745605469,8.042414665222168,3.7677531242370605,0.02368912473320961,-0.3186989426612854,0.9475600123405457,0.06525442004203796,-0.08993148803710938,1.2426866292953491
0.41907593078438354,-3.0696327152909015,1.34231674075284,-9.848050117492676,8.17426586151123,3.8338940143585205,-0.0656762346625328,-0.4069165289402008,0.9111018180847168,-0.03631347417831421,-0.10802197456359863,1.1738290786743164
0.5151826403186615,-2.9599047219236656,1.2850219350152225,-10.422414779663086,8.548462867736816,3.794617176055908,-0.1572369784116745,-0.49269378185272217,0.8558796644210815,-0.1169329285621643,-0.021161377429962158,1.0007033348083496
0.6091052766479034,-2.8343458799827994,1.2135174833811715,-10.60192584991455,8.836991310119629,3.380570888519287,-0.2480456382036209,-0.5721338987350464,0.7817522287368774,-0.17826960980892181,-0.14553284645080566,0.7484602928161621
0.6948898247776262,-2.6918479113463563,1.1263185831171934,-10.336953163146973,8.974289894104004,3.174049139022827,-0.33393120765686035,-0.6403008103370667,0.6917409300804138,-0.29958322644233704,-0.3123360276222229,0.3842328190803528
0.7650472669732389,-2.532567880742285,1.0221949508188832,-9.505145072937012,8.852126121520996,3.124502658843994,-0.41266101598739624,-0.6925711035728455,0.5916556119918823,-0.31901314854621887,-0.20780432224273682,0.06937050819396973
0.8144095874846379,-2.364031677448825,0.9068538109114304,-8.409936904907227,8.354525566101074,3.037874221801758,-0.4814680218696594,-0.7273205518722534,0.4890744984149933,-0.34130120277404785,-0.2482655644416809,-0.22305268049240112
0.8434449595558587,-2.1960873142395454,0.7893226655829497,-7.377392292022705,7.853092670440674,2.867873191833496,-0.5390912294387817,-0.7469380497932434,0.38918450474739075,-0.41281306743621826,-0.43877673149108887,-0.4068692922592163
0.8559879733188706,-2.0345692842722425,0.6773030608054178,-6.585882186889648,7.592507839202881,2.6278879642486572,-0.5862362384796143,-0.7552188634872437,0.293209969997406,-0.5405643582344055,-0.5344389081001282,-0.43424686789512634
0.856887325928586,-1.881285650545367,0.57467226128988,-5.893667221069336,7.497025966644287,2.242577075958252,-0.6234840750694275,-0.7558080554008484,0.2000555545091629,-0.6595664620399475,-0.5683498382568359,-0.3684055507183075
0.8506268545926274,-1.7390561048626554,0.48484743517032813,-5.245034694671631,7.347801685333252,1.7766631841659546,-0.6501985192298889,-0.7516939640045166,0.11044652760028839,-0.7747740149497986,-0.58203125,-0.3304781913757324
0.8396780674454132,-1.6081649220048362,0.40751943023666326,-4.6976237297058105,7.2112555503845215,1.455933928489685,-0.6672364473342896,-0.7444282174110413,0.024945301935076714,-0.8560941815376282,-0.610445499420166,-0.3226594924926758
0.8257914804680453,-1.4897209590494693,0.34404833059881057,-3.754866361618042,7.0138163566589355,1.1152604818344116,-0.6757485270500183,-0.735084593296051,-0.05490691587328911,-0.8478263020515442,-0.6588668823242188,-0.2985934019088745
0.8112550453861668,-1.3878041351609918,0.29835381645251075,-2.8371968269348145,6.655696868896484,0.967970073223114,-0.6770920157432556,-0.7251519560813904,-0.12530434131622314,-0.8556075096130371,-0.6379157900810242,-0.4958198666572571
0.7968666523183955,-1.300432346571874,0.2682686775198081,-1.8397873640060425,6.450172424316406,0.8954066038131714,-0.6735607385635376,-0.7151695489883423,-0.18667738139629364,-0.8042681813240051,-0.6860756278038025,-0.5704789161682129
0.7848669746196605,-1.226171622889125,0.25344488200479093,-0.8923660516738892,6.256724834442139,0.7450950741767883,-0.6658838987350464,-0.7067310810089111,-0.2390182465314865,-0.7732334733009338,-0.7194621562957764,-0.5830947160720825
0.7768908853317966,-1.1604760571223938,0.24920209081577635,-0.30930688977241516,6.294610977172852,0.5168267488479614,-0.6539047360420227,-0.701065719127655,-0.28445643186569214,-0.8318740129470825,-0.66139155626297,-0.6204507350921631
0.772035072299436,-1.0956525097422558,0.24954778149394133,-0.08726387470960617,6.705597400665283,0.40723857283592224,-0.6371245384216309,-0.6975948214530945,-0.32777124643325806,-0.8741517066955566,-0.6404027342796326,-0.49196135997772217
0.768032789084271,-1.0282842238055578,0.2529554455311657,0.11564129590988159,7.181035041809082,0.5663076043128967,-0.6160008311271667,-0.6947216391563416,-0.371355801820755,-0.8773006200790405,-0.6035115718841553,-0.3239871561527252
0.7631819300934249,-0.9600186078576467,0.2612405521792928,0.35194486379623413,7.559658527374268,0.9105343222618103,-0.5919885039329529,-0.6912243366241455,-0.4144376218318939,-0.8290624618530273,-0.5109089016914368,-0.2821107804775238
0.7569277912185267,-0.891891330937401,0.2748551168941264,0.43093740940093994,7.8872551918029785,1.248576283454895,-0.5657560229301453,-0.6866913437843323,-0.45648133754730225,-0.7849672436714172,-0.4105987548828125,-0.2556615471839905
0.7492017218515641,-0.8213306435925082,0.28999993330371376,0.19745519757270813,8.247397422790527,1.3183940649032593,-0.5360332131385803,-0.6810544729232788,-0.49883192777633667,-0.7600178122520447,-0.35042446851730347,-0.13497230410575867
0.7405903700965779,-0.7454351760840725,0.3027092721426005,-0.07950928807258606,8.58404541015625,1.2076513767242432,-0.5006270408630371,-0.674723744392395,-0.5423288345336914,-0.8276200890541077,-0.32187360525131226,0.04452621936798096
0.7321162899799006,-0.6662975089597188,0.31402093181856666,-0.07803472131490707,8.65839958190918,1.1809415817260742,-0.45970383286476135,-0.6684451699256897,-0.5846824049949646,-0.9356666803359985,-0.26520973443984985,0.09382247924804688
0.7252418982858743,-0.5903861291009944,0.3282289000218217,0.23739594221115112,8.290407180786133,1.364357829093933,-0.416586697101593,-0.6633164882659912,-0.6216644644737244,-0.9343196153640747,-0.16680747270584106,-0.019723355770111084
0.7214415799765426,-0.5248112561465035,0.34862340396968267,0.7430741190910339,7.421274185180664,1.6212234497070312,-0.3762153685092926,-0.660467803478241,-0.6498033404350281,-0.7995353937149048,-0.06676620244979858,-0.12400031089782715
0.7224927008505564,-0.4731511325748883,0.37529952818160467,1.3628417253494263,6.396938323974609,1.771642804145813,-0.3418429493904114,-0.6612566709518433,-0.6677448153495789,-0.7113187313079834,-0.02358841896057129,-0.14519762992858887
0.7301601730263053,-0.4345770310216246,0.40705228341299154,2.1059622764587402,5.516377925872803,1.8083183765411377,-0.31369343400001526,-0.6669889688491821,-0.675812304019928,-0.7184873819351196,-0.0052828192710876465,-0.16358888149261475
0.7461634025712924,-0.40761561069569013,0.44322192819661005,2.9968082904815674,4.695972919464111,1.744389533996582,-0.2910917401313782,-0.6788265705108643,-0.6741366386413574,-0.7420351505279541,0.05855667591094971,-0.2162899374961853
0.7719249415200471,-0.39251234146830827,0.48279138047349046,3.960750102996826,3.7245118618011475,1.5101863145828247,-0.2740955948829651,-0.6975159049034119,-0.6620749831199646,-0.7739543914794922,0.13486319780349731,-0.22948074340820312
0.8076902112336002,-0.38891346057761406,0.5235484888764819,4.762526988983154,2.787252902984619,1.037590503692627,-0.2620798945426941,-0.7226926684379578,-0.6395540833473206,-0.8180440068244934,0.1779232621192932,-0.1715725064277649
0.8513404252570695,-0.39215340543391886,0.5617589252248704,5.206581115722656,2.240684747695923,0.41510480642318726,-0.2518467605113983,-0.752164363861084,-0.6089515089988708,-0.8792567849159241,0.1976751685142517,-0.0549125075340271
0.8997168909016657,-0.39710815910055813,0.5961269309395016,5.341006278991699,2.0593793392181396,-0.03227270022034645,-0.24049542844295502,-0.7831509113311768,-0.5734429359436035,-0.9047224521636963,0.2361689805984497,0.11416876316070557
0.9489098291895546,-0.4023354908232755,0.6281838800407978,5.160955905914307,1.9963405132293701,-0.20945580303668976,-0.22811584174633026,-0.8127809166908264,-0.5360508561134338,-0.8525726795196533,0.30931705236434937,0.2622166872024536
0.9957467153167118,-0.408672362070172,0.6593436257147407,4.7782745361328125,1.8602207899093628,-0.25204163789749146,-0.216131791472435,-0.8391653299331665,-0.49908775091171265,-0.7592405676841736,0.33443504571914673,0.3966251015663147
1.0383023031918333,-0.4165799887002943,0.6891174964445653,4.23068904876709,1.5915933847427368,-0.28938397765159607,-0.20542676746845245,-0.861543595790863,-0.46426570415496826,-0.6744256019592285,0.2847612500190735,0.5412158370018005
1.0754710590250873,-0.4258118677885088,0.7158169448144132,3.5979957580566406,1.192440152168274,-0.3632664680480957,-0.19633500277996063,-0.8798141479492188,-0.4328739047050476,-0.568618655204773,0.2089308500289917,0.6866276264190674
1.1075233181640018,-0.4345689125285474,0.7365570113091644,3.01973819732666,0.718153715133667,-0.5947554111480713,-0.18814454972743988,-0.894594669342041,-0.4053419232368469,-0.5353662371635437,0.13183826208114624,0.7745436429977417
1.135999976898675,-0.4399216552399391,0.7474162022686909,2.531611204147339,0.15559928119182587,-0.9687865376472473,-0.17938682436943054,-0.9069558382034302,-0.3811187744140625,-0.6128953099250793,0.0550118088722229,0.785507321357727
1.1618380521791922,-0.43965751967040145,0.7457381312215913,2.0706586837768555,-0.3951677680015564,-1.3321597576141357,-0.16925325989723206,-0.9175355434417725,-0.35983598232269287,-0.6549197435379028,0.039041221141815186,0.7427248954772949
1.184826174369221,-0.4327547284057914,0.7318164298330091,1.6362756490707397,-0.7678556442260742,-1.5601929426193237,-0.15787658095359802,-0.9264336228370667,-0.3417542278766632,-0.6243957877159119,0.056728243827819824,0.6842225790023804
1.2047648503236736,-0.4195772035649162,0.7080095997499434,1.277694582939148,-1.0099236965179443,-1.65519380569458,-0.14580444991588593,-0.933755099773407,-0.3268677890300751,-0.5887841582298279,0.07648575305938721,0.617181658744812
1.2219842701723378,-0.4023701022186995,0.6775413584227049,1.0367666482925415,-1.2546465396881104,-1.6554532051086426,-0.13384170830249786,-0.9397794008255005,-0.31448522210121155,-0.5666130185127258,0.11546915769577026,0.5225542187690735
1.237218635410331,-0.38400718651829946,0.6433249886656073,0.9077816605567932,-1.5135903358459473,-1.6141687631607056,-0.1226663663983345,-0.9448769688606262,-0.30357953906059265,-0.5528249740600586,0.17398768663406372,0.4407256543636322
1.2513969743431903,-0.3662451398423797,0.6071217786920073,0.8897621631622314,-1.7828729152679443,-1.575297474861145,-0.11244591325521469,-0.9494242072105408,-0.2931717038154602,-0.5434073805809021,0.2012399435043335,0.36026471853256226
1.2656737059445238,-0.3501361535003668,0.5698488686762566,0.9855899214744568,-2.0797271728515625,-1.5644854307174683,-0.10304844379425049,-0.9538100957870483,-0.2821831703186035,-0.554651141166687,0.21987760066986084,0.27951303124427795
1.2810679216687828,-0.3357580886057955,0.5312168181499041,1.1554700136184692,-2.4230000972747803,-1.5984106063842773,-0.09413114190101624,-0.9583215117454529,-0.26973891258239746,-0.5789188146591187,0.24332523345947266,0.2259921431541443
1.2981940477989222,-0.32242927228689783,0.4899991766620871,1.3341389894485474,-2.819329023361206,-1.6640663146972656,-0.08531405031681061,-0.9630735516548157,-0.2553642988204956,-0.5985085964202881,0.2518460750579834,0.19365781545639038
1.3172220294919745,-0.31055407513119965,0.4461688062268152,1.571555495262146,-3.2473573684692383,-1.6655744314193726,-0.07666122168302536,-0.9680219292640686,-0.23886574804782867,-0.5983113050460815,0.25772523880004883,0.17839527130126953
1.33809127278229,-0.3004075906651285,0.40017135240345325,1.7173900604248047,-3.6116418838500977,-1.7027305364608765,-0.06823998689651489,-0.9730461239814758,-0.22028325498104095,-0.5740482211112976,0.30448222160339355,0.1453474760055542
1.3602090126493398,-0.28760659966433905,0.3487121079749445,1.868228793144226,-3.824699878692627,-1.7292399406433105,-0.05929422378540039,-0.9779083132743835,-0.20044827461242676,-0.5624556541442871,0.29278868436813354,0.1381009966135025
1.3839241439597685,-0.2713588414528377,0.29215285397924706,2.042271137237549,-3.992431402206421,-1.7128812074661255,-0.04979846999049187,-0.9825901389122009,-0.178988516330719,-0.5700745582580566,0.31382787227630615,0.10640257596969604
1.4082318850500786,-0.2504406488344401,0.22945488422186905,2.0559499263763428,-4.132437705993652,-1.6149131059646606,-0.040111273527145386,-0.9868154525756836,-0.15680021047592163,-0.5756418704986572,0.33677583932876587,0.07168681919574738
1.4311345957260273,-0.2278863141300001,0.1646373860217579,1.8939427137374878,-4.128091812133789,-1.3423041105270386,-0.03145001083612442,-0.9902631640434265,-0.13561013340950012,-0.5620100498199463,0.3383312225341797,0.11681143939495087
1.4506768545750648,-0.2092512311111186,0.1044208385971003,1.5518412590026855,-4.056455135345459,-1.0200592279434204,-0.02489212527871132,-0.9927943348884583,-0.11721675843000412,-0.4996592700481415,0.34109145402908325,0.18105967342853546
1.4656540302857197,-0.19694584383529476,0.051484190415608526,1.1316180229187012,-3.976517915725708,-0.7527753710746765,-0.02053583599627018,-0.9944776296615601,-0.10291983932256699,-0.4474054276943207,0.34912240505218506,0.23809754848480225
1.4761332658027873,-0.19059266109572642,0.005200625281358549,0.7495630383491516,-3.9530224800109863,-0.5626475214958191,-0.01790614426136017,-0.9955227971076965,-0.09280945360660553,-0.43941500782966614,0.3528684973716736,0.2780512571334839
1.4829611101039923,-0.18987564856830463,-0.03582230509177593,0.45482155680656433,-4.071943759918213,-0.43247947096824646,-0.01655670255422592,-0.9961449503898621,-0.08614717423915863,-0.473387748003006,0.3379875421524048,0.2886772155761719
1.4870700220499382,-0.19489040669479407,-0.07306485105616006,0.24076411128044128,-4.342149257659912,-0.35826700925827026,-0.01619565486907959,-0.9964969754219055,-0.08204654604196548,-0.5108734369277954,0.32410311698913574,0.2651368975639343
1.489431350589012,-0.20304195224741933,-0.11028678793943433,0.10583949834108353,-4.681992053985596,-0.3442838788032532,-0.016389235854148865,-0.9966917037963867,-0.07960617542266846,-0.5468584299087524,0.31091588735580444,0.2257091999053955
1.4908491031958315,-0.20919546330735425,-0.15287015247113536,0.039396021515131,-4.999773979187012,-0.39234355092048645,-0.0165852177888155,-0.9968059062957764,-0.07812105864286423,-0.5999919176101685,0.28042101860046387,0.1784018874168396
1.4919980127892256,-0.2078435068348849,-0.20574969329191314,0.018900375813245773,-5.2254157066345215,-0.4777107536792755,-0.01624353788793087,-0.9968970417976379,-0.07702410221099854,-0.674613356590271,0.2468664050102234,0.11334013938903809
1.4933418630450936,-0.19643259346425132,-0.27026647716160085,0.04316896200180054,-5.299835205078125,-0.5610314607620239,-0.015102065168321133,-0.9970018863677979,-0.07589027285575867,-0.7478067874908447,0.23775506019592285,0.02457505464553833
1.4950858859976324,-0.17480709654217189,-0.3450330189832495,0.0855632945895195,-5.239038944244385,-0.623180627822876,-0.013155270367860794,-0.99713534116745,-0.07448782026767731,-0.7975441813468933,0.2429695725440979,-0.06213921308517456
1.4970805807066956,-0.14445172357123684,-0.4277492470806303,0.10561955720186234,-5.159327507019043,-0.6528192162513733,-0.010601923801004887,-0.9972842335700989,-0.07288303971290588,-0.8168363571166992,0.2436373233795166,-0.12070512771606445
1.4988574533231802,-0.11034787401717634,-0.5137722770768242,0.07860225439071655,-5.156506538391113,-0.6283507347106934,-0.007915598340332508,-0.9974135160446167,-0.07144173979759216,-0.8142279386520386,0.2531660199165344,-0.1370694637298584
1.4998619260111925,-0.07807362963833928,-0.5983649919926014,-0.002316294703632593,-5.2365570068359375,-0.5886965394020081,-0.005528041161596775,-0.9974852204322815,-0.07066155970096588,-0.7915757894515991,0.27270781993865967,-0.12465084344148636
1.4995402810865224,-0.05067036374437493,-0.6790820832819524,-0.14506946504116058,-5.347724437713623,-0.5509506464004517,-0.003605973208323121,-0.9974623322486877,-0.07110441476106644,-0.7761180996894836,0.27991783618927,-0.11493062227964401
1.4974288410637822,-0.02793174581069586,-0.7560466144578061,-0.3239510655403137,-5.412169933319092,-0.5452738404273987,-0.002047211630269885,-0.9973098039627075,-0.07327429950237274,-0.7595494389533997,0.27576738595962524,-0.10778640955686569
1.493362861619784,-0.007058863128023575,-0.8314707191486391,-0.5046486854553223,-5.410201072692871,-0.5798414349555969,-0.0005460415850393474,-0.9970035552978516,-0.07735417038202286,-0.7696565389633179,0.2593325972557068,-0.1121903583407402
1.4874284831771025,0.014659797438476174,-0.9073446226774324,-0.6758843660354614,-5.322462558746338,-0.6427570581436157,0.0012207088293507695,-0.9965268969535828,-0.08326318114995956,-0.8123015761375427,0.256353497505188,-0.12263882160186768
1.4795947806974499,0.03692342172708725,-0.9823017613978106,-0.8540069460868835,-5.107120513916016,-0.6989478468894958,0.0033620658796280622,-0.9958440065383911,-0.09101371467113495,-0.8626912236213684,0.27849775552749634,-0.14185059070587158
1.4696987707590832,0.05691632649584695,-1.0524370123784041,-1.0550435781478882,-4.8234333992004395,-0.7324703931808472,0.005741226952522993,-0.9948939681053162,-0.10076240450143814,-0.8687477707862854,0.31258195638656616,-0.1589421033859253
1.4576037383910994,0.07121429709475609,-1.1143079754291276,-1.272702932357788,-4.602217197418213,-0.7298117280006409,0.008036980405449867,-0.9936005473136902,-0.11266542971134186,-0.8256638646125793,0.3297516107559204,-0.17221605777740479
1.4432481505596237,0.0754011342211131,-1.164048156955757,-1.492966651916504,-4.405776023864746,-0.6600819826126099,0.009582228027284145,-0.9918767809867859,-0.1268424242734909,-0.7705227136611938,0.34719282388687134,-0.17522048950195312
1.4268845710338036,0.0675946867801593,-1.1998798860651743,-1.6889184713363647,-4.231026649475098,-0.536803662776947,0.009686755016446114,-0.9896625876426697,-0.14308813214302063,-0.7084171772003174,0.3666919469833374,-0.1828242540359497
1.4088657444099093,0.04915569052281774,-1.223624545587673,-1.854604721069336,-4.13260555267334,-0.3885057866573334,0.007921881042420864,-0.9869178533554077,-0.1610291600227356,-0.6457544565200806,0.3868507146835327,-0.18505536019802094
1.389428043438324,0.021612312850380073,-1.2374049902604882,-2.0015220642089844,-4.062368869781494,-0.21663211286067963,0.0038980378303676844,-0.9835978150367737,-0.18033382296562195,-0.6030954122543335,0.4129953384399414,-0.16758179664611816
1.3686895296792894,-0.01264579015488741,-1.2437860657863882,-2.131784200668335,-4.025573253631592,-0.04898505657911301,-0.002538367174565792,-0.979645848274231,-0.20071753859519958,-0.5644629001617432,0.44896042346954346,-0.14713703095912933
1.3468317046244398,-0.051117537509706615,-1.2460898420953541,-2.2222039699554443,-4.109986305236816,0.08371327072381973,-0.011348097585141659,-0.9750245809555054,-0.22180669009685516,-0.5206800699234009,0.49379289150238037,-0.11631274223327637
1.3243865802640382,-0.0924733361280527,-1.247174145187564,-2.2341113090515137,-4.364572525024414,0.18185396492481232,-0.022524304687976837,-0.9697943925857544,-0.24288150668144226,-0.5001654624938965,0.5160896182060242,-0.09555837512016296
1.3022080431907688,-0.13714560196918785,-1.2481140677285572,-2.1552577018737793,-4.727626323699951,0.2688792943954468,-0.036280468106269836,-0.9641464948654175,-0.2628791332244873,-0.4968615472316742,0.5004775524139404,-0.12152016162872314
1.2811493841613109,-0.1854386738083742,-1.2490635360280842,-1.9988152980804443,-5.0647454261779785,0.34529444575309753,-0.052660875022411346,-0.9583447575569153,-0.2807173728942871,-0.5111055374145508,0.465714693069458,-0.18543857336044312
1.2617664077893878,-0.23616583736070348,-1.2504101402781624,-1.8052445650100708,-5.290107250213623,0.3745681643486023,-0.07116041332483292,-0.952629029750824,-0.2956926226615906,-0.5436771512031555,0.430900514125824,-0.25405094027519226
1.2442309363866362,-0.2876918383208217,-1.2529467678142963,-1.6268795728683472,-5.453038215637207,0.3693337142467499,-0.09102144837379456,-0.9471496939659119,-0.3076079785823822,-0.5875825881958008,0.4131530523300171,-0.3037658929824829
1.2282578317947583,-0.33872260737209003,-1.2572623765003734,-1.509372353553772,-5.508522033691406,0.33830946683883667,-0.11160687357187271,-0.9419050812721252,-0.3167947232723236,-0.6359058618545532,0.41570568084716797,-0.3279958963394165
1.2133063517815472,-0.38708520210045827,-1.2642253841691944,-1.4606242179870605,-5.418598651885986,0.2628061771392822,-0.13209311664104462,-0.9367780685424805,-0.32403427362442017,-0.6816580891609192,0.42864513397216797,-0.34108099341392517
1.199216497732585,-0.4308453677826635,-1.2748768421880807,-1.4340397119522095,-5.282479763031006,0.1557079553604126,-0.15163972973823547,-0.9317548871040344,-0.32990649342536926,-0.7062550783157349,0.43062567710876465,-0.35112375020980835
1.186004752543929,-0.46963429901932596,-1.2893716215531204,-1.4143930673599243,-5.124614238739014,0.029099682345986366,-0.16987571120262146,-0.9268766641616821,-0.33472657203674316,-0.7021487951278687,0.41221296787261963,-0.37233519554138184
1.1737654547817533,-0.5033144449166331,-1.3073023937992267,-1.3976894617080688,-4.8696112632751465,-0.09472296386957169,-0.1865089386701584,-0.9222131371498108,-0.33872905373573303,-0.6728507876396179,0.3785882592201233,-0.4341285526752472
1.1622923586957923,-0.5307604568513076,-1.328359387206601,-1.4291895627975464,-4.440888404846191,-0.20713846385478973,-0.20107699930667877,-0.9177161455154419,-0.34258586168289185,-0.6563752889633179,0.3557502031326294,-0.5000654458999634
1.1509899117117859,-0.5503595143637582,-1.3528320342014806,-1.5365138053894043,-3.9243507385253906,-0.32002922892570496,-0.21316376328468323,-0.9131678342819214,-0.347398579120636,-0.6508193612098694,0.3549555540084839,-0.5182477235794067
1.1393131075047802,-0.5612686654175117,-1.381210303886889,-1.6853110790252686,-3.399829149246216,-0.43671801686286926,-0.22260133922100067,-0.90834641456604,-0.3540557622909546,-0.6295866966247559,0.37657761573791504,-0.49147945642471313
1.1271023186284952,-0.5641554214651584,-1.4131366307783124,-1.8243491649627686,-2.9480035305023193,-0.5477470755577087,-0.22953635454177856,-0.9031720757484436,-0.36275795102119446,-0.5735641717910767,0.40622377395629883,-0.46352070569992065
1.1143213221751798,-0.5606208787198043,-1.4478314049634817,-1.9461240768432617,-2.5800600051879883,-0.6362905502319336,-0.23437172174453735,-0.8976118564605713,-0.37331345677375793,-0.49388444423675537,0.4156171679496765,-0.44603773951530457
1.1008677059285237,-0.552708659517825,-1.484035128760329,-2.0465731620788574,-2.3050782680511475,-0.6802130937576294,-0.23772941529750824,-0.8916006088256836,-0.3853999078273773,-0.3992028832435608,0.4127492904663086,-0.4346989691257477
1.0866076650639824,-0.5424944936506161,-1.5204467319325956,-2.123997449874878,-2.1051316261291504,-0.6864432692527771,-0.2403205782175064,-0.8850529193878174,-0.398656964302063,-0.3007712662220001,0.4165012836456299,-0.4277132451534271
1.0716129639813352,-0.5307824097907197,-1.5564302470259184,-2.1941874027252197,-1.8683048486709595,-0.7047494649887085,-0.24232634902000427,-0.8779737949371338,-0.41284385323524475,-0.23164214193820953,0.4338056445121765,-0.44662272930145264
1.0560336613004295,-0.516349972079416,-1.59243588984815,-2.249723196029663,-1.5041652917861938,-0.7678104043006897,-0.24306702613830566,-0.8704096078872681,-0.4281419813632965,-0.20604485273361206,0.44580328464508057,-0.4846692979335785
1.0403189025969188,-0.49790956242217,-1.6283429640173368,-2.230992317199707,-0.9973109364509583,-0.8315162062644958,-0.24163439869880676,-0.8625656366348267,-0.4445148706436157,-0.18931953608989716,0.4594588875770569,-0.5276378393173218
1.024987271098903,-0.4751218457158051,-1.6629109309505687,-2.135122537612915,-0.35376253724098206,-0.853179395198822,-0.23746511340141296,-0.8547075986862183,-0.46161162853240967,-0.14966556429862976,0.49913203716278076,-0.6257296800613403
1.0105541016973323,-0.4485563977191543,-1.694235510114624,-1.9109861850738525,0.3388034701347351,-0.7882369160652161,-0.2304459661245346,-0.8471264243125916,-0.4788230359554291,-0.10286697745323181,0.572544515132904,-0.719495415687561
0.9977521015409386,-0.4207853360735404,-1.7198452743397015,-1.580312967300415,0.8702638745307922,-0.6099385619163513,-0.22147342562675476,-0.8402543067932129,-0.49489626288414,0.014823675155639648,0.6508774161338806,-0.7589184045791626
0.9871067463316867,-0.39510377564670895,-1.7379322784364706,-1.1878011226654053,1.2338082790374756,-0.3564111888408661,-0.2121230810880661,-0.834434986114502,-0.5086473822593689,0.1471511870622635,0.6844258308410645,-0.7875256538391113
0.9789517420091446,-0.3726958679909987,-1.7482172424081468,-0.8481208682060242,1.5615957975387573,-0.10747141391038895,-0.2031441330909729,-0.8299130201339722,-0.5195929408073425,0.22986231744289398,0.6864346265792847,-0.7843621969223022
0.9724474641792878,-0.3515785699433231,-1.752864347935613,-0.6653870344161987,1.9201921224594116,0.05055347457528114,-0.19398216903209686,-0.8262667655944824,-0.5288233757019043,0.27116113901138306,0.6750369071960449,-0.7349095344543457
0.9661663646337756,-0.3283948190689632,-1.7550935544253623,-0.6606881618499756,2.362409830093384,0.10833341628313065,-0.18334129452705383,-0.8227124810218811,-0.538080096244812,0.2662728428840637,0.6607251763343811,-0.654790997505188
0.9593194236795949,-0.3007137355754646,-1.7566790235494467,-0.711333692073822,2.9080166816711426,0.1384405493736267,-0.17004285752773285,-0.8188010454177856,-0.5483158230781555,0.2595815062522888,0.6334983110427856,-0.5743036866188049
0.9520498248407083,-0.26871651198742225,-1.7573703905505627,-0.7118229269981384,3.3280224800109863,0.19967487454414368,-0.1539904922246933,-0.8146061301231384,-0.5591991543769836,0.29614144563674927,0.6012577414512634,-0.5216876268386841
0.9446509635778361,-0.23633284209919503,-1.7555915688684476,-0.6655206084251404,3.367664337158203,0.3928947448730469,-0.13721147179603577,-0.8102924227714539,-0.5697360634803772,0.36507099866867065,0.5714923739433289,-0.4601559042930603
0.9375400245394006,-0.20971169833558512,-1.7483644482610294,-0.5188329219818115,3.075108051300049,0.7620064616203308,-0.12319403141736984,-0.8061047792434692,-0.5788076519966125,0.4562476873397827,0.5374585390090942,-0.3931924104690552
0.9317464643207845,-0.19276521195923021,-1.7339045567231617,-0.26661619544029236,2.607112407684326,1.1305127143859863,-0.11426083743572235,-0.8026627898216248,-0.5853860378265381,0.5313141345977783,0.48932361602783203,-0.36699122190475464
0.9283535885756905,-0.18489957764655046,-1.7142708926352057,0.04011736065149307,2.1138439178466797,1.2591196298599243,-0.11015297472476959,-0.8006345629692078,-0.5889402627944946,0.49501022696495056,0.44112223386764526,-0.36981523036956787
0.9280922177933396,-0.18181767767059107,-1.6937698031485735,0.3470129668712616,1.8016332387924194,1.1329922676086426,-0.10837522149085999,-0.800477921962738,-0.5894826650619507,0.34850284457206726,0.38743776082992554,-0.37514740228652954
0.9308533416927375,-0.17836981663390525,-1.6759862618857755,0.556961178779602,1.7685754299163818,0.8397806286811829,-0.10594958811998367,-0.8021298050880432,-0.5876755118370056,0.22805047035217285,0.33518028259277344,-0.3720870614051819
0.9358476595412148,-0.16951595112683118,-1.663021728657715,0.6793846487998962,2.1111786365509033,0.4993230402469635,-0.1000651866197586,-0.8051021695137024,-0.5846344828605652,0.1450328826904297,0.2862575650215149,-0.34705185890197754
0.9421407031088822,-0.1522110347496965,-1.6553988085868387,0.6823586225509644,2.5532279014587402,0.19349519908428192,-0.08916369080543518,-0.8088188171386719,-0.58125901222229,0.13713738322257996,0.2393760085105896,-0.30387282371520996
0.9482898745253884,-0.12724898507110585,-1.6525500487613198,0.5626698136329651,2.8711671829223633,-0.02559339627623558,-0.07399541884660721,-0.812419593334198,-0.578359067440033,0.1719263792037964,0.20287668704986572,-0.19982391595840454
0.9531997971736083,-0.0967303585436809,-1.6532085797769343,0.39707228541374207,3.0813231468200684,-0.14906339347362518,-0.05592704936861992,-0.8152726292610168,-0.5763702988624573,0.2202947735786438,0.20421916246414185,-0.07481366395950317
0.9563709726094314,-0.06436794348772559,-1.6554150513145467,0.20842327177524567,2.9580078125,-0.13829880952835083,-0.03708180412650108,-0.8171048760414124,-0.5752953290939331,0.30096736550331116,0.20075654983520508,0.02948850393295288
0.9577144187675295,-0.03613668631684915,-1.6565556177073413,0.059084925800561905,2.4441323280334473,0.0032306218054145575,-0.020788196474313736,-0.8178786039352417,-0.5750152468681335,0.3775692582130432,0.1760786771774292,0.12803959846496582
0.9578289653783546,-0.016414490731783794,-1.6551240270792016,-0.030763331800699234,1.7067725658416748,0.15154404938220978,-0.009442786686122417,-0.8179445266723633,-0.5752196907997131,0.43530037999153137,0.132260262966156,0.1910187005996704
0.9571286575499883,-0.005519043779297646,-1.6520676517119597,-0.10406604409217834,0.9896314740180969,0.1764584630727768,-0.003178234677761793,-0.8175414204597473,-0.5758610367774963,0.43462055921554565,0.09967637062072754,0.1896306276321411
0.9559725475551175,0.0006607763168263012,-1.650224738380717,-0.12337924540042877,0.5844008922576904,0.008760517463088036,0.0003811454516835511,-0.8168751001358032,-0.5768145322799683,0.34314003586769104,0.09444767236709595,0.16534608602523804
0.9546999524268458,0.00734083905217174,-1.6523732301575664,-0.1332015097141266,0.42827489972114563,-0.2589990198612213,0.0042418926022946835,-0.8161404132843018,-0.5778380632400513,0.22592175006866455,0.07149624824523926,0.10783690214157104
0.9532178797821652,0.017507235295630297,-1.6588483493390294,-0.15588784217834473,0.5905517339706421,-0.4817374050617218,0.010137268342077732,-0.8152830600738525,-0.5789739489555359,0.16480481624603271,0.047002971172332764,0.04715937376022339
0.9511617252470069,0.03307935520639961,-1.6684759909686835,-0.24048501253128052,0.9577150940895081,-0.6327365040779114,0.019206928089261055,-0.8140907287597656,-0.5804200768470764,0.18210232257843018,0.03424447774887085,0.0023866891860961914
0.9475525652748534,0.053745558859611145,-1.6799837500785115,-0.43722590804100037,1.280901551246643,-0.727160632610321,0.03135468810796738,-0.811989426612854,-0.5828294157981873,0.2249777615070343,0.03163957595825195,0.004872262477874756
0.9413420431042016,0.07771645509488863,-1.6922413134081091,-0.7088316082954407,1.5089186429977417,-0.7780286073684692,0.04570592939853668,-0.8083488941192627,-0.5869268178939819,0.2715395987033844,0.049666643142700195,0.05120605230331421
0.9321540097612245,0.10310486930148911,-1.7042923428878225,-0.9854446649551392,1.5886037349700928,-0.8043907880783081,0.06135258823633194,-0.802905797958374,-0.5929402709007263,0.32359617948532104,0.06021475791931152,0.0895528793334961
0.9202456242831392,0.12762647022546036,-1.7156804194904525,-1.2041027545928955,1.4559376239776611,-0.8279514908790588,0.07708409428596497,-0.7957503795623779,-0.6006991267204285,0.3495822250843048,0.05902552604675293,0.10295748710632324
0.9065400915204395,0.14931755209042138,-1.726582272811589,-1.3082544803619385,1.1243757009506226,-0.8644928336143494,0.09170866012573242,-0.7873755097389221,-0.6096140146255493,0.36253029108047485,0.06075197458267212,0.08429980278015137
0.8921352060928638,0.1665743792804063,-1.7370548694815307,-1.3148823976516724,0.6733918190002441,-0.860703706741333,0.10408439487218857,-0.7784138917922974,-0.6190623641014099,0.3729054033756256,0.05731403827667236,0.030210494995117188
0.8781117104840929,0.1782511444530825,-1.746249177846284,-1.2251598834991455,0.2400187999010086,-0.7541439533233643,0.11323028802871704,-0.7695344090461731,-0.6284868717193604,0.39375829696655273,0.0649293065071106,-0.04497498273849487
0.8658034962258775,0.18416810400625025,-1.753561973617503,-0.9976406693458557,-0.16273237764835358,-0.6116195917129517,0.11867264658212662,-0.7616161704063416,-0.637069582939148,0.42760732769966125,0.10695302486419678,-0.16270458698272705
0.85667505158046,0.18598087369912825,-1.759299311693125,-0.6422119140625,-0.28669944405555725,-0.45534923672676086,0.12110786885023117,-0.7556690573692322,-0.643659234046936,0.431382417678833,0.1753467321395874,-0.3499167561531067
0.8515299019103962,0.18807508591628644,-1.7637678993740773,-0.2638494372367859,0.10446539521217346,-0.3158525824546814,0.12318087369203568,-0.7522892355918884,-0.6472151279449463,0.4345737099647522,0.25811803340911865,-0.5534531474113464
0.8496437593166719,0.19613323856255865,-1.767732581830749,-0.03435095399618149,0.9507629871368408,-0.28243809938430786,0.12866847217082977,-0.7510452270507812,-0.6475921869277954,0.4197477102279663,0.29396820068359375,-0.6721709966659546
0.8485384696282258,0.21377805788654045,-1.7720714165657496,-0.10610876232385635,1.904215693473816,-0.32521697878837585,0.14025051891803741,-0.7503150105476379,-0.64603191614151,0.38575053215026855,0.26845765113830566,-0.6774696111679077
0.8452673128814241,0.23987311043151022,-1.776133844936737,-0.4290631115436554,2.6606321334838867,-0.33334362506866455,0.15764138102531433,-0.748148500919342,-0.6445332765579224,0.39600858092308044,0.23453760147094727,-0.5676554441452026
0.8385344782153773,0.27064021178023884,-1.7779976346144943,-0.8050132989883423,3.1564128398895264,-0.232933908700943,0.17873670160770416,-0.7436641454696655,-0.6442180871963501,0.4556933045387268,0.18804585933685303,-0.4289630651473999
0.8288893131979962,0.3008311744793039,-1.7758065831346876,-1.104313611984253,3.0927793979644775,-0.004233911167830229,0.20021799206733704,-0.7371813654899597,-0.6453498601913452,0.5511705875396729,0.14623892307281494,-0.2943320870399475
0.8184413059228309,0.32555162043198854,-1.7683008658617856,-1.1593276262283325,2.9554061889648438,0.32586756348609924,0.21856005489826202,-0.7300815582275391,-0.6474661827087402,0.628913164138794,0.13495826721191406,-0.2747291922569275
0.8096036996312644,0.3451252969479238,-1.7566167253872245,-1.0046625137329102,2.5835587978363037,0.5970727205276489,0.23336447775363922,-0.7240138649940491,-0.6491109132766724,0.6138646006584167,0.13937336206436157,-0.3479592800140381
0.8042304632384336,0.35864359611109997,-1.7428133793765441,-0.6423951387405396,2.1204917430877686,0.8150990605354309,0.24347977340221405,-0.7202970385551453,-0.6495304703712463,0.5735368728637695,0.11820042133331299,-0.3760584592819214
0.8032136583408043,0.36788071173688464,-1.7282183531038093,-0.27405494451522827,1.8280752897262573,0.9993856549263,0.2497323602437973,-0.7195913791656494,-0.6479367613792419,0.5127952098846436,0.10426539182662964,-0.4737672805786133
0.8059139010184718,0.37434435361216173,-1.7128826624832654,-0.01300017349421978,1.686186671257019,1.1704785823822021,0.25320369005203247,-0.7214637994766235,-0.6444981694221497,0.4373633563518524,0.07891619205474854,-0.4805932641029358
0.8109563570784223,0.3791881579000973,-1.6963001054597784,0.08511002361774445,1.6729986667633057,1.3207252025604248,0.2549726665019989,-0.7249462604522705,-0.6398765444755554,0.3695238530635834,0.03924673795700073,-0.4339606761932373
0.8168448668605395,0.3827564854336056,-1.6780803626123937,0.06915262341499329,1.6802723407745361,1.426872968673706,0.25565555691719055,-0.7289897203445435,-0.6349915862083435,0.2965295612812042,-0.010680139064788818,-0.3513822555541992
0.8225711950972819,0.38619455664606206,-1.6591075215316464,0.017653709277510643,1.765964388847351,1.3905619382858276,0.25626060366630554,-0.7328975200653076,-0.6302315592765808,0.19692552089691162,-0.06507611274719238,-0.2921164035797119
0.8273606618244483,0.3912208866056939,-1.6409473212682233,-0.06958398967981339,1.870730996131897,1.2599732875823975,0.25808364152908325,-0.7361475825309753,-0.6256834268569946,0.08478140830993652,-0.16738641262054443,-0.26201188564300537
0.8307283029646636,0.397724310750871,-1.623938589616839,-0.18877562880516052,1.914357304573059,1.1240994930267334,0.26118552684783936,-0.738422691822052,-0.6217026114463806,0.02920454740524292,-0.24215292930603027,-0.2250075340270996
0.832789326786265,0.4055845554919258,-1.6080996781681187,-0.2588084936141968,1.9960535764694214,1.001375436782837,0.26546311378479004,-0.7398109436035156,-0.6182307004928589,0.006006062030792236,-0.30099111795425415,-0.19837385416030884
0.8340076802521411,0.4155880026187508,-1.5936680642200332,-0.28662943840026855,2.129141092300415,0.8670673370361328,0.2712700366973877,-0.7406301498413086,-0.6147190928459167,-0.006621509790420532,-0.3530588150024414,-0.2051355242729187
0.8345987867983186,0.42838270032400544,-1.5812619699978647,-0.2804916501045227,2.2528793811798096,0.6973068118095398,0.2789308428764343,-0.7410271763801575,-0.6107996702194214,-0.03855910897254944,-0.37077397108078003,-0.20820045471191406
0.8348087200209893,0.4442555840279998,-1.5713676577004156,-0.24014389514923096,2.3683531284332275,0.5262838006019592,0.2885235846042633,-0.7411681413650513,-0.6061549782752991,-0.08002746105194092,-0.39326179027557373,-0.19462615251541138
0.834247200305296,0.4626534664398517,-1.5633375925715152,-0.398646742105484,2.494251251220703,0.40134531259536743,0.29981181025505066,-0.7407910227775574,-0.6011168360710144,-0.10323277115821838,-0.43817925453186035,-0.17428892850875854
0.8311453738533026,0.48310548084537586,-1.5555177533701692,-0.5591360330581665,2.734769582748413,0.250200480222702,0.3131082355976105,-0.7387038469314575,-0.5968918800354004,-0.11697173118591309,-0.5117997527122498,-0.06607192754745483
0.8267102144961315,0.5056330731202594,-1.547953898183371,-0.7497584223747253,2.8691413402557373,0.24679723381996155,0.3280579149723053,-0.73570716381073,-0.5925480127334595,-0.15514525771141052,-0.5006820559501648,-0.021877646446228027
0.8206727622616045,0.5286689157334586,-1.5389686800461704,-0.8537807464599609,3.0224924087524414,0.20769385993480682,0.34385359287261963,-0.7316046357154846,-0.5886589884757996,-0.10551127791404724,-0.4952782988548279,-0.02680414915084839
0.8145652746053383,0.5529038171717148,-1.53079136939866,-0.750887930393219,2.9709980487823486,0.12034136801958084,0.36035722494125366,-0.7274273633956909,-0.5839453935623169,-0.11707097291946411,-0.5224201083183289,-0.03244858980178833
0.8091836350505553,0.5777560582607885,-1.524396485874433,-0.6212893128395081,2.9189023971557617,0.051100581884384155,0.3768893778324127,-0.7237240672111511,-0.5780813694000244,-0.14681726694107056,-0.49514806270599365,-0.12089318037033081
0.8046577096526925,0.6033779325221823,-1.5196966631412858,-0.4886902868747711,2.8462564945220947,-0.016520539298653603,0.3934301435947418,-0.7205933332443237,-0.5709273219108582,-0.15125781297683716,-0.49106132984161377,-0.10454869270324707
0.8010813903748376,0.6287093540011396,-1.516835800841457,-0.31747686862945557,2.5978574752807617,-0.06095905974507332,0.4092777967453003,-0.7181090712547302,-0.562859833240509,-0.13390237092971802,-0.510086178779602,-0.07300436496734619
0.7989902737148523,0.6522287457354728,-1.5152756510562382,-0.15070518851280212,2.3225200176239014,0.0002044285647571087,0.4233120083808899,-0.7166522145271301,-0.5542712807655334,-0.09573623538017273,-0.5038983225822449,-0.06898915767669678
0.7987316449097219,0.6733616023805518,-1.5136778252643317,-0.03669162839651108,2.1241843700408936,0.14733877778053284,0.435045450925827,-0.7164718508720398,-0.5453471541404724,-0.03842368721961975,-0.4566238522529602,-0.05853456258773804
0.8002218682401367,0.6918990985301007,-1.5109549491045915,0.020300284028053284,1.9615546464920044,0.3392235338687897,0.44439783692359924,-0.7175106406211853,-0.5363665223121643,-0.013733714818954468,-0.3922458291053772,-0.03176385164260864
0.8033334556683042,0.7073144336039866,-1.5062585337962286,0.027833186089992523,1.7773703336715698,0.5595502853393555,0.4511600732803345,-0.7196745276451111,-0.5277529954910278,0.010265767574310303,-0.3345552682876587,-0.010973751544952393
0.8077686159584047,0.7189651663967704,-1.4992815403197592,0.008065074682235718,1.539035439491272,0.743387758731842,0.4551713466644287,-0.7227468490600586,-0.5200539827346802,0.043318092823028564,-0.3068552017211914,0.005100429058074951
0.813175311326412,0.7265318368971581,-1.4902158761086806,-0.02971598692238331,1.2816746234893799,0.902137279510498,0.4564908444881439,-0.7264729142189026,-0.5136665105819702,0.055014342069625854,-0.2983074188232422,0.00412982702255249
0.8192542226196895,0.7300363729833359,-1.4788912458437455,-0.09848759323358536,1.0684155225753784,1.0525518655776978,0.4553345739841461,-0.7306368350982666,-0.5087633728981018,0.03763118386268616,-0.2626645565032959,-0.0038097500801086426
0.8257129112496612,0.7296595822403458,-1.4651926147095446,-0.18145237863063812,0.8502920866012573,1.187177300453186,0.45198768377304077,-0.7350313663482666,-0.5054067969322205,0.010887742042541504,-0.2183530330657959,0.0015617012977600098
0.8322863292427892,0.7249682024848937,-1.4490176358795512,-0.29280686378479004,0.5894914269447327,1.3032617568969727,0.4463980197906494,-0.7394724488258362,-0.5038941502571106,-0.006334513425827026,-0.19116109609603882,-0.012020647525787354
0.8382829459425196,0.7159328078303098,-1.4306905562389818,-0.42555928230285645,0.31907185912132263,1.309942603111267,0.43890875577926636,-0.7434959411621094,-0.5045522451400757,-0.024983525276184082,-0.1628456711769104,-0.02306610345840454
0.8428848657686763,0.7035725112756557,-1.4114362107076883,-0.545505940914154,0.08272909373044968,1.2251269817352295,0.4304208755493164,-0.746565580368042,-0.50732421875,-0.08732694387435913,-0.16088992357254028,-0.028823792934417725
0.8459605213933018,0.6889825543090616,-1.3918355592922866,-0.6437228918075562,-0.05532945320010185,1.1652277708053589,0.4215116500854492,-0.7486082911491394,-0.5117748975753784,-0.13394448161125183,-0.1451447606086731,-0.050938546657562256
0.8480918251676941,0.673081455417612,-1.3719256120182028,-0.670775830745697,-0.1409205198287964,1.1471203565597534,0.41232535243034363,-0.7500196695327759,-0.5171637535095215,-0.13580551743507385,-0.08178269863128662,-0.09233325719833374
0.8501602074577272,0.6562838071678928,-1.3521865712781458,-0.5934330821037292,-0.25206315517425537,1.158369779586792,0.40263304114341736,-0.7513861060142517,-0.5227863788604736,-0.1428215503692627,-0.016909241676330566,-0.16948950290679932
0.8533614927473138,0.6390486024688569,-1.3330515476132838,-0.39798504114151,-0.3084486722946167,1.2332121133804321,0.3921267092227936,-0.7534946799278259,-0.5277144312858582,-0.14005142450332642,0.03430211544036865,-0.2571365237236023
0.8588224814873399,0.6224107599472641,-1.315258402901246,-0.08369351923465729,-0.32253265380859375,1.2767150402069092,0.3808881342411041,-0.7570737600326538,-0.5308140516281128,-0.14863401651382446,0.07647067308425903,-0.33261966705322266
0.866909068918136,0.6077320425541768,-1.300060416326727,0.2612510919570923,-0.2959167957305908,1.254760980606079,0.3695477843284607,-0.7623322010040283,-0.5313042402267456,-0.2062329351902008,0.09485167264938354,-0.39594173431396484
0.8773909457190281,0.5958370343257756,-1.2879875325469823,0.5784136056900024,-0.2333739697933197,1.2008616924285889,0.3586976230144501,-0.7690739035606384,-0.5290191769599915,-0.2608734667301178,0.10548442602157593,-0.400240957736969
0.8897954961591364,0.5869262122564458,-1.2791683415991761,0.8414691686630249,-0.1924118846654892,1.09226393699646,0.34865903854370117,-0.776943027973175,-0.5242102146148682,-0.2932390868663788,0.10873013734817505,-0.3496909737586975
0.9032429636290763,0.5808392099824425,-1.2740009292192354,1.0295438766479492,-0.22647586464881897,0.9112758636474609,0.3396977186203003,-0.7853386402130127,-0.5175411105155945,-0.316946804523468,0.07652205228805542,-0.28357577323913574
0.9167305149065348,0.5770219571794672,-1.2728794280045788,1.1314414739608765,-0.3712333142757416,0.6736444234848022,0.3319106996059418,-0.7936166524887085,-0.5099098682403564,-0.3315291702747345,0.02915126085281372,-0.18998020887374878
0.9293881985663268,0.5742319001880526,-1.2753468852975505,1.1340194940567017,-0.5795168280601501,0.45623156428337097,0.32500383257865906,-0.8012540340423584,-0.5023589730262756,-0.3356391191482544,-0.008972465991973877,-0.08095395565032959
0.9406445261658664,0.5711943664857871,-1.2799593767010573,1.0321969985961914,-0.7553781270980835,0.3055911958217621,0.31857994198799133,-0.8079380393028259,-0.49572476744651794,-0.31342241168022156,-0.03176838159561157,0.017987430095672607
0.9500246345606526,0.5670818163086652,-1.284859265500987,0.845521092414856,-0.837944507598877,0.2307179570198059,0.3124537169933319,-0.8134298324584961,-0.49061667919158936,-0.28985539078712463,-0.03103739023208618,0.08509916067123413
0.9574407332870873,0.5617567194547131,-1.288378258302624,0.6178171038627625,-0.7781357765197754,0.2234904021024704,0.30661484599113464,-0.8177210688591003,-0.48715463280677795,-0.26572129130363464,-0.007352173328399658,0.12279006838798523
0.9630700569825434,0.5556911475409012,-1.2895650788513109,0.4109516739845276,-0.61799156665802,0.25661587715148926,0.30122122168540955,-0.8209484219551086,-0.4850870966911316,-0.25486499071121216,0.029703915119171143,0.13157156109809875
0.9674269544666259,0.5495616766964835,-1.2886445487372422,0.28541240096092224,-0.4589076340198517,0.28583770990371704,0.2963711619377136,-0.8234284520149231,-0.4838694930076599,-0.26406827569007874,0.061557114124298096,0.10677912831306458
0.9712019968839176,0.5439838425677694,-1.2869239749691248,0.27159935235977173,-0.3957308530807495,0.2605995535850525,0.2920567989349365,-0.8255646228790283,-0.48285192251205444,-0.27695053815841675,0.07052916288375854,0.06271648406982422
0.9751131404415587,0.5395885336284099,-1.286965850427963,0.41588088870048523,-0.512333333492279,0.11481279879808426,0.288270503282547,-0.8277653455734253,-0.48135706782341003,-0.2852950394153595,0.05559432506561279,0.03856232762336731
0.9795942882135777,0.537556912781956,-1.2923100812609325,0.6647841334342957,-0.7921504974365234,-0.18286466598510742,0.28538981080055237,-0.830271303653717,-0.4787507653236389,-0.3196457624435425,-0.0021262168884277344,0.03044760227203369
0.9845408349494668,0.5385444276249219,-1.30532611812685,0.9078212380409241,-1.1769554615020752,-0.5502919554710388,0.28375259041786194,-0.8330181241035461,-0.4749372899532318,-0.35818493366241455,-0.08620190620422363,0.029640138149261475
0.9892835483109893,0.5418958062556317,-1.3255208019534108,1.0241254568099976,-1.4933488368988037,-0.8505834341049194,0.28330177068710327,-0.8356326818466187,-0.47059351205825806,-0.3504709303379059,-0.12582367658615112,0.07871738076210022
0.9930436376281542,0.5463469561664425,-1.349637446075081,0.9558923840522766,-1.6118872165679932,-0.991314709186554,0.28375914692878723,-0.837692141532898,-0.4666398763656616,-0.29462334513664246,-0.1057589054107666,0.17216062545776367
0.9951813435830876,0.550363114814168,-1.3731907390405649,0.7257779240608215,-1.4979628324508667,-0.9506796002388,0.2846936583518982,-0.8388577103614807,-0.46396902203559875,-0.2172650396823883,-0.06580537557601929,0.24515804648399353
0.9954866224567575,0.5526479325943915,-1.3923583164835744,0.41543710231781006,-1.2402114868164062,-0.7742286920547485,0.2856186032295227,-0.8390238285064697,-0.4630993902683258,-0.13504481315612793,-0.0033528804779052734,0.2708386778831482
0.9942803178772763,0.5524305764328445,-1.4051975695237116,0.12118113785982132,-0.953615128993988,-0.5356053113937378,0.28604888916015625,-0.8383668661117554,-0.46402275562286377,-0.07587423920631409,0.050418198108673096,0.25618284940719604
0.9922478937408072,0.5495825512854939,-1.4119073014723316,-0.06828732043504715,-0.75995272397995,-0.30922842025756836,0.28561562299728394,-0.8372572660446167,-0.46628761291503906,-0.02623140811920166,0.06558972597122192,0.21909528970718384
0.9901248906195403,0.544643058156255,-1.414808842970421,-0.11110958456993103,-0.7267955541610718,-0.1993558257818222,0.2842292785644531,-0.8360944986343384,-0.46921205520629883,0.0010033249855041504,0.055286943912506104,0.1640668511390686
0.9884126576484661,0.5390674402326271,-1.4172382753049118,-0.03863884508609772,-0.7995131611824036,-0.2165348082780838,0.28234314918518066,-0.8351539373397827,-0.4720173478126526,-0.022592693567276,0.025903940200805664,0.10634046792984009
0.9872091773498327,0.5339264516861648,-1.4214682902099738,0.06904193758964539,-0.9324739575386047,-0.3169192373752594,0.2804241478443146,-0.8344914317131042,-0.47432753443717957,-0.0516338050365448,-0.009411334991455078,0.06063127517700195
0.9863256957048558,0.5299784840458118,-1.4288118556966782,0.18596988916397095,-1.0754915475845337,-0.4717727303504944,0.27892181277275085,-0.834004282951355,-0.4760667085647583,-0.07543054223060608,-0.02361595630645752,0.06461355090141296
0.9854975767874391,0.5272864297880903,-1.4393587304011008,0.24790965020656586,-1.2012377977371216,-0.6054854393005371,0.27798670530319214,-0.833547055721283,-0.4774126410484314,-0.08539018034934998,-0.035013794898986816,0.07673215866088867
0.9845427733414356,0.5252602042860586,-1.4514310972532767,0.24875333905220032,-1.1827839612960815,-0.6231027841567993,0.27741771936416626,-0.8330191969871521,-0.47866323590278625,-0.056210994720458984,-0.044223904609680176,0.07694512605667114
0.9836357725656508,0.5236352124613463,-1.462573318554036,0.20391134917736053,-0.9753327369689941,-0.521629810333252,0.2770172655582428,-0.8325170874595642,-0.4797676205635071,-0.018029779195785522,-0.020113587379455566,0.07136619091033936
0.982838120752386,0.5221296187823274,-1.4709813389186008,0.11185784637928009,-0.725704550743103,-0.3571351170539856,0.27662569284439087,-0.8320749402046204,-0.48075953125953674,0.014588356018066406,0.032758474349975586,0.050293922424316406
0.9820389908052274,0.5196870941944554,-1.4755316149470783,-5.7452358305454254e-05,-0.5175734162330627,-0.16131040453910828,0.27578070759773254,-0.8316314220428467,-0.48201069235801697,0.05245116353034973,0.0625273585319519,0.03509613871574402
0.9812495733565835,0.5161898469524178,-1.4763933428481741,-0.08906722068786621,-0.3312448263168335,-0.010487869381904602,0.27441728115081787,-0.8311927914619446,-0.4835430979728699,0.07920524477958679,0.044083356857299805,0.03174567222595215
0.9802667374692214,0.5123028450981684,-1.4749142580251828,-0.1663207858800888,-0.19887275993824005,0.04059291630983353,0.2729359567165375,-0.8306459188461304,-0.48531782627105713,0.04505729675292969,0.013568282127380371,0.024090468883514404
0.9780319903290848,0.5086369236402385,-1.4722126929872814,-0.3763349950313568,-0.16705943644046783,-1.0172370821237564e-05,0.27205824851989746,-0.8293995261192322,-0.4879351258277893,-0.012246787548065186,-0.003486156463623047,0.06148260831832886
0.9740777888094353,0.5027809529907297,-1.468729102617859,-0.4694980978965759,-0.38528427481651306,-0.0486295185983181,0.2707744538784027,-0.8271840214729309,-0.4923897981643677,-0.02919730544090271,-0.03325909376144409,0.18509313464164734
0.9697771750189325,0.49693676194519687,-1.4663065972147105,-0.4137820601463318,-0.38195130228996277,-0.1267714649438858,0.2695856988430023,-0.8247597217559814,-0.49708640575408936,-0.037819892168045044,-0.021218061447143555,0.051529914140701294
0.9656809932315342,0.4924528979049306,-1.4655723808834074,-0.3380875289440155,-0.3759125769138336,-0.18378736078739166,0.2689492106437683,-0.822436511516571,-0.5012630224227905,-0.062497735023498535,-0.040356576442718506,-0.014575481414794922
0.9622937896211718,0.48995970511224274,-1.4663935034347957,-0.2109822779893875,-0.239469513297081,-0.21404486894607544,0.26900801062583923,-0.8205049633979797,-0.5043871402740479,-0.07409217953681946,-0.013220071792602539,-0.0718151330947876
0.9599403065322011,0.4902665801742777,-1.4684787669000567,-0.09668682515621185,-0.037474628537893295,-0.21120551228523254,0.2700713276863098,-0.8191573023796082,-0.5060067772865295,-0.09139084815979004,0.011128127574920654,-0.13242089748382568
0.9585159198536437,0.4927954825667799,-1.4707902577515657,-0.03705332428216934,0.16684921085834503,-0.1477128118276596,0.27190184593200684,-0.8183395266532898,-0.5063496828079224,-0.08656853437423706,0.01461327075958252,-0.14692473411560059
0.9577403362974068,0.49606362108586605,-1.4717767683317744,-0.05405355989933014,0.31026947498321533,-0.01805879920721054,0.2738572061061859,-0.8178935050964355,-0.5060163736343384,-0.04451751708984375,0.02675575017929077,-0.10961461067199707
0.9573085188529334,0.4980253610728378,-1.47020689385993,-0.1107645183801651,0.3170839846134186,0.12724646925926208,0.27501797676086426,-0.8176450133323669,-0.5057883262634277,0.0005711019039154053,0.03711211681365967,-0.04473346471786499
0.9568292278615127,0.49788372189751945,-1.4667772240527748,-0.15689699351787567,0.20530131459236145,0.1534578800201416,0.27513349056243896,-0.8173689246177673,-0.5061715245246887,0.0071389079093933105,0.029328763484954834,0.0019602179527282715
0.9559937542763094,0.4965949245588346,-1.463709384648524,-0.1533576399087906,0.029238134622573853,0.07167273014783859,0.2748062014579773,-0.8168873190879822,-0.5071260333061218,-0.03986656665802002,-0.016624093055725098,0.0171205997467041
0.9549143738960315,0.494668178858581,-1.4621288662949203,-0.12280897796154022,-0.14921927452087402,-0.010402632877230644,0.2742469608783722,-0.816264271736145,-0.5084301829338074,-0.0657050609588623,-0.04834449291229248,0.010413944721221924
0.9538675678680406,0.4922334718323256,-1.461698798902534,-0.08997273445129395,-0.2541789710521698,-0.037496037781238556,0.2734120190143585,-0.8156591057777405,-0.5098492503166199,-0.05992621183395386,-0.0465083122253418,0.0017468929290771484
0.9529588343256822,0.48921993750935633,-1.4613538119993952,-0.09363254904747009,-0.27970603108406067,-0.008972044102847576,0.2722225487232208,-0.8151330351829529,-0.511324942111969,-0.04195207357406616,-0.031775593757629395,0.0035887956619262695
0.9521338642058235,0.4857335148460034,-1.4602538121784225,-0.11012443900108337,-0.22743085026741028,0.04151350259780884,0.2707519829273224,-0.8146548867225647,-0.5128653049468994,-0.028259217739105225,-0.017345905303955078,0.0035575032234191895
0.9514540976559013,0.4822600747140833,-1.4581932552807908,-0.12197599560022354,-0.12334229052066803,0.10416000336408615,0.26922574639320374,-0.8142604827880859,-0.5142931938171387,-0.028747141361236572,-0.010232985019683838,-0.011982381343841553
0.9509775148975795,0.4790168159886162,-1.4549596891965628,-0.13509207963943481,0.00462340097874403,0.186200812458992,0.26773515343666077,-0.8139837384223938,-0.5155079364776611,-0.028935015201568604,-0.0035059452056884766,-0.024225890636444092
0.9507558300007943,0.4756148143028447,-1.45010807199374,-0.16452650725841522,0.09336910396814346,0.29181987047195435,0.266062468290329,-0.8138549327850342,-0.5165761709213257,-0.014383912086486816,0.0012022852897644043,-0.011011600494384766
0.9506692213968425,0.4713022609564064,-1.4436435455255932,-0.18993225693702698,0.08367040753364563,0.3530709743499756,0.2638642489910126,-0.8138046264648438,-0.517781674861908,0.005483955144882202,-0.0012436509132385254,0.018208980560302734
0.9505244457483768,0.46657100652823597,-1.43719017690736,-0.16564445197582245,0.015652507543563843,0.2816602289676666,0.26146453619003296,-0.8137204647064209,-0.5191294550895691,-0.019078612327575684,-0.020019829273223877,0.03394579887390137
0.9503195334864015,0.4629071962722861,-1.4329989175940379,-0.08636267483234406,-0.06854013353586197,0.13338102400302887,0.2596352696418762,-0.8136013150215149,-0.520233154296875,-0.08312153816223145,-0.05479168891906738,0.02038586139678955
0.9502075689745081,0.460616516310874,-1.4315996097433674,-0.008890699595212936,-0.1615227907896042,0.012005039490759373,0.25848332047462463,-0.8135362267494202,-0.5209079384803772,-0.11337217688560486,-0.07455575466156006,0.002978980541229248
0.9503151440182205,0.45891600090640594,-1.4319844864530646,0.038833677768707275,-0.24743209779262543,-0.03321810066699982,0.2575584352016449,-0.8135987520217896,-0.5212684273719788,-0.08960488438606262,-0.06852710247039795,0.012387871742248535
0.9505655690444447,0.4565995018522887,-1.4327045475656985,0.03545179218053818,-0.327718585729599,-0.015732072293758392,0.25626039505004883,-0.8137443661689758,-0.5216808319091797,-0.040501028299331665,-0.057791948318481445,0.03448301553726196
0.9507236268684854,0.45322511691693107,-1.4327459089266428,-0.009012077003717422,-0.3418045938014984,0.024814555421471596,0.2544422447681427,-0.8138362169265747,-0.5224268436431885,-0.003419846296310425,-0.05162703990936279,0.05184590816497803
0.9505992944537915,0.44927652855219613,-1.431853817469897,-0.062292877584695816,-0.29658862948417664,0.05703161284327507,0.2524213194847107,-0.8137639760971069,-0.5235185623168945,0.007176488637924194,-0.050524353981018066,0.06482422351837158
0.9500849523072723,0.4451996611043227,-1.4301335221365314,-0.11513105779886246,-0.2396630197763443,0.08063254505395889,0.25046518445014954,-0.8134649395942688,-0.5249210596084595,-0.006538093090057373,-0.04116469621658325,0.06323599815368652
0.9491682329626687,0.4409354875544789,-1.4277629322304854,-0.16891172528266907,-0.23151740431785583,0.08116135746240616,0.24854271113872528,-0.8129314184188843,-0.5266584753990173,-0.017051562666893005,-0.0316731333732605,0.05705404281616211
0.9477531421377882,0.4367613228772044,-1.4254666602164214,-0.19857187569141388,-0.22282272577285767,0.03280793875455856,0.24682855606079102,-0.8121064901351929,-0.5287331938743591,-0.02206653356552124,-0.04154646396636963,0.052063941955566406
0.9457955056222025,0.43364793938427776,-1.4241315348897725,-0.2216474562883377,-0.17450633645057678,-0.060095272958278656,0.24584874510765076,-0.8109626173973083,-0.5309407114982605,-0.040083929896354675,-0.05865103006362915,0.03342801332473755
0.9432052345877611,0.4322305631118933,-1.4240306098976114,-0.2519470453262329,-0.09191317856311798,-0.1462935358285904,0.2459750473499298,-0.8094443678855896,-0.5331942439079285,-0.06476160883903503,-0.0643807053565979,0.011984646320343018
0.9400768854110648,0.43239747825660596,-1.4250166447647323,-0.26436999440193176,-0.04038436710834503,-0.21908211708068848,0.24712401628494263,-0.8076034188270569,-0.5354498624801636,-0.08536553382873535,-0.05486917495727539,0.0032233595848083496
0.936776048903404,0.43340192519865,-1.4267500400763555,-0.24777822196483612,-0.042575083673000336,-0.2354229986667633,0.24877989292144775,-0.8056524395942688,-0.5376177430152893,-0.07014517486095428,-0.04255318641662598,-0.009684443473815918
0.9337311871762369,0.43436915895945427,-1.4285528265973721,-0.214955136179924,-0.048807915300130844,-0.2087906450033188,0.25033095479011536,-0.8038449883460999,-0.539599597454071,-0.021784722805023193,-0.03946256637573242,-0.02898859977722168
0.9310522185396277,0.4351376658352707,-1.4300973922930118,-0.1950858235359192,-0.04239661991596222,-0.18222162127494812,0.25165244936943054,-0.8022485375404358,-0.5413579344749451,0.002375960350036621,-0.037488460540771484,-0.038460731506347656
0.9285999998544107,0.4357115669785387,-1.4312820620990863,-0.19013191759586334,-0.03144216164946556,-0.15020214021205902,0.2527925968170166,-0.8007822036743164,-0.5429952144622803,-0.0012666583061218262,-0.02885347604751587,-0.03990572690963745
0.9263363699363208,0.4360498691135904,-1.431892091344493,-0.18915987014770508,-0.0006200652569532394,-0.10806719958782196,0.25374120473861694,-0.7994243502616882,-0.5445513129234314,0.000577092170715332,-0.019743800163269043,-0.03551149368286133
0.9242985667374657,0.4361391500589764,-1.4319248066958858,-0.17494246363639832,0.009247194975614548,-0.07278630137443542,0.25447750091552734,-0.798198401927948,-0.5460041165351868,0.008461982011795044,-0.014576256275177002,-0.03384500741958618
0.9225900923725572,0.4362399881257596,-1.4319417595302837,-0.12993264198303223,0.007466604933142662,-0.07711020857095718,0.25510844588279724,-0.7971680760383606,-0.5472137331962585,0.007968425750732422,-0.00954890251159668,-0.04572749137878418
0.9213067285846979,0.4370310350691879,-1.4326939960845992,-0.059897780418395996,0.03075503185391426,-0.11825945973396301,0.25597402453422546,-0.796392560005188,-0.5479381680488586,-0.016716182231903076,-0.011743426322937012,-0.07332336902618408
0.9205259219000949,0.4389790656821376,-1.4346728614214133,0.020271889865398407,0.0434521846473217,-0.1617499440908432,0.25730517506599426,-0.7959201335906982,-0.548001229763031,-0.04734417796134949,-0.011483490467071533,-0.09411907196044922
