attitudeX,attitudeY,attitudeZ,gyroX,gyroY,gyroZ,gravityX,gravityY,gravityZ,accX,accY,accZ
0.5318074843339413,0.12479656672141377,-1.0001932796139652,-6.665970325469971,6.371933937072754,0.5949423909187317,0.10728217661380768,-0.5070919990539551,-0.8551890254020691,0.1014275997877121,-0.1488681435585022,0.11667889356613159
0.47165352825345735,0.1680202195701095,-0.9826044160647007,-5.607954502105713,3.858759880065918,0.6870356202125549,0.14897222816944122,-0.45435988903045654,-0.8782734870910645,0.18032777309417725,-0.15951648354530334,0.014183580875396729
0.4241312907391022,0.18452772083676938,-0.964798253504536,-4.256640911102295,0.9227672815322876,0.7898596525192261,0.16722513735294342,-0.41152921319007874,-0.8959237933158875,0.22988492250442505,-0.11593669652938843,0.020588159561157227
0.39150352160861385,0.17185954840950768,-0.9491345902513951,-2.6169025897979736,-2.2156755924224854,0.8466047048568726,0.15807519853115082,-0.38157859444618225,-0.9107195138931274,0.30930155515670776,-0.08514201641082764,-0.0036329030990600586
0.3762240450390038,0.1306520996732111,-0.9375738044896251,-0.6981909871101379,-5.062504768371582,0.772598922252655,0.12116869539022446,-0.36741122603416443,-0.9221318364143372,0.3756422698497772,-0.06192535161972046,-0.10853826999664307
0.3800704756278097,0.06569006521748721,-0.9307247247634828,1.3299299478530884,-7.300197124481201,0.5232993364334106,0.060958459973335266,-0.3709859251976013,-0.9266356229782104,0.3036198318004608,-0.03245651721954346,-0.28239452838897705
0.4035639086616801,-0.015457529091297157,-0.9281818932821484,3.313706398010254,-8.51286506652832,0.00737053994089365,-0.014215217903256416,-0.3926984369754791,-0.9195574522018433,0.12488725781440735,0.01566895842552185,-0.43179142475128174
0.4458575908290637,-0.09977641763952799,-0.9294982784988198,5.0346879959106445,-8.210241317749023,-0.7745684385299683,-0.08987309783697128,-0.4312317967414856,-0.8977538347244263,-0.13832205533981323,0.06309819221496582,-0.5742462277412415
0.504039338958267,-0.17254655068220437,-0.9338943162204365,6.267765045166016,-6.560103416442871,-1.5750341415405273,-0.15033987164497375,-0.48296648263931274,-0.8626362681388855,-0.37901797890663147,0.07303902506828308,-0.751331627368927
0.5728576574696806,-0.22329431649194084,-0.9396334853812907,6.9008564949035645,-4.104103088378906,-2.0540902614593506,-0.1860911250114441,-0.542035698890686,-0.8194921612739563,-0.452534943819046,0.07720714807510376,-0.8795586824417114
0.6452326376448536,-0.2491281287197051,-0.9445633642927775,6.819264888763428,-1.6291908025741577,-2.0756924152374268,-0.19699083268642426,-0.6013843417167664,-0.7742941975593567,-0.42773449420928955,0.09834778308868408,-0.822583794593811
0.7111974337440603,-0.2562885628632593,-0.9482467625241208,5.6015238761901855,-0.468899667263031,-1.74976646900177,-0.19204075634479523,-0.6527413725852966,-0.7328363656997681,-0.2789217233657837,0.14627158641815186,-0.5482915639877319
0.7597258343094435,-0.25534608614046067,-0.9525025973032863,3.555164337158203,0.16722768545150757,-1.2938425540924072,-0.1831270158290863,-0.6887226700782776,-0.7015166878700256,-0.02855813503265381,0.1473865509033203,-0.11766660213470459
0.786833951923901,-0.2420746886125626,-0.9570405314228129,1.5387245416641235,1.95345139503479,-0.6539216637611389,-0.16926223039627075,-0.7081212997436523,-0.6855032444000244,0.24236711859703064,0.05190175771713257,0.3919546604156494
0.7933818623678832,-0.21266308858792163,-0.9601734335637666,-0.3501521944999695,3.285612106323242,-0.10705689340829849,-0.14804834127426147,-0.7127295136451721,-0.6856372356414795,0.36077117919921875,0.07036495208740234,0.8060595989227295
0.7817134403621138,-0.17726374837120262,-0.9622630801426085,-1.9372881650924683,3.3401570320129395,0.2577250599861145,-0.12514758110046387,-0.7044965028762817,-0.6985862255096436,0.20003779232501984,0.13395506143569946,0.9501885175704956
0.7567106025010703,-0.14920732442397436,-0.9620508951539074,-2.8612170219421387,2.123610019683838,0.5488199591636658,-0.10808629542589188,-0.6865334510803223,-0.7190196514129639,0.06792521476745605,0.09102863073348999,0.9445903897285461
0.7264389320049327,-0.1377987963465221,-0.9603556167523453,-3.000513792037964,0.31779205799102783,0.5123831629753113,-0.10268502682447433,-0.6642118096351624,-0.7404582500457764,0.19359692931175232,-0.002154827117919922,0.9175212979316711
0.6981288037759577,-0.14588940425885638,-0.9608474992123345,-2.525625228881836,-2.0283584594726562,0.17666493356227875,-0.1113620325922966,-0.642785370349884,-0.7579086422920227,0.2945743799209595,-0.12235140800476074,0.706074595451355
0.677942346514158,-0.17475785629654028,-0.965651800706481,-1.514643907546997,-4.275008678436279,-0.2819303572177887,-0.1354210078716278,-0.6271917223930359,-0.7670018076896667,0.11338736116886139,-0.1470698118209839,0.49106186628341675
0.6704722682815051,-0.22026527843082475,-0.974399854526631,-0.19760222733020782,-5.756705284118652,-0.7687998414039612,-0.17119193077087402,-0.6213560700416565,-0.7645978927612305,-0.08071538805961609,-0.11910724639892578,0.19388872385025024
0.6778482917508464,-0.27380725979218756,-0.9850708817802744,1.206376314163208,-6.08596658706665,-1.1938648223876953,-0.21062012016773224,-0.6271184682846069,-0.7499077916145325,-0.22854304313659668,-0.08648943901062012,-0.18283140659332275
0.699247526918014,-0.3253208036104653,-0.994339306055817,2.372046709060669,-5.197863578796387,-1.4007426500320435,-0.24460820853710175,-0.643642008304596,-0.7251839637756348,-0.3035484850406647,0.007976055145263672,-0.526784360408783
0.7282232502561063,-0.3639244640642391,-0.9996686785375539,2.6300454139709473,-3.0418810844421387,-1.265698790550232,-0.26566198468208313,-0.6655445694923401,-0.6974769830703735,-0.2974025309085846,0.05844312906265259,-0.7918723225593567
0.7522393255636194,-0.37785920534477485,-1.0018231984492287,1.5485857725143433,0.06724964082241058,-0.7180317640304565,-0.26937928795814514,-0.6832755208015442,-0.6786525845527649,-0.10040217638015747,-0.002195119857788086,-0.7561160326004028
0.7583835851226232,-0.3586484135387069,-1.0030042813819213,-0.5537535548210144,3.606269598007202,0.1354605108499527,-0.2548145055770874,-0.687748908996582,-0.6797580718994141,0.10172310471534729,0.004063546657562256,-0.29375267028808594
0.7403880850145621,-0.3067345363049486,-1.0032619613346563,-2.8188281059265137,6.564686298370361,0.9633435606956482,-0.22289948165416718,-0.6745744347572327,-0.7037507891654968,0.09027013182640076,0.1277146339416504,0.2528688311576843
0.7012917123080374,-0.23270084277299075,-1.0002409567955908,-4.476330757141113,8.480619430541992,1.5119788646697998,-0.1761854588985443,-0.6452050805091858,-0.7434171438217163,-0.01151283085346222,0.2118707299232483,0.4714140295982361
0.6500120009137944,-0.14874524930978442,-0.991232570776311,-5.170222282409668,9.161772727966309,1.763809084892273,-0.11797644197940826,-0.605195939540863,-0.787286102771759,-0.011707976460456848,0.11868464946746826,0.3585752248764038
0.5977076942384942,-0.06983598108336647,-0.9760600654343733,-4.806148529052734,8.08853530883789,1.791070818901062,-0.057681452482938766,-0.5627490878105164,-0.8246128559112549,0.11938802897930145,0.002598881721496582,0.10191088914871216
0.5546785368696475,-0.0133944796069758,-0.9579511830771216,-3.560500144958496,4.834109306335449,1.5257924795150757,-0.01138590183109045,-0.5266700387001038,-0.8499935269355774,0.2020750343799591,-0.06857538223266602,0.016817927360534668
0.5277112553505084,0.0027739491947692176,-0.9445102233708536,-1.75501549243927,-0.42382901906967163,0.7076537013053894,0.002396583091467619,-0.5035572648048401,-0.8639585375785828,0.15359406173229218,-0.1342601776123047,0.18260782957077026
0.521292409854687,-0.03152230156902167,-0.9438337473560823,0.5253754258155823,-6.293808937072754,-0.6341143250465393,-0.02733086608350277,-0.4980013072490692,-0.8667454719543457,0.0541100800037384,-0.26907336711883545,0.4290624260902405
0.5404311092311873,-0.11167320457373556,-0.9584989792944139,3.1126058101654053,-10.877537727355957,-2.164926052093506,-0.09555941075086594,-0.5145056843757629,-0.8521457314491272,-0.10127891600131989,-0.29541563987731934,0.3389773964881897
0.5886808619268925,-0.21929870234743834,-0.9821140166341837,5.678923606872559,-12.732030868530273,-3.2836103439331055,-0.18092665076255798,-0.555264413356781,-0.8117555379867554,-0.34829390048980713,-0.19095146656036377,-0.22337019443511963
0.6632111953398778,-0.3359178149009725,-1.0005928527142427,7.668657302856445,-12.46711254119873,-3.581148147583008,-0.25975942611694336,-0.6156505346298218,-0.7439755201339722,-0.33370062708854675,0.021030664443969727,-0.7683840990066528
0.7510474826865534,-0.45294262048302286,-1.0011515474800805,8.164169311523438,-10.792793273925781,-3.2104902267456055,-0.31988418102264404,-0.6824048161506653,-0.6572654247283936,-0.14244180917739868,0.230271577835083,-0.888892412185669
0.8267413075240263,-0.5547937327753825,-0.9871674211990904,5.611881256103516,-7.088305473327637,-2.239234209060669,-0.35676780343055725,-0.7357282638549805,-0.5756915807723999,-0.05753883719444275,0.15058410167694092,-0.7625957727432251
0.8640890687669227,-0.6025501811733613,-0.9771342959921802,1.2679311037063599,-0.8159652948379517,-0.7311596274375916,-0.3680065870285034,-0.7605040669441223,-0.5349810719490051,0.5470075011253357,-0.18078011274337769,-0.1445995569229126
0.8570289181184034,-0.571456498608433,-0.9856024881569785,-2.955995559692383,5.670351028442383,0.5680301785469055,-0.3540920913219452,-0.7559008002281189,-0.5506657958030701,0.23173189163208008,-0.0006147623062133789,0.7348852157592773
0.8112037470375594,-0.4758957852582215,-1.0046726470503382,-6.071684837341309,10.180126190185547,1.7752470970153809,-0.31548362970352173,-0.7251166105270386,-0.6121078133583069,-0.203116774559021,0.3040044903755188,0.8761764764785767
0.7376809600842308,-0.3558211537482773,-1.0144236207793902,-7.732188701629639,12.135547637939453,2.83884334564209,-0.25779709219932556,-0.6725735664367676,-0.6936753392219543,0.23870837688446045,0.2617458701133728,0.6113389730453491
0.6523325152417284,-0.23864820698260222,-1.0049538013558654,-7.961613178253174,12.160445213317871,3.4601151943206787,-0.18785154819488525,-0.6070416569709778,-0.7721478343009949,0.5349738001823425,0.158097505569458,0.24413275718688965
0.5720519186129377,-0.14082122361140953,-0.9808424540448228,-6.883365154266357,9.680803298950195,3.2837588787078857,-0.11801040917634964,-0.5413584113121033,-0.8324690461158752,0.5341176390647888,0.1004709005355835,-0.14023298025131226
0.5108823584084151,-0.08290789691605596,-0.9574221108408205,-4.670858860015869,3.8985445499420166,1.861518144607544,-0.07223884761333466,-0.4889471232891083,-0.8693171739578247,0.22020336985588074,0.010797679424285889,-0.08991134166717529
0.4790173744995002,-0.08324574256185535,-0.9530434826750526,-1.5078681707382202,-3.5972650051116943,-0.6886378526687622,-0.07379099726676941,-0.46090736985206604,-0.8843750953674316,-0.2347722053527832,-0.17686432600021362,0.26097726821899414
0.4844214175758133,-0.14279566405068483,-0.974734508383105,2.1624155044555664,-9.859864234924316,-3.1639468669891357,-0.12593723833560944,-0.46569642424583435,-0.8759375810623169,-0.702157199382782,-0.37565797567367554,0.17023390531539917
0.5309127649037404,-0.23831903601592652,-1.0098815380161896,5.708226203918457,-12.108139991760254,-4.479895114898682,-0.20357342064380646,-0.5063206553459167,-0.837972104549408,-0.8569581508636475,-0.30768996477127075,-0.49224328994750977
0.6123788696160649,-0.34442441347353786,-1.0382938899020309,8.290251731872559,-11.897053718566895,-4.686708450317383,-0.27629727125167847,-0.5748156905174255,-0.7702251076698303,-0.41779449582099915,-0.14085209369659424,-1.1312183141708374
0.7089976784294068,-0.4506819579265256,-1.0485948239825686,8.40456771850586,-10.319510459899902,-4.1983442306518555,-0.33061131834983826,-0.6510733366012573,-0.6832274198532104,-0.09269797801971436,0.13540250062942505,-1.3249512910842896
0.7863751860737997,-0.5347010897911768,-1.0444341615657653,5.175281047821045,-5.257814884185791,-2.375953435897827,-0.35997799038887024,-0.7077972888946533,-0.6078147888183594,0.2524493634700775,0.19928288459777832,-0.9815711379051208
0.817785860405028,-0.5579887132081098,-1.0373628586401018,0.6020783185958862,1.6145834922790527,-0.12012699246406555,-0.3620795011520386,-0.7296335101127625,-0.580115020275116,1.0326117277145386,0.10469448566436768,0.07477450370788574
0.7982759993896271,-0.507025867498095,-1.0393679429341542,-4.037275791168213,8.068513870239258,1.8449466228485107,-0.338906466960907,-0.7161539196968079,-0.6101360321044922,0.37827423214912415,0.5102975964546204,0.964872419834137
0.7327306722331867,-0.40378227821522805,-1.0407154254397122,-7.596887588500977,11.955211639404297,3.650237560272217,-0.2920619249343872,-0.6689019799232483,-0.6835715174674988,0.347603976726532,0.416292667388916,1.0752646923065186
0.6376294912996351,-0.2828029965510451,-1.0268982668957571,-9.302184104919434,13.651273727416992,4.6099395751953125,-0.22421793639659882,-0.5952923893928528,-0.7715914249420166,0.6507927179336548,0.24531680345535278,0.7733157277107239
0.536861725236249,-0.16382517329008506,-0.9969011701374901,-8.968196868896484,12.935356140136719,4.5608811378479,-0.1401490420103073,-0.5114417672157288,-0.8478122353553772,0.5686922073364258,0.278592586517334,0.1384311318397522
0.4521322014687505,-0.07106812458266634,-0.9635276876628555,-6.97416353225708,8.17515754699707,3.0075645446777344,-0.06387323141098022,-0.43688449263572693,-0.8972470164299011,0.2641754150390625,0.15273523330688477,-0.3146975636482239
0.39754827520645664,-0.03400260321813562,-0.9492647978056089,-3.6142964363098145,0.15225078165531158,-0.0030223578214645386,-0.03134480118751526,-0.38715898990631104,-0.9214800000190735,-0.29130226373672485,-0.15214771032333374,0.03408992290496826
0.3832227443112384,-0.06688874097239145,-0.9668765716523937,0.6389512419700623,-7.713005542755127,-3.002915859222412,-0.06199067831039429,-0.37391138076782227,-0.9253904223442078,-0.9091243743896484,-0.46445232629776,0.15276169776916504
0.41591387391067286,-0.1500711044679344,-1.0063990422093303,5.0047831535339355,-11.366832733154297,-4.806209087371826,-0.13676247000694275,-0.404026061296463,-0.9044661521911621,-1.1284810304641724,-0.4992332458496094,-0.5036606788635254
0.493296266958894,-0.25129481561351263,-1.0477614617304254,8.432619094848633,-12.20932388305664,-5.464343070983887,-0.21901246905326843,-0.47353172302246094,-0.8531126976013184,-0.6771209239959717,-0.35956770181655884,-1.2926392555236816
0.5975467973740313,-0.35789435056482016,-1.0762847367859942,9.550871849060059,-11.791020393371582,-5.333054542541504,-0.28960174322128296,-0.5626160502433777,-0.7743346095085144,-0.23438504338264465,0.07872927188873291,-1.6294891834259033
0.6956300526746826,-0.4547968973164191,-1.0876819159940816,7.2759222984313965,-8.25436019897461,-3.833137035369873,-0.3372132182121277,-0.6408692002296448,-0.6896186470985413,0.18502208590507507,0.4504241943359375,-1.2834800481796265
0.7517173873939065,-0.5042125595112157,-1.086031503057183,2.5814313888549805,-1.2279819250106812,-1.1146680116653442,-0.352926105260849,-0.6828943490982056,-0.6396081447601318,0.8574579954147339,0.3296533226966858,-0.29392457008361816
0.7512429458814633,-0.48218836584441976,-1.0846787968845981,-2.524571418762207,5.6576738357543945,1.284965991973877,-0.3389049768447876,-0.6825476884841919,-0.6475121974945068,0.8375164270401001,0.5197821855545044,0.8199518322944641
0.6993949888789602,-0.40200223591115947,-1.0820797362144432,-6.422306537628174,10.22658634185791,3.4145472049713135,-0.29940593242645264,-0.6437548398971558,-0.704227089881897,0.4621715247631073,0.5522631406784058,1.2056615352630615
0.6154981722358539,-0.2998306650073958,-1.0655579267233233,-8.106388092041016,11.887752532958984,4.62941837310791,-0.24115599691867828,-0.5773653388023376,-0.7800596356391907,0.7683624625205994,0.21318376064300537,0.8029478788375854
0.5268118048981316,-0.19841852877218374,-1.033295938169348,-7.440690040588379,11.468244552612305,4.924091339111328,-0.17039261758327484,-0.5027799606323242,-0.8474541902542114,0.6065651774406433,0.2605161666870117,0.0617334246635437
0.4559456550137557,-0.11947754670685301,-0.9916439118793734,-5.27560567855835,7.641984939575195,4.35467529296875,-0.10701729357242584,-0.4403115510940552,-0.8914443850517273,0.3903120160102844,0.1928139626979828,-0.6052902340888977
0.4136163303026021,-0.09058177193795869,-0.9610316302451478,-2.4814350605010986,0.4427470266819,1.7314938306808472,-0.08282992988824844,-0.4019233286380768,-0.9119192957878113,-0.018579944968223572,-0.085839182138443,-0.21604084968566895
0.40593536498502497,-0.12310609000956145,-0.9644754849078886,0.9253021478652954,-7.0543317794799805,-2.221951484680176,-0.112816222012043,-0.3948782980442047,-0.9117804765701294,-0.8945842385292053,-0.5537301898002625,0.5179358720779419
0.43858782970313714,-0.2044248207357805,-1.0011929690816959,4.351194381713867,-11.61737060546875,-5.260599136352539,-0.18379011750221252,-0.4246613681316376,-0.8865009546279907,-1.4877643585205078,-0.8248198628425598,0.2817951440811157
0.5091067989594211,-0.30662267264327653,-1.050142764252186,6.84555196762085,-12.9262056350708,-6.503376483917236,-0.2635611891746521,-0.48739752173423767,-0.8324536681175232,-1.2624244689941406,-0.6470019817352295,-0.45943164825439453
0.599732687567097,-0.4156741752208041,-1.0906343780767753,7.37791633605957,-12.8386869430542,-6.1344757080078125,-0.33333706855773926,-0.5644218325614929,-0.7551916241645813,-0.517462432384491,-0.16546708345413208,-0.8900872468948364
0.6838326683345267,-0.5183274042854995,-1.1129327424229445,5.670433521270752,-9.701629638671875,-4.424607276916504,-0.38403448462486267,-0.6317685842514038,-0.6733394861221313,0.17433294653892517,0.29845553636550903,-0.7966617345809937
0.7318243037173507,-0.5763590895163363,-1.1210636228927093,1.6511752605438232,-2.658125877380371,-1.544258713722229,-0.4054376184940338,-0.6682279706001282,-0.6237722039222717,0.5162622928619385,0.2976987361907959,-0.4887765645980835
0.7269425512704605,-0.5614589815894482,-1.1282830719543797,-3.010938882827759,4.449497222900391,1.0879462957382202,-0.3978307545185089,-0.664588212966919,-0.6324975490570068,0.6571387052536011,0.503546953201294,0.1355341076850891
0.6740646987121349,-0.48719550965257347,-1.134568929314114,-6.327658176422119,9.172419548034668,3.3195087909698486,-0.36576107144355774,-0.6241668462753296,-0.6903873085975647,0.3299944996833801,0.6023924946784973,0.6788211464881897
0.5934564624319816,-0.39160139286431894,-1.124781724837862,-7.256317615509033,10.709169387817383,4.809757232666016,-0.31640851497650146,-0.5592297911643982,-0.7662556171417236,0.6705192923545837,0.3671826720237732,0.1975300908088684
0.5127922902979987,-0.29884750232556767,-1.0954322872020663,-5.971278667449951,10.653365135192871,5.229665279388428,-0.25655022263526917,-0.49061229825019836,-0.832755446434021,0.667576253414154,0.4639856517314911,-0.596748948097229
0.4533139649833715,-0.22037078288607187,-1.0531714792398268,-3.5510458946228027,8.566210746765137,4.974977016448975,-0.19651387631893158,-0.43794718384742737,-0.8772596716880798,0.3423268795013428,0.3528641164302826,-1.303297519683838
0.42076865823461573,-0.17607208049003553,-1.0113142256397716,-1.412431240081787,3.406257152557373,3.471835136413574,-0.15988512337207794,-0.40846219658851624,-0.8986631035804749,0.01782582700252533,0.12879905104637146,-0.9798616170883179
0.41311197686307133,-0.18236109013761773,-0.9921994832979256,0.5599648356437683,-3.10074520111084,0.04321634769439697,-0.16609594225883484,-0.4014614522457123,-0.9006890654563904,-0.5603902339935303,-0.12922403216362,0.29404544830322266
0.43432109858319246,-0.23519059330003822,-1.0081388287765454,3.0076701641082764,-8.446490287780762,-3.651353359222412,-0.21139304339885712,-0.42079463601112366,-0.8821818828582764,-1.240328073501587,-0.7014588117599487,0.8005779385566711
0.4885155445023697,-0.3154465715437098,-1.0475005269870514,5.382808208465576,-10.638389587402344,-5.808462619781494,-0.27395230531692505,-0.4693155884742737,-0.8394599556922913,-1.3690835237503052,-0.7962636947631836,0.24441301822662354
0.566304510737804,-0.40263443900921025,-1.0874458746279367,6.5117058753967285,-10.553625106811523,-5.869462013244629,-0.33067256212234497,-0.5365171432495117,-0.7764052152633667,-0.7329565286636353,-0.44549280405044556,-0.5329209566116333
0.6467100204388595,-0.4881419508313867,-1.1122767166996899,5.987706661224365,-9.069289207458496,-4.60920524597168,-0.37428364157676697,-0.6025640368461609,-0.704860508441925,0.18171778321266174,0.05735224485397339,-0.6770821809768677
0.7059795765506802,-0.5538279559310828,-1.1221301148251006,3.1663408279418945,-4.8856916427612305,-2.478457450866699,-0.40023311972618103,-0.648779571056366,-0.647223711013794,0.4998730719089508,0.29805630445480347,-0.2627035975456238
0.7207029424279928,-0.5700567953497969,-1.1284402672885363,-1.2381970882415771,0.8592842817306519,0.08640269190073013,-0.4054841697216034,-0.6599130034446716,-0.6325325965881348,0.6851472854614258,0.16798484325408936,0.32470178604125977
0.6864951701801413,-0.5273535700824075,-1.1376423591455838,-5.151211261749268,6.318645000457764,2.243666648864746,-0.3892485499382019,-0.633830189704895,-0.6683898568153381,0.5570647716522217,0.32520586252212524,0.9186034798622131
0.6154661245403231,-0.4447064740089502,-1.1395233690434925,-7.249054431915283,9.53371524810791,4.038913249969482,-0.3512544333934784,-0.5773391723632812,-0.7370887398719788,0.5099611282348633,0.349113404750824,0.660321831703186
0.5294613609073371,-0.3517477208885352,-1.1231777432848422,-7.260433673858643,10.598780632019043,5.036531448364258,-0.2973645031452179,-0.5050685405731201,-0.8102346658706665,0.7592785954475403,0.38456982374191284,-0.041495680809020996
0.45137441209927176,-0.2590941145127916,-1.0889294374225993,-5.642344951629639,11.018939018249512,5.37958288192749,-0.23054566979408264,-0.4362027049064636,-0.8698136806488037,0.5925909876823425,0.42719998955726624,-0.7635175585746765
0.3951110559538775,-0.17046150653157402,-1.0422083228718462,-3.520054817199707,10.108014106750488,5.228632926940918,-0.1565672904253006,-0.3849107027053833,-0.9095770716667175,0.2911040782928467,0.3418808579444885,-1.3987267017364502
0.36339006135134905,-0.10309522458046197,-0.9980408047909267,-1.670264482498169,6.20760440826416,3.4543657302856445,-0.09619221091270447,-0.35544493794441223,-0.9297343492507935,-0.19277869164943695,0.27315425872802734,-1.1276692152023315
0.3550569354243123,-0.07701301302924111,-0.9812861151007545,0.3832666277885437,-0.04738403856754303,-0.3539678752422333,-0.07213810086250305,-0.34764376282691956,-0.9348475337028503,-0.9666497111320496,-0.07223239541053772,-0.010892212390899658
0.3745761971396322,-0.10433475447418124,-1.0047332705784007,3.1632840633392334,-6.980193614959717,-4.189921855926514,-0.09692440181970596,-0.3658781349658966,-0.9256018996238708,-1.4986261129379272,-0.6775636672973633,0.5538825392723083
0.4277257868220482,-0.17886889346418935,-1.055133948315594,5.9612956047058105,-11.270435333251953,-6.203303337097168,-0.16188837587833405,-0.41480255126953125,-0.8953943252563477,-1.4292064905166626,-0.7709884643554688,0.27607065439224243
0.5100597570687242,-0.27516551379053444,-1.1070879798388238,7.788120269775391,-12.303086280822754,-6.343143939971924,-0.23712220788002014,-0.4882293939590454,-0.8398840427398682,-0.5787041783332825,-0.43118900060653687,-0.5221307277679443
0.6065387733299112,-0.37657488470017947,-1.143906659838739,8.299847602844238,-11.58253002166748,-5.69559907913208,-0.3021427094936371,-0.5700270533561707,-0.7640543580055237,0.22090494632720947,0.05490553379058838,-0.8894338011741638
0.7011758080984833,-0.47051933209021346,-1.1632114125434554,7.423058986663818,-9.247167587280273,-4.806248188018799,-0.3463970124721527,-0.6451165676116943,-0.6810534596443176,0.3987804651260376,0.42297905683517456,-0.7462841868400574
0.7740428407085229,-0.537409678738557,-1.1710715499464148,4.466546535491943,-4.831843852996826,-3.076777219772339,-0.36606377363204956,-0.6990319490432739,-0.6142895817756653,0.24553462862968445,0.3889886140823364,-0.46438467502593994
0.8033251224280377,-0.5533757978314304,-1.175406418342553,0.14959457516670227,1.0280107259750366,-0.44984766840934753,-0.36490708589553833,-0.7196687459945679,-0.5906943082809448,0.5435570478439331,0.1567261815071106,0.07786166667938232
0.7823284708601473,-0.5132003874960518,-1.1805090492512271,-4.050351619720459,6.167370319366455,1.892769694328308,-0.34823077917099,-0.7049328684806824,-0.6179037690162659,0.7684578895568848,0.3016278147697449,0.7753286957740784
0.718542065728336,-0.43218621512937716,-1.1807847675443903,-7.092765808105469,9.566829681396484,3.77890682220459,-0.31530144810676575,-0.6582878828048706,-0.6835511326789856,0.6477752327919006,0.42070847749710083,0.9039185643196106
0.6300315769665267,-0.33941594879190107,-1.167572739562512,-8.234036445617676,10.278875350952148,4.596653938293457,-0.2690155804157257,-0.5891702771186829,-0.7619113922119141,0.8152345418930054,0.34350377321243286,0.5330753922462463
0.5412939969917078,-0.25657618486547673,-1.1440614424670559,-7.301014423370361,8.416601181030273,4.197076320648193,-0.2174919992685318,-0.5152454376220703,-0.8289870023727417,0.5332421660423279,0.32058900594711304,-0.0373460054397583
0.4733152319035154,-0.2065236642795997,-1.121001412606539,-4.82858943939209,3.4680986404418945,2.6531741619110107,-0.18251493573188782,-0.4558395445346832,-0.871147871017456,0.1208542138338089,0.09384000301361084,-0.34889912605285645
0.43942498829598725,-0.2052993885957042,-1.112366340658936,-1.3854678869247437,-2.3598222732543945,0.14585481584072113,-0.184492826461792,-0.4254191517829895,-0.8859915137290955,-0.4141246974468231,-0.14846396446228027,-0.19185882806777954
0.4473366106893959,-0.24589765496623356,-1.1231413363680045,2.4688146114349365,-6.297153949737549,-2.31992769241333,-0.2194744348526001,-0.43256574869155884,-0.8744814991950989,-0.8959124684333801,-0.38437461853027344,-0.4177090525627136
0.49696863910518907,-0.30904170082773175,-1.144111564491323,5.918856620788574,-8.003870964050293,-3.8669309616088867,-0.26735392212867737,-0.4767630696296692,-0.8373880982398987,-0.9217024445533752,-0.3720834255218506,-0.990752100944519
0.5778814652441199,-0.3814289459274448,-1.1621982498355947,7.927679538726807,-8.03725528717041,-4.405153274536133,-0.31180229783058167,-0.5462506413459778,-0.7774249911308289,-0.640071451663971,-0.10484194755554199,-1.3097026348114014
0.6645065713095896,-0.4492859517608531,-1.1702849065655903,6.902945518493652,-6.0668625831604,-3.520167350769043,-0.3419078588485718,-0.6166707873344421,-0.7090954184532166,-0.31748542189598083,0.21176350116729736,-1.3169054985046387
0.7209669778767236,-0.4887081849840173,-1.166214582139768,3.2124674320220947,-1.0013619661331177,-0.9186283946037292,-0.3526625335216522,-0.6601113677024841,-0.663236141204834,0.5309157371520996,0.35485923290252686,-0.6460136771202087
0.7290778717002955,-0.47876507584873534,-1.156272353424052,-1.0410230159759521,4.171570301055908,1.3339165449142456,-0.3435727059841156,-0.6661822199821472,-0.6619359254837036,1.0927640199661255,0.43728506565093994,0.5306798219680786
0.6955219482971001,-0.4232762931542889,-1.146792167501742,-4.145739555358887,7.814545631408691,2.782987356185913,-0.3153406083583832,-0.6407862305641174,-0.6999667286872864,0.6020990610122681,0.49222660064697266,1.0204927921295166
0.6386020464918613,-0.3493277558797473,-1.1325965898425212,-5.267878532409668,8.198468208312988,3.3992717266082764,-0.27481576800346375,-0.596073567867279,-0.7544353008270264,0.5322620868682861,0.21049922704696655,0.7157695889472961
0.5812196285052713,-0.28985606523733604,-1.1151343574450605,-4.5051350593566895,5.336851119995117,2.733125925064087,-0.23888176679611206,-0.5490437150001526,-0.80092853307724,0.44330382347106934,0.06759834289550781,0.371454656124115
0.5413569572409797,-0.2640296168742893,-1.1046006255383658,-2.5525031089782715,0.8166035413742065,1.0484733581542969,-0.22365622222423553,-0.515299379825592,-0.8273115754127502,0.02156887948513031,-0.16849273443222046,0.326029896736145
0.528582674070478,-0.2769172988786709,-1.1082284063268981,-0.03279932215809822,-3.591174364089966,-0.9720208644866943,-0.23607993125915527,-0.5043099522590637,-0.8306248784065247,-0.36732882261276245,-0.49440836906433105,0.31825006008148193
0.5459656122301223,-0.3191328707094572,-1.12415803180077,2.501406192779541,-6.22273588180542,-2.5727834701538086,-0.2681333124637604,-0.519243597984314,-0.8114743828773499,-0.5993288159370422,-0.5179421305656433,0.08904707431793213
0.5887747369052623,-0.376564940751175,-1.1435885904167618,4.226315498352051,-7.068033218383789,-3.2901828289031982,-0.3058108389377594,-0.5553424954414368,-0.7733527421951294,-0.5093746185302734,-0.35106009244918823,-0.35035020112991333
0.6403037861799799,-0.4343033864177455,-1.1586242423114348,3.9472601413726807,-5.912078857421875,-2.846330404281616,-0.33742833137512207,-0.5974390506744385,-0.7274672985076904,-0.27165672183036804,-0.15170645713806152,-0.5478775501251221
0.6756946184631464,-0.4741782933845382,-1.165830192310477,1.7334022521972656,-2.682615280151367,-1.1520687341690063,-0.3562784194946289,-0.625439465045929,-0.6941838264465332,0.2046671211719513,0.04139399528503418,-0.2791895866394043
0.6794032705158194,-0.4808358121414865,-1.1658140128031527,-1.0700485706329346,1.3476392030715942,0.770746648311615,-0.35981670022010803,-0.6283289194107056,-0.6897352337837219,0.6029197573661804,0.2850366234779358,0.2228316068649292
0.6515286959896194,-0.4519162296353444,-1.1612457978520676,-3.4758052825927734,4.846994400024414,2.318225145339966,-0.34723758697509766,-0.6064026951789856,-0.7153334021568298,0.44002628326416016,0.4462158679962158,0.40158218145370483
0.6020194416087358,-0.39873303887293365,-1.1506861056553783,-4.595317840576172,6.689034461975098,3.1901605129241943,-0.31999409198760986,-0.5663080215454102,-0.7595387101173401,0.37976279854774475,0.3114861845970154,0.1974659562110901
0.549149268472976,-0.3398326991292948,-1.133714032779443,-4.014889717102051,6.735036849975586,3.1967015266418457,-0.28431957960128784,-0.5219617486000061,-0.8041880130767822,0.26681777834892273,0.25993776321411133,-0.19175314903259277
0.5092043269232663,-0.2898066021343495,-1.1117607457741019,-2.342271566390991,5.173165798187256,2.8243136405944824,-0.2495124191045761,-0.4874826669692993,-0.8367223143577576,0.035446897149086,0.21373993158340454,-0.6261988282203674
0.48799772760914106,-0.2650171436927913,-1.0910683346779786,-0.7882877588272095,1.5255688428878784,1.6860640048980713,-0.23135210573673248,-0.4688582718372345,-0.8524366021156311,-0.012162864208221436,-0.0031571388244628906,-0.5037035346031189
0.4852993156226885,-0.27484839105293796,-1.0833424603510609,0.6516319513320923,-2.7162084579467773,-0.2880960702896118,-0.24006380140781403,-0.46647313237190247,-0.8513355255126953,-0.2895839810371399,-0.24612757563591003,0.3013477921485901
0.5034476177951648,-0.314834185963489,-1.0927498204277535,2.3390579223632812,-5.9031805992126465,-2.3134050369262695,-0.27123773097991943,-0.4824482500553131,-0.8328708410263062,-0.6212487816810608,-0.4590495824813843,0.5570224523544312
0.5425503867210658,-0.36958986342726174,-1.1138685369421857,3.661525249481201,-6.854454517364502,-3.584868907928467,-0.30935803055763245,-0.5163217782974243,-0.7985671162605286,-0.7671342492103577,-0.4898580312728882,0.11079251766204834
0.5917397730387038,-0.42387059364146373,-1.1357888044130835,3.7811155319213867,-6.143847942352295,-3.440382719039917,-0.34136027097702026,-0.5578058362007141,-0.7565221786499023,-0.5478761196136475,-0.32502198219299316,-0.35636234283447266
0.6330365490328077,-0.4659242300066018,-1.1506176475609589,2.420743227005005,-3.695575475692749,-2.1656250953674316,-0.36219996213912964,-0.5915956497192383,-0.7202956080436707,-0.02595311403274536,0.063961923122406,-0.36208653450012207
0.6496911836498714,-0.48136613013453633,-1.1572747328093682,-0.013283193111419678,-0.15336106717586517,-0.27763980627059937,-0.36866578459739685,-0.6049405336380005,-0.7057850956916809,0.33573734760284424,0.2099667191505432,-0.08764135837554932
0.6364823499557355,-0.4653245021362856,-1.1582480049065675,-2.313236713409424,3.1600701808929443,1.2741193771362305,-0.3608510494232178,-0.5943702459335327,-0.7186866998672485,0.44340115785598755,0.2986243963241577,0.21102678775787354
0.60140937967243,-0.4233007513988788,-1.1534520029885733,-3.4813458919525146,5.583763122558594,2.383671998977661,-0.3386976420879364,-0.5658051371574402,-0.7517635822296143,0.2768690586090088,0.3126159906387329,0.14277005195617676
0.5595400950535009,-0.3711176697170973,-1.1401133067347855,-3.1990087032318115,6.044259548187256,2.7875733375549316,-0.3073517680168152,-0.530796468257904,-0.7898038029670715,0.33954787254333496,0.20407521724700928,-0.30150479078292847
0.5259088318211016,-0.3241598028055926,-1.1213580626955257,-1.940774917602539,5.055478096008301,2.4536349773406982,-0.2754712700843811,-0.5019992589950562,-0.8198245763778687,0.1622968316078186,0.17347747087478638,-0.5470577478408813
0.5073478136346532,-0.29438591984344853,-1.102925063201299,-0.6850313544273376,2.525451421737671,1.6441575288772583,-0.2536035478115082,-0.4858608543872833,-0.8364355564117432,-0.062146514654159546,-0.0065402984619140625,-0.49204033613204956
0.501827158452519,-0.2902043969110616,-1.0934615457444128,0.06092989444732666,-0.7802154421806335,0.18118621408939362,-0.25086748600006104,-0.4810282289981842,-0.8400461077690125,-0.1841910481452942,-0.27605190873146057,0.14834994077682495
0.5073843923506827,-0.30876475708281476,-1.0991740292011734,0.7218955755233765,-3.350771903991699,-1.4164856672286987,-0.26559850573539734,-0.4858928322792053,-0.8326857686042786,-0.4157979488372803,-0.47989702224731445,0.7701400518417358
0.5246242771322677,-0.34304503622824595,-1.1164704960273462,1.5707515478134155,-5.020781517028809,-2.433103084564209,-0.2911204397678375,-0.5008878707885742,-0.8150829672813416,-0.4727191925048828,-0.5255250930786133,0.6539807319641113
0.550896975977846,-0.3840323535247875,-1.1366779535214078,1.9930152893066406,-5.020046234130859,-2.5315427780151367,-0.31923288106918335,-0.5234516859054565,-0.7899928689002991,-0.3511619567871094,-0.38839828968048096,0.1496882438659668
0.5763449634979807,-0.4205216802025571,-1.152377576703604,1.5070208311080933,-3.724158763885498,-1.830809473991394,-0.3422902226448059,-0.544963002204895,-0.7654101848602295,-0.07064306735992432,-0.14423078298568726,-0.20485037565231323
0.589653516355486,-0.4387838115140863,-1.1620594662176962,0.15631993114948273,-0.8479841351509094,-0.6812595725059509,-0.35309773683547974,-0.5560730695724487,-0.7523993253707886,0.010217517614364624,0.17113953828811646,-0.2708703279495239
0.5845455439089691,-0.42962057465628106,-1.1653612553277535,-1.2463611364364624,2.2241809368133545,0.5905388593673706,-0.34736716747283936,-0.5518204569816589,-0.7581756711006165,0.08693021535873413,0.25515902042388916,-0.31949156522750854
0.5654753253824873,-0.3980049012922341,-1.160834697843818,-1.7991880178451538,4.462528705596924,1.6006569862365723,-0.32724693417549133,-0.5358172059059143,-0.7783375978469849,0.12784510850906372,0.35675525665283203,-0.39448344707489014
0.5428273652504124,-0.3559767070543404,-1.1468663617986186,-1.4455825090408325,5.135501384735107,2.1868362426757812,-0.2984088361263275,-0.5165590047836304,-0.8025702834129333,0.2801135778427124,0.2747681140899658,-0.6334801316261292
0.5258849182068899,-0.3178881340609551,-1.1269742307339816,-0.5682615041732788,4.2947258949279785,2.0719568729400635,-0.27032795548439026,-0.5019785761833191,-0.8215475678443909,0.26633018255233765,0.18596899509429932,-0.5758675932884216
0.5198705955343762,-0.295600423243803,-1.108648351311641,0.34628450870513916,1.774157166481018,1.2043302059173584,-0.25282683968544006,-0.4967678487300873,-0.8302411437034607,0.09193819761276245,0.06041216850280762,-0.2102862000465393
0.5253651575633868,-0.2972607692125296,-1.1012507159398375,1.0614749193191528,-1.3338688611984253,-0.33719706535339355,-0.25340166687965393,-0.5015289783477783,-0.8271978497505188,-0.12564188241958618,-0.28089606761932373,0.4013403654098511
0.5421727500589874,-0.32111541430971097,-1.1081755269464493,1.7541887760162354,-4.046616554260254,-1.7513140439987183,-0.2703612148761749,-0.515998363494873,-0.812804102897644,-0.3690887987613678,-0.47034502029418945,0.8081044554710388
0.5673581625953409,-0.36005908246532853,-1.1250633849513945,1.901917815208435,-5.234060287475586,-2.5138754844665527,-0.2971278131008148,-0.5374060273170471,-0.7892463803291321,-0.442282497882843,-0.3784875273704529,0.5415351986885071
0.5915152898893713,-0.39884125242802476,-1.1453387204296914,1.2522900104522705,-4.5280256271362305,-2.2785024642944336,-0.32236871123313904,-0.5576195120811462,-0.7649437785148621,-0.4352301359176636,-0.19463884830474854,0.15512621402740479
0.6064135247758667,-0.42387653311345824,-1.1616056290015973,0.3867759704589844,-2.025589942932129,-1.2956418991088867,-0.3379616439342499,-0.5699241161346436,-0.7489782571792603,-0.26015233993530273,0.10457682609558105,-0.24209535121917725
0.6090317820004478,-0.4223755761330204,-1.1689286512787365,-0.3585970103740692,1.425668478012085,-0.013375097885727882,-0.336224228143692,-0.5720735788345337,-0.7481210231781006,-0.1661408245563507,0.3084169626235962,-0.8006307482719421
0.6032027301420019,-0.39840886776875456,-1.165464225682263,-0.36472228169441223,3.568122386932373,0.9451483488082886,-0.31948766112327576,-0.5672829151153564,-0.7590242028236389,0.07002174854278564,0.38667982816696167,-1.0486081838607788
0.598601478949582,-0.36609910258746564,-1.1508101961642403,0.4733574688434601,4.321365833282471,1.6035884618759155,-0.2957325577735901,-0.5634876489639282,-0.7713779211044312,0.18522846698760986,0.3152119517326355,-1.0724482536315918
0.6014424499476747,-0.3365300864348456,-1.127246072475199,1.3577028512954712,4.180867671966553,1.7707257270812988,-0.27226799726486206,-0.5658323764801025,-0.7782698273658752,0.30315184593200684,0.22621744871139526,-0.9330796599388123
0.6122185060464487,-0.3148469521211883,-1.1021312062761326,1.9616923332214355,2.7295403480529785,1.3748494386672974,-0.25342699885368347,-0.5746844410896301,-0.7781469225883484,0.29258111119270325,0.10402703285217285,-0.2707727551460266
0.6297523115332675,-0.31253465213713555,-1.0827902434646417,2.2785439491271973,-0.08892562985420227,0.49778422713279724,-0.24849028885364532,-0.5889446139335632,-0.7690232992172241,0.2316751629114151,-0.15399056673049927,0.5186876654624939
0.6508106618066106,-0.33210596717215335,-1.0744419595531018,2.0427086353302,-2.6701741218566895,-0.5494124293327332,-0.25939086079597473,-0.6058315634727478,-0.7521200180053711,0.1078101098537445,-0.4539371132850647,1.175368309020996
0.669376119629732,-0.3613779183136538,-1.0785649442159313,1.136398196220398,-3.454338550567627,-1.229956030845642,-0.2772676646709442,-0.6204968690872192,-0.7335573434829712,-0.0941007137298584,-0.5347155928611755,1.3468385934829712
0.6778840783278597,-0.3847848240799126,-1.0913315102114916,-0.33169546723365784,-2.635200262069702,-1.1405463218688965,-0.29236823320388794,-0.6271463632583618,-0.7219476103782654,-0.23808827996253967,-0.38551849126815796,1.0667505264282227
0.6710319469815524,-0.3930081559340033,-1.1063216706974202,-1.7527637481689453,-0.778445839881897,-0.4423251748085022,-0.2999337911605835,-0.6217945218086243,-0.7234717011451721,-0.20214137434959412,-0.187943696975708,0.6167517900466919
0.652150537587392,-0.38436718471958653,-1.1162716058581732,-2.1384716033935547,1.2218680381774902,0.4085142910480499,-0.2980208694934845,-0.6068969964981079,-0.7367900013923645,-0.16149753332138062,0.10265499353408813,-0.013011574745178223
0.6339397308677084,-0.364468843998531,-1.1160592940074057,-1.0796263217926025,2.720618963241577,0.8894098997116089,-0.28719431161880493,-0.5923236012458801,-0.7527763247489929,-0.14356130361557007,0.32404351234436035,-0.9213417172431946
0.6285876413472159,-0.3380678286687745,-1.1063349152427477,0.6231202483177185,3.525805950164795,0.9094600081443787,-0.2682700753211975,-0.5880029201507568,-0.7630751729011536,-0.14899671077728271,0.35860222578048706,-1.5345932245254517
0.6382944127654886,-0.31514949709555234,-1.0918992451941327,1.838902235031128,2.5262160301208496,0.6423448324203491,-0.24893184006214142,-0.5958265066146851,-0.763559877872467,-0.02044677734375,0.23423898220062256,-1.2590688467025757
0.6562437939528155,-0.30624703187808183,-1.0790817860173374,2.073195695877075,0.8003541231155396,0.19989651441574097,-0.23886139690876007,-0.6101451516151428,-0.755425751209259,0.13615453243255615,0.029807567596435547,-0.11548483371734619
0.6742001674306135,-0.3114073638356178,-1.0721156850402636,1.6153074502944946,-1.0226999521255493,-0.23348946869373322,-0.23936060070991516,-0.6242727041244507,-0.7436330914497375,0.37391263246536255,-0.2494761347770691,0.985988438129425
0.687181544865069,-0.3307635898556342,-1.072018642337347,0.8045107126235962,-2.712796926498413,-0.5434955954551697,-0.25105559825897217,-0.6343609094619751,-0.7311342358589172,0.49513524770736694,-0.3932880163192749,1.6000460386276245
0.6914332769713661,-0.35683337949358523,-1.0786462997189326,-0.41596493124961853,-3.1533706188201904,-0.6611313819885254,-0.269084095954895,-0.637641966342926,-0.7218078374862671,0.3790237307548523,-0.37166595458984375,1.6318572759628296
0.6825440864200469,-0.3765467860569833,-1.0914679284500708,-1.9307901859283447,-2.261396884918213,-0.5102891325950623,-0.28533318638801575,-0.6307691931724548,-0.7216060161590576,-0.0014709532260894775,-0.27093374729156494,1.1981227397918701
0.6619334277007087,-0.3819682246106026,-1.1070513516253397,-2.601896286010742,-0.7260572910308838,-0.20526111125946045,-0.2940253019332886,-0.6146430969238281,-0.7319583892822266,-0.33373650908470154,0.00452035665512085,0.48264503479003906
0.6410698423612987,-0.3741185403468006,-1.1181563697227541,-1.7466650009155273,0.9590432643890381,0.10310310125350952,-0.2928939759731293,-0.5980532169342041,-0.746019721031189,-0.5254348516464233,0.3098299503326416,-0.7432685494422913
0.6316236779577741,-0.35558107521247856,-1.120108850474646,-0.0929984450340271,2.466073513031006,0.25547608733177185,-0.28096938133239746,-0.590455949306488,-0.7565830945968628,-0.5927945971488953,0.46667665243148804,-1.8677759170532227
0.6373658667695906,-0.3285780377489057,-1.1139944253505112,1.4269616603851318,3.4910240173339844,0.2966781258583069,-0.2593410015106201,-0.595080554485321,-0.7606717348098755,-0.4564487338066101,0.5426665544509888,-2.000864028930664
0.6537115999730974,-0.30301864643182147,-1.103344407978871,2.0610790252685547,2.6537508964538574,0.28145846724510193,-0.23688164353370667,-0.6081369519233704,-0.75766521692276,-0.013438776135444641,0.3536508083343506,-1.2477822303771973
0.6717224521764752,-0.2905119740803466,-1.093784864421496,1.7115147113800049,1.0254770517349243,0.10719237476587296,-0.2242133468389511,-0.6223351359367371,-0.7499516010284424,0.3314216136932373,0.056707024574279785,0.12934613227844238
0.6838818909642457,-0.29038950762899707,-1.0883786041551675,0.8176999092102051,-0.3040880560874939,0.013894161209464073,-0.22193829715251923,-0.6318067312240601,-0.7426733374595642,0.5769340991973877,-0.2604967951774597,1.306760311126709
0.6871481486384352,-0.301853451592743,-1.0878393160242374,-0.1694180965423584,-1.9936368465423584,-0.14231754839420319,-0.22982275485992432,-0.6343351006507874,-0.7381060123443604,0.6953532099723816,-0.45062583684921265,1.8209612369537354
0.6815042583281827,-0.32550875786347844,-1.0939163895161674,-1.2078266143798828,-3.3086018562316895,-0.39413216710090637,-0.248357892036438,-0.6299619674682617,-0.7358438968658447,0.47411173582077026,-0.4424257278442383,1.8612253665924072
0.6668327485179883,-0.350406261328386,-1.106757853828689,-2.176429271697998,-3.0207951068878174,-0.49513867497444153,-0.2697436511516571,-0.618500292301178,-0.7380350828170776,-0.03260922431945801,-0.3423457145690918,1.3270243406295776
0.6463324777904025,-0.36253507998515005,-1.122773896997917,-2.3853020668029785,-1.2344896793365479,-0.42294034361839294,-0.28311294317245483,-0.6022626757621765,-0.7464092969894409,-0.5004410743713379,-0.08130061626434326,0.20324218273162842
0.6293999549379811,-0.35715944552928197,-1.134812859636197,-1.314133882522583,0.844989538192749,-0.15939845144748688,-0.2826215624809265,-0.5886598229408264,-0.7573670148849487,-0.7443253993988037,0.30248117446899414,-1.1354399919509888
0.624746275036326,-0.33964384282634447,-1.1367619868381957,0.33390307426452637,2.340939521789551,0.1775059849023819,-0.27022287249565125,-0.5848914980888367,-0.7647755146026611,-0.7468822002410889,0.5770636796951294,-2.1484782695770264
0.633689621472084,-0.3152380799573827,-1.1290572889163177,1.6816234588623047,3.3235933780670166,0.41444796323776245,-0.24984748661518097,-0.5921220779418945,-0.7661381959915161,-0.46726980805397034,0.6543626189231873,-2.181356430053711
0.6518863111320337,-0.29115066836805553,-1.1158358597845175,2.2902419567108154,2.8375771045684814,0.49385690689086914,-0.22819146513938904,-0.6066870093345642,-0.7614850997924805,-0.019657015800476074,0.45538079738616943,-1.367131233215332
0.671649297358308,-0.27850821254351593,-1.1031818701655318,1.946813941001892,1.1893984079360962,0.2734944522380829,-0.21520768105983734,-0.6222779154777527,-0.7526326179504395,0.3672615885734558,0.09060066938400269,-0.010474622249603271
0.6859767461746692,-0.2786465811444298,-1.0964842864127395,1.0473439693450928,-0.34050554037094116,-0.04018257558345795,-0.21283751726150513,-0.6334291100502014,-0.7439541816711426,0.5527728796005249,-0.29375600814819336,1.3066372871398926
0.6916803781358762,-0.28905567031871277,-1.0961079080849079,0.0688755139708519,-1.6716784238815308,-0.1934530884027481,-0.21953630447387695,-0.6378322839736938,-0.7382233738899231,0.624718189239502,-0.5376743674278259,1.9202455282211304
0.6879982003477781,-0.3083546418653166,-1.100190159527611,-0.9822067618370056,-2.5835306644439697,-0.16247974336147308,-0.23445269465446472,-0.6349920034408569,-0.7360821962356567,0.5373854637145996,-0.4672418236732483,1.8845350742340088
0.6736618731492903,-0.3295562732439044,-1.1073569671565158,-2.033586025238037,-2.361631155014038,0.013207118958234787,-0.2529252767562866,-0.6238520741462708,-0.7394845485687256,0.20080134272575378,-0.30128830671310425,1.378812551498413
0.6524459027423604,-0.3395504113349956,-1.115846060082377,-2.2393500804901123,-0.496524840593338,0.09972395747900009,-0.26465243101119995,-0.6071317195892334,-0.749233067035675,-0.3071401119232178,-0.0543520450592041,0.3485373258590698
0.6351226632091072,-0.32965478305558105,-1.1224070596939832,-1.2609002590179443,1.5752496719360352,0.047510549426078796,-0.26059138774871826,-0.5932762622833252,-0.7616530656814575,-0.7478314638137817,0.23742598295211792,-1.086582899093628
0.6295329025166646,-0.30713050945208376,-1.1243299352516893,0.10366322845220566,2.5629055500030518,0.024316541850566864,-0.24436983466148376,-0.5887672901153564,-0.7704781293869019,-0.8748623132705688,0.3897315263748169,-1.9692832231521606
0.6365008004256492,-0.2814758108194142,-1.1211670542722467,1.336138129234314,2.839114189147949,0.06579367816448212,-0.2233802080154419,-0.5943850874900818,-0.7725332975387573,-0.6209801435470581,0.4326876401901245,-1.8036690950393677
0.653041364218501,-0.26034428710617574,-1.1144416976966176,2.021209955215454,2.018294334411621,0.07735367119312286,-0.20444777607917786,-0.6076048016548157,-0.7674747705459595,-0.10968483984470367,0.2804868817329407,-1.0539515018463135
0.6725165188399228,-0.2511391479774586,-1.1075085023819897,1.9253909587860107,0.6963344216346741,-0.0023717861622571945,-0.19439662992954254,-0.6229565143585205,-0.7577170729637146,0.2930905222892761,-0.016188442707061768,0.07795333862304688
0.6883064699779649,-0.2529309425178587,-1.10240607593743,1.2607368230819702,-0.37894973158836365,-0.007128439377993345,-0.19326817989349365,-0.6352301239967346,-0.7477499842643738,0.5388645529747009,-0.28698062896728516,1.085411787033081
0.6953492804087759,-0.2616589332381854,-1.0999517865411108,0.13879506289958954,-0.9824771881103516,0.02068295143544674,-0.1986248642206192,-0.640653669834137,-0.7416947484016418,0.5894330143928528,-0.4093189239501953,1.5415147542953491
0.6894784119205432,-0.2722557793051682,-1.1017701757765697,-1.371256709098816,-1.3453521728515625,0.005616890732198954,-0.2074810266494751,-0.6361348032951355,-0.743158221244812,0.4049908220767975,-0.4016460180282593,1.6230106353759766
0.670330018425902,-0.2797692858362948,-1.1099931643842922,-2.534207344055176,-1.0277518033981323,-0.2114104926586151,-0.21638314425945282,-0.6212446093559265,-0.7531490325927734,-0.07647876441478729,-0.270555317401886,1.288228988647461
0.646742928371524,-0.27651127470226883,-1.1225459554737878,-2.315847873687744,0.1770005226135254,-0.3548857569694519,-0.21786873042583466,-0.6025903224945068,-0.7677357196807861,-0.6769065856933594,-0.0059760212898254395,0.2386067509651184
0.6321418139532717,-0.2643221531286326,-1.1310481164174577,-0.7697765231132507,1.1802042722702026,-0.13775476813316345,-0.2107710987329483,-0.5908740758895874,-0.7787447571754456,-0.7679275870323181,0.16802245378494263,-1.2602871656417847
0.632977001099395,-0.24991010786172796,-1.130734920664135,0.9051820039749146,1.6864879131317139,0.1263793557882309,-0.19940418004989624,-0.5915476679801941,-0.7812229990959167,-0.518033504486084,0.2687784433364868,-1.988018274307251
0.6477730224555868,-0.23535609639632504,-1.1237126618036029,2.154930830001831,1.9784843921661377,0.2457377165555954,-0.18595203757286072,-0.6034120321273804,-0.7754455804824829,-0.2336035668849945,0.3729127049446106,-1.616064429283142
0.6706560641093975,-0.22531161582260772,-1.1129631848204593,2.5414445400238037,1.190553069114685,0.36440035700798035,-0.17502263188362122,-0.6215000748634338,-0.7636129260063171,0.1595502644777298,0.17377662658691406,-0.7023751735687256
0.692342862628915,-0.22759044003078102,-1.1014212382901778,1.9712696075439453,-0.22254760563373566,0.3749683201313019,-0.17367985844612122,-0.6383423805236816,-0.7499029040336609,0.493870347738266,-0.11585390567779541,0.5288641452789307
0.7055381916772535,-0.24145572137998425,-1.0942826358527769,0.7821201682090759,-1.6161571741104126,0.037198737263679504,-0.18203037977218628,-0.6484436392784119,-0.7391791939735413,0.5894858837127686,-0.3072601556777954,1.561124324798584
0.7065029234184745,-0.26077742566243,-1.0967346308019432,-0.713049590587616,-2.4125733375549316,-0.42194485664367676,-0.19611632823944092,-0.6491777300834656,-0.7349194884300232,0.2764691710472107,-0.3758009672164917,1.935938835144043
0.694097275769513,-0.2767170592458338,-1.108531700067941,-2.097834825515747,-2.146578788757324,-0.6089270710945129,-0.20998941361904144,-0.6396918296813965,-0.7393908500671387,-0.1561298966407776,-0.308992862701416,1.5871233940124512
0.6722257671357826,-0.28233841128623727,-1.12440878305745,-2.608489513397217,-0.9105295538902283,-0.5035308599472046,-0.21798886358737946,-0.6227290630340576,-0.7514582276344299,-0.49496275186538696,-0.09319818019866943,0.6153651475906372
0.6514045820847335,-0.2772532303166471,-1.1366985065714923,-1.7603718042373657,0.4192315340042114,-0.18396058678627014,-0.21766705811023712,-0.6063039898872375,-0.7648637890815735,-0.6234431266784668,0.20454001426696777,-0.7293073534965515
0.6422560400523317,-0.26440551309374427,-1.1399508525615727,-0.08861906081438065,1.7092896699905396,0.16645734012126923,-0.20926345884799957,-0.5990034937858582,-0.7729189395904541,-0.5160019993782043,0.3728986978530884,-1.7719876766204834
0.6486551352117679,-0.24719880666968969,-1.13440765753584,1.4787148237228394,2.2578704357147217,0.34344378113746643,-0.1949918270111084,-0.6041152477264404,-0.7726725935935974,-0.20631426572799683,0.40994709730148315,-1.8766651153564453
0.6663200578554113,-0.23394704517089257,-1.1242985618447392,2.184943199157715,1.443852186203003,0.35238638520240784,-0.18223313987255096,-0.6180973649024963,-0.7646872997283936,0.12356315553188324,0.24828535318374634,-1.1326210498809814
0.686247328256462,-0.23306246121716678,-1.1141521399308696,1.9451922178268433,0.010168676264584064,0.2648742198944092,-0.1786760836839676,-0.6336385011672974,-0.7527132034301758,0.37990903854370117,-0.002820909023284912,0.13619714975357056
0.7010169605304593,-0.24380154694266662,-1.1069542285521197,1.1177502870559692,-1.1935582160949707,0.09756672382354736,-0.18446968495845795,-0.6449951529502869,-0.7415876388549805,0.5954805016517639,-0.23206478357315063,1.2380475997924805
0.7059225507902289,-0.26091581828987526,-1.1054905479223058,-0.16403433680534363,-1.9673280715942383,-0.11465124040842056,-0.19631518423557281,-0.6487361788749695,-0.7352561950683594,0.5735430121421814,-0.373160183429718,1.7232475280761719
0.6976170987401931,-0.27887760975264425,-1.1110331388092043,-1.65262770652771,-2.2548210620880127,-0.24395224452018738,-0.21096527576446533,-0.6423932909965515,-0.7367662191390991,0.2678806185722351,-0.346238911151886,1.7101855278015137
0.6774722411281906,-0.29130366654749723,-1.1226525777970255,-2.561256170272827,-1.5114046335220337,-0.33033913373947144,-0.22377561032772064,-0.6268255114555359,-0.7463338971138,-0.22101804614067078,-0.1289423704147339,1.1143759489059448
0.6558005659003053,-0.290409381869446,-1.135113812380027,-1.9420011043548584,0.18107275664806366,-0.2642112374305725,-0.2269451916217804,-0.6097939610481262,-0.759372889995575,-0.6539599299430847,0.15526509284973145,-0.20782065391540527
0.6448567669773483,-0.27833227931632715,-1.140989424476517,-0.3843536376953125,1.4136377573013306,-0.004659323487430811,-0.2195783108472824,-0.6010839939117432,-0.7684292197227478,-0.6545366644859314,0.3102666735649109,-1.651904582977295
0.6481565654062166,-0.26229152358325697,-1.1382885143093167,1.092780351638794,2.0466115474700928,0.23753014206886292,-0.20670898258686066,-0.6037178635597229,-0.7699325680732727,-0.44708430767059326,0.3913612365722656,-1.9855759143829346
0.6630570610013619,-0.24761196172439148,-1.1293525362830863,2.0295257568359375,1.816255807876587,0.36067554354667664,-0.19315849244594574,-0.6155290603637695,-0.7640771269798279,-0.07330569624900818,0.36957257986068726,-1.3813848495483398
0.6825303891538163,-0.24032389035304771,-1.1187952828709589,2.02839732170105,0.9518226981163025,0.2847490906715393,-0.18469640612602234,-0.6307585835456848,-0.7536782622337341,0.2572519779205322,0.11911606788635254,-0.37664705514907837
0.6988294884084156,-0.23991104752539705,-1.110542023829433,1.367870569229126,0.1805269718170166,0.17101030051708221,-0.1819179803133011,-0.6433219909667969,-0.7436684370040894,0.42993438243865967,-0.1385994553565979,0.6961220502853394
0.7072297176217006,-0.24437276848458261,-1.1066308975720465,0.3664487302303314,-0.5764192938804626,-0.0012522742617875338,-0.18392017483711243,-0.649730384349823,-0.7375797033309937,0.5213378071784973,-0.2918590307235718,1.3162082433700562
0.7050767179446926,-0.25191556383472735,-1.1084347963738403,-0.8599005341529846,-1.073757529258728,-0.15110722184181213,-0.18982654809951782,-0.6480922698974609,-0.7375244498252869,0.3815532624721527,-0.3334904909133911,1.4954133033752441
0.6918820353762386,-0.25742529855197366,-1.1153277520815394,-1.8829104900360107,-0.8126181364059448,-0.1834758222103119,-0.1960473656654358,-0.6379875540733337,-0.7446726560592651,0.10249578952789307,-0.27015459537506104,1.2809275388717651
0.6723337752383034,-0.2564562328628234,-1.123926403671566,-2.100116491317749,-0.050144925713539124,-0.09733900427818298,-0.19845157861709595,-0.6228135824203491,-0.7567828297615051,-0.15854300558567047,-0.08411097526550293,0.5466693639755249
0.6551883901901204,-0.249677493610127,-1.1298161208134114,-1.3424746990203857,0.6404452323913574,0.061139047145843506,-0.19592702388763428,-0.609308660030365,-0.7683460116386414,-0.29832038283348083,0.07642590999603271,-0.45604968070983887
0.6473413066063857,-0.2409280523121409,-1.130808685783713,-0.22188803553581238,0.9239298701286316,0.1528705358505249,-0.19033199548721313,-0.6030677556991577,-0.7746502757072449,-0.2980254888534546,0.13796454668045044,-1.1371080875396729
0.6491447287552031,-0.23325111581294153,-1.1282650787410116,0.6159749031066895,0.9095264673233032,0.15046650171279907,-0.1841278374195099,-0.6045053005218506,-0.7750292420387268,-0.26637259125709534,0.1865670084953308,-1.1057385206222534
0.656818447565786,-0.22611200829198236,-1.1242287723224869,0.9488828778266907,1.039257287979126,0.12946945428848267,-0.1775449514389038,-0.6106003522872925,-0.7717804312705994,-0.2447420060634613,0.1835220456123352,-0.7540068626403809
0.6655532037262324,-0.2167611006614064,-1.1197391203122542,0.8688942790031433,1.3728965520858765,0.19074666500091553,-0.16916689276695251,-0.6174943447113037,-0.7681687474250793,-0.1609569638967514,0.12387251853942871,-0.3902631998062134
0.6725682277416991,-0.20503328016059527,-1.114440485981276,0.6680930852890015,1.6020047664642334,0.32838234305381775,-0.15926066040992737,-0.622996985912323,-0.7658399939537048,0.0006303191184997559,0.07924997806549072,-0.07765060663223267
0.6775221184677096,-0.19273589039972186,-1.1081246706412489,0.49215593934059143,1.595232367515564,0.4267347455024719,-0.14923803508281708,-0.6268643736839294,-0.7647019624710083,0.17308758199214935,0.002138972282409668,0.1362992525100708
0.6807180817797958,-0.18198853350933958,-1.1017892105341651,0.31577596068382263,1.3250023126602173,0.4016408622264862,-0.1406477391719818,-0.6293511986732483,-0.7642874717712402,0.2398604154586792,-0.09888982772827148,0.28337621688842773
0.6824191221251379,-0.17289765583144556,-1.0970352597538118,0.14930230379104614,1.0956010818481445,0.25375819206237793,-0.13350960612297058,-0.6306722164154053,-0.7644787430763245,0.15720653533935547,-0.1462748646736145,0.35069096088409424
0.6828850473936676,-0.16388240132823279,-1.094940447043397,-0.0004340275190770626,0.9843022227287292,0.039603132754564285,-0.12656433880329132,-0.631033718585968,-0.7653612494468689,0.02263680100440979,-0.13823819160461426,0.30196714401245117
0.6824387617729234,-0.15339140628759415,-1.0959971321339859,-0.10965558886528015,0.9861949682235718,-0.18203258514404297,-0.11857113987207413,-0.6306874752044678,-0.7669251561164856,-0.1210070475935936,-0.116291344165802,0.18228471279144287
0.6813892858943413,-0.14100804322285962,-1.0995362992343691,-0.1758541762828827,1.035304069519043,-0.31693336367607117,-0.10915815085172653,-0.6298726797103882,-0.7689895629882812,-0.22040113806724548,-0.07871502637863159,0.06856542825698853
0.6798488865792655,-0.1274574286328204,-1.1042264974642186,-0.21881575882434845,1.0729210376739502,-0.34848541021347046,-0.09885138273239136,-0.6286755204200745,-0.7713595628738403,-0.20180773735046387,-0.019578933715820312,0.020062565803527832
0.6779343621465548,-0.11378319437465115,-1.1087358013242457,-0.24220676720142365,1.082078456878662,-0.2942174971103668,-0.08843120187520981,-0.6271855235099792,-0.7738335132598877,-0.14434155821800232,0.006991982460021973,0.018492937088012695
0.6757713083072218,-0.10081718237906806,-1.1124720588121677,-0.24479642510414124,1.028525471687317,-0.23883384466171265,-0.07852687686681747,-0.6254993081092834,-0.7762629389762878,-0.09594208002090454,-0.002125263214111328,0.015352964401245117
0.6735682324230816,-0.08877866632571041,-1.1156705388680592,-0.24026983976364136,0.9859274625778198,-0.22010847926139832,-0.06929837167263031,-0.6237788796424866,-0.778522789478302,-0.07651457190513611,-0.007767200469970703,0.018116354942321777
0.6712932760282361,-0.07671183430094852,-1.1187105129545187,-0.2560807466506958,1.0607174634933472,-0.20943158864974976,-0.06000784784555435,-0.6219991445541382,-0.7807151675224304,-0.06036868691444397,-0.004709839820861816,0.034056901931762695
0.6688052519746669,-0.06369412203768346,-1.1213790712994083,-0.2744108736515045,1.2035822868347168,-0.16708683967590332,-0.049938272684812546,-0.6200490593910217,-0.7829720973968506,-0.021625399589538574,0.0004658699035644531,0.05705052614212036
0.665780401718505,-0.04987167966333869,-1.1233321450895617,-0.3627987802028656,1.289915680885315,-0.10471587628126144,-0.03920457884669304,-0.6176730394363403,-0.785457193851471,0.01662161946296692,0.008725225925445557,0.07807505130767822
0.6614790073474192,-0.037541571188527655,-1.1243584679891943,-0.49066829681396484,1.0403800010681152,-0.012880094349384308,-0.029616516083478928,-0.6142845749855042,-0.788528561592102,0.0646049976348877,-0.00827401876449585,0.16981524229049683
0.65635726164152,-0.026466180177086185,-1.1241453506369679,-0.5308048129081726,1.2303472757339478,0.06760116666555405,-0.020964600145816803,-0.6102350354194641,-0.7919429540634155,0.06178191304206848,-0.015177011489868164,0.0994686484336853
0.6505898291729201,-0.013797819200849755,-1.1233890229319101,-0.620313823223114,1.3684189319610596,0.06847093254327774,-0.010978945530951023,-0.60565584897995,-0.7956510186195374,-0.017356544733047485,-0.011791110038757324,0.041836321353912354
0.6440443825007977,3.8159783997218184e-05,-1.1228678171744868,-0.6785773634910583,1.4466463327407837,0.018523083999753,3.0515384423779324e-05,-0.6004345417022705,-0.7996739149093628,-0.049804627895355225,-0.025481045246124268,0.02852529287338257
0.6371424383017745,0.014559457975004127,-1.1231353815662137,-0.7025523781776428,1.386860966682434,-0.07670538872480392,0.011702464893460274,-0.5949009656906128,-0.803713858127594,-0.07133376598358154,-0.030480563640594482,0.0051757097244262695
0.6300377683827765,0.028195647994475614,-1.1246350108852583,-0.7037947773933411,1.1440582275390625,-0.1952695995569229,0.02277921326458454,-0.589175283908844,-0.807684063911438,-0.09330528974533081,-0.03820514678955078,0.0018979907035827637
0.6232507557601907,0.04023615550596366,-1.1273601312955523,-0.6229841709136963,0.9559028148651123,-0.2785804271697998,0.03266235440969467,-0.5836778283119202,-0.8113281726837158,-0.0948266088962555,-0.02687215805053711,-0.03057551383972168
0.6175495009776519,0.0512718084738796,-1.130590106162042,-0.48695069551467896,0.8811017870903015,-0.28822240233421326,0.04178358614444733,-0.5790390372276306,-0.8142284750938416,-0.058369845151901245,0.00376737117767334,-0.09447818994522095
0.6132076304731998,0.06176378937935747,-1.1336459308739966,-0.35471269488334656,0.8558180928230286,-0.25465279817581177,0.05047870799899101,-0.5754936337471008,-0.8162469267845154,-0.01445266604423523,0.007164716720581055,-0.14781862497329712
0.6099970025731477,0.07172338245700037,-1.13639035245785,-0.2595504820346832,0.8085182309150696,-0.23727303743362427,0.05873766168951988,-0.5728650093078613,-0.8175424337387085,-0.004355281591415405,-0.030620157718658447,-0.1628652811050415
0.6075650745696831,0.0812992612152814,-1.139099066379872,-0.19311077892780304,0.8036406636238098,-0.24455668032169342,0.06667648255825043,-0.5708699822425842,-0.8183286190032959,0.009831130504608154,-0.06288862228393555,-0.17555254697799683
0.6055206525774419,0.09160549108714741,-1.1421885646056362,-0.17662395536899567,0.9153437614440918,-0.2977408170700073,0.07521327584981918,-0.569190263748169,-0.818758487701416,-0.003756314516067505,-0.0812615156173706,-0.1734289526939392
0.60331287419818,0.10398866576772646,-1.1460155911298702,-0.20489884912967682,1.1319177150726318,-0.36419323086738586,0.08547631651163101,-0.5673735737800598,-0.8190122246742249,-0.025692328810691833,-0.09304213523864746,-0.15184342861175537
0.6005116632849181,0.11908758082922412,-1.1501503739396193,-0.27851447463035583,1.4081112146377563,-0.36348986625671387,0.09802073240280151,-0.5650646686553955,-0.8192031979560852,-0.02209293842315674,-0.08807253837585449,-0.1064407229423523
0.5967978815322271,0.13587042693130508,-1.1535935470387182,-0.3861049711704254,1.5215585231781006,-0.28566715121269226,0.11203832924365997,-0.5619967579841614,-0.8195163607597351,0.013236403465270996,-0.0511167049407959,-0.027987241744995117
0.5922180485539029,0.1521034623348918,-1.1555875514685061,-0.46178269386291504,1.4778310060501099,-0.16569094359874725,0.12571489810943604,-0.5582027435302734,-0.8201253414154053,0.054598286747932434,-0.025034010410308838,0.020442724227905273
0.5875198424341692,0.1664943170671276,-1.1557516390155986,-0.4506103992462158,1.365002989768982,-0.006722673308104277,0.13793687522411346,-0.554298460483551,-0.8208085894584656,0.08482624590396881,-0.04308319091796875,0.011207759380340576
0.5835863206758194,0.17829031424935446,-1.1538776088170262,-0.37297579646110535,1.1839618682861328,0.1793217658996582,0.14799484610557556,-0.5510202050209045,-0.8212637901306152,0.1230623722076416,-0.07349151372909546,-0.02092975378036499
0.5808324499378299,0.1869008096777185,-1.1500408405335287,-0.28365859389305115,0.9491488933563232,0.34292078018188477,0.15534213185310364,-0.5487200617790222,-0.8214470148086548,0.14820101857185364,-0.08104074001312256,-0.038706183433532715
0.5793173319646634,0.19248443071808136,-1.1447277862377299,-0.18114180862903595,0.7536361217498779,0.46272867918014526,0.16008518636226654,-0.5474528074264526,-0.8213818669319153,0.13320404291152954,-0.06697291135787964,-0.04075491428375244
0.5790690645841942,0.19609581939494952,-1.138610449293012,-0.06114139035344124,0.6431854367256165,0.5192236304283142,0.16307693719863892,-0.5472450256347656,-0.8209316730499268,0.10292957723140717,-0.046398162841796875,-0.03954190015792847
0.5801224504608035,0.19902388890615125,-1.1326157421482224,0.0720805749297142,0.5959287285804749,0.49170413613319397,0.16536593437194824,-0.5481263399124146,-0.8198851346969604,0.07068760693073273,-0.038574159145355225,-0.038574278354644775
0.5822974000456109,0.20182718408933065,-1.1275718777054033,0.18045999109745026,0.506281852722168,0.41208675503730774,0.167424276471138,-0.5499441623687744,-0.818248450756073,0.032740578055381775,-0.04057103395462036,-0.030582666397094727
0.5852302282915739,0.20412857815241178,-1.1238178091646651,0.2658023238182068,0.3621097505092621,0.3215145170688629,0.16897925734519958,-0.5523912906646729,-0.8162780404090881,0.008907750248908997,-0.034156620502471924,-0.01657712459564209
0.5889553508727495,0.20575359967262316,-1.1211908604831569,0.3754425644874573,0.25919824838638306,0.26275014877319336,0.16988392174243927,-0.5554926991462708,-0.8139824271202087,0.0054090917110443115,-0.017215490341186523,-0.020551204681396484
0.5938231764831609,0.2069980064985453,-1.1193215248386024,0.5104213953018188,0.19651567935943604,0.240543395280838,0.1703389585018158,-0.5595337748527527,-0.8111144304275513,0.01966354250907898,-0.0010588765144348145,-0.042553722858428955
0.5999671263805372,0.20789346690759145,-1.1180066403886433,0.637423038482666,0.12741532921791077,0.22659002244472504,0.17035242915153503,-0.5646153688430786,-0.8075825572013855,0.02738627791404724,0.009698867797851562,-0.05243325233459473
0.6071380685182121,0.2084206133787047,-1.1171490939178021,0.7290570735931396,0.07953380793333054,0.20833857357501984,0.16993598639965057,-0.5705193281173706,-0.8035107254981995,0.0266583114862442,0.01424485445022583,-0.04306209087371826
0.6149314997568016,0.20884679317916124,-1.1166482053789055,0.7683025598526001,0.06462240219116211,0.19096365571022034,0.16935138404369354,-0.5769025683403015,-0.7990641593933105,0.03305652737617493,0.01968204975128174,-0.024834096431732178
0.6228984194116791,0.20939070906002896,-1.1165072083778185,0.7765780687332153,0.061534732580184937,0.1611272096633911,0.16882523894309998,-0.5833916664123535,-0.7944509387016296,0.026472076773643494,0.02336353063583374,-0.012098133563995361
0.6308517612012843,0.2102860888300667,-1.116767599884406,0.7795673608779907,0.09467761218547821,0.12972500920295715,0.1685626059770584,-0.5898327827453613,-0.7897366285324097,0.015488967299461365,0.025288045406341553,-0.008069097995758057
0.6387842319410854,0.2117923485380133,-1.1173664406336414,0.7792760133743286,0.12985318899154663,0.10892866551876068,0.16876308619976044,-0.5962198376655579,-0.7848827838897705,0.01882852613925934,0.031736135482788086,-0.002440214157104492
0.6464647659410397,0.21353808980946012,-1.118130186336756,0.7364550232887268,0.12173386663198471,0.09598223119974136,0.16915757954120636,-0.6023682951927185,-0.7800885438919067,0.018708691000938416,0.032437264919281006,0.004362285137176514
0.6535216680713585,0.2151854168297076,-1.1188146472861862,0.6618747711181641,0.12676964700222015,0.09967843443155289,0.1695304960012436,-0.6079862117767334,-0.775636613368988,0.009088948369026184,0.023147284984588623,0.011568129062652588
0.6599181416938155,0.21677401377696218,-1.1190764397775768,0.595755934715271,0.16238264739513397,0.13630624115467072,0.16992253065109253,-0.6130521893501282,-0.771552562713623,0.023345351219177246,0.022674381732940674,0.021949350833892822
0.6659667478678628,0.2183499042611531,-1.1186490504255286,0.5749773979187012,0.201458141207695,0.19182169437408447,0.17033183574676514,-0.617819607257843,-0.7676496505737305,0.05076809227466583,0.030203580856323242,0.032176077365875244
0.672158329502911,0.21955054920102993,-1.1175917794708259,0.6011451482772827,0.14717082679271698,0.23393698036670685,0.17041699588298798,-0.6226763129234314,-0.7636964917182922,0.0656975507736206,0.036372482776641846,0.02352321147918701
0.6788510989534264,0.2195054409224391,-1.1162313162896187,0.663958728313446,0.017691126093268394,0.25805485248565674,0.16947129368782043,-0.6278992295265198,-0.7596196532249451,0.045128390192985535,0.028747618198394775,-0.014824867248535156
0.6864681991286257,0.21887440277262066,-1.1149329230255522,0.7749773859977722,0.048270873725414276,0.2673910856246948,0.16794852912425995,-0.6338093280792236,-0.7550358176231384,0.014867082238197327,0.013524293899536133,-0.0581965446472168
0.6951267400977386,0.2193351460596676,-1.1138992442902536,0.8695332407951355,0.1744823306798935,0.26049721240997314,0.16709603369235992,-0.6404827833175659,-0.7495737075805664,-0.0027283281087875366,0.009318232536315918,-0.07270711660385132
0.7043605245182881,0.22115257503960398,-1.1132100747866425,0.8908958435058594,0.27017343044281006,0.23959511518478394,0.16715361177921295,-0.647546648979187,-0.7434669137001038,-0.020058825612068176,0.012674152851104736,-0.05285876989364624
0.7133976916989098,0.22411770018579652,-1.1128834665783576,0.8492906093597412,0.3718007206916809,0.20625953376293182,0.1680498719215393,-0.6544066667556763,-0.7372320890426636,-0.043263450264930725,-0.00019538402557373047,-0.03208547830581665
0.7217559829849828,0.22851152157180996,-1.1127705583104115,0.7659033536911011,0.5177652835845947,0.18489286303520203,0.170042484998703,-0.6607038378715515,-0.7311334013938904,-0.04752962291240692,-0.011156022548675537,-0.0038671493530273438
0.7291286272358457,0.23410042856799881,-1.1126176593553565,0.6570826172828674,0.6031670570373535,0.17181994020938873,0.17299138009548187,-0.6662200689315796,-0.7254135608673096,-0.0383935421705246,-0.00667726993560791,0.043574631214141846
0.7354674195204491,0.24003200849676565,-1.1123122193837056,0.5616490244865417,0.6157434582710266,0.16749098896980286,0.17628365755081177,-0.6709338426589966,-0.7202582359313965,-0.0337359756231308,-0.009013175964355469,0.07470470666885376
0.7409740669874189,0.2459196195820436,-1.1117896573229693,0.4873145818710327,0.6293074488639832,0.17012858390808105,0.17961899936199188,-0.6750069260597229,-0.7156135439872742,-0.0217362642288208,-0.02119070291519165,0.08058857917785645
0.7459573898395075,0.2518558918046537,-1.1110189504491816,0.4480155110359192,0.6571387648582458,0.18456120789051056,0.1830233484506607,-0.6786752939224243,-0.7112681865692139,-0.01146872341632843,-0.030751705169677734,0.07979851961135864
0.7506597625796315,0.25781557846646735,-1.1099960258841701,0.4217143952846527,0.6669306755065918,0.19593077898025513,0.1864432394504547,-0.6821213364601135,-0.70707106590271,-0.01142488420009613,-0.02968597412109375,0.08313918113708496
0.7551774780275905,0.2637499850143225,-1.1088193592292386,0.40432748198509216,0.6755830645561218,0.19815731048583984,0.18983064591884613,-0.685417890548706,-0.7029699087142944,-0.012676060199737549,-0.019507646560668945,0.09605163335800171
0.7594909369293272,0.26961150024541725,-1.1077442369544257,0.37730303406715393,0.6243910193443298,0.17592018842697144,0.19315853714942932,-0.6885523796081543,-0.6989889144897461,-0.015637725591659546,-0.012451708316802979,0.1133871078491211
0.7633131978503281,0.2745334602249725,-1.106935438436835,0.3234196901321411,0.461417555809021,0.1424379050731659,0.1958816647529602,-0.6913191676139832,-0.695491373538971,-0.029240384697914124,-0.02624070644378662,0.13215219974517822
0.7664572621314465,0.2779253402598846,-1.1063133122734312,0.2551919221878052,0.30936330556869507,0.11649578809738159,0.1976422220468521,-0.6935874819755554,-0.6927293539047241,-0.02840694785118103,-0.04765397310256958,0.14893662929534912
0.768935026134704,0.2802132354778782,-1.1056952728998668,0.19360660016536713,0.248892143368721,0.10461176931858063,0.19875071942806244,-0.6953703165054321,-0.6906217336654663,-0.0013476908206939697,-0.05801725387573242,0.16056197881698608
0.7708332302808487,0.2823105291984597,-1.1049066623186314,0.13676995038986206,0.284668505191803,0.11177034676074982,0.19983066618442535,-0.6967331767082214,-0.6889344453811646,0.01899568736553192,-0.05093228816986084,0.1665651798248291
0.7723463789335865,0.2844804006367473,-1.1036405362815682,0.10042286664247513,0.32172346115112305,0.1481725573539734,0.2010289579629898,-0.6978178024291992,-0.6874865293502808,0.006063386797904968,-0.029248297214508057,0.1634082794189453
0.7737115353516496,0.28631482540480624,-1.1016086712118318,0.07883794605731964,0.32585135102272034,0.2083839625120163,0.2020205408334732,-0.698794960975647,-0.6862021088600159,-0.013055622577667236,-0.012920796871185303,0.15727150440216064
0.775202626316724,0.2874961529662563,-1.0986579875293254,0.08729715645313263,0.32103288173675537,0.27648597955703735,0.20253534615039825,-0.6998608112335205,-0.684963047504425,-0.007589012384414673,-0.007902920246124268,0.15313327312469482
0.7769820842813369,0.28812586916937577,-1.0948808765527298,0.10061562806367874,0.3352847993373871,0.3369205594062805,0.20261242985725403,-0.701130747795105,-0.68364018201828,0.011331111192703247,-0.014476001262664795,0.1540992259979248
0.778846695715317,0.28841797488596793,-1.0903834100308045,0.0627872496843338,0.3497369587421417,0.3785777688026428,0.20243990421295166,-0.7024590373039246,-0.6823264360427856,0.016645848751068115,-0.02709418535232544,0.1641685962677002
0.780180458271321,0.2881980229699567,-1.0851052347683672,-0.025160184130072594,0.3444194197654724,0.4143773019313812,0.20202334225177765,-0.7034077048301697,-0.6814720630645752,-0.0034149140119552612,-0.03874927759170532,0.18716365098953247
0.7806619086071741,0.287240362482522,-1.0789591071015128,-0.12800198793411255,0.32999372482299805,0.44539323449134827,0.20127464830875397,-0.7037498354911804,-0.6813403367996216,-0.00892232358455658,-0.03709489107131958,0.21466559171676636
0.7802681262667794,0.28583388056506515,-1.0722381363637445,-0.21727700531482697,0.3321937620639801,0.43797925114631653,0.20039431750774384,-0.70346999168396,-0.6818886399269104,0.00225771963596344,-0.03482651710510254,0.23077785968780518
0.7789104421943536,0.28445432961462624,-1.0657150451294695,-0.307755708694458,0.3011409640312195,0.36786556243896484,0.19972127676010132,-0.7025043964385986,-0.6830805540084839,-0.022139430046081543,-0.04761767387390137,0.23230546712875366
0.7763529032994613,0.2832054807085718,-1.0599836849331443,-0.41170018911361694,0.2477795034646988,0.2723209261894226,0.19936946034431458,-0.7006819844245911,-0.6850523352622986,-0.0803050696849823,-0.06060957908630371,0.23763418197631836
0.7724941116887724,0.28220030975683935,-1.0552142972324141,-0.5149677991867065,0.22674980759620667,0.16574087738990784,0.19943219423294067,-0.6979236006736755,-0.6878440380096436,-0.1065366268157959,-0.05715763568878174,0.2486199140548706
0.7673913764097989,0.28207020396457927,-1.0514759614650497,-0.6130525469779968,0.27311331033706665,0.06698714196681976,0.20033136010169983,-0.6942601203918457,-0.6912815570831299,-0.10407887399196625,-0.0541071891784668,0.25373589992523193
0.7611047228443124,0.2830881511235252,-1.0485958684472025,-0.7093638777732849,0.3347707986831665,-0.016100022941827774,0.20225009322166443,-0.6897217631340027,-0.6952545046806335,-0.08783963322639465,-0.05835568904876709,0.24418950080871582
0.7537009783714863,0.28548957586269147,-1.0461995598106204,-0.8080853819847107,0.48747143149375916,-0.06352898478507996,0.20535163581371307,-0.6843420267105103,-0.6996474862098694,-0.08169436454772949,-0.07163941860198975,0.22921907901763916
0.7451481266869715,0.2899572959531996,-1.0439534577359935,-0.926024317741394,0.711118757724762,-0.10320473462343216,0.21014124155044556,-0.678080677986145,-0.7043062448501587,-0.09153459966182709,-0.09009259939193726,0.22255581617355347
0.7352106592434111,0.29689736090099783,-1.0416721018700488,-1.07151198387146,0.9939611554145813,-0.15152113139629364,0.21698477864265442,-0.6707434058189392,-0.7092397212982178,-0.10669414699077606,-0.09631609916687012,0.24340426921844482
0.7236131358815737,0.30714078571100445,-1.0394882395683238,-1.235058307647705,1.3379496335983276,-0.23179031908512115,0.22657500207424164,-0.6620967388153076,-0.7143470048904419,-0.12507347762584686,-0.09454089403152466,0.28926771879196167
0.7102067487845162,0.3207919754901205,-1.0376574222226314,-1.3934797048568726,1.6006869077682495,-0.3366197943687439,0.23908282816410065,-0.651990532875061,-0.719546914100647,-0.14949841797351837,-0.09820783138275146,0.34251755475997925
0.6950734921869145,0.3364904021127691,-1.0363601971574101,-1.5192698240280151,1.6707109212875366,-0.45270654559135437,0.25357764959335327,-0.64044189453125,-0.724936306476593,-0.1621469259262085,-0.08978277444839478,0.4044712781906128
0.6784291617895488,0.3527309942604853,-1.0356565591344018,-1.6522696018218994,1.644984483718872,-0.5671840906143188,0.26896268129348755,-0.6275708079338074,-0.7306257486343384,-0.15671896934509277,-0.0817493200302124,0.46567219495773315
0.6601276876533451,0.36751426167539164,-1.0352891672241562,-1.7821592092514038,1.3023377656936646,-0.6643503308296204,0.2838135361671448,-0.6132177114486694,-0.7371661067008972,-0.1344147026538849,-0.09150946140289307,0.5725391507148743
0.640636860406106,0.3783817831947676,-1.0353902136300077,-1.8135716915130615,0.8608573079109192,-0.7735218405723572,0.29616743326187134,-0.597706139087677,-0.7450048923492432,-0.13358497619628906,-0.10164999961853027,0.6043799519538879
0.6208952685743112,0.38592475508952045,-1.0369010256692626,-1.750967025756836,0.4766412377357483,-0.9297562837600708,0.30616098642349243,-0.5817635655403137,-0.7535361051559448,-0.18554019927978516,-0.10924601554870605,0.5187491774559021
0.6009288650300526,0.39124465537252534,-1.0404972558152616,-1.7283374071121216,0.1774420142173767,-1.1296672821044922,0.3145327866077423,-0.5654088258743286,-0.762484073638916,-0.26584193110466003,-0.1458338499069214,0.4488549828529358
0.5797451696322004,0.3947035008342897,-1.0463121299349265,-1.8289796113967896,-0.13739868998527527,-1.3895659446716309,0.3217024505138397,-0.5478107333183289,-0.7722764611244202,-0.31379833817481995,-0.18522155284881592,0.45507681369781494
0.5558926366419438,0.3961346916435064,-1.054356700409239,-2.064446210861206,-0.4346138536930084,-1.7016774415969849,0.32775694131851196,-0.527701735496521,-0.7836493253707886,-0.3517589271068573,-0.20055454969406128,0.47014230489730835
0.528101964343342,0.39574785637290255,-1.064419561945906,-2.409446954727173,-0.6732168793678284,-2.023198366165161,0.3329800069332123,-0.5038948059082031,-0.7970033884048462,-0.3674037754535675,-0.18990713357925415,0.5263888239860535
0.49564016583241655,0.39335600514221136,-1.0757574627552564,-2.8508388996124268,-0.9204239845275879,-2.286740779876709,0.33716681599617004,-0.4755948781967163,-0.8124826550483704,-0.34464356303215027,-0.15727868676185608,0.6086100339889526
0.4580946574482656,0.3878725598499775,-1.0873401548429962,-3.3558454513549805,-1.251725435256958,-2.472581624984741,0.3392241895198822,-0.44224002957344055,-0.8302715420722961,-0.2955992519855499,-0.11089116334915161,0.6876476407051086
0.41507199809034356,0.37793243875323523,-1.0984539306508827,-3.8601226806640625,-1.6813199520111084,-2.595233201980591,0.3376668393611908,-0.403255820274353,-0.8505091667175293,-0.24748733639717102,-0.06445664167404175,0.7481837868690491
0.36736877445720445,0.3627039196429031,-1.109048304224931,-4.292067050933838,-2.1597204208374023,-2.6627109050750732,0.3311294913291931,-0.35916101932525635,-0.872557520866394,-0.21656644344329834,-0.024506032466888428,0.7816914916038513
0.31611162289725425,0.34212148446588186,-1.119385316706079,-4.621085166931152,-2.639920949935913,-2.684521198272705,0.31886351108551025,-0.31087321043014526,-0.8953680396080017,-0.1874089539051056,0.007452130317687988,0.7819342613220215
0.26234465552551806,0.3159937566981887,-1.1298981028796558,-4.866199970245361,-3.174725294113159,-2.681910753250122,0.30012834072113037,-0.259345680475235,-0.9179666638374329,-0.1880066990852356,0.0371319055557251,0.7455118298530579
0.20697308617510096,0.28413270278251385,-1.1412136156687676,-5.020827293395996,-3.684558629989624,-2.679978132247925,0.2743421792984009,-0.20549853146076202,-0.9394183158874512,-0.2405286431312561,0.08823470771312714,0.6980242729187012
0.1508564505804653,0.24740729624036453,-1.1541088804622652,-5.106594085693359,-4.087983131408691,-2.7072296142578125,0.2421097308397293,-0.15028491616249084,-0.9585391879081726,-0.30709683895111084,0.14729416370391846,0.6404697299003601
0.09437386422183357,0.2064136417272511,-1.1694163630699357,-5.186990261077881,-4.432490348815918,-2.7816176414489746,0.20403899252414703,-0.09423384070396423,-0.9744167923927307,-0.36537009477615356,0.18271952867507935,0.5748959183692932
0.03757709539872083,0.16218916294310137,-1.1875995842287093,-5.287240505218506,-4.613471508026123,-2.849153518676758,0.16136503219604492,-0.03756825253367424,-0.9861794710159302,-0.39305442571640015,0.20343126356601715,0.5046120882034302
-0.019412396128825272,0.11587792669089468,-1.208460911062402,-5.387355804443359,-4.638665199279785,-2.8334758281707764,0.11559698730707169,0.019411176443099976,-0.993106484413147,-0.3911096155643463,0.24381817877292633,0.40234726667404175
-0.07605029007075169,0.06939417456096307,-1.2313333337926096,-5.4185686111450195,-4.336519718170166,-2.73311448097229,0.0691380724310875,0.07597700506448746,-0.9947097301483154,-0.2932743728160858,0.27299147844314575,0.29915308952331543
-0.13136730967423665,0.02999213535523968,-1.2552661497952364,-5.366059303283691,-3.105294704437256,-2.544360637664795,0.02972925640642643,0.13098978996276855,-0.9909378886222839,-0.1358540803194046,0.27709126472473145,0.14489907026290894
-0.1854120215088547,-0.0051258815217151915,-1.2798649219930642,-5.346826076507568,-3.3397693634033203,-2.451267719268799,-0.005038003902882338,0.18435150384902954,-0.9828474521636963,-0.023053370416164398,0.27141326665878296,0.08172440528869629
-0.2371742363116743,-0.05251132007786709,-1.3069633147747821,-5.052318572998047,-5.008369445800781,-2.5623855590820312,-0.05101785436272621,0.23495690524578094,-0.9706659913063049,-0.10330948978662491,0.41525062918663025,-0.19252675771713257
-0.28387084160340004,-0.11452429048496994,-1.3380038813355974,-4.729499816894531,-5.366888046264648,-2.562295436859131,-0.10970068722963333,0.2800736725330353,-0.9536899328231812,-0.28902667760849,0.6131911277770996,-0.7775264978408813
-0.3252922210311269,-0.1707418661872162,-1.3696073509386324,-4.269172191619873,-3.947227716445923,-2.191751480102539,-0.1610027700662613,0.3195856809616089,-0.9337789416313171,-0.3387530446052551,0.5439091920852661,-0.5994547009468079
-0.3601962580693468,-0.21667102715226327,-1.3988921871451072,-3.598447561264038,-3.3886494636535645,-1.8871774673461914,-0.20118393003940582,0.3524579107761383,-0.9139466285705566,-0.1777833104133606,0.4332324266433716,-0.5039458274841309
-0.38746942186365785,-0.25933558811986707,-1.425448339564168,-2.8457937240600586,-3.1120636463165283,-1.6042227745056152,-0.23742817342281342,0.3778466582298279,-0.8949077129364014,-0.314512699842453,0.4723120629787445,-0.8323414325714111
-0.40737013606721056,-0.2950078627363209,-1.4471787347463356,-2.0591647624969482,-2.2792816162109375,-1.1363736391067505,-0.26695433259010315,0.39619603753089905,-0.8785010576248169,-0.33384519815444946,0.45211634039878845,-0.9340752363204956
-0.4205994659098217,-0.31836852870767657,-1.461380092242133,-1.236575961112976,-1.2441163063049316,-0.5178447961807251,-0.2857362627983093,0.4083077311515808,-0.866971492767334,-0.18521100282669067,0.3925803303718567,-0.9753594398498535
-0.4279691867572362,-0.3280234142257751,-1.4659812115878545,-0.43503570556640625,-0.31637758016586304,0.1990499347448349,-0.29311588406562805,0.4150240123271942,-0.8613002896308899,-0.16739434003829956,0.3943632245063782,-1.0880558490753174
-0.43042275031557753,-0.32460843429412134,-1.4604944467677932,0.23866334557533264,0.4855947494506836,0.8851153254508972,-0.2898472249507904,0.4172550439834595,-0.8613285422325134,-0.1663752794265747,0.4158596396446228,-1.1387934684753418
-0.42926007613318284,-0.3123374202607777,-1.447154691907914,0.6960943341255188,0.7757991552352905,1.287817120552063,-0.2794051766395569,0.41619813442230225,-0.8652814030647278,-0.13967740535736084,0.46612608432769775,-1.121168851852417
-0.4251636898245294,-0.29774132436602385,-1.4305091827127088,0.9736210107803345,0.7594409584999084,1.308908224105835,-0.26724404096603394,0.41246989369392395,-0.8708899021148682,-0.15904071927070618,0.5629634857177734,-1.0504968166351318
-0.4180896251671775,-0.28295208579450165,-1.4140064344856398,1.2463473081588745,0.8706232309341431,1.1644824743270874,-0.2551437318325043,0.4060153663158417,-0.8775267601013184,-0.18685755133628845,0.5942898392677307,-1.0143494606018066
-0.4071413346160202,-0.2665564732989792,-1.397969188349545,1.6749708652496338,1.1157995462417603,1.0687415599822998,-0.2418789565563202,0.3959859609603882,-0.8858271241188049,-0.19868800044059753,0.5340830087661743,-1.0222387313842773
-0.3904354172415676,-0.2482814162157284,-1.3817159239170795,2.311197280883789,1.2397844791412354,0.9591873288154602,-0.2272450029850006,0.38059109449386597,-0.8963872790336609,-0.1792490929365158,0.45238617062568665,-1.0049798488616943
-0.3679810428642484,-0.2307660171838155,-1.3658193401829988,2.7155778408050537,1.0268170833587646,0.8197665810585022,-0.21341153979301453,0.35973235964775085,-0.9083216190338135,-0.2006203830242157,0.39896515011787415,-0.9769017696380615
-0.341228730101805,-0.21785959214426273,-1.3518220299087427,3.0679492950439453,0.5647730231285095,0.5271852612495422,-0.20367856323719025,0.33464524149894714,-0.9200693368911743,-0.23842954635620117,0.36492446064949036,-0.8022359609603882
-0.309705967057296,-0.21123969262606102,-1.341242459520085,3.5125339031219482,0.07762046158313751,0.07643670588731766,-0.19969667494297028,0.3047786056995392,-0.9312524795532227,-0.27851372957229614,0.3366093337535858,-0.7049626708030701
-0.2723856047518726,-0.21089276704172635,-1.3347153331725636,4.028450012207031,-0.36650851368904114,-0.40981680154800415,-0.20161524415016174,0.2690298557281494,-0.9417930841445923,-0.302153617143631,0.2974374294281006,-0.6894935369491577
-0.22893238260656437,-0.21506133606379865,-1.3314954513394537,4.56546688079834,-0.590631902217865,-0.7929306626319885,-0.20783938467502594,0.2269378900527954,-0.951473593711853,-0.2843785881996155,0.2897552251815796,-0.685153603553772
-0.1798175751958395,-0.22067881369818382,-1.3300023514190593,5.037259578704834,-0.567428469657898,-1.022727131843567,-0.21536268293857574,0.17885009944438934,-0.9600164294242859,-0.20709210634231567,0.31117063760757446,-0.6266077160835266
-0.1265997610969545,-0.22542135047054343,-1.328973985009866,5.323802471160889,-0.39513716101646423,-1.1132162809371948,-0.22172825038433075,0.1262618452310562,-0.9668994545936584,-0.12821677327156067,0.3515213429927826,-0.49713557958602905
-0.07151098692941467,-0.22807324472472557,-1.3276497601647899,5.4083075523376465,-0.15017089247703552,-1.0908012390136719,-0.2255232036113739,0.07145005464553833,-0.9716141819953918,-0.07476970553398132,0.40682142972946167,-0.3147779703140259
-0.016727860086492876,-0.22781287851836854,-1.3257004896353912,5.288969993591309,0.19005991518497467,-0.9930194020271301,-0.22581586241722107,0.016727080568671227,-0.9740263819694519,-0.026686549186706543,0.4498714208602905,-0.1463196873664856
0.03551717225537401,-0.22405809853268358,-1.3231466978496071,4.953486919403076,0.5743491649627686,-0.8362807035446167,-0.22204796969890594,-0.035509705543518066,-0.9743888974189758,0.005052775144577026,0.4697748124599457,-0.01767653226852417
0.08353634241197319,-0.21587711950592525,-1.3199224214953913,4.524185657501221,1.1207504272460938,-0.6220586895942688,-0.21345731616020203,-0.08343921601772308,-0.9733827114105225,0.013841882348060608,0.4647410809993744,0.07995009422302246
0.126945967354048,-0.20161645577445092,-1.3158403786977997,4.11271858215332,1.8281196355819702,-0.3858368992805481,-0.19864189624786377,-0.12660528719425201,-0.9718603491783142,-0.009716808795928955,0.4558899402618408,0.1404241919517517
