attitudeX,attitudeY,attitudeZ,gyroX,gyroY,gyroZ,gravityX,gravityY,gravityZ,accX,accY,accZ
1.1141212846409434,0.9119666730955279,-1.4157123340389721,0.29688015580177307,0.42849066853523254,0.12821127474308014,0.34867626428604126,-0.8975236415863037,-0.2699560821056366,0.12410211563110352,-0.06323081254959106,0.044492363929748535
1.1164495200297033,0.9181819316686334,-1.4173712224013928,0.1066255271434784,0.49725988507270813,0.1384471356868744,0.34868624806404114,-0.898547887802124,-0.2665141224861145,0.16658785939216614,-0.06950026750564575,0.08511775732040405
1.1177693717501247,0.922431546970767,-1.4164847203583206,0.0075607020407915115,0.5064924955368042,0.1159624308347702,0.34887009859085083,-0.8991263508796692,-0.26431354880332947,0.18392109870910645,-0.07491850852966309,0.0833292007446289
1.1186959958991338,0.9256769795427351,-1.4149251010553041,0.0027395817451179028,0.4000829756259918,0.1148471012711525,0.34906020760536194,-0.8995315432548523,-0.2626788318157196,0.24589526653289795,-0.07681739330291748,0.04296761751174927
1.1197565234571998,0.9274122982426203,-1.4135562308596856,0.03102157823741436,0.19087064266204834,0.1260346621274948,0.34875184297561646,-0.8999943137168884,-0.2615000903606415,0.35374754667282104,-0.0780329704284668,0.03722652792930603
1.121154200800475,0.9278099161459337,-1.4127891145449987,0.08598682284355164,0.04244629293680191,0.13827721774578094,0.3478489816188812,-0.9006026983261108,-0.2606070935726166,0.46442219614982605,-0.06649941205978394,0.021578311920166016
1.1231713644257761,0.9283960659830129,-1.4132121467065093,0.19007183611392975,0.015877828001976013,0.16494223475456238,0.3465461730957031,-0.9014776349067688,-0.25931403040885925,0.5481986999511719,-0.0450860857963562,-0.04340490698814392
1.1261333506809619,0.9309441577500954,-1.415429277808049,0.31772300601005554,0.09889468550682068,0.1936875879764557,0.3450624942779541,-0.9027556777000427,-0.25683486461639404,0.6113126873970032,-0.0017548799514770508,-0.1363229751586914
1.13031606940488,0.9364246696077106,-1.4194419670337413,0.4575750529766083,0.28599828481674194,0.28795385360717773,0.34342068433761597,-0.9045469760894775,-0.2526998817920685,0.6704038381576538,0.048788249492645264,-0.20303428173065186
1.1364401742664831,0.9447483326459037,-1.4240029252096043,0.5669564604759216,0.54930180311203,0.48363015055656433,0.3410165309906006,-0.9071411490440369,-0.24658194184303284,0.7508413791656494,0.12839359045028687,-0.257659912109375
1.1450065060574406,0.9543406648071279,-1.4271992495835881,0.6334206461906433,0.7793862819671631,0.7584297060966492,0.33701300621032715,-0.9107127785682678,-0.2387978881597519,0.8345873355865479,0.21152454614639282,-0.26800739765167236
1.156223017685066,0.9630913373261867,-1.4270190136463756,0.6320608258247375,0.9950412511825562,1.07903254032135,0.3306826949119568,-0.9152882695198059,-0.22999253869056702,0.908575177192688,0.27475476264953613,-0.24922490119934082
1.1701035187517186,0.9698485682577839,-1.4219013839772114,0.6012400984764099,1.299221158027649,1.428858757019043,0.3217184245586395,-0.92079097032547,-0.22054731845855713,0.9241312146186829,0.32128846645355225,-0.23215028643608093
1.1865506347952064,0.9741056670461983,-1.4104239969937036,0.5153696537017822,1.6647069454193115,1.7720752954483032,0.31008410453796387,-0.9270814657211304,-0.21063686907291412,0.9329121708869934,0.3541291356086731,-0.23304277658462524
1.2050489449385726,0.9746257548775892,-1.3911689506948792,0.38874882459640503,2.0083959102630615,2.0651304721832275,0.29595065116882324,-0.933856725692749,-0.20081131160259247,0.917290985584259,0.3738589882850647,-0.21399876475334167
1.2250192293320281,0.970107301852749,-1.3633326719355312,0.25717800855636597,2.2749929428100586,2.3036112785339355,0.2795972526073456,-0.940812349319458,-0.19156572222709656,0.8589525818824768,0.401170015335083,-0.1994711011648178
1.2459560134019418,0.9592042700366799,-1.3271249410251194,0.17887407541275024,2.376835584640503,2.48191499710083,0.2613052725791931,-0.9477016925811768,-0.18325109779834747,0.8035293817520142,0.41993075609207153,-0.19115369021892548
1.2680312802384641,0.9414451624889867,-1.2823196296385198,0.1409517228603363,2.587003231048584,2.7086126804351807,0.24103640019893646,-0.9545156955718994,-0.17550377547740936,0.7760382294654846,0.4432850480079651,-0.2071865350008011
1.2915207650055076,0.9151886748588742,-1.2268442701637179,0.12600268423557281,2.757979393005371,2.934182643890381,0.2185094952583313,-0.9612553715705872,-0.16805364191532135,0.7957727909088135,0.49863922595977783,-0.2560642957687378
1.3160228582247397,0.877127486775479,-1.1583828101214642,0.11146369576454163,2.8073935508728027,3.126513957977295,0.19378462433815002,-0.9677203893661499,-0.16113634407520294,0.7529317140579224,0.5470965504646301,-0.2507745027542114
1.3410447436513717,0.8218134660063112,-1.0724173830757777,0.0935181975364685,2.798037052154541,3.3393611907958984,0.16678979992866516,-0.9737229943275452,-0.15506421029567719,0.7267649173736572,0.6071457862854004,-0.25097209215164185
1.366268739239242,0.7404576205564731,-0.9605701414388479,0.09191763401031494,2.753415107727051,3.6146512031555176,0.13702024519443512,-0.979157030582428,-0.1499243825674057,0.7269324064254761,0.6798709630966187,-0.25443339347839355
1.3909065204589253,0.6195922449004149,-0.8097069562564938,0.10583466291427612,2.6717348098754883,3.935035467147827,0.10390028357505798,-0.9838634133338928,-0.14566271007061005,0.7255980372428894,0.756598949432373,-0.2674688696861267
1.4128876225032616,0.44058380431627925,-0.6015447797550294,0.1347864270210266,2.547987222671509,4.2798919677734375,0.06706355512142181,-0.9875583052635193,-0.14223630726337433,0.7103259563446045,0.832269549369812,-0.2835600972175598
1.4282831383687287,0.18709094561775644,-0.32028478923035186,0.17523592710494995,2.3591887950897217,4.620404243469238,0.026418032124638557,-0.9898621439933777,-0.13955284655094147,0.6783244013786316,0.9057099223136902,-0.2941781282424927
1.4317242310574732,-0.1284809467145263,0.021275856299670364,0.21873068809509277,2.152343511581421,4.942044734954834,-0.017761634662747383,-0.9903450608253479,-0.13748182356357574,0.6286777853965759,0.9684638977050781,-0.2942502498626709
1.4192778481231763,-0.44868094514070045,0.3655598863712128,0.2524343729019165,1.9355064630508423,5.235349655151367,-0.06547398120164871,-0.9885430335998535,-0.1359991729259491,0.5602249503135681,1.0236687660217285,-0.29381024837493896
1.3919629900120618,-0.7103254495146863,0.6490253614312591,0.3139459192752838,1.6449081897735596,5.460878372192383,-0.11599351465702057,-0.9840518832206726,-0.13486133515834808,0.4630546569824219,1.0790835618972778,-0.29861021041870117
1.3541796076049102,-0.9022874154418047,0.8595239421487352,0.44671258330345154,1.2259100675582886,5.6393938064575195,-0.16866350173950195,-0.9766302108764648,-0.1332155019044876,0.34560441970825195,1.1211613416671753,-0.30925875902175903
1.3097629727221323,-1.0441604713649002,1.015338864248851,0.6619913578033447,0.6645911931991577,5.793095588684082,-0.2231106162071228,-0.9661238193511963,-0.12971803545951843,0.18665733933448792,1.1558057069778442,-0.32806074619293213
1.2609555043453486,-1.1565096785262325,1.1361718421545022,0.9877065420150757,0.06036542356014252,5.930762767791748,-0.2791132628917694,-0.9523820877075195,-0.12273647636175156,0.01803538203239441,1.171147346496582,-0.3388417363166809
1.2093203389899703,-1.251724773190712,1.2350268914377225,1.3849849700927734,-0.3941434919834137,5.9862141609191895,-0.33580559492111206,-0.9353758692741394,-0.11093650758266449,-0.19094309210777283,1.133068561553955,-0.38604211807250977
1.1558746996630802,-1.334498339290486,1.319163219402362,1.79940927028656,-0.5340158939361572,5.981256008148193,-0.39191627502441406,-0.9151479005813599,-0.09437207877635956,-0.4164943993091583,1.0679950714111328,-0.4557529091835022
1.101677635912673,-1.4057826511181437,1.3930061411928818,2.220081090927124,-0.3263852000236511,5.823694229125977,-0.44595929980278015,-0.8919670581817627,-0.07426467537879944,-0.7071779370307922,1.0066978931427002,-0.5274655222892761
1.0492445025014259,-1.4652301592226564,1.4592138219762452,2.578765392303467,0.09595248848199844,5.324584007263184,-0.49545276165008545,-0.8670470714569092,-0.05249821022152901,-1.1212464570999146,0.8696868419647217,-0.573310375213623
1.002172360463336,-1.51349753601704,1.5189822593432405,2.797504186630249,0.45294469594955444,4.497694492340088,-0.537589430809021,-0.8426427245140076,-0.030836978927254677,-1.5758596658706665,0.6449040770530701,-0.5227059721946716
0.9630430718048361,-1.5522300529431163,1.5726571920860166,2.816728115081787,0.7089613676071167,3.5070912837982178,-0.5709261298179626,-0.8209330439567566,-0.010601188987493515,-1.94321870803833,0.4004618525505066,-0.35821884870529175
0.933188582754461,-1.5830834988240066,1.6201398062309778,2.663922071456909,0.8110552430152893,2.464163064956665,-0.5952301621437073,-0.8035221099853516,0.007314063608646393,-2.225067138671875,0.18375587463378906,-0.13170361518859863
0.9128126321784251,-1.6076381712815646,1.6609724814671953,2.324615478515625,0.7643759250640869,1.489897608757019,-0.6111080646514893,-0.791226863861084,0.02252453938126564,-2.407904624938965,0.022321105003356934,0.14498662948608398
0.9010969331568222,-1.6265221223582356,1.6939325980905087,1.8070534467697144,0.6476895213127136,0.6761962175369263,-0.6197868585586548,-0.7840083241462708,0.034573908895254135,-2.4644265174865723,-0.09176993370056152,0.4206416606903076
0.8969552490609821,-1.6389919876764454,1.7176771281635688,1.1749463081359863,0.5753982067108154,-0.026835190132260323,-0.6225417852401733,-0.7814306616783142,0.042520586401224136,-2.4531569480895996,-0.14171087741851807,0.641759991645813
0.8999161310232576,-1.6444052911716844,1.731603548415303,0.5124133229255676,0.514617919921875,-0.6788560748100281,-0.6199920177459717,-0.78327476978302,0.04571957141160965,-2.416186571121216,-0.14151453971862793,0.7760578393936157
0.9097404324245403,-1.6429810290332014,1.7360877934310193,-0.09008586406707764,0.4806002676486969,-1.3066329956054688,-0.6123518943786621,-0.7893444299697876,0.044279374182224274,-2.359266757965088,-0.11020702123641968,0.8116930723190308
0.9260232745795212,-1.6349141711164772,1.7321692263704536,-0.5859962701797485,0.5041852593421936,-1.8954699039459229,-0.5997822880744934,-0.7992361783981323,0.038509536534547806,-2.2557475566864014,-0.08974087238311768,0.7717933654785156
0.9483128766403136,-1.6212115590662088,1.7211270480373488,-0.9536455869674683,0.436629980802536,-2.4584836959838867,-0.5823138356208801,-0.8124330043792725,0.029382387176156044,-2.095099925994873,-0.09100943803787231,0.6911377906799316
0.9759865345013528,-1.603578223556332,1.7040232192388816,-1.2199188470840454,0.27806511521339417,-2.9571077823638916,-0.5600501298904419,-0.8282551169395447,0.01836608536541462,-1.908074140548706,-0.07239490747451782,0.5889796018600464
1.0078000412142933,-1.5824351596692665,1.6808388761769246,-1.4442033767700195,0.06195218116044998,-3.310593843460083,-0.5336865782737732,-0.8456597328186035,0.006211769767105579,-1.699269413948059,-0.02432030439376831,0.5043321847915649
1.0422094170677225,-1.5578787426438185,1.6513881693570867,-1.5893068313598633,-0.1880432665348053,-3.534921407699585,-0.504271924495697,-0.8635205626487732,-0.006514337379485369,-1.4719703197479248,0.05906176567077637,0.4068898558616638
1.0779223868302041,-1.5302027613485811,1.6159521803478663,-1.6591212749481201,-0.4628521800041199,-3.6639108657836914,-0.4727703034877777,-0.880976676940918,-0.019201980903744698,-1.2695393562316895,0.16213494539260864,0.2775944471359253
1.1141329482646816,-1.5002197374935604,1.5752084462731772,-1.6347888708114624,-0.7861285209655762,-3.7463135719299316,-0.43985801935195923,-0.8975287675857544,-0.031095324084162712,-1.1040263175964355,0.25740742683410645,0.1614360213279724
1.1505563507659067,-1.4688983034023348,1.5300641865224813,-1.5376436710357666,-1.1133242845535278,-3.8183276653289795,-0.40586331486701965,-0.9129910469055176,-0.041500404477119446,-0.9783682823181152,0.33047157526016235,0.04778719320893288
1.1872685162343706,-1.4363185575767945,1.480873027404546,-1.4087663888931274,-1.4137532711029053,-3.900784730911255,-0.370816171169281,-0.9273503422737122,-0.05016932263970375,-0.8773070573806763,0.3892185688018799,-0.06288290023803711
1.2242268123797295,-1.4013417580730358,1.4267067747255995,-1.2877651453018188,-1.7023216485977173,-3.9599106311798096,-0.3348082900047302,-0.9405434727668762,-0.057284146547317505,-0.779831051826477,0.4338143467903137,-0.14289581775665283
1.2612358294553327,-1.3617783568154,1.3655095469676635,-1.1873316764831543,-1.947479486465454,-4.027033805847168,-0.29801008105278015,-0.9524675607681274,-0.06321270763874054,-0.7059572339057922,0.48074203729629517,-0.19806337356567383
1.2983119815554311,-1.313039169396736,1.293540014873058,-1.1105388402938843,-2.066312313079834,-4.113152503967285,-0.2602345049381256,-0.9631052613258362,-0.06860338896512985,-0.6577190160751343,0.5145120620727539,-0.2547149658203125
1.3351577121816722,-1.2478632049696972,1.2047799381064508,-1.0503442287445068,-2.0502586364746094,-4.188210487365723,-0.22139613330364227,-0.9723654389381409,-0.07408973574638367,-0.5969632267951965,0.5393362641334534,-0.2951117753982544
1.3710501676521671,-1.1558267082978735,1.090039262614038,-0.9745359420776367,-1.9348381757736206,-4.256639003753662,-0.18158066272735596,-0.9801169633865356,-0.07999580353498459,-0.534209132194519,0.5816640853881836,-0.35039347410202026
1.4049112790479046,-1.0222789992790053,0.9352514427458929,-0.8719927668571472,-1.7892316579818726,-4.301656723022461,-0.14090165495872498,-0.9862725734710693,-0.08610036224126816,-0.4752177298069,0.6339928507804871,-0.4050493836402893
1.4345213657652762,-0.8259114141167444,0.7192495411101572,-0.7529685497283936,-1.647261619567871,-4.276041030883789,-0.0998755544424057,-0.9907289147377014,-0.09209398180246353,-0.387810617685318,0.6811738014221191,-0.4431689381599426
1.4563645058825296,-0.5447108456931053,0.4197056385850757,-0.6196437478065491,-1.5566039085388184,-4.2007155418396,-0.05916630104184151,-0.9934598207473755,-0.09765812009572983,-0.2873913049697876,0.7168179154396057,-0.4543437361717224
1.46627603600684,-0.1871476627014725,0.04458215496149009,-0.474359929561615,-1.5120012760162354,-4.075437068939209,-0.01941133663058281,-0.9945427179336548,-0.10250826925039291,-0.2011239379644394,0.7435966730117798,-0.4574434161186218
1.462489004041818,0.17471524399728042,-0.3345828506392714,-0.32069873809814453,-1.5220272541046143,-3.8996052742004395,0.018790125846862793,-0.9941405057907104,-0.10645060241222382,-0.1223972961306572,0.7643583416938782,-0.4458564519882202
1.4479630616419108,0.4654496511173141,-0.6427302944355302,-0.17986495792865753,-1.5436222553253174,-3.698286533355713,0.05499257147312164,-0.9924654960632324,-0.10949143022298813,-0.05126940831542015,0.7715943455696106,-0.42169737815856934
1.4273948132240237,0.6725107177823944,-0.8673079897036687,-0.06469256430864334,-1.5550317764282227,-3.4923269748687744,0.08902635425329208,-0.9897356033325195,-0.1117931455373764,0.015023335814476013,0.760869026184082,-0.39412713050842285
1.4040895403721831,0.8153229952024964,-1.0277150969766333,-0.012018470093607903,-1.5777379274368286,-3.2745494842529297,0.12079297006130219,-0.9861365556716919,-0.11377157270908356,0.07508412003517151,0.7384863495826721,-0.3536355495452881
1.3797549540823895,0.9124790018409404,-1.142767618915795,-0.039110541343688965,-1.6271775960922241,-3.0664374828338623,0.1502007246017456,-0.9818070530891418,-0.11616707593202591,0.1368171125650406,0.7104752063751221,-0.28603923320770264
1.3552147265164145,0.977535705777535,-1.226182280689118,-0.10786972939968109,-1.6909312009811401,-2.8898799419403076,0.177361860871315,-0.9768521189689636,-0.119593046605587,0.1876741498708725,0.6712491512298584,-0.20558683574199677
1.3307380662179564,1.0202244629577402,-1.2877974859876267,-0.20113444328308105,-1.7663524150848389,-2.7229862213134766,0.20262457430362701,-0.9713241457939148,-0.12438967078924179,0.23164057731628418,0.62653648853302,-0.14909350872039795
1.3064807413281005,1.045784290880267,-1.3326399382431258,-0.3793528079986572,-1.772804617881775,-2.581402063369751,0.22606347501277924,-0.965271532535553,-0.1309441328048706,0.28484657406806946,0.5743565559387207,-0.10176753997802734
1.2821273864563287,1.0573133197321143,-1.3631856005258773,-0.5768088698387146,-1.8070411682128906,-2.4609055519104004,0.24796456098556519,-0.9586236476898193,-0.13983725011348724,0.3499663770198822,0.5154168009757996,-0.04857814311981201
1.2578897003490785,1.0583610327642057,-1.3837296373198456,-0.7352100610733032,-1.9101284742355347,-2.349233627319336,0.26828643679618835,-0.9514428377151489,-0.1509273201227188,0.42951327562332153,0.45357900857925415,-0.016018986701965332
1.233951530080166,1.0512454301779792,-1.3975135869771214,-0.8423255681991577,-2.127425193786621,-2.230109214782715,0.28689754009246826,-0.9438021779060364,-0.16409553587436676,0.5105878114700317,0.3959963321685791,0.002657651901245117
1.2109547344938683,1.0379071741480372,-1.407453177202618,-0.8700091242790222,-2.3955390453338623,-2.0670974254608154,0.3033013641834259,-0.9359526038169861,-0.17888852953910828,0.6313300132751465,0.3343748450279236,0.005426779389381409
1.1894015065081707,1.0199163334342762,-1.4153919727939557,-0.845214307308197,-2.660717010498047,-1.9158903360366821,0.31715163588523865,-0.9281463623046875,-0.19483152031898499,0.7853569984436035,0.2657164931297302,-0.03916192054748535
1.1694411735934749,0.9999897705469549,-1.4237298530685965,-0.7217563986778259,-2.8262016773223877,-1.7910206317901611,0.32873204350471497,-0.9205324053764343,-0.21108116209506989,0.8921236991882324,0.2125704288482666,-0.1388332098722458
1.1514474155361973,0.9809545916036577,-1.4341066345091085,-0.5556119084358215,-2.859400510787964,-1.6608773469924927,0.33836668729782104,-0.913354218006134,-0.22647777199745178,1.0025452375411987,0.15018582344055176,-0.24817728996276855
1.1354762798256535,0.9631036499972297,-1.446123907272665,-0.4248800575733185,-2.8708009719848633,-1.530553936958313,0.3462027609348297,-0.9067351222038269,-0.2407805472612381,1.1391640901565552,0.07491731643676758,-0.30726924538612366
1.121388804755868,0.9460375894350175,-1.45840361737818,-0.34322938323020935,-2.7134182453155518,-1.3573431968688965,0.3523698151111603,-0.9007046222686768,-0.25410008430480957,1.266404628753662,0.019189119338989258,-0.3230940103530884
1.1096815032458733,0.9303905500697764,-1.46933800302985,-0.260562002658844,-2.3457932472229004,-1.0851680040359497,0.35678234696388245,-0.8955570459365845,-0.2658652067184448,1.398314118385315,0.006701827049255371,-0.368320494890213
1.1009153269474303,0.9171630327272848,-1.478100747441225,-0.16579954326152802,-1.839285969734192,-0.7871670722961426,0.3594529926776886,-0.8916221857070923,-0.2753241956233978,1.5197889804840088,0.013295769691467285,-0.45256564021110535
1.0950489558156251,0.90765765342347,-1.4849763314268887,-0.05531056597828865,-1.2761183977127075,-0.5257737040519714,0.36093583703041077,-0.8889506459236145,-0.28194373846054077,1.5632585287094116,0.017673730850219727,-0.541222095489502
1.0918956611784711,0.9027454268727376,-1.4904644275978791,0.06010471284389496,-0.6654645800590515,-0.2775284945964813,0.3617451786994934,-0.8875020146369934,-0.285448282957077,1.5741527080535889,0.03577160835266113,-0.6034371256828308
1.091311544090257,0.9025246747873793,-1.494063844863409,0.11814121901988983,-0.02230241522192955,-0.016909006983041763,0.3620888888835907,-0.8872327208518982,-0.2858492136001587,1.5650352239608765,0.07966125011444092,-0.6400387287139893
1.0930267092535473,0.9057018235971748,-1.4945536825770904,0.1251775622367859,0.5634824633598328,0.2606075406074524,0.3617973029613495,-0.8880226612091064,-0.2837578058242798,1.5318336486816406,0.13103413581848145,-0.6333715915679932
1.097028604946416,0.9110264633841983,-1.4912017843918064,0.12367857992649078,1.0794274806976318,0.558739423751831,0.36049216985702515,-0.8898556232452393,-0.2796468138694763,1.4887663125991821,0.18354153633117676,-0.5995491743087769
1.1036213123869514,0.9172365288298553,-1.4839873178167315,0.1746693253517151,1.401274561882019,0.8851808905601501,0.35755640268325806,-0.8928441405296326,-0.2738298177719116,1.4198331832885742,0.24898427724838257,-0.5758709907531738
1.113860471695584,0.9220103254488575,-1.4744962226055933,0.40715527534484863,1.2024540901184082,1.2450553178787231,0.35155633091926575,-0.8974086046218872,-0.26658186316490173,1.3391022682189941,0.313149631023407,-0.5465130805969238
1.1279937128074997,0.9249629388876548,-1.4651093522836933,0.6267097592353821,1.1256200075149536,1.474208116531372,0.34217849373817444,-0.903554379940033,-0.2578830122947693,1.2307432889938354,0.36053967475891113,-0.5050716400146484
1.144610192022919,0.9294132910956735,-1.456083247398623,0.7438563108444214,1.424903392791748,1.6304045915603638,0.33124563097953796,-0.9105490446090698,-0.24733971059322357,1.1445691585540771,0.38532620668411255,-0.5180105566978455
1.1632862583653234,0.9367210015917645,-1.4464041457095642,0.845865786075592,1.7798126935958862,1.8380112648010254,0.31928694248199463,-0.9181104898452759,-0.2347956895828247,0.9942353963851929,0.4401441812515259,-0.5230166912078857
1.184424009673931,0.9442173525069723,-1.4343588834337948,0.8709614276885986,1.889771580696106,2.1182544231414795,0.30524715781211853,-0.9262821674346924,-0.22096477448940277,0.8718615770339966,0.5018436908721924,-0.440579891204834
1.2076685151306366,0.9462410035482921,-1.4167318897436674,0.7971678972244263,1.7801105976104736,2.388704299926758,0.2881465554237366,-0.9347903728485107,-0.2076984941959381,0.8037724494934082,0.556189239025116,-0.3202707767486572
1.2326284542342039,0.9405400912843399,-1.3916166290372365,0.7381281852722168,1.8093287944793701,2.6501340866088867,0.26802074909210205,-0.9433640837669373,-0.19552306830883026,0.7184142470359802,0.596028208732605,-0.2726927399635315
1.2592878196060753,0.9275870683305399,-1.3582034483979473,0.715183436870575,1.9217504262924194,2.8796231746673584,0.24524982273578644,-0.9518722891807556,-0.1838255524635315,0.6255998015403748,0.6323684453964233,-0.29601746797561646
1.2872841679799016,0.9065788211681884,-1.3157013633231187,0.7056215405464172,1.9864752292633057,3.059391736984253,0.2202586829662323,-0.9600788950920105,-0.17243722081184387,0.5162373185157776,0.6610676646232605,-0.34462201595306396
1.3162141758620258,0.8749588723721126,-1.261831080198659,0.6943161487579346,2.0868287086486816,3.224001884460449,0.1932927668094635,-0.9677686095237732,-0.16143764555454254,0.4130915403366089,0.6852367520332336,-0.3670961856842041
1.3453177791604705,0.8265310972979303,-1.188580995896888,0.5195920467376709,2.441371440887451,3.4053428173065186,0.16445718705654144,-0.9746872186660767,-0.15145543217658997,0.32446497678756714,0.7158675789833069,-0.3877442479133606
1.3735122170909628,0.7556018049918404,-1.0902779394021385,0.5197356343269348,2.5506815910339355,3.4828250408172607,0.13440729677677155,-0.980602502822876,-0.14266549050807953,0.23752573132514954,0.7356531023979187,-0.3923380374908447
1.400491549149731,0.6540561055978065,-0.960996579501792,0.5259440541267395,2.541109800338745,3.582763433456421,0.1031152606010437,-0.9855331778526306,-0.13450556993484497,0.1593359410762787,0.7501052618026733,-0.407684862613678
1.4255051263101586,0.5080448139860388,-0.7874967084866354,0.6641096472740173,2.5088469982147217,3.690674066543579,0.07043153792619705,-0.9894638061523438,-0.1264946460723877,0.07051391899585724,0.7606276869773865,-0.42488157749176025
1.447366281698804,0.30039088606840936,-0.5530597893955445,0.8680545091629028,2.400893211364746,3.787501335144043,0.03642987459897995,-0.9923921823501587,-0.11760503053665161,-0.030463669449090958,0.7745880484580994,-0.45185285806655884
1.4631048154211723,0.006981131516324916,-0.23421842129101428,1.0694037675857544,2.2484774589538574,3.9101033210754395,0.0007503567030653358,-0.9942068457603455,-0.10748178511857986,-0.1430843323469162,0.7704366445541382,-0.4400949478149414
1.4674099609260913,-0.36383860318659716,0.16033881444552595,1.214097499847412,2.0524821281433105,4.046651363372803,-0.036726031452417374,-0.9946603775024414,-0.09644652158021927,-0.24299807846546173,0.7506875991821289,-0.3862804174423218
1.4567222126165995,-0.7290774710596556,0.547344145366171,1.3193492889404297,1.8483901023864746,4.1440887451171875,-0.0758298933506012,-0.9935005903244019,-0.0848914086818695,-0.3793092668056488,0.7106941342353821,-0.32038187980651855
1.4335703358849516,-1.0084507469994357,0.8468310316333937,1.4242733716964722,1.714004397392273,4.14621114730835,-0.11573060601949692,-0.9905992746353149,-0.07293596118688583,-0.5524975061416626,0.6289506554603577,-0.2533426284790039
1.403387102698003,-1.1981220874232972,1.0557654269246046,1.5068897008895874,1.6600593328475952,4.026071071624756,-0.15519118309020996,-0.9860197901725769,-0.0606708899140358,-0.759756326675415,0.5106016397476196,-0.20690709352493286
1.370604869924003,-1.3245816407525233,1.2011680669474984,1.54355788230896,1.6281251907348633,3.7794816493988037,-0.19286036491394043,-0.980028510093689,-0.0484684482216835,-1.012904405593872,0.3715537190437317,-0.13904666900634766
1.3382355284012242,-1.4110591907064838,1.3059684247732772,1.5469286441802979,1.5248832702636719,3.430206775665283,-0.22753652930259705,-0.9730793833732605,-0.036658357828855515,-1.257097840309143,0.23824656009674072,-0.02043992280960083
1.3081924024792004,-1.4739304116082712,1.3854789798685945,1.5384929180145264,1.2901893854141235,2.9926538467407227,-0.2583789527416229,-0.9657172560691833,-0.02510668896138668,-1.4875164031982422,0.07869338989257812,0.12105405330657959
1.2818656532615627,-1.5235098373295248,1.448589627275437,1.4973335266113281,0.9171633720397949,2.4816932678222656,-0.2846094071865082,-0.9585490822792053,-0.01346821989864111,-1.703290343284607,-0.09203386306762695,0.27569061517715454
1.2599286265637368,-1.566212565132071,1.50069630922501,1.4587594270706177,0.48839446902275085,1.9772456884384155,-0.3058820366859436,-0.9520685076713562,-0.0014021001989021897,-1.8508868217468262,-0.21727359294891357,0.40440213680267334
1.2422027200556955,-1.6061049090337238,1.5456558468699635,1.4037559032440186,0.0731128603219986,1.5194977521896362,-0.3225114643573761,-0.9464971423149109,0.011392156593501568,-1.9511091709136963,-0.2825831174850464,0.4867159128189087
1.2287019853468721,-1.643367566224065,1.5841427827874424,1.2439978122711182,-0.24152185022830963,1.0218966007232666,-0.33457788825035095,-0.9420541524887085,0.024323446676135063,-2.0462357997894287,-0.326515793800354,0.5536338090896606
1.2204889443599694,-1.6755339506743492,1.6145456419622701,0.9306775331497192,-0.45789650082588196,0.4166640043258667,-0.3413059413433075,-0.9392672777175903,0.03587886691093445,-2.135897397994995,-0.36746490001678467,0.6250861883163452
1.2187426583374066,-1.7000424833273076,1.6350079911136706,0.4922553598880768,-0.5891094207763672,-0.23563866317272186,-0.34195056557655334,-0.9386665225028992,0.04444354027509689,-2.204421043395996,-0.3962639570236206,0.6891533136367798
1.2238512670339454,-1.7154663647476354,1.6449972537489703,0.04900256171822548,-0.5946254134178162,-0.8609494566917419,-0.33647453784942627,-0.9404158592224121,0.049020249396562576,-2.200955390930176,-0.3743577003479004,0.6958072185516357
1.2354193335126935,-1.721695438318197,1.645921550181935,-0.31898754835128784,-0.4690055251121521,-1.41762375831604,-0.32538577914237976,-0.9442862868309021,0.04947653040289879,-2.1279375553131104,-0.3178293704986572,0.5891954898834229
1.252486283663566,-1.719484502208575,1.6391890243415197,-0.6043024063110352,-0.37210747599601746,-1.8681104183197021,-0.3095097243785858,-0.949765682220459,0.046362604945898056,-1.9865413904190063,-0.2352779507637024,0.46691274642944336
1.2737906507580685,-1.71024092989095,1.6257479428748138,-0.796646773815155,-0.3515300154685974,-2.207341194152832,-0.28981804847717285,-0.9562171101570129,0.04067755863070488,-1.8063123226165771,-0.12409007549285889,0.37007391452789307
1.2981679618603246,-1.6955832830479145,1.606381154472205,-0.9057562351226807,-0.4478195309638977,-2.456192970275879,-0.2671704590320587,-0.9630665183067322,0.033513523638248444,-1.6059222221374512,-0.014060676097869873,0.27968859672546387
1.3246741552749466,-1.6771033010333658,1.5815820969851506,-0.956518828868866,-0.6619462966918945,-2.6401212215423584,-0.24227024614810944,-0.969864547252655,0.025852477177977562,-1.4061062335968018,0.07428032159805298,0.19857394695281982
1.352664590821606,-1.6554115121237587,1.5510206698522948,-0.9706892371177673,-0.9469290375709534,-2.7764370441436768,-0.21563215553760529,-0.9763034582138062,0.01828942447900772,-1.2285969257354736,0.16284209489822388,0.12129819393157959
1.381639433496936,-1.628968699382636,1.5128367285859656,-0.9730916023254395,-1.2301819324493408,-2.8702714443206787,-0.18771333992481232,-0.98216313123703,0.01093206461519003,-1.074920892715454,0.251679003238678,0.038979530334472656
1.411070523969607,-1.594203556205686,1.4638683379201065,-0.9574231505393982,-1.442205786705017,-2.917970895767212,-0.15900443494319916,-0.9872709512710571,0.003722533117979765,-0.9309613704681396,0.33321815729141235,-0.047286152839660645
1.440484971776556,-1.543787001213641,1.39765200820581,-0.9414841532707214,-1.5550795793533325,-2.944885492324829,-0.12989594042301178,-0.9915214776992798,-0.00350925512611866,-0.8068106174468994,0.4118247628211975,-0.13687151670455933
1.469524040420192,-1.4608532373652348,1.2983450412453772,-0.9417456984519958,-1.572017788887024,-2.9830868244171143,-0.10048974305391312,-0.9948763251304626,-0.01109288353472948,-0.695820689201355,0.48231828212738037,-0.21461498737335205
1.4975194941187995,-1.3064063412542644,1.1276725962637397,-0.9341295957565308,-1.5284079313278198,-3.0318338871002197,-0.07066848874092102,-0.9973164796829224,-0.019131919369101524,-0.5916392803192139,0.5378284454345703,-0.2766290307044983
1.5218437468615396,-0.9720691463390239,0.777929080675765,-0.9168291687965393,-1.411835789680481,-3.0796725749969482,-0.04042229801416397,-0.9988020658493042,-0.027578916400671005,-0.49403202533721924,0.5855177044868469,-0.34063082933425903
1.533164368579987,-0.26454030045652366,0.0564252327372819,-0.8962408900260925,-1.2489265203475952,-3.1064279079437256,-0.009838067926466465,-0.9992920160293579,-0.03631770238280296,-0.3893623650074005,0.6372618675231934,-0.3937969207763672
1.5210305630623255,0.4312968723677891,-0.6515395667449121,-0.8599606156349182,-1.0462958812713623,-3.0946593284606934,0.020796475932002068,-0.9987619519233704,-0.045190904289484024,-0.2774950861930847,0.6887032985687256,-0.43094420433044434
1.496486125887827,0.7573033769779306,-0.9875705061143955,-0.8235353827476501,-0.8348460793495178,-3.0285420417785645,0.051002372056245804,-0.9972402453422546,-0.05395181477069855,-0.1653059422969818,0.7409840822219849,-0.4524567127227783
1.4688630750533969,0.9103146392175856,-1.1485465722447838,-0.774834394454956,-0.6314373016357422,-2.9306647777557373,0.08035736531019211,-0.9948093295097351,-0.06242779269814491,-0.06154327094554901,0.7908145189285278,-0.46178776025772095
1.441071557694272,0.9961468074067706,-1.2404809759746775,-0.700581431388855,-0.4810745418071747,-2.8074376583099365,0.10858327895402908,-0.9915975332260132,-0.07031287997961044,0.030042819678783417,0.8239187598228455,-0.4671320915222168
1.4141490367162182,1.0519329310838803,-1.3016181750264746,-0.5983059406280518,-0.477845698595047,-2.686617136001587,0.1354745328426361,-0.9877558946609497,-0.07736322283744812,0.11298432946205139,0.8375483155250549,-0.45910513401031494
1.388586399790044,1.092514066433503,-1.3482369840878852,-0.4588891565799713,-0.6063961386680603,-2.5616705417633057,0.16087032854557037,-0.9834456443786621,-0.08339992165565491,0.19055485725402832,0.8364424109458923,-0.42055195569992065
1.3645185723049194,1.1234625306287116,-1.3872785604089322,-0.3493770360946655,-0.8788667917251587,-2.4019687175750732,0.184665247797966,-0.9788000583648682,-0.08859702199697495,0.2649502456188202,0.8302099108695984,-0.3797255754470825
1.3421837633455986,1.1435003573100309,-1.418643811737934,-0.3239474296569824,-1.2350366115570068,-2.2000129222869873,0.2062506377696991,-0.9739817380905151,-0.09391670674085617,0.3523126244544983,0.8076456785202026,-0.3041391968727112
1.3217261335704609,1.1513638222046207,-1.441338037559778,-0.3822493553161621,-1.5927410125732422,-1.9565335512161255,0.22513632476329803,-0.9691420197486877,-0.10038649290800095,0.44683027267456055,0.7792616486549377,-0.2036600112915039
1.303190979862009,1.1468803866730362,-1.4549143210488074,-0.5026569366455078,-1.910841941833496,-1.7002042531967163,0.24101822078227997,-0.9644068479537964,-0.10876614600419998,0.5245763659477234,0.7483268976211548,-0.14211872220039368
1.2863961187694326,1.1314166185130958,-1.4601867362084795,-0.6337060332298279,-2.1726536750793457,-1.4657014608383179,0.25393161177635193,-0.959830105304718,-0.11935369670391083,0.5860495567321777,0.6934114694595337,-0.11553998291492462
1.270932240938297,1.107914027967923,-1.4593808627574105,-0.7461509108543396,-2.344662666320801,-1.3003226518630981,0.2643064558506012,-0.9553766250610352,-0.13190048933029175,0.6340090036392212,0.6179894804954529,-0.11932003498077393
1.256077435494905,1.079532318372492,-1.4547902233430914,-0.8620399236679077,-2.4274799823760986,-1.2102962732315063,0.27294111251831055,-0.9508834481239319,-0.14602701365947723,0.682518482208252,0.5030837059020996,-0.13035529851913452
1.241249308337128,1.0484992507445139,-1.4476105525838046,-0.967000424861908,-2.389160394668579,-1.159075379371643,0.2804691791534424,-0.9461890459060669,-0.16144253313541412,0.7542752027511597,0.3559941053390503,-0.11991412937641144
1.2262397916163952,1.0174048355665486,-1.4392971452529124,-1.0299886465072632,-2.22654390335083,-1.130240797996521,0.287365198135376,-0.9412253499031067,-0.17752884328365326,0.8558691740036011,0.19709980487823486,-0.11893405020236969
1.2111374168285043,0.9891527095990326,-1.4312916515247889,-1.0461745262145996,-1.8810515403747559,-1.1146736145019531,0.2940799295902252,-0.9360169172286987,-0.1933634728193283,0.9737576246261597,0.009579479694366455,-0.14411503076553345
1.1961165755125123,0.9666327572223958,-1.4247568321686892,-1.0102559328079224,-1.3798757791519165,-1.1063206195831299,0.3011888265609741,-0.9306249022483826,-0.20790059864521027,1.1025893688201904,-0.1763087511062622,-0.1749269962310791
1.1815870334341516,0.9512495707773367,-1.4203461646554738,-0.9143524765968323,-0.8774510025978088,-1.0735067129135132,0.3089318573474884,-0.9252094030380249,-0.2203379124403,1.2461981773376465,-0.3486401438713074,-0.19912606477737427
1.1681443049633342,0.9426949031043449,-1.418192063280535,-0.783480703830719,-0.44018206000328064,-0.9977450966835022,0.31707143783569336,-0.9200249910354614,-0.2302607297897339,1.3905854225158691,-0.4951058030128479,-0.20853617787361145
1.156265066552432,0.9396852188196023,-1.4176568287759872,-0.6448028683662415,-0.07743103057146072,-0.8874565958976746,0.3251783549785614,-0.9153051972389221,-0.23764614760875702,1.5134447813034058,-0.5892267227172852,-0.21366292238235474
1.1461806924287532,0.9405555272995851,-1.4180228680768432,-0.5193567872047424,0.16267476975917816,-0.7511602640151978,0.33282533288002014,-0.9111971259117126,-0.24279063940048218,1.5933527946472168,-0.6329466700553894,-0.21227213740348816
1.1381261168929013,0.9432192569986605,-1.4185793624495933,-0.3862861394882202,0.25779980421066284,-0.566041886806488,0.3394005596637726,-0.9078493714332581,-0.2462046593427658,1.6386420726776123,-0.6209439635276794,-0.20698122680187225
1.1328028893400848,0.9462220253942693,-1.418667929664314,-0.22877906262874603,0.3225977122783661,-0.28431910276412964,0.3440537452697754,-0.9056045413017273,-0.24800680577754974,1.653001308441162,-0.5376175045967102,-0.2396182268857956
1.1311377852008622,0.9487385840168325,-1.4175035768044482,-0.036742713302373886,0.3947470784187317,0.08080064505338669,0.3459021747112274,-0.9048970341682434,-0.2480188012123108,1.6495813131332397,-0.4049023389816284,-0.30775198340415955
1.1340175100519747,0.9511929131537025,-1.4151594847636586,0.21730872988700867,0.5254925489425659,0.5048994421958923,0.3443867266178131,-0.9061189889907837,-0.2456546574831009,1.6096843481063843,-0.24964278936386108,-0.38987380266189575
1.1420311028594377,0.9547756790273215,-1.4122829893793702,0.5173576474189758,0.7142367959022522,0.9366059303283691,0.3393271863460541,-0.9094797968864441,-0.24021600186824799,1.531339406967163,-0.09712731838226318,-0.47181999683380127
1.1553116696303605,0.9606982219179232,-1.4096180693827787,0.8259679675102234,0.9574084281921387,1.3510172367095947,0.33081451058387756,-0.9149208068847656,-0.23126082122325897,1.4246939420700073,0.034198760986328125,-0.5280469059944153
1.1734269763362455,0.9697033182840061,-1.4074796355844763,1.0811948776245117,1.2297061681747437,1.7079230546951294,0.31916117668151855,-0.922082245349884,-0.2188624143600464,1.3079140186309814,0.1406489610671997,-0.5385990142822266
1.1954087413886676,0.9815112346431183,-1.4053909420559907,1.2365602254867554,1.5095306634902954,1.999847650527954,0.30479639768600464,-0.9303655624389648,-0.2037627100944519,1.1804331541061401,0.22344106435775757,-0.49411314725875854
1.2201516767713265,0.9955366626259434,-1.4026568414835092,1.3063504695892334,1.7954047918319702,2.2151131629943848,0.2882169187068939,-0.9391514658927917,-0.18688395619392395,1.0530307292938232,0.2833744287490845,-0.4172723889350891
1.2466550271845607,1.0109596748744436,-1.3985949404401028,1.3003891706466675,2.0361480712890625,2.3779873847961426,0.26987388730049133,-0.9479245543479919,-0.1691359132528305,0.9372642040252686,0.3326902389526367,-0.3465500473976135
1.2741800392839386,1.0259728341505927,-1.3920284777672882,1.233689785003662,2.1930530071258545,2.500647783279419,0.2499682903289795,-0.9563309550285339,-0.15148212015628815,0.8441479206085205,0.3792893886566162,-0.276938796043396
1.3022690205003693,1.0385675303254205,-1.3817536537247062,1.1449081897735596,2.2743160724639893,2.599215507507324,0.22861337661743164,-0.9641626477241516,-0.13463382422924042,0.7658782005310059,0.4378870725631714,-0.22603802382946014
1.330796910471106,1.0469076398546977,-1.3666755714351126,1.0690345764160156,2.2964773178100586,2.695594549179077,0.20582179725170135,-0.9713380932807922,-0.11891084164381027,0.6951029300689697,0.5055787563323975,-0.20323258638381958
1.3599349402635488,1.0490359307808232,-1.3451721307501605,1.00138258934021,2.305081367492676,2.82124924659729,0.18145348131656647,-0.9778509736061096,-0.10431791096925735,0.6338694095611572,0.5806188583374023,-0.2119356393814087
1.389963357865229,1.0406399778326583,-1.313207327373585,0.928668200969696,2.269196033477783,2.979215621948242,0.1551618129014969,-0.9836941957473755,-0.09094454348087311,0.5849505066871643,0.6691798567771912,-0.22897106409072876
1.4208474889827685,1.014011895442464,-1.2632810401664558,0.8509433269500732,2.2449951171875,3.1377463340759277,0.1268242746591568,-0.9887787103652954,-0.07894545048475266,0.5291205644607544,0.7522979378700256,-0.2364535927772522
1.452214817269038,0.9546280344891449,-1.180696395981423,0.7695507407188416,2.236345052719116,3.2891602516174316,0.09654779732227325,-0.9929774403572083,-0.06836937367916107,0.47150641679763794,0.8269312977790833,-0.2502492666244507
1.4831170615637175,0.8268375134271444,-1.0296464382967763,0.679334282875061,2.244147777557373,3.437957525253296,0.06443154811859131,-0.9961586594581604,-0.05930120125412941,0.4084688425064087,0.8952827453613281,-0.27872663736343384
1.5103560134871252,0.5327639835832798,-0.712164516157995,0.556611180305481,2.2625889778137207,3.5550127029418945,0.030681099742650986,-0.9981740117073059,-0.05203397572040558,0.3518109917640686,0.9495747089385986,-0.29929953813552856
1.5237786920197915,-0.08814116986029852,-0.06729903605595072,0.42102745175361633,2.3485867977142334,3.6195576190948486,-0.00413749273866415,-0.9988948702812195,-0.04682003706693649,0.2761712074279785,0.9804164171218872,-0.32174062728881836
1.5118828909909556,-0.7307843131660624,0.6002209029356114,0.2771196961402893,2.4300944805145264,3.6128275394439697,-0.03929899260401726,-0.9982650876045227,-0.04384428635239601,0.19036100804805756,1.00420081615448,-0.35442525148391724
1.4850868595803233,-1.0418782525175552,0.9364221723337242,0.12859362363815308,2.396841287612915,3.530965805053711,-0.0739079937338829,-0.9963291883468628,-0.043196603655815125,0.09494985640048981,1.0159366130828857,-0.36355680227279663
1.4537756126292165,-1.175848294802909,1.094892500595341,-0.048714496195316315,2.31764554977417,3.474050521850586,-0.10776655375957489,-0.9931609034538269,-0.04492257907986641,-0.020071588456630707,0.9956174492835999,-0.32543861865997314
1.420446495619385,-1.236951287674148,1.1790723113958461,-0.21768486499786377,2.122732639312744,3.5539910793304443,-0.14151433110237122,-0.9887187480926514,-0.049080949276685715,-0.09858271479606628,1.0003459453582764,-0.27103304862976074
1.3843890592931372,-1.271397294152771,1.2339463993712085,-0.25587567687034607,1.773521065711975,3.8700499534606934,-0.1770847886800766,-0.9826763868331909,-0.05466216057538986,-0.1695033311843872,1.054163932800293,-0.248529851436615
1.3448009448128713,-1.3020627346872298,1.2809383282632236,-0.08495187759399414,1.2744531631469727,4.236125946044922,-0.21603401005268097,-0.9745715260505676,-0.059494730085134506,-0.2942809462547302,1.0983966588974,-0.27271950244903564
1.3026154314708829,-1.3384262224363572,1.329147177445774,0.29781198501586914,0.8018561005592346,4.469239711761475,-0.25785595178604126,-0.9642544984817505,-0.06102026626467705,-0.5569023489952087,1.0398313999176025,-0.329589307308197
1.2599859103391498,-1.3816047845716506,1.3805665407008287,0.783708930015564,0.43095797300338745,4.406576156616211,-0.3003728687763214,-0.9520860314369202,-0.05751588195562363,-0.9238091707229614,0.8826128840446472,-0.3661900758743286
1.2199110664340358,-1.4280893082633168,1.4327568545063674,1.2153548002243042,0.14844918251037598,3.990384101867676,-0.3402351438999176,-0.9390687942504883,-0.0488862581551075,-1.3478598594665527,0.6433992385864258,-0.33346831798553467
1.1849396452758805,-1.474146794718746,1.4823769360498702,1.4550318717956543,-0.09482339769601822,3.3338887691497803,-0.374596506357193,-0.9264763593673706,-0.03631773218512535,-1.7506171464920044,0.3665551543235779,-0.1945781111717224
1.1564641534034692,-1.515355133073407,1.52521076142423,1.3875535726547241,-0.2397753894329071,2.5719940662384033,-0.4019603133201599,-0.915385365486145,-0.022308019921183586,-2.057313919067383,0.09810936450958252,0.024474920704960823
1.1352256956893125,-1.5466052927750205,1.5568184390925968,1.009092926979065,-0.2208499014377594,1.7567604780197144,-0.4218044579029083,-0.9066294431686401,-0.010205877013504505,-2.2453250885009766,-0.11064356565475464,0.27975255250930786
1.1217060987991556,-1.5640108946233728,1.5747076122464523,0.4650762975215912,-0.015340087004005909,0.9654237031936646,-0.4341362714767456,-0.9008424282073975,-0.002945847576484084,-2.385565996170044,-0.2520506978034973,0.47375595569610596
1.1161327305002295,-1.5664680882977964,1.5784057122376458,-0.14940151572227478,0.1848507970571518,0.1431862860918045,-0.4391561448574066,-0.898408830165863,-0.0019007843220606446,-2.450416088104248,-0.32105839252471924,0.5694057941436768
1.1187747336831317,-1.5552078252931285,1.5687134393708893,-0.6726606488227844,0.3110475540161133,-0.6653845906257629,-0.43673181533813477,-0.8995659351348877,-0.006808545906096697,-2.5033774375915527,-0.31304997205734253,0.6181977987289429
1.1287350592338117,-1.5336895679785005,1.5484076841897418,-0.9990462064743042,0.30826643109321594,-1.3472623825073242,-0.42750945687294006,-0.9038717746734619,-0.015870776027441025,-2.4171409606933594,-0.2682017683982849,0.5787981152534485
1.1444854259043882,-1.506136452408186,1.5206726132600574,-1.1467533111572266,0.15373821556568146,-1.8914920091629028,-0.41265103220939636,-0.9104974269866943,-0.026719210669398308,-2.2163009643554688,-0.22878497838974,0.4684765338897705
1.1646940970220963,-1.475276339536415,1.4873433511523253,-1.199695348739624,-0.08579688519239426,-2.326894760131836,-0.39323103427886963,-0.9186675548553467,-0.03767608106136322,-1.9994691610336304,-0.15379655361175537,0.37639081478118896
1.1881827549063124,-1.4417619754224933,1.4484808817877959,-1.23518967628479,-0.3892282545566559,-2.6429014205932617,-0.3702429234981537,-0.9276920557022095,-0.048040978610515594,-1.788097620010376,-0.04684114456176758,0.31748080253601074
1.2136386224906748,-1.4043914117055307,1.402608641660986,-1.2866268157958984,-0.6796185374259949,-2.8523526191711426,-0.3447835445404053,-0.9368942975997925,-0.057909175753593445,-1.5718424320220947,0.051121532917022705,0.2750113606452942
1.2399872613085958,-1.3609933421918852,1.3478625992970776,-1.3448123931884766,-0.9351879954338074,-2.990394115447998,-0.3176862299442291,-0.9457798600196838,-0.06764698773622513,-1.3732775449752808,0.14022254943847656,0.22862732410430908
1.2664674634007975,-1.3092825090951794,1.2824824107768413,-1.3749817609786987,-1.1283066272735596,-3.0871260166168213,-0.2894648611545563,-0.9540482759475708,-0.07747328281402588,-1.2028905153274536,0.22754675149917603,0.15782618522644043
1.2924800123322286,-1.2471921659124208,1.2051018888797231,-1.366847038269043,-1.2662078142166138,-3.1500797271728516,-0.26047709584236145,-0.9615193605422974,-0.08736249804496765,-1.048299789428711,0.30786335468292236,0.07033384591341019
1.3175002829731415,-1.1722263642668698,1.1138411029970121,-1.3435299396514893,-1.3347227573394775,-3.1955747604370117,-0.2309541255235672,-0.9680917263031006,-0.09725675731897354,-0.8946257829666138,0.38041454553604126,-0.02241779863834381
1.3408013585148357,-1.0803077117057567,1.0053068727417236,-1.3380727767944336,-1.3491367101669312,-3.2164204120635986,-0.2010955810546875,-0.973667562007904,-0.10738824307918549,-0.7498321533203125,0.4438365697860718,-0.08815299719572067
1.3613477138596644,-0.9667365588699859,0.8751538435936653,-1.361735224723816,-1.3304849863052368,-3.2104153633117676,-0.17112629115581512,-0.9781457185745239,-0.11809653788805008,-0.6133280396461487,0.5037804841995239,-0.12808857858181
1.3778039480584325,-0.8282847361090007,0.7204993452216577,-1.4154293537139893,-1.2810920476913452,-3.1790366172790527,-0.1413106471300125,-0.98143470287323,-0.12968158721923828,-0.4851847290992737,0.5637863278388977,-0.1566799283027649
1.3886657878453914,-0.6666563635210925,0.5430810251449767,-1.4824453592300415,-1.2563145160675049,-3.1169562339782715,-0.11200068145990372,-0.983460009098053,-0.1423448771238327,-0.3586413860321045,0.6227422952651978,-0.17880670726299286
1.3930007205851047,-0.4919148889641617,0.3526447365849479,-1.5053478479385376,-1.2642853260040283,-3.025486946105957,-0.08353371173143387,-0.984235942363739,-0.15589000284671783,-0.24323324859142303,0.6760847568511963,-0.20742164552211761
1.391021397447002,-0.32126918733508664,0.16628434171148718,-1.4607210159301758,-1.2766858339309692,-2.8717775344848633,-0.05646249279379845,-0.9838839769363403,-0.16965965926647186,-0.14066579937934875,0.7218447327613831,-0.2614772915840149
1.3838759133022454,-0.17016218619204457,-0.0004389616778709435,-1.388135313987732,-1.2842155694961548,-2.650717258453369,-0.031469546258449554,-0.9825811982154846,-0.18315011262893677,-0.03864457830786705,0.7664251327514648,-0.3176432251930237
1.3731153445094926,-0.04670224712828686,-0.1393814608572963,-1.3127678632736206,-1.2927100658416748,-2.381963014602661,-0.009168820455670357,-0.9805246591567993,-0.1961822807788849,0.0602552555501461,0.800608217716217,-0.3535307049751282
1.3602400347485855,0.048354457082682135,-0.24975701230567188,-1.245692253112793,-1.3028228282928467,-2.0916953086853027,0.010102348402142525,-0.9779148101806641,-0.20875993371009827,0.14890950918197632,0.8180941939353943,-0.3680526614189148
1.3465006794285734,0.11855819663168134,-0.3350336974186492,-1.1766163110733032,-1.3042023181915283,-1.7935781478881836,0.02630797028541565,-0.9749510288238525,-0.22085857391357422,0.22225771844387054,0.811987042427063,-0.37026679515838623
1.332702880863319,0.1685774739636945,-0.3998999554591376,-1.1226118803024292,-1.3168424367904663,-1.5383505821228027,0.039570994675159454,-0.9717894196510315,-0.23250696063041687,0.27839165925979614,0.7878141403198242,-0.3641725778579712
1.319179424455563,0.20351677972390977,-0.4497510451479836,-1.082198143005371,-1.3616337776184082,-1.3370251655578613,0.05032065883278847,-0.9685111045837402,-0.24383240938186646,0.3223142623901367,0.749623715877533,-0.340762197971344
1.3059783512611556,0.2272977764782431,-0.48883042807647825,-1.068630576133728,-1.4344260692596436,-1.1713372468948364,0.058980610221624374,-0.965140163898468,-0.25500190258026123,0.3670448064804077,0.691565215587616,-0.319979727268219
1.2928200940637598,0.24123164981254566,-0.5188792919992306,-1.1155309677124023,-1.5730279684066772,-1.0010629892349243,0.06555631011724472,-0.9616127610206604,-0.2664646804332733,0.44459080696105957,0.6113624572753906,-0.28164613246917725
1.2793180016386063,0.24540991991800157,-0.5408747047963419,-1.202991008758545,-1.8150522708892822,-0.8540595769882202,0.0698174312710762,-0.9578201174736023,-0.2787587344646454,0.5485450029373169,0.5306196808815002,-0.23387539386749268
1.2652498936577077,0.24119967643523843,-0.5571575119320759,-1.2832763195037842,-2.134967803955078,-0.7491283416748047,0.07185488194227219,-0.9536827206611633,-0.2921065390110016,0.6332690715789795,0.42354655265808105,-0.20574182271957397
1.2508406230053133,0.22970855953010982,-0.5695712378386786,-1.3306875228881836,-2.5175588130950928,-0.666146457195282,0.0716153010725975,-0.9492493271827698,-0.3062629997730255,0.7302188277244568,0.273529052734375,-0.19181424379348755
1.2363973072461896,0.21219363752773504,-0.5797380212557881,-1.327535629272461,-2.8745880126953125,-0.603225827217102,0.0691208615899086,-0.9446077346801758,-0.3208405375480652,0.8298812508583069,0.120694100856781,-0.20638105273246765
1.2224209390487841,0.19082603169701806,-0.5886592104003977,-1.278836965560913,-3.027845859527588,-0.5378150343894958,0.0647478848695755,-0.9399285316467285,-0.33517464995384216,0.9143475890159607,-0.01881176233291626,-0.2551419734954834
1.2092369464759607,0.16829183367776124,-0.5966104683455549,-1.204800009727478,-2.917912721633911,-0.4767892360687256,0.05924981087446213,-0.9353463649749756,-0.3487358093261719,0.999008297920227,-0.1469443440437317,-0.3095740079879761
1.1970916407807544,0.147563370147697,-0.6038515334925968,-1.103331446647644,-2.5308797359466553,-0.4158881902694702,0.05367520451545715,-0.9309812784194946,-0.3610994219779968,1.0828909873962402,-0.27054160833358765,-0.36796537041664124
1.1860848172766119,0.13115120833036387,-0.6103495989882793,-1.0016412734985352,-1.9160702228546143,-0.3664758801460266,0.04907896742224693,-0.9269067645072937,-0.3720686137676239,1.1687860488891602,-0.4053228497505188,-0.42982640862464905
1.1761881168647754,0.12134155070218923,-0.6163485296715401,-0.9004372358322144,-1.1321454048156738,-0.3320462703704834,0.046534955501556396,-0.9231472611427307,-0.38161981105804443,1.2380872964859009,-0.5489749908447266,-0.4815240502357483
1.1673111930939652,0.1191700344778803,-0.6218906606751428,-0.8038699626922607,-0.3280409574508667,-0.30588844418525696,0.04667861759662628,-0.9196982383728027,-0.38984161615371704,1.2905406951904297,-0.6779428720474243,-0.5175526738166809
1.1595427237282003,0.12414398391158223,-0.6269024789571155,-0.6829214096069336,0.38062652945518494,-0.2714461088180542,0.04950029402971268,-0.9166204333305359,-0.3966824412345886,1.3318932056427002,-0.7702998518943787,-0.5340730547904968
1.1532719655105854,0.1343008622281336,-0.6308912228389718,-0.5088534355163574,0.8880233764648438,-0.2025061845779419,0.05429527163505554,-0.9140955805778503,-0.40184730291366577,1.3625290393829346,-0.8177312612533569,-0.5502399802207947
1.1491216292704267,0.14692497567011145,-0.633288044151042,-0.2763940691947937,1.164609670639038,-0.09757187217473984,0.05991865321993828,-0.9124047756195068,-0.40487927198410034,1.3748500347137451,-0.8184454441070557,-0.5678988695144653
1.1476587678598413,0.15939490826931305,-0.6333392064883311,-0.007682202849537134,1.3001153469085693,0.0575878843665123,0.06517449021339417,-0.9118050932884216,-0.40541818737983704,1.3665882349014282,-0.7675467729568481,-0.5792008638381958
1.1493566418062524,0.1698852873852515,-0.6300148802383786,0.3013403117656708,1.396226406097412,0.27095773816108704,0.06916197389364243,-0.9125009179115295,-0.40318572521209717,1.3369202613830566,-0.6700491905212402,-0.5844392776489258
1.154522115864775,0.17744211113836805,-0.6223188107241389,0.6006106734275818,1.5232192277908325,0.5231135487556458,0.07137381285429001,-0.9146018028259277,-0.39800670742988586,1.291800618171692,-0.543100893497467,-0.590762734413147
1.162978796136804,0.1817792874171486,-0.6093804117860051,0.8667516708374023,1.7117846012115479,0.7980220317840576,0.07169853895902634,-0.9179885983467102,-0.3900723159313202,1.228075623512268,-0.41247105598449707,-0.5757173895835876
1.1743789381655134,0.18247756611367305,-0.590237737570779,1.091847538948059,1.9434194564819336,1.0824016332626343,0.07006718963384628,-0.9224502444267273,-0.37970560789108276,1.1597912311553955,-0.28505414724349976,-0.5492951273918152
1.1883450536758422,0.17894646354055505,-0.564165071535681,1.2897518873214722,2.1579232215881348,1.3557472229003906,0.06642626971006393,-0.9277526140213013,-0.36723676323890686,1.0916242599487305,-0.16422754526138306,-0.523296594619751
1.2044518486693525,0.170499234425756,-0.5308226917894745,1.4454677104949951,2.338644027709961,1.5887082815170288,0.060778211802244186,-0.9336429834365845,-0.3530111312866211,1.0166754722595215,-0.0670284628868103,-0.48863309621810913
1.2221600801914547,0.15676843199267715,-0.49032931647853045,1.5704684257507324,2.477199077606201,1.7662245035171509,0.05333562195301056,-0.9398394823074341,-0.3374274671077728,0.9333282113075256,0.011754035949707031,-0.4614768624305725
1.2409025275780639,0.13700809889325954,-0.44260336791504995,1.6564909219741821,2.5455241203308105,1.9085862636566162,0.04424402862787247,-0.9460767507553101,-0.3209069073200226,0.8607547879219055,0.07876712083816528,-0.43725645542144775
1.2600509833022946,0.1096545930238341,-0.38673563998547333,1.6967674493789673,2.567220449447632,2.0409159660339355,0.03346174582839012,-0.9521059393882751,-0.3039318323135376,0.8074806332588196,0.14569419622421265,-0.40821096301078796
1.2789798617010701,0.07281269189825994,-0.32130350190875756,1.7012548446655273,2.5414674282073975,2.1519880294799805,0.020929161459207535,-0.9577229022979736,-0.2869302034378052,0.7675687670707703,0.21497070789337158,-0.3792989253997803
1.297076745670881,0.024452583663890016,-0.24470589523729677,1.686552882194519,2.482588291168213,2.280383348464966,0.006609239149838686,-0.9627721309661865,-0.2702341079711914,0.7262399196624756,0.2919498682022095,-0.3548268675804138
1.3136525057624544,-0.03864859659247015,-0.1537578476482488,1.645222544670105,2.444178342819214,2.454655408859253,-0.009826654568314552,-0.9671202898025513,-0.2541298270225525,0.696685791015625,0.390627920627594,-0.34486907720565796
1.327705104691934,-0.119085640263251,-0.04535708330721392,1.556816577911377,2.45658278465271,2.660175085067749,-0.028596730902791023,-0.9705985188484192,-0.2389996200799942,0.6689623594284058,0.5012991428375244,-0.34687674045562744
1.3379777359243852,-0.21847852738635434,0.08232075023481249,1.4665287733078003,2.4712774753570557,2.9091787338256836,-0.050007544457912445,-0.9730199575424194,-0.22523647546768188,0.6277510523796082,0.6099827885627747,-0.34327536821365356
1.3434225142127234,-0.3358889420065442,0.2283590163780826,1.3943557739257812,2.448558807373047,3.178941011428833,-0.0743003785610199,-0.9742617607116699,-0.2128230482339859,0.59232097864151,0.7019686102867126,-0.37250399589538574
1.3432931668276151,-0.4675592789160947,0.3883736299185082,1.396162986755371,2.3941118717193604,3.439249277114868,-0.10165566951036453,-0.97423255443573,-0.20133854448795319,0.5448929667472839,0.7812545895576477,-0.41743576526641846
1.3371134904206812,-0.6051920025004659,0.5542812205557742,1.3998571634292603,2.3592946529388428,3.6710824966430664,-0.13174039125442505,-0.9728201627731323,-0.19043515622615814,0.48772794008255005,0.8600271344184875,-0.4732457399368286
1.3246353941018003,-0.7381784890057582,0.7152207697757706,1.401814579963684,2.292489767074585,3.8241918087005615,-0.16398443281650543,-0.9698550701141357,-0.18025122582912445,0.39507877826690674,0.9314942955970764,-0.4673163890838623
1.3065609945782928,-0.8583792638950326,0.8627323248664802,1.396066665649414,2.1980652809143066,3.925710439682007,-0.19765052199363708,-0.9652925133705139,-0.1707186996936798,0.2961307168006897,0.9677795767784119,-0.460689902305603
1.2835667084793103,-0.9619562611605288,0.992583558186568,1.3553922176361084,2.0664291381835938,4.014335632324219,-0.23239170014858246,-0.959032416343689,-0.16202203929424286,0.20915253460407257,0.9562399983406067,-0.4304155707359314
1.256370974060525,-1.0485417505501282,1.1041104033881979,1.3089598417282104,1.893761396408081,4.13001823425293,-0.26804378628730774,-0.9509742856025696,-0.15427511930465698,0.11714956164360046,0.949280321598053,-0.39610928297042847
1.2250652936591737,-1.1215207648306167,1.2000086034845916,1.2646666765213013,1.6449137926101685,4.281393527984619,-0.3052542507648468,-0.9408279657363892,-0.14718197286128998,-0.010587424039840698,0.9745957255363464,-0.35129207372665405
1.1902191011636551,-1.1831939686436752,1.282777493137531,1.2769109010696411,1.5172406435012817,4.444694995880127,-0.3439013957977295,-0.9284504055976868,-0.14039944112300873,-0.1894848644733429,1.006727933883667,-0.3242610692977905
1.1524149474067011,-1.234932069208048,1.3556941222519412,1.3532322645187378,1.572882890701294,4.594235420227051,-0.38358137011528015,-0.9137477278709412,-0.1339045763015747,-0.39725667238235474,1.020376205444336,-0.35982394218444824
1.1129004868412353,-1.2779074250245772,1.4212239512565181,1.4949475526809692,1.6949173212051392,4.579837322235107,-0.42323604226112366,-0.8969846367835999,-0.1276317685842514,-0.6162842512130737,0.9780088067054749,-0.40523552894592285
1.074408369368692,-1.3141877738801677,1.4814936127779639,1.7434630393981934,1.7132153511047363,4.26474666595459,-0.460658460855484,-0.8793085217475891,-0.12087371945381165,-0.8770490884780884,0.8123529553413391,-0.4261842370033264
1.0399685617675394,-1.3476293082563926,1.5383672110464337,2.0369744300842285,1.4548755884170532,3.702768564224243,-0.4936933219432831,-0.8623883128166199,-0.11204230785369873,-1.164494514465332,0.5586162805557251,-0.3760404586791992
1.0116132578155288,-1.3817000650607416,1.592641657710933,2.2889580726623535,0.9857279062271118,2.9562180042266846,-0.521037757396698,-0.8476887941360474,-0.09971767663955688,-1.4249614477157593,0.3276539444923401,-0.2456953525543213
0.9903829869188925,-1.4174782709881928,1.643862462416391,2.384425640106201,0.4920130670070648,2.163048028945923,-0.5419374108314514,-0.8362360596656799,-0.08374600857496262,-1.6258940696716309,0.16726016998291016,-0.06617140769958496
0.9752822784629365,-1.4515326470472896,1.6891867129190294,2.118384599685669,0.27143940329551697,1.5248076915740967,-0.5569499135017395,-0.8278602361679077,-0.06674063205718994,-1.7187154293060303,0.057703375816345215,0.158735990524292
0.9643589163861869,-1.477654321828908,1.7238797101033387,1.5195074081420898,0.24928461015224457,1.0790324211120605,-0.567473292350769,-0.8216837048530579,-0.05300898104906082,-1.749817967414856,0.028104662895202637,0.4495545029640198
0.9562256348578171,-1.4924118731503666,1.7459089983866238,0.8526431918144226,0.418694406747818,0.7599846124649048,-0.5748375058174133,-0.8170210719108582,-0.04515083134174347,-1.754920244216919,0.07146131992340088,0.6075746417045593
0.9506957519690554,-1.4961056285095555,1.7564527263167327,0.31058359146118164,0.5324582457542419,0.4404708445072174,-0.5794968605041504,-0.8138200044631958,-0.04336369410157204,-1.7751173973083496,0.1059800386428833,0.6197646260261536
0.948308907468209,-1.4938070095410174,1.7595975257769658,0.05720645561814308,0.4022616147994995,0.05719537287950516,-0.5813307166099548,-0.8124306797981262,-0.044844891875982285,-1.8052353858947754,0.12709742784500122,0.5643762350082397
0.9498964096935189,-1.4916964605241,1.760055925648518,0.04027098789811134,0.06931958347558975,-0.37456440925598145,-0.579948365688324,-0.8133552670478821,-0.045969750732183456,-1.8138352632522583,0.11953812837600708,0.4431867003440857
0.9561570918780393,-1.4934555067416853,1.7603879144748624,0.09298214316368103,-0.37037578225135803,-0.8697214126586914,-0.5749403238296509,-0.8169815540313721,-0.04455522820353508,-1.8048205375671387,0.11324602365493774,0.3622128367424011
0.9673458202232463,-1.4991131120022747,1.760264999993019,0.036982156336307526,-0.7670363783836365,-1.346658706665039,-0.5660299062728882,-0.8233823776245117,-0.040644481778144836,-1.7708537578582764,0.13334929943084717,0.35485363006591797
0.9828245592157768,-1.5055601556360119,1.757032313527895,-0.2088174968957901,-1.035463571548462,-1.7552986145019531,-0.5534948110580444,-0.8320673704147339,-0.03615919128060341,-1.6747004985809326,0.1694391965866089,0.39260464906692505
1.0021469907793807,-1.5087376388909823,1.747583410250262,-0.5818068385124207,-1.1569606065750122,-2.15248966217041,-0.5374581813812256,-0.842629075050354,-0.03339683264493942,-1.5628684759140015,0.21370744705200195,0.43174290657043457
1.0250089164330833,-1.5055755006315454,1.7301362639213422,-0.9595615863800049,-1.1542774438858032,-2.500359296798706,-0.5179877281188965,-0.854718804359436,-0.03383157029747963,-1.474855899810791,0.26904070377349854,0.4211302399635315
1.0506901619632674,-1.494951414344497,1.7043433331320452,-1.2775071859359741,-1.1683400869369507,-2.7800049781799316,-0.49554383754730225,-0.8677664399147034,-0.03765671327710152,-1.3665168285369873,0.3506155014038086,0.35851866006851196
1.0784054042604216,-1.4776298857942016,1.670591176284016,-1.4963284730911255,-1.2769813537597656,-2.9931981563568115,-0.4706841707229614,-0.8812050819396973,-0.04397928714752197,-1.2496681213378906,0.43613672256469727,0.2864110469818115
1.107551964292557,-1.4552396496827544,1.6297149772849573,-1.6140881776809692,-1.5114569664001465,-3.1706032752990723,-0.44387286901474,-0.8946074843406677,-0.05152200907468796,-1.1476799249649048,0.5042418241500854,0.2025536298751831
1.1378341574028759,-1.4293757558660067,1.582358298186784,-1.6642240285873413,-1.850031852722168,-3.3409693241119385,-0.4153728485107422,-0.9077269434928894,-0.05913703516125679,-1.0677509307861328,0.5512511134147644,0.12467367202043533
1.169197393304436,-1.4001779019837224,1.528168972007238,-1.6859805583953857,-2.1977782249450684,-3.516899585723877,-0.38521507382392883,-0.9204371571540833,-0.06637006253004074,-1.0128867626190186,0.580120325088501,0.05851191282272339
1.2016720140354629,-1.3656422853084278,1.4655206100350446,-1.7235244512557983,-2.4860575199127197,-3.719418525695801,-0.3532329499721527,-0.9326436519622803,-0.07350125163793564,-0.9771350622177124,0.5988728404045105,-0.0022737979888916016
1.23516456788415,-1.3212866231985123,1.3904518036743867,-1.8083854913711548,-2.7080485820770264,-3.948592185974121,-0.3191668689250946,-0.9442024230957031,-0.08133001625537872,-0.9425672292709351,0.6175420880317688,-0.04637063294649124
1.2692889943145755,-1.2600456075746025,1.2967587294743705,-1.935334324836731,-2.804535150527954,-4.201236724853516,-0.28273674845695496,-0.9548899531364441,-0.09080244600772858,-0.9119958877563477,0.6411997675895691,-0.0787225291132927
1.30310826090022,-1.1721190692725212,1.1759465915438334,-2.0652194023132324,-2.776768445968628,-4.456109046936035,-0.24375900626182556,-0.9643849730491638,-0.10267980396747589,-0.883010983467102,0.6680745482444763,-0.12684279680252075
1.334674478039485,-1.0459195372486507,1.0172684786931006,-2.1916892528533936,-2.7030978202819824,-4.6622090339660645,-0.20244309306144714,-0.9722524881362915,-0.11722579598426819,-0.8291120529174805,0.7133718729019165,-0.18392151594161987
1.3607736604829939,-0.8701975026903476,0.80994214281322,-2.2954273223876953,-2.571197271347046,-4.817965507507324,-0.15937556326389313,-0.9780262112617493,-0.13440340757369995,-0.7458673715591431,0.771193265914917,-0.2318074107170105
1.3775535452684997,-0.6415479920214313,0.5512179947111064,-2.3523097038269043,-2.386563777923584,-4.951929092407227,-0.11492521315813065,-0.981386661529541,-0.1538587510585785,-0.6733590960502625,0.8228783011436462,-0.28387004137039185
1.381327955164897,-0.37795203552553475,0.2593236270678447,-2.37862229347229,-2.2073850631713867,-5.036693572998047,-0.06949973851442337,-0.982104480266571,-0.1750447005033493,-0.6139566898345947,0.8756285905838013,-0.34277743101119995
1.3704821204206552,-0.11881773592049111,-0.026442095222907695,-2.4064218997955322,-2.0385868549346924,-5.090899467468262,-0.023586435243487358,-0.9800041317939758,-0.19757434725761414,-0.5347021222114563,0.9196860790252686,-0.3764916658401489
1.3464012336448745,0.10132300662806633,-0.2715941332102488,-2.4525434970855713,-1.8523468971252441,-5.147868633270264,0.022507505491375923,-0.9749289155006409,-0.2213754802942276,-0.4583595395088196,0.9404745101928711,-0.36733901500701904
1.312104208613206,0.2732290281304706,-0.4663962947519021,-2.506542921066284,-1.5916622877120972,-5.239839553833008,0.06903022527694702,-0.9667254090309143,-0.2463274747133255,-0.40762272477149963,0.9465988278388977,-0.36696889996528625
1.270463751658849,0.40387814651375836,-0.6175000151217301,-2.5409061908721924,-1.3549227714538574,-5.345573425292969,0.11626056581735611,-0.9552381634712219,-0.2720358967781067,-0.376407653093338,0.9478986859321594,-0.38502267003059387
1.224250041238644,0.5018903942881693,-0.7350834169544963,-2.461460590362549,-1.3577566146850586,-5.3965959548950195,0.1634008139371872,-0.9405514001846313,-0.2977639436721802,-0.2971746027469635,0.9662470817565918,-0.4060475826263428
1.1762560335785708,0.5756069241644465,-0.8297927703802133,-2.2169573307037354,-1.5851778984069824,-5.3694844245910645,0.209237203001976,-0.9231733679771423,-0.322445273399353,-0.14838510751724243,0.961472749710083,-0.4817691147327423
1.1290726740378874,0.6300360407764536,-0.9091208737458717,-1.867213487625122,-2.0366599559783936,-5.24046516418457,0.2518708407878876,-0.9040161371231079,-0.34542131423950195,0.015646249055862427,0.9376159906387329,-0.5676950216293335
1.0847124880629875,0.668749709608985,-0.9782607260749228,-1.430025577545166,-2.5735385417938232,-5.01021146774292,0.2896460294723511,-0.8841691613197327,-0.3665379285812378,0.1789666712284088,0.9405198693275452,-0.6370019912719727
1.0446590947116356,0.6951611839094537,-1.0409588330399497,-0.9408621788024902,-3.083603620529175,-4.721192836761475,0.3216616213321686,-0.8647533655166626,-0.38566216826438904,0.3422178030014038,0.9259106516838074,-0.7253758907318115
1.009725890662373,0.7121083352827365,-1.0992600075472223,-0.4838902950286865,-3.4576029777526855,-4.357350826263428,0.34768614172935486,-0.8466860055923462,-0.40278685092926025,0.4964606463909149,0.8815522789955139,-0.8057091236114502
0.9801795216767513,0.7219009015639248,-1.153020663533836,-0.1326390504837036,-3.5297555923461914,-3.9016993045806885,0.3679890036582947,-0.8305973410606384,-0.4179619252681732,0.6645733118057251,0.8144840598106384,-0.8480291366577148
0.9557727487780063,0.7274043958032587,-1.201361304159319,0.09410187602043152,-3.275134801864624,-3.4121789932250977,0.3836517333984375,-0.8167598247528076,-0.43094637989997864,0.8260955810546875,0.7257411479949951,-0.8605116605758667
0.935613632750452,0.7309794545614194,-1.2435108086007736,0.17014870047569275,-2.8057632446289062,-2.9405677318573,0.3961031138896942,-0.8049632906913757,-0.4417426586151123,0.9441832304000854,0.6141215562820435,-0.8478995561599731
0.9185471299912443,0.7344188906615584,-1.279472172804394,0.17694979906082153,-2.2410144805908203,-2.5432915687561035,0.40676823258399963,-0.7947205901145935,-0.45050951838493347,1.0255439281463623,0.48264777660369873,-0.8055328726768494
0.9039187344605785,0.7390736843694087,-1.3104351300002604,0.21867461502552032,-1.7243421077728271,-2.2311301231384277,0.4166477620601654,-0.7857568264007568,-0.4571551978588104,1.0819485187530518,0.35509276390075684,-0.7752817869186401
0.8915656615368092,0.7457155278998776,-1.3384954637540363,0.3363427519798279,-1.3387888669967651,-2.0117833614349365,0.42622852325439453,-0.778056263923645,-0.46147337555885315,1.1090497970581055,0.24009239673614502,-0.7566203474998474
0.8815773805469087,0.7545789236749992,-1.3651649891501951,0.498166024684906,-1.0207387208938599,-1.8066571950912476,0.4356038272380829,-0.7717429399490356,-0.4633166491985321,1.1106456518173218,0.14894014596939087,-0.7239848375320435
0.8739752850737129,0.7652903571831223,-1.390730312135699,0.6425111889839172,-0.769463300704956,-1.5988153219223022,0.4445928633213043,-0.7668862342834473,-0.46284183859825134,1.1308159828186035,0.09345501661300659,-0.657550036907196
0.8686317248731129,0.777107408237616,-1.4148736971222566,0.7476582527160645,-0.5569180846214294,-1.3643136024475098,0.4528983533382416,-0.7634459137916565,-0.4604710340499878,1.1292550563812256,0.07072734832763672,-0.5692071914672852
0.8656048216136869,0.7891364262086736,-1.4368065805096395,0.8152341842651367,-0.3742257058620453,-1.0725603103637695,0.46004238724708557,-0.7614874243736267,-0.4566156566143036,1.1167093515396118,0.08331054449081421,-0.47218671441078186
0.8650659108834142,0.8005514294143152,-1.4558010347802444,0.8579768538475037,-0.23486007750034332,-0.7156917452812195,0.46551910042762756,-0.7611380219459534,-0.4516203701496124,1.0965536832809448,0.1164083480834961,-0.3836609125137329
0.8673785829675701,0.8105099923841079,-1.4712250818128696,0.8998852968215942,-0.12248317897319794,-0.33107125759124756,0.4687165319919586,-0.7626359462738037,-0.44574785232543945,1.0639066696166992,0.1541154980659485,-0.309043288230896
0.8726512848197492,0.8190387580586911,-1.4834381711458096,0.9685229659080505,-0.04065302386879921,0.003750920295715332,0.4695572257041931,-0.7660358548164368,-0.43898189067840576,0.9906479120254517,0.16927987337112427,-0.2581768333911896
0.8804790455270349,0.8269345887474989,-1.4937839565489526,1.06265389919281,0.03049543872475624,0.22585804760456085,0.46858179569244385,-0.7710440158843994,-0.43118709325790405,0.8583835959434509,0.17398279905319214,-0.2268328070640564
0.8900659649104754,0.8352500136885938,-1.5037784424989218,1.1529302597045898,0.08219245821237564,0.3220471739768982,0.46664848923683167,-0.7771132588386536,-0.4222961962223053,0.7029682397842407,0.16753995418548584,-0.19536420702934265
0.900436556777839,0.8446190189000119,-1.5142895003678645,1.192945122718811,0.1562807410955429,0.3385268449783325,0.4645334780216217,-0.7835981845855713,-0.41253209114074707,0.5607199668884277,0.14483463764190674,-0.15269923210144043
0.910726445048912,0.8553481091621432,-1.5251752899115203,1.160373568534851,0.2814224064350128,0.3143879473209381,0.4628218710422516,-0.789949357509613,-0.40221381187438965,0.4488297700881958,0.12796205282211304,-0.09131637215614319
0.9203288999997786,0.8673032168340907,-1.5358034541595877,1.0610510110855103,0.4216541349887848,0.2974943220615387,0.46179118752479553,-0.7958008050918579,-0.3917270004749298,0.35966581106185913,0.1309143304824829,-0.024639487266540527
0.9289869940307678,0.8798739609455849,-1.5455700988616308,0.9453526139259338,0.5293355584144592,0.2757871747016907,0.4613514542579651,-0.8010139465332031,-0.3814859688282013,0.3037089705467224,0.14644241333007812,0.03752249479293823
0.936732889931856,0.892502333725557,-1.5541964637708798,0.8263517618179321,0.5993330478668213,0.27797579765319824,0.4612870216369629,-0.8056268692016602,-0.3717252016067505,0.2599502205848694,0.15635013580322266,0.07767313718795776
0.9437423894494672,0.904271576680536,-1.5612808000536293,0.6953929662704468,0.6017512083053589,0.30735018849372864,0.4611801505088806,-0.8097596764564514,-0.3627703785896301,0.22560274600982666,0.17278140783309937,0.10109752416610718
0.9504105808607398,0.9141723295798273,-1.5660959161421357,0.5650885701179504,0.5868862271308899,0.39886075258255005,0.46046188473701477,-0.8136542439460754,-0.3548823595046997,0.22166699171066284,0.18438184261322021,0.13947418332099915
0.9570596521825757,0.9217917496810519,-1.5684967311203346,0.46609243750572205,0.5400825142860413,0.4813835918903351,0.45883217453956604,-0.8175016641616821,-0.34808608889579773,0.20669519901275635,0.1935850977897644,0.14888277649879456
0.9636629123933481,0.9274967722453503,-1.5691685047149233,0.3886364698410034,0.4895557761192322,0.5203302502632141,0.45648136734962463,-0.8212867975234985,-0.3422172963619232,0.16720643639564514,0.19726336002349854,0.13643741607666016
0.9700807734369444,0.9320062772519584,-1.5687163456924003,0.3405357897281647,0.4864524006843567,0.5291365385055542,0.45377907156944275,-0.8249313831329346,-0.33700576424598694,0.11441248655319214,0.1752883791923523,0.11082488298416138
0.9760848026763174,0.9361303874564302,-1.567883265521733,0.28509998321533203,0.4702075719833374,0.4866539537906647,0.4511685073375702,-0.8283101320266724,-0.3321888744831085,0.046222299337387085,0.16765034198760986,0.08861291408538818
0.9812442170193999,0.938676117628833,-1.5660907726441538,0.1599375456571579,0.3191831707954407,0.4743717312812805,0.4485587477684021,-0.8311898112297058,-0.328509658575058,0.025257200002670288,0.1577278971672058,0.15297266840934753
0.9860186667234404,0.9393270760516299,-1.5628823133069845,0.12276383489370346,0.3671809136867523,0.49811607599258423,0.4455642104148865,-0.8338348269462585,-0.32587116956710815,0.0277787446975708,0.12886351346969604,0.1258591115474701
0.9904695871190329,0.9402792351274298,-1.5593742685309195,0.09127595275640488,0.3942927122116089,0.4385100305080414,0.4428720474243164,-0.8362835645675659,-0.32325541973114014,-0.021607398986816406,0.11982238292694092,0.036268264055252075
0.9943994134919464,0.9418149662623775,-1.5562839039423866,0.10212021321058273,0.43665120005607605,0.40110331773757935,0.44070708751678467,-0.8384317755699158,-0.3206389844417572,-0.07788357138633728,0.12642616033554077,0.020925968885421753
0.9982653943119278,0.9442123780010604,-1.5535715623809312,0.1098598912358284,0.49336138367652893,0.39603906869888306,0.438845694065094,-0.8405324816703796,-0.3176784813404083,-0.07783794403076172,0.10174769163131714,-0.023904621601104736
1.0020659736609747,0.9470943961240719,-1.5508535866122564,0.09006290137767792,0.5369513034820557,0.3909466564655304,0.4371632933616638,-0.8425854444503784,-0.3145444691181183,-0.07948195934295654,0.08582574129104614,-0.025329649448394775
1.0056445876667421,0.949876168795134,-1.5476131552708554,0.03852780535817146,0.5628029108047485,0.39257997274398804,0.43558117747306824,-0.8445073366165161,-0.31157082319259644,-0.09009164571762085,0.07380115985870361,-0.001798778772354126
1.0089774666858429,0.9521222804194223,-1.5434687597893213,-0.00788615457713604,0.5793852806091309,0.4039754569530487,0.4339846968650818,-0.8462875485420227,-0.30895769596099854,-0.09301173686981201,0.05516505241394043,0.01368492841720581
1.0120981762995331,0.9538732234026214,-1.5386823703703103,-0.04423324391245842,0.573110818862915,0.3951428234577179,0.43236860632896423,-0.8479459285736084,-0.30666786432266235,-0.09765177965164185,0.0359189510345459,0.012982040643692017
1.0149124346730949,0.9550561050640936,-1.5335638634541795,-0.07260377705097198,0.5284547805786133,0.37112846970558167,0.43078139424324036,-0.8494343757629395,-0.3047768175601959,-0.1012830138206482,0.009941518306732178,0.016523122787475586
1.0173459417693342,0.955694977801535,-1.5283655345072196,-0.09213007241487503,0.4767311215400696,0.33521920442581177,0.429286390542984,-0.8507159948348999,-0.30330774188041687,-0.10091722011566162,-0.014625251293182373,0.028771787881851196
1.019218030778097,0.9559625157790594,-1.5235498454870788,-0.10452744364738464,0.38653817772865295,0.2565494477748871,0.4280657172203064,-0.8516985177993774,-0.30227363109588623,-0.10462510585784912,-0.03637826442718506,0.03904440999031067
1.020304921815534,0.9556083786546402,-1.5192862467499328,-0.1339937150478363,0.2722233235836029,0.17830443382263184,0.42720261216163635,-0.8522675633430481,-0.30189093947410583,-0.11995160579681396,-0.06223750114440918,0.0429341197013855
1.0206506514051918,0.9544663792288343,-1.5151528061078179,-0.17839214205741882,0.21252597868442535,0.13071073591709137,0.4266170859336853,-0.8524483442306519,-0.3022082448005676,-0.10863912105560303,-0.07995527982711792,0.04766124486923218
1.0204154278968331,0.9528808511014282,-1.5107572800886646,-0.21907459199428558,0.22930309176445007,0.0953250452876091,0.4263007640838623,-0.8523253798484802,-0.30300042033195496,-0.09237736463546753,-0.08956921100616455,0.04473024606704712
1.019682398232851,0.9517748311202449,-1.5064470859411938,-0.2264055758714676,0.2816925644874573,0.04467741772532463,0.4264742434024811,-0.8519417643547058,-0.3038342297077179,-0.09807443618774414,-0.08520746231079102,0.035569578409194946
1.0184901582483943,0.9518201513946537,-1.5029204749603808,-0.2085658460855484,0.32464268803596497,-0.021174034103751183,0.4273146688938141,-0.8513168692588806,-0.30440381169319153,-0.10533896088600159,-0.07443380355834961,0.01563134789466858
1.0170116836242198,0.9529656727565737,-1.5003181436787845,-0.18466225266456604,0.34852537512779236,-0.05407039821147919,0.42868873476982117,-0.8505402207374573,-0.3046429455280304,-0.09798493981361389,-0.0658721923828125,-0.009199678897857666
1.015576849205364,0.9549778537597065,-1.4982485483518004,-0.15710066258907318,0.4060579240322113,-0.04897550493478775,0.43029677867889404,-0.849784791469574,-0.304484486579895,-0.07119631767272949,-0.05509209632873535,-0.018284589052200317
1.0143880083976886,0.957771445120177,-1.4964622532366363,-0.12899184226989746,0.4485045373439789,-0.03702834993600845,0.43197160959243774,-0.8491575121879578,-0.30386218428611755,-0.04671764373779297,-0.04683864116668701,-0.015809357166290283
1.0134466247768301,0.9612947252298268,-1.4950885147238502,-0.09868426620960236,0.4871712327003479,-0.03436598926782608,0.43369463086128235,-0.8486599326133728,-0.30279573798179626,-0.03356337547302246,-0.0386386513710022,-0.005233317613601685
1.0126557037109725,0.9654686936768458,-1.4939655806103556,-0.09334772825241089,0.5368294715881348,-0.028615280985832214,0.4355066120624542,-0.8482413291931152,-0.3013647794723511,-0.026372700929641724,-0.03135162591934204,0.007633239030838013
1.0117718069763908,0.9698625234167306,-1.492659519547161,-0.12714111804962158,0.5530374646186829,-0.040356360375881195,0.43744462728500366,-0.8477728962898254,-0.2998720407485962,-0.02420613169670105,-0.01692742109298706,0.03295019268989563
1.0105354367879689,0.9735310931419993,-1.490698463103308,-0.18031378090381622,0.5051103830337524,-0.04265040531754494,0.43940848112106323,-0.8471165299415588,-0.29885467886924744,-0.027482151985168457,-0.017690718173980713,0.058757781982421875
1.0091327757974993,0.9758702726922394,-1.487901406439771,-0.2201157957315445,0.4298473298549652,-0.014792677015066147,0.441089928150177,-0.846370279788971,-0.29849162697792053,-0.009601771831512451,-0.018833696842193604,0.06544426083564758
1.0078847931745842,0.9765912620656784,-1.4842717732932873,-0.233643040060997,0.32662734389305115,0.027550004422664642,0.44217976927757263,-0.845704972743988,-0.29876455664634705,0.020253121852874756,-0.013364911079406738,0.05358642339706421
1.0070135669666214,0.9759420738523313,-1.4801735099761717,-0.21947261691093445,0.2326662391424179,0.07195156067609787,0.442595899105072,-0.8452396988868713,-0.2994644045829773,0.038376450538635254,0.0009555816650390625,0.042186081409454346
1.006681882213519,0.9743010285706032,-1.47602946365796,-0.18193957209587097,0.1388416737318039,0.1191355362534523,0.44233566522598267,-0.8450624346733093,-0.3003477156162262,0.04144427180290222,0.01640331745147705,0.030602961778640747
1.0069434500919676,0.9717458150235868,-1.4718914045394214,-0.1568739116191864,0.051994919776916504,0.17137743532657623,0.44138428568840027,-0.8452022075653076,-0.3013523817062378,0.03903874754905701,0.029619932174682617,0.026572227478027344
1.0076717516402292,0.9681922009185093,-1.4675038119398973,-0.14866022765636444,-0.014357785694301128,0.21310922503471375,0.4398033022880554,-0.8455912470817566,-0.3025699853897095,0.038559794425964355,0.029459595680236816,0.030582189559936523
1.008731817292262,0.9638567540175674,-1.4627589212411114,-0.14518161118030548,-0.044811032712459564,0.2457723617553711,0.4377509355545044,-0.846156656742096,-0.30396249890327454,0.03257077932357788,0.026118755340576172,0.0293196439743042
1.0100175858352438,0.9591264999387308,-1.457775696498578,-0.13796670734882355,-0.05407644435763359,0.2667509615421295,0.43541720509529114,-0.8468412160873413,-0.30540481209754944,0.02262115478515625,0.028435945510864258,0.017105400562286377
1.0115459631703108,0.9543847506535018,-1.4528497135361689,-0.11197531968355179,-0.06393786519765854,0.28474968671798706,0.4329075515270233,-0.8476530909538269,-0.3067173957824707,0.01914939284324646,0.031872332096099854,0.005295395851135254
1.0134017169813347,0.9494849989921181,-1.448100617740445,-0.08144599199295044,-0.11611952632665634,0.3074589967727661,0.43011951446533203,-0.8486362099647522,-0.3079184889793396,0.01903820037841797,0.0343661904335022,-0.0008276998996734619
1.015504460953381,0.9440797906450732,-1.4435520698430047,-0.06129971146583557,-0.19138817489147186,0.3101538419723511,0.4270027279853821,-0.849746584892273,-0.3091917037963867,0.018904924392700195,0.026977360248565674,0.0006591081619262695
1.017529408329819,0.938522433368157,-1.439427561454451,-0.05496549233794212,-0.21154668927192688,0.2694641649723053,0.4238888621330261,-0.8508123755455017,-0.31054237484931946,0.005966514348983765,0.002011716365814209,-0.001927018165588379
1.0191437050393657,0.9333200332428295,-1.4356456683955445,-0.07379297912120819,-0.1705063134431839,0.2238205075263977,0.4211633503437042,-0.8516595363616943,-0.3119255602359772,-0.019780844449996948,-0.01459723711013794,-0.009470164775848389
1.0202746113492405,0.9289417876688861,-1.4319443557364162,-0.10055600106716156,-0.07049354910850525,0.18916980922222137,0.41902196407318115,-0.8522517085075378,-0.3131897449493408,-0.03421047329902649,-0.0037664175033569336,-0.013928055763244629
1.021025185490521,0.9254276852207537,-1.428161203379742,-0.12336143851280212,0.006629203446209431,0.16878969967365265,0.41740772128105164,-0.852644145488739,-0.31427550315856934,-0.028003305196762085,0.0006694197654724121,-0.0137423574924469
1.0215304681681403,0.9222028966208964,-1.4240421196905397,-0.15628160536289215,0.04939034581184387,0.1733856052160263,0.4160483479499817,-0.8529080152511597,-0.3153593838214874,-0.01344519853591919,0.0020627379417419434,-0.008569329977035522
1.0219198968479188,0.9188464615718146,-1.4192395658925139,-0.1953030377626419,0.09895070642232895,0.19176088273525238,0.4147237241268158,-0.8531112670898438,-0.31655269861221313,0.0028330981731414795,-0.0001602768898010254,-0.0017760992050170898
1.0222252237439307,0.915418224980098,-1.4137122356345444,-0.21964426338672638,0.1611662209033966,0.2059277892112732,0.4134294390678406,-0.8532705307006836,-0.3178137540817261,0.007072329521179199,-0.0036326050758361816,-0.003414154052734375
1.0225348978727207,0.9125003706147334,-1.408001980374177,-0.20613059401512146,0.2263670563697815,0.20569372177124023,0.4122914969921112,-0.8534319400787354,-0.31885719299316406,0.0006114840507507324,-0.0024031400680541992,-0.018926531076431274
1.0230102112575248,0.9104499168464362,-1.4027701904055558,-0.16086138784885406,0.2498774379491806,0.20135261118412018,0.4113161861896515,-0.8536795973777771,-0.3194528818130493,-0.007980585098266602,0.0043296217918396,-0.037984102964401245
1.0237777653869333,0.9091029785842504,-1.3983800360366476,-0.1043243408203125,0.22476810216903687,0.2018125355243683,0.410368412733078,-0.8540790677070618,-0.3196038603782654,-0.006391942501068115,0.009688258171081543,-0.04007616639137268
1.0248825680833673,0.9079576415785143,-1.3947470584002444,-0.06201954558491707,0.15978838503360748,0.19980202615261078,0.40925806760787964,-0.8546532392501831,-0.31949281692504883,0.0005167126655578613,0.0059441328048706055,-0.03141340613365173
1.0261169628104734,0.9065873769419344,-1.391733592871924,-0.03453759104013443,0.0824991837143898,0.18659701943397522,0.4079890251159668,-0.8552934527397156,-0.31940287351608276,0.00016838312149047852,-0.006492435932159424,-0.021035850048065186
1.0274042529780572,0.9049424023368748,-1.389096885853129,-0.02118254266679287,0.04881880432367325,0.18566426634788513,0.40659695863723755,-0.8559597730636597,-0.31939321756362915,-0.001552283763885498,-0.013272583484649658,-0.017886966466903687
1.0287683303472999,0.9033614226066738,-1.3866114158231828,-0.01017489843070507,0.06241530179977417,0.1870805323123932,0.4051740765571594,-0.85666424036026,-0.3193126320838928,-0.0042035579681396484,-0.005671024322509766,-0.023079216480255127
1.0301765738201636,0.9021196470354028,-1.384312569955615,-0.0027578878216445446,0.08178285509347916,0.18015754222869873,0.4038301110267639,-0.8573898673057556,-0.31906718015670776,-0.005133181810379028,0.004652440547943115,-0.025354057550430298
1.031477576131131,0.9010751061558037,-1.3820685955122207,-0.0183981005102396,0.0948515236377716,0.16345658898353577,0.4026218056678772,-0.858058750629425,-0.31879615783691406,-0.0025515854358673096,7.224082946777344e-05,-0.0221918523311615
1.0324786616771298,0.9000831042439666,-1.379565302756229,-0.05811275541782379,0.14586730301380157,0.15102055668830872,0.4016321301460266,-0.8585724234580994,-0.31866124272346497,-0.004079610109329224,-0.010568201541900635,-0.020144730806350708
1.0329059527266884,0.8990442708823664,-1.3762948442237037,-0.08816652745008469,0.23016034066677094,0.1323177069425583,0.4010138213634491,-0.8587914109230042,-0.318850040435791,-0.010785490274429321,-0.013629913330078125,-0.026059508323669434
1.0330994982256712,0.8988511009644924,-1.373112097353307,-0.0928199514746666,0.28741729259490967,0.1160934716463089,0.4008221924304962,-0.8588905334472656,-0.3188241124153137,-0.01674315333366394,-0.00706106424331665,-0.03365379571914673
1.0335131997443083,0.8995242433984391,-1.3703973132313287,-0.07155194133520126,0.30368947982788086,0.1202583909034729,0.40075841546058655,-0.8591023683547974,-0.31833314895629883,-0.01024019718170166,-0.0050792694091796875,-0.04180467128753662
1.0340698228437832,0.9005652027781286,-1.3681205836801085,-0.04152512177824974,0.2951186001300812,0.10966852307319641,0.400714635848999,-0.8593870997428894,-0.31761860847473145,-0.005511969327926636,-0.013369858264923096,-0.049812883138656616
1.034719691331908,0.9021086909637626,-1.3664250708359087,-0.014910555444657803,0.3029693365097046,0.10065638273954391,0.40076619386672974,-0.8597192168235779,-0.3166535198688507,-0.010019063949584961,-0.017645955085754395,-0.04577314853668213
1.035508880034888,0.90410048625151,-1.3652145533683835,0.014282557182013988,0.29613837599754333,0.10244867205619812,0.40086284279823303,-0.86012202501297,-0.3154350221157074,-0.01200777292251587,-0.01443558931350708,-0.03524240851402283
1.0365456716953592,0.906241084587266,-1.364422246935241,0.04992816969752312,0.26024535298347473,0.112694650888443,0.40083497762680054,-0.8606504201889038,-0.3140261173248291,0.0005932748317718506,-0.010534942150115967,-0.027602791786193848
1.0378844404089906,0.9081284724600924,-1.3639775488125572,0.07816953957080841,0.19459430873394012,0.12279397249221802,0.4005182385444641,-0.8613313436508179,-0.3125598430633545,0.014749765396118164,-0.012448012828826904,-0.023987889289855957
1.0393370870374066,0.9095002480734079,-1.3636683862105927,0.09863646328449249,0.15589430928230286,0.10744617879390717,0.39995869994163513,-0.8620684742927551,-0.31124135851860046,0.011708229780197144,-0.02017951011657715,-0.023749947547912598
1.0406837171682735,0.911045917456174,-1.3637042588126096,0.09925674647092819,0.16798551380634308,0.08742792159318924,0.3995216190814972,-0.8627501130104065,-0.30991095304489136,-0.0010840892791748047,-0.02491474151611328,-0.018335998058319092
1.041747036862554,0.9129359695067001,-1.3638541494286527,0.0849880650639534,0.20579014718532562,0.061684735119342804,0.399380624294281,-0.8632872700691223,-0.308594286441803,-0.006817638874053955,-0.024499714374542236,-0.011168807744979858
1.042500647853819,0.9152558316053102,-1.3641566936716718,0.07420641928911209,0.22638320922851562,0.029613474383950233,0.3995794951915741,-0.8636674284934998,-0.30727019906044006,-0.007504880428314209,-0.02303612232208252,-0.009731024503707886
1.042968929220143,0.9180927230771938,-1.3647745823860618,0.07090836018323898,0.2567480504512787,-0.006950661540031433,0.4001281261444092,-0.8639033436775208,-0.30588963627815247,-0.011013716459274292,-0.023425757884979248,-0.014346450567245483
1.0432293314428656,0.9220686620731201,-1.3662420526221506,0.0755922943353653,0.27712810039520264,-0.04023212566971779,0.40116196870803833,-0.8640344738960266,-0.304160475730896,-0.016045331954956055,-0.018274545669555664,-0.015800952911376953
1.0432626310944606,0.9261287067106058,-1.3677969750726768,0.053437184542417526,0.26079919934272766,-0.044611427932977676,0.4023706316947937,-0.8640512228012085,-0.3025120198726654,-0.00556570291519165,-0.009697675704956055,-0.0033656060695648193
1.0431964549002355,0.9295874748161563,-1.368836813485423,0.020937321707606316,0.24988877773284912,-0.026276592165231705,0.40346038341522217,-0.864017903804779,-0.30115270614624023,0.015118777751922607,-0.005290627479553223,0.017568230628967285
1.0431121398906418,0.9320364944100346,-1.3688673819321928,-0.030102159827947617,0.22924980521202087,0.00935384165495634,0.4042550027370453,-0.863975465297699,-0.3002070188522339,0.03661718964576721,0.0006942152976989746,0.034627944231033325
1.0429400731169807,0.9330670864429079,-1.3673548349196467,-0.12037378549575806,0.23135258257389069,0.056636061519384384,0.4046836495399475,-0.8638888001441956,-0.2998787760734558,0.05578085780143738,0.018323004245758057,0.04668983817100525
1.0427530852022322,0.9317236326192824,-1.3636828452057093,-0.1791316419839859,0.1367800086736679,0.13418890535831451,0.4044100344181061,-0.8637946248054504,-0.3005184829235077,0.08094155788421631,0.02982550859451294,0.08038011193275452
1.0433087713806253,0.9294884750072664,-1.3594097311918083,-0.09055580943822861,0.15970052778720856,0.20997007191181183,0.4033527076244354,-0.8640744686126709,-0.30113452672958374,0.09573182463645935,0.03848236799240112,-0.003842771053314209
1.044914088790694,0.9276831697031097,-1.3556812197433319,-0.01750556379556656,0.11921195685863495,0.261312872171402,0.4016979932785034,-0.8648813962936401,-0.30103006958961487,0.08260083198547363,0.055433034896850586,-0.07870009541511536
1.0474183910767305,0.9259530528377838,-1.3524068042510005,0.06052543595433235,0.11017145216464996,0.3261001706123352,0.3994443118572235,-0.8661357760429382,-0.3004217743873596,0.06665080785751343,0.07135111093521118,-0.06118091940879822
1.050743964894265,0.9244353669800172,-1.3494781283765414,0.10059802234172821,0.09201402217149734,0.3773820102214813,0.39668628573417664,-0.8677931427955627,-0.29929113388061523,0.07532915472984314,0.06197643280029297,-0.059946417808532715
1.0545866503699124,0.9224839965865305,-1.3462747811333327,0.10585100203752518,0.0725652426481247,0.4225461184978485,0.3934403359889984,-0.8696962594985962,-0.2980487048625946,0.06713095307350159,0.05835598707199097,-0.035065799951553345
1.0587280213786152,0.9197676581916406,-1.342411466708989,0.08636358380317688,0.0555039681494236,0.4659194350242615,0.38976097106933594,-0.8717329502105713,-0.2969311475753784,0.06196025013923645,0.05084061622619629,-0.008061438798904419
1.06301929520647,0.9156753646524289,-1.3372890357561746,0.0333193764090538,0.0164988711476326,0.5179818272590637,0.38557279109954834,-0.8738275766372681,-0.2962419390678406,0.06831526756286621,0.03674548864364624,0.02008846402168274
1.0673574683764069,0.9096067903079867,-1.3304443638885848,-0.024426475167274475,-0.03182738274335861,0.5688700675964355,0.3807724118232727,-0.8759286999702454,-0.2962457835674286,0.07586216926574707,0.03005760908126831,0.05054891109466553
1.0717311283494406,0.9017140059670423,-1.3220410157065776,-0.06537134945392609,-0.07102042436599731,0.6121365427970886,0.3754136860370636,-0.8780303597450256,-0.29686272144317627,0.06675556302070618,0.024316251277923584,0.056918323040008545
1.0761549910130237,0.8925796739888695,-1.312721051515754,-0.0755225196480751,-0.1186145693063736,0.6243391633033752,0.3696581721305847,-0.8801390528678894,-0.29783952236175537,0.043427854776382446,0.020061969757080078,0.043719738721847534
1.0805634563413262,0.8829740913727875,-1.3034658633877123,-0.04282356798648834,-0.1666906327009201,0.6033741235733032,0.36377862095832825,-0.8822232484817505,-0.29891014099121094,0.01311349868774414,0.012197554111480713,0.02460300922393799
1.0849737389089897,0.8740400495475742,-1.2954093117927619,0.027548862621188164,-0.19214379787445068,0.5504001379013062,0.35810616612434387,-0.8842911720275879,-0.29964837431907654,-0.016828089952468872,-0.004808008670806885,-0.0010259449481964111
1.0894310819489763,0.8667598398861757,-1.2893769440653597,0.117986761033535,-0.19477936625480652,0.4894011914730072,0.35290732979774475,-0.8863636255264282,-0.29969319701194763,-0.050325483083724976,-0.015659689903259277,-0.03255152702331543
1.0939911460036964,0.8613368542158423,-1.2854482234420612,0.19554467499256134,-0.19225096702575684,0.43960461020469666,0.3482065200805664,-0.8884657025337219,-0.2989663779735565,-0.06721588969230652,-0.013130366802215576,-0.05010882019996643
1.0986726994687521,0.8573776180270288,-1.2830452605347087,0.24103346467018127,-0.16672416031360626,0.41495099663734436,0.34387147426605225,-0.8906044960021973,-0.29761752486228943,-0.05755549669265747,-0.01878887414932251,-0.05075579881668091
1.1034200607972,0.8543192687553758,-1.2812135448974347,0.2519729435443878,-0.11227449774742126,0.4088587462902069,0.339767187833786,-0.8927534818649292,-0.29588764905929565,-0.04112213850021362,-0.0290757417678833,-0.03785243630409241
1.1080682443458734,0.8518369441637986,-1.2793270145089672,0.22974124550819397,-0.04846944287419319,0.40018782019615173,0.33590561151504517,-0.8948380351066589,-0.29399412870407104,-0.04093790054321289,-0.03195035457611084,-0.021954238414764404
1.1124159401432092,0.8496535785977934,-1.2772106633849254,0.19728396832942963,-0.009724176488816738,0.37287575006484985,0.33233770728111267,-0.8967703580856323,-0.29215532541275024,-0.053559571504592896,-0.03735750913619995,-0.007435619831085205
1.1162902380936122,0.8477025535657169,-1.2749159069917841,0.1627868115901947,0.034219011664390564,0.3434388041496277,0.32915955781936646,-0.8984779715538025,-0.2905018925666809,-0.06208494305610657,-0.04803997278213501,0.0036673247814178467
1.1197126955528423,0.8460100085747136,-1.2724506960805368,0.12986350059509277,0.06583472341299057,0.3072861433029175,0.32636335492134094,-0.8999752402305603,-0.2890182137489319,-0.06542280316352844,-0.05795633792877197,0.008485525846481323
1.1226179778648944,0.8447009110665776,-1.2702939014118886,0.11689425259828568,0.05549657717347145,0.24449877440929413,0.324028342962265,-0.901237964630127,-0.2877081036567688,-0.07621029019355774,-0.06061512231826782,0.00830453634262085
1.124969669332684,0.8442930441288348,-1.2694302993637603,0.1377214938402176,0.016200833022594452,0.15383172035217285,0.32232579588890076,-0.9022545218467712,-0.28643161058425903,-0.09719759225845337,-0.07328569889068604,0.001214444637298584
1.1267153937074956,0.8451140498595916,-1.2703623940881537,0.15310107171535492,-0.017944952473044395,0.05611513555049896,0.3213821351528168,-0.9030058979988098,-0.2851211428642273,-0.11708217859268188,-0.08487868309020996,-0.009236037731170654
1.1278156208835601,0.8471636287476944,-1.2729064481739434,0.15228214859962463,-0.03125569969415665,-0.03790377080440521,0.32122108340263367,-0.9034780263900757,-0.2838038206100464,-0.12181916832923889,-0.08269757032394409,-0.0071048736572265625
1.1281383281809199,0.8502239023624762,-1.2765716327970216,0.12434650212526321,-0.018284792080521584,-0.11804118752479553,0.3218689262866974,-0.9036163091659546,-0.28262704610824585,-0.1194000244140625,-0.07402962446212769,0.0066719651222229
1.1276915398298766,0.8538788481839807,-1.2806368184389458,0.07729244232177734,0.017749108374118805,-0.17447596788406372,0.3232038617134094,-0.903424859046936,-0.2817138135433197,-0.11026743054389954,-0.06633216142654419,0.013159245252609253
1.126536401068631,0.8577442256592138,-1.2844802242705762,0.02016332559287548,0.06036151200532913,-0.21388763189315796,0.3250797986984253,-0.9029290080070496,-0.2811451256275177,-0.09770852327346802,-0.058176398277282715,0.019991040229797363
1.1247480339711136,0.8615284537358724,-1.287857268827213,-0.03130572661757469,0.08154642581939697,-0.2455422282218933,0.3273662030696869,-0.9021589159965515,-0.2809641361236572,-0.08337810635566711,-0.04904353618621826,0.028538107872009277
1.1224360951169232,0.8649357190187437,-1.2908009761162218,-0.07325688749551773,0.06531405448913574,-0.2679978311061859,0.329908162355423,-0.9011591076850891,-0.2811993956565857,-0.0734383761882782,-0.043771982192993164,0.029048025608062744
1.119758780965292,0.8677321954586397,-1.2933665385960014,-0.09960061311721802,0.030032765120267868,-0.28029099106788635,0.33253243565559387,-0.8999953269958496,-0.28183451294898987,-0.06333684921264648,-0.038099825382232666,0.028813421726226807
1.116953814680814,0.869785688715422,-1.2955700614631132,-0.11161711066961288,-0.02035321667790413,-0.2697681188583374,0.3350382447242737,-0.8987690806388855,-0.28277814388275146,-0.045334845781326294,-0.025135338306427002,0.027620822191238403
1.114283373126471,0.870941273462254,-1.2975861215189455,-0.09609061479568481,-0.1114485040307045,-0.25035980343818665,0.33719977736473083,-0.8975951075553894,-0.28393590450286865,-0.02941468358039856,-0.018405437469482422,0.018158406019210815
1.111915174158698,0.8711065887255101,-1.2996717022377002,-0.06429961323738098,-0.22733992338180542,-0.22979293763637543,0.33887195587158203,-0.8965486288070679,-0.2852482199668884,-0.016423165798187256,-0.016140639781951904,0.011429369449615479
1.1098478583460787,0.8703688214085495,-1.3020006366073227,-0.044409796595573425,-0.33669009804725647,-0.21906280517578125,0.3400774896144867,-0.8956310153007507,-0.28669193387031555,-0.005330175161361694,-0.015745878219604492,0.013742893934249878
1.1078283669609068,0.8686270885132716,-1.3043438043316828,-0.062074340879917145,-0.4180101752281189,-0.22641614079475403,0.34095799922943115,-0.8947309255599976,-0.288451611995697,0.0033260881900787354,-0.021956145763397217,0.025634348392486572
1.1055470807670211,0.866345899070471,-1.3066470994404489,-0.07365483045578003,-0.43772077560424805,-0.252910315990448,0.3418535590171814,-0.8937097787857056,-0.2905498445034027,-0.001490950584411621,-0.03284984827041626,0.040656715631484985
1.1029949634357021,0.8640456584788383,-1.3091415514310192,-0.08970890194177628,-0.46643495559692383,-0.27722644805908203,0.3429175317287445,-0.8925618529319763,-0.2928153872489929,0.011757761240005493,-0.03765970468521118,0.03268370032310486
1.1000394973753733,0.8613752050274338,-1.3115530363797088,-0.13001663982868195,-0.49242791533470154,-0.31391894817352295,0.34413450956344604,-0.891225278377533,-0.2954472601413727,0.04197394847869873,-0.051386475563049316,0.03525453805923462
1.0963808593191742,0.8585226675979675,-1.3138665195583232,-0.19095087051391602,-0.48164287209510803,-0.3777552545070648,0.34575608372688293,-0.8895599246025085,-0.2985568642616272,0.056343644857406616,-0.05515766143798828,0.04709210991859436
1.0918167235286074,0.8555393912582541,-1.3156901734070852,-0.27870866656303406,-0.4389971196651459,-0.4071086347103119,0.3479252755641937,-0.8874656558036804,-0.3022465109825134,0.07961079478263855,-0.036377906799316406,0.06282094120979309
1.086908655620647,0.8512274631985226,-1.3159902071649205,-0.34369662404060364,-0.4689048230648041,-0.3400627076625824,0.3498903512954712,-0.8851929903030396,-0.3066107928752899,0.14357894659042358,-0.016708314418792725,0.08162003755569458
1.082343031698288,0.8449678322961548,-1.3141897243008418,-0.37425318360328674,-0.4763467609882355,-0.22274591028690338,0.35098353028297424,-0.8830597400665283,-0.31147438287734985,0.22354045510292053,-0.005062878131866455,0.0640990138053894
1.0788650221729026,0.836284329060594,-1.3104395911352182,-0.34541162848472595,-0.6028135418891907,-0.059519365429878235,0.35054293274879456,-0.8814222812652588,-0.31656694412231445,0.2967349588871002,0.014784038066864014,0.018364548683166504
1.0768705555004003,0.8247450930766155,-1.305071199413896,-0.2967754006385803,-0.7626681923866272,0.1080496609210968,0.3481568396091461,-0.8804785013198853,-0.3217831552028656,0.3236571252346039,0.04254204034805298,-0.010568410158157349
1.076554124781404,0.8099085474660033,-1.2979695755444633,-0.23510019481182098,-0.9458028078079224,0.3025071918964386,0.34354642033576965,-0.8803284168243408,-0.32710519433021545,0.3317466080188751,0.08072203397750854,-0.022763490676879883
1.0779180347562567,0.7920244199785521,-1.288957452339465,-0.19061687588691711,-1.0154470205307007,0.4775730073451996,0.3367868959903717,-0.8809745907783508,-0.3323529362678528,0.33138027787208557,0.11170268058776855,-0.03872549533843994
