attitudeX,attitudeY,attitudeZ,gyroX,gyroY,gyroZ,gravityX,gravityY,gravityZ,accX,accY,accZ
0.9825156745855794,-0.5696825213590676,0.2275518378370851,0.5535294413566589,0.165048286318779,0.4331778287887573,-0.29931050539016724,-0.8318960070610046,-0.4672924280166626,0.12172871828079224,-0.07398784160614014,-0.14179253578186035
0.984701192228547,-0.5772282780024516,0.23901017322625895,0.4960669279098511,0.22685891389846802,0.39659664034843445,-0.3018351197242737,-0.8331068754196167,-0.46349596977233887,0.12095746397972107,-0.09714525938034058,-0.09283939003944397
0.9864288536914553,-0.5839527132650283,0.2497956563805395,0.4525199830532074,0.22001314163208008,0.41596731543540955,-0.30415114760398865,-0.8340612053871155,-0.4602544903755188,0.17049941420555115,-0.11421161890029907,-0.06367117166519165
0.9878031285264478,-0.5912600549902549,0.2613242489748321,0.4870949983596802,0.2528778910636902,0.49482297897338867,-0.30686697363853455,-0.8348185420036316,-0.4570675194263458,0.23542532324790955,-0.11494958400726318,-0.08500081300735474
0.9892179811168562,-0.5998810223808774,0.2752803874633369,0.6177204847335815,0.3556163012981415,0.6142994165420532,-0.3101288080215454,-0.8355966210365295,-0.45342978835105896,0.2778869867324829,-0.11346966028213501,-0.15722686052322388
0.9914131093757291,-0.6106578357925692,0.2930910613100021,0.8630051016807556,0.45292767882347107,0.7391670346260071,-0.3139446973800659,-0.8368005156517029,-0.44855746626853943,0.30311092734336853,-0.11870497465133667,-0.2613270878791809
0.9950587366849108,-0.625163912175769,0.31589815657322956,1.1660008430480957,0.4625770151615143,0.8653755784034729,-0.31863078474998474,-0.8387909531593323,-0.4414796829223633,0.33811622858047485,-0.094085693359375,-0.35167211294174194
1.0000366124686606,-0.6439084302386991,0.34385890893639975,1.4108004570007324,0.4909764230251312,0.978047251701355,-0.32433897256851196,-0.8414907455444336,-0.43208521604537964,0.38279539346694946,-0.04918009042739868,-0.3602730631828308
1.0057024988639112,-0.6654337538635916,0.3757793151222096,1.5550872087478638,0.5806670188903809,1.0415034294128418,-0.3306148946285248,-0.8445383310317993,-0.421246737241745,0.4003017842769623,-0.02159637212753296,-0.29568737745285034
1.011680557472136,-0.6877195425676784,0.40938847458708094,1.6041290760040283,0.6616215109825134,0.9715954661369324,-0.33670905232429504,-0.8477244973182678,-0.4098663330078125,0.38304999470710754,-0.02007347345352173,-0.20678704977035522
1.0181168467102402,-0.7094411176248,0.44262769217050385,1.6151610612869263,0.6250804662704468,0.8780789971351624,-0.3419704735279083,-0.8511209487915039,-0.39830824732780457,0.36731529235839844,-0.0052024126052856445,-0.15048927068710327
1.0247591114023196,-0.7304149128057107,0.4744422475495278,1.5596938133239746,0.6107044816017151,0.7322338819503784,-0.3464691638946533,-0.8545891046524048,-0.3868289589881897,0.3100922107696533,0.05235821008682251,-0.09615737199783325
1.0316084242901706,-0.7496328963680436,0.5039224383511185,1.5005398988723755,0.5850033164024353,0.5940969586372375,-0.34984228014945984,-0.8581259250640869,-0.37580639123916626,0.30875036120414734,0.04695338010787964,-0.06646955013275146
1.0386338487732925,-0.768163890351658,0.5317685112706166,1.4646471738815308,0.5040914416313171,0.5068911910057068,-0.3525482416152954,-0.861711859703064,-0.3649144172668457,0.3328644037246704,0.052461862564086914,-0.10882508754730225
1.0455956463348572,-0.7862811902405853,0.5589828028379206,1.4516232013702393,0.5824916362762451,0.47707101702690125,-0.35484692454338074,-0.8652233481407166,-0.35422080755233765,0.36307141184806824,0.103504478931427,-0.1039699912071228
1.0526882403285895,-0.8040907433332992,0.586923090811106,1.5339126586914062,0.7109255194664001,0.4660625755786896,-0.35666999220848083,-0.8687576651573181,-0.3435790240764618,0.38494452834129333,0.1283860206604004,-0.09219661355018616
1.0600694858374962,-0.8218434378395988,0.6173486028357315,1.6426562070846558,1.0602244138717651,0.5295654535293579,-0.35800665616989136,-0.8723894357681274,-0.3328182101249695,0.39612308144569397,0.13131576776504517,-0.09815090894699097
1.0670052552947742,-0.8383965512011406,0.651231482666781,1.699065923690796,1.5487275123596191,0.6736376881599426,-0.35895878076553345,-0.875758707523346,-0.3227931559085846,0.45025208592414856,0.14651060104370117,-0.05722689628601074
1.0724512881896386,-0.8528096105827223,0.6882431628203154,1.6637516021728516,2.04832124710083,0.8674404621124268,-0.35997632145881653,-0.8783748149871826,-0.3144437074661255,0.45389413833618164,0.16043341159820557,0.010626077651977539
1.075772770290768,-0.8643577670006075,0.7273552028208495,1.5797218084335327,2.4870479106903076,1.0553137063980103,-0.3613622486591339,-0.8799574971199036,-0.3083702623844147,0.435138463973999,0.1749403476715088,0.07788634300231934
1.076926366513161,-0.8733196108558112,0.7675224539933547,1.468457818031311,2.7499489784240723,1.222914457321167,-0.3633330464363098,-0.8805049657821655,-0.3044673204421997,0.42413926124572754,0.1725732684135437,0.10010644793510437
1.075760475352275,-0.8803759826026342,0.8078001540862216,1.3019769191741943,2.9253807067871094,1.3967901468276978,-0.36626338958740234,-0.8799516558647156,-0.3025493323802948,0.41991332173347473,0.16768664121627808,0.10281190276145935
1.0715774320911142,-0.8834713363785942,0.8477145382691988,1.0962533950805664,3.5082099437713623,1.6816258430480957,-0.37004032731056213,-0.877956748008728,-0.30374717712402344,0.44183290004730225,0.19388991594314575,0.1289578676223755
1.063318860510414,-0.8810816665927512,0.8890818130981105,0.9293276071548462,4.1372575759887695,2.123030662536621,-0.3748941719532013,-0.8739731907844543,-0.3092339038848877,0.449799507856369,0.17020708322525024,0.22157225012779236
1.0508388834584368,-0.8753470992255433,0.9321799616722664,0.7199955582618713,4.471810817718506,2.4700913429260254,-0.3814593255519867,-0.8678403496742249,-0.31834256649017334,0.3457842767238617,0.05227327346801758,0.2861466705799103
1.0353539758410046,-0.8648786848411629,0.9737594890748167,0.48070257902145386,4.775402069091797,2.57004714012146,-0.38828709721565247,-0.8600429892539978,-0.3309973180294037,0.2515835762023926,0.04243123531341553,0.28425973653793335
1.0185869947776516,-0.8479756246994894,1.011804953934205,0.3024930953979492,5.07464599609375,2.530543088912964,-0.39339715242385864,-0.8513676524162292,-0.34700414538383484,0.21818044781684875,0.12924540042877197,0.25220146775245667
1.0016900353466485,-0.8258979450601753,1.0469337801510632,0.21903523802757263,5.222996234893799,2.4681286811828613,-0.39616090059280396,-0.8423829078674316,-0.3653048276901245,0.19028931856155396,0.19568490982055664,0.19043925404548645
0.9855354246089402,-0.802134824885216,1.080419013538371,0.22837337851524353,5.072015762329102,2.3744256496429443,-0.39710041880607605,-0.8335679769515991,-0.3840257525444031,0.12680616974830627,0.22118693590164185,0.08835631608963013
0.970710112751374,-0.779829835795772,1.1129972825247192,0.27191683650016785,4.75006103515625,2.2805440425872803,-0.39708319306373596,-0.8252869248390198,-0.4015301764011383,0.06866821646690369,0.23455810546875,0.0019941329956054688
0.9569972212632436,-0.7597727305498267,1.144754646292941,0.2625051438808441,4.445091247558594,2.2244691848754883,-0.3967081904411316,-0.8174657225608826,-0.4175792336463928,0.058283478021621704,0.23717397451400757,-0.025917381048202515
0.943308600879433,-0.7412979610293169,1.1752105769786478,0.13001605868339539,4.184256553649902,2.2247049808502197,-0.396445631980896,-0.809505045413971,-0.4330503046512604,0.04459315538406372,0.21030759811401367,-0.010690391063690186
0.9286293550279275,-0.7225395079685291,1.203387128783995,-0.08331353962421417,4.104498863220215,2.202045202255249,-0.3960689902305603,-0.8007997870445251,-0.4492763578891754,-0.020404458045959473,0.19986283779144287,0.029568195343017578
0.9131818618848989,-0.7020853739448252,1.2290229390215301,-0.21436716616153717,4.016083240509033,2.1514205932617188,-0.39473968744277954,-0.7914525866508484,-0.4666728973388672,-0.13367223739624023,0.2088719606399536,0.04327213764190674
0.8970332940597264,-0.6829048383131567,1.2521901666699056,-0.46652570366859436,3.3495686054229736,2.096074342727661,-0.3937312066555023,-0.7814793586730957,-0.48401015996932983,-0.24924370646476746,0.14997905492782593,-0.0059341490268707275
0.8798401171049826,-0.6684399788391063,1.272481107704511,-0.6017021536827087,2.6676316261291504,2.038536310195923,-0.39495882391929626,-0.7706369757652283,-0.500126302242279,-0.3976132869720459,0.09416908025741577,-0.04381895065307617
0.8623231323562758,-0.6592623961021987,1.2902834621877382,-0.7303728461265564,1.9073851108551025,1.8981170654296875,-0.39856064319610596,-0.7593562006950378,-0.5143224596977234,-0.6066731810569763,0.08333075046539307,-0.18675780296325684
0.8458237565658322,-0.6536195413851535,1.3052059946004015,-0.6628196239471436,1.4978599548339844,1.6518516540527344,-0.40321624279022217,-0.748517632484436,-0.5264390707015991,-0.8699466586112976,0.09005504846572876,-0.3825879693031311
0.831756176267009,-0.6488333447758002,1.317556949019069,-0.5853302478790283,1.3010444641113281,1.3494739532470703,-0.4070148766040802,-0.7391154170036316,-0.536700427532196,-1.0730266571044922,0.14950048923492432,-0.5206573009490967
0.8201032343139772,-0.642577645584229,1.3257551203464029,-0.6094552874565125,1.1218371391296387,0.9120205044746399,-0.40878334641456604,-0.7312162518501282,-0.5460943579673767,-1.2249294519424438,0.2770841121673584,-0.5837883949279785
0.8116282255692231,-0.6340631402248578,1.3278286493791729,-0.5787771344184875,0.9003258943557739,0.31872206926345825,-0.4077756106853485,-0.7254088521003723,-0.5545278787612915,-1.3783420324325562,0.35057663917541504,-0.6269906163215637
0.8072771019182639,-0.6215217895281661,1.3232343083262363,-0.4842301607131958,0.9539893865585327,-0.33026817440986633,-0.4026232063770294,-0.7224070429801941,-0.5621588826179504,-1.5492658615112305,0.3561655282974243,-0.71524578332901
0.8080640506431873,-0.6035169098153281,1.3116178234743685,-0.2959747314453125,0.9185494780540466,-1.0806620121002197,-0.3921140730381012,-0.7229509949684143,-0.5688482522964478,-1.6349092721939087,0.3905840516090393,-0.8105308413505554
0.8149532242211738,-0.5819305675241906,1.2923690011981988,-0.02999260649085045,0.5780661702156067,-1.880555510520935,-0.3769978880882263,-0.727693498134613,-0.5730050206184387,-1.6480571031570435,0.44050782918930054,-0.9141775369644165
0.828320660222728,-0.5585090234333896,1.2653287972623557,0.3068607449531555,0.12618674337863922,-2.6292035579681396,-0.3582879900932312,-0.7367969751358032,-0.573375940322876,-1.613437533378601,0.500697672367096,-1.021304726600647
0.847819990813267,-0.538091414630304,1.232051911240698,0.6999039053916931,-1.1979864835739136,-3.145749807357788,-0.3390786647796631,-0.7498398423194885,-0.5681248903274536,-1.492769479751587,0.5189285278320312,-1.1099298000335693
0.8721818663495509,-0.5263008739961115,1.19586499662569,1.1246834993362427,-1.8416037559509277,-3.3483824729919434,-0.3230825662612915,-0.7657340168952942,-0.5561196804046631,-1.227210521697998,0.5305503010749817,-1.3043386936187744
0.9013975229052132,-0.5193076992981166,1.1599433162834278,1.6494498252868652,-2.2534217834472656,-3.4690744876861572,-0.3079485297203064,-0.7841948866844177,-0.5387078523635864,-0.9978376626968384,0.521591067314148,-1.192981481552124
0.9350694153479809,-0.5145537218125235,1.1246442531308027,2.06685471534729,-2.3617444038391113,-3.5711801052093506,-0.2922181785106659,-0.8046402931213379,-0.5168777704238892,-0.8711425065994263,0.4431290030479431,-1.1216719150543213
0.9727722667593762,-0.5090866571662142,1.0886538517851772,2.4444034099578857,-2.4187936782836914,-3.73441219329834,-0.27440011501312256,-0.8264496922492981,-0.49161532521247864,-0.7656542658805847,0.4739563465118408,-1.0130079984664917
1.0141609726644831,-0.5021054399426401,1.050427813541304,2.745169162750244,-2.5738108158111572,-3.896688938140869,-0.2542717456817627,-0.8490375876426697,-0.46312111616134644,-0.6476600766181946,0.4903033971786499,-0.9089796543121338
1.0579727823655254,-0.49308363468208083,1.009226905563435,2.9123237133026123,-2.689044237136841,-3.930955648422241,-0.23224149644374847,-0.8713626265525818,-0.4321933090686798,-0.5323459506034851,0.46788978576660156,-0.815151572227478
1.102247540791271,-0.481730005865965,0.9654951812018444,2.9459872245788574,-2.7213521003723145,-3.8152310848236084,-0.20922839641571045,-0.8922246098518372,-0.4001983404159546,-0.3591310381889343,0.4285099506378174,-0.6805510520935059
1.1452603570538384,-0.46769797723391343,0.9198048512406194,2.8648064136505127,-2.689680576324463,-3.603982448577881,-0.18610790371894836,-0.9108176231384277,-0.3684770464897156,-0.1828801929950714,0.36407989263534546,-0.5381696224212646
1.1859567446827748,-0.449449897229376,0.871011307409479,2.7015457153320312,-2.6070988178253174,-3.4319286346435547,-0.16310465335845947,-0.92685866355896,-0.338127076625824,-0.08747521042823792,0.32087111473083496,-0.4023512899875641
1.2239610774007503,-0.42347917528415585,0.8156502479595847,2.4885361194610596,-2.536497116088867,-3.3612749576568604,-0.13968633115291595,-0.9404531717300415,-0.3098961412906647,-0.08225277066230774,0.3222280740737915,-0.2958013713359833
1.25904227262832,-0.3852763023679258,0.7480263517159634,2.215066909790039,-2.627032995223999,-3.408984899520874,-0.11527333408594131,-0.9517970085144043,-0.2842439115047455,-0.09812086820602417,0.3469995856285095,-0.22536897659301758
1.2905916127160506,-0.3297129127100214,0.661093795412119,1.9060719013214111,-2.8912112712860107,-3.528036594390869,-0.0895397886633873,-0.9609988331794739,-0.2616560757160187,-0.09869267046451569,0.4149935245513916,-0.17938381433486938
1.3178722165900498,-0.2529746506433889,0.5500573259960329,1.6372960805892944,-3.149754285812378,-3.601003885269165,-0.06263028830289841,-0.9681848287582397,-0.24227137863636017,-0.05474033206701279,0.491729199886322,-0.1502913534641266
1.3405050097843394,-0.1555240246834873,0.4167687140237708,1.5000386238098145,-3.191075325012207,-3.5094635486602783,-0.03535712882876396,-0.973599910736084,-0.225505992770195,0.05737553909420967,0.5308509469032288,-0.15440717339515686
1.3586693670645078,-0.04284708099542828,0.2691073291354833,1.4611140489578247,-3.056241989135742,-3.262813091278076,-0.00901825912296772,-0.9775853157043457,-0.21034663915634155,0.22779874503612518,0.5236515402793884,-0.1724047064781189
1.3726243304496428,0.0806907631231077,0.11269746123949231,1.4228417873382568,-2.8448028564453125,-3.0401618480682373,0.015868952497839928,-0.9804280996322632,-0.19623680412769318,0.33418288826942444,0.5202230215072632,-0.15495936572551727
1.3819314953639168,0.2137872522244648,-0.05096881235546358,1.3139723539352417,-2.6484334468841553,-2.894350528717041,0.03983224183320999,-0.9822179675102234,-0.1834699660539627,0.3628319203853607,0.5295507311820984,-0.08630530536174774
1.385775462306966,0.35054226645718733,-0.2160703210648239,1.1176741123199463,-2.4264676570892334,-2.759841203689575,0.06317559629678726,-0.9829323887825012,-0.1727793961763382,0.38755375146865845,0.5124886631965637,0.006718114018440247
1.384146137058972,0.48099007702352414,-0.3724966369224554,0.9107903838157654,-2.2260851860046387,-2.6414284706115723,0.08585453778505325,-0.9826313853263855,-0.16451328992843628,0.42432308197021484,0.4802662134170532,0.07814866304397583
1.3779620540700548,0.5984604501830071,-0.5139745088491868,0.7878559231758118,-2.0523667335510254,-2.5581064224243164,0.10796571522951126,-0.9814650416374207,-0.1583355814218521,0.47569823265075684,0.4745069146156311,0.08640575408935547
1.3689696846825272,0.7043417337409345,-0.6418829592606767,0.8360914587974548,-1.8384846448898315,-2.507983446121216,0.12980422377586365,-0.9797020554542542,-0.15275800228118896,0.5250572562217712,0.4718436002731323,0.018282458186149597
1.3585565004405595,0.8030450768714616,-0.7603540151046018,0.9763330221176147,-1.600400686264038,-2.4543681144714355,0.15155784785747528,-0.9775615334510803,-0.1463010162115097,0.5843430757522583,0.4533456563949585,-0.07319654524326324
1.3472801107487549,0.8974200160049842,-0.8720348351931866,1.1586134433746338,-1.3088794946670532,-2.3969781398773193,0.17327608168125153,-0.9751240611076355,-0.1382334977388382,0.6806057691574097,0.426006019115448,-0.10047487914562225
1.3358915109422125,0.9877141314617385,-0.9761636386768842,1.3162277936935425,-0.895039975643158,-2.1911654472351074,0.19429314136505127,-0.9725365042686462,-0.12815237045288086,0.8118561506271362,0.34186017513275146,-0.0777038186788559
1.325559350273185,1.0710967017856567,-1.069032699467001,1.3741399049758911,-0.47434452176094055,-1.8255409002304077,0.21310029923915863,-0.9700798392295837,-0.11633412539958954,1.0054970979690552,0.24006879329681396,-0.013579070568084717
1.3172178515439152,1.142474038881752,-1.1460776934566466,1.250191330909729,-0.20868569612503052,-1.3529791831970215,0.228207528591156,-0.9680209159851074,-0.10419772565364838,1.2011138200759888,0.12277543544769287,0.08468186855316162
1.3114614719815618,1.196799333766363,-1.2039179599187544,0.9874874353408813,-0.1310228854417801,-0.8474781513214111,0.23871144652366638,-0.9665607810020447,-0.09368675202131271,1.3412293195724487,0.0316852331161499,0.20701396465301514
1.3088919680946915,1.2329424984575046,-1.2425667862670013,0.6952206492424011,-0.11420342326164246,-0.32952767610549927,0.24428364634513855,-0.9658986330032349,-0.0858227014541626,1.4374332427978516,-0.03747361898422241,0.29021430015563965
1.3099046817412614,1.2532752948932213,-1.264785481764819,0.4638082683086395,-0.10796599090099335,0.1426207572221756,0.24504868686199188,-0.9661603569984436,-0.08053290843963623,1.4951857328414917,-0.07305479049682617,0.3083467483520508
1.3143662770142477,1.262201635662434,-1.2750096735639727,0.3169908821582794,-0.08007311075925827,0.5272554755210876,0.24164818227291107,-0.967301607131958,-0.07703229039907455,1.4944052696228027,-0.07745248079299927,0.2787078619003296
1.321771768611701,1.2638749989179474,-1.2774629924770335,0.25473377108573914,-0.06585568189620972,0.8366999626159668,0.23494157195091248,-0.9691532850265503,-0.07446150481700897,1.4611490964889526,-0.07161825895309448,0.24012631177902222
1.331950612324399,1.2602384195170164,-1.2743823941267285,0.21711847186088562,-0.05839696526527405,1.142871379852295,0.22526443004608154,-0.9716116786003113,-0.07229699194431305,1.430512547492981,-0.061087965965270996,0.2138223648071289
1.3449303962166896,1.2506656969085876,-1.2647374203258621,0.15918077528476715,0.030774489045143127,1.453649640083313,0.21257275342941284,-0.9746005535125732,-0.07047517597675323,1.409100890159607,-0.05375033617019653,0.23092150688171387
1.360686316032888,1.2335623822770354,-1.2459863343751767,0.08778301626443863,0.21998648345470428,1.782558798789978,0.19682037830352783,-0.978007972240448,-0.06901068240404129,1.3850430250167847,-0.04745912551879883,0.27361589670181274
1.379357316470381,1.2072048258026984,-1.2155499003124564,0.05392506346106529,0.4838334619998932,2.127509832382202,0.1778329610824585,-0.9817314743995667,-0.06766699999570847,1.355476975440979,-0.03937143087387085,0.2925511598587036
1.4008212555655561,1.169642870138576,-1.1708123991901345,0.0584990419447422,0.8119814991950989,2.435736656188965,0.1557287871837616,-0.9855889678001404,-0.06605291366577148,1.3079400062561035,-0.01111513376235962,0.27120745182037354
1.4244559610968852,1.1157416469505697,-1.1061949086923188,0.04662669450044632,1.1563994884490967,2.6855671405792236,0.1309804767370224,-0.9893113374710083,-0.0640893429517746,1.2400217056274414,0.016166746616363525,0.24750012159347534
1.4493088538455579,1.0321326296104176,-1.0087650822619336,0.03660095855593681,1.4086627960205078,2.903373956680298,0.10402904450893402,-0.9926294684410095,-0.06216927990317345,1.1814323663711548,0.023772478103637695,0.22887170314788818
1.4746713214877158,0.890215699003837,-0.8509858638739828,0.053163059055805206,1.5697921514511108,3.1963281631469727,0.07459457218647003,-0.9953835606575012,-0.06039341539144516,1.1655482053756714,0.056205034255981445,0.1745903491973877
1.4985867969492586,0.6210871024155233,-0.5640246797989872,0.09797074645757675,1.805440902709961,3.528675079345703,0.04198480024933815,-0.9973940253257751,-0.05867474526166916,1.1854169368743896,0.1142304539680481,0.1321306824684143
1.5136515647381759,0.10915534062242266,-0.03135192455827403,0.20040898025035858,2.1184709072113037,3.8370614051818848,0.00622194679453969,-0.9983676671981812,-0.05677428096532822,1.1607091426849365,0.16310155391693115,0.07940322160720825
1.507632465126027,-0.5357760073112027,0.6371601995410202,0.3567565083503723,2.3391520977020264,4.0811686515808105,-0.03222513198852539,-0.9980058073997498,-0.054278261959552765,1.0928330421447754,0.22896277904510498,-0.01580524444580078
1.4816422838370602,-0.9558978183300075,1.0826051395724972,0.46256762742996216,2.4655797481536865,4.263998031616211,-0.07272831350564957,-0.9960284233093262,-0.05136330798268318,1.0152331590652466,0.3167681097984314,-0.07801580429077148
1.4457366499886464,-1.1644594165372932,1.3179917225540558,0.41507652401924133,2.6228466033935547,4.368468284606934,-0.11457837373018265,-0.9921902418136597,-0.049301132559776306,0.913925290107727,0.3921992778778076,-0.05316150188446045
1.4058892767246127,-1.2647606981116597,1.4463687376873562,0.27936914563179016,2.693899631500244,4.3287434577941895,-0.15653344988822937,-0.9864336252212524,-0.04945860430598259,0.752663791179657,0.45986801385879517,-0.002497434616088867
1.3654664511065555,-1.3110743119659107,1.521318673627007,0.11189945042133331,2.776834011077881,4.172341346740723,-0.19705264270305634,-0.9789937734603882,-0.05236160010099411,0.5833288431167603,0.5248767733573914,0.018197350203990936
1.32547579668112,-1.3289835086517066,1.5690776253769558,-0.015604175627231598,2.9295177459716797,4.089936256408691,-0.23580123484134674,-0.9700595140457153,-0.05815776437520981,0.48200175166130066,0.5665866136550903,0.004523217678070068
1.2855342295277619,-1.3323961724911202,1.6039399836188941,-0.10899830609560013,3.1002237796783447,4.084907531738281,-0.2734500467777252,-0.9595879316329956,-0.06645429879426956,0.45016205310821533,0.5738456845283508,-0.058988094329833984
1.2454794512450502,-1.326522012387686,1.6311974727779714,-0.21447540819644928,3.2417080402374268,4.058215141296387,-0.31012094020843506,-0.9475495219230652,-0.07729818671941757,0.41583380103111267,0.6189514994621277,-0.11180388182401657
1.2057693534030884,-1.3138070592866098,1.6527494381232928,-0.35277867317199707,3.333144187927246,4.0045294761657715,-0.3452512323856354,-0.9341141581535339,-0.0907321348786354,0.3407803773880005,0.6673294901847839,-0.14788466691970825
1.166312936710522,-1.2960588620599092,1.6695899962763139,-0.49872374534606934,3.2905220985412598,3.916903495788574,-0.37878480553627014,-0.9193058013916016,-0.10676625370979309,0.27313289046287537,0.7103824615478516,-0.17390376329421997
1.127717475783901,-1.2756286689916387,1.6825976831281977,-0.6454620361328125,3.1473639011383057,3.7632558345794678,-0.41018247604370117,-0.9034359455108643,-0.12471572309732437,0.1930345892906189,0.7670986652374268,-0.2098788619041443
1.090449686326482,-1.2532450522917502,1.6920706810305977,-0.7861387729644775,3.0003857612609863,3.574117660522461,-0.4389839470386505,-0.8868348002433777,-0.14428259432315826,0.06976693868637085,0.7953888177871704,-0.2551008462905884
1.0547421919554714,-1.2306224278890738,1.6992915878390762,-0.8545010089874268,2.754030704498291,3.38480281829834,-0.4651755690574646,-0.8697730302810669,-0.16464076936244965,-0.045398831367492676,0.7925025224685669,-0.3163161277770996
1.0207815801280593,-1.2102826705476228,1.7058438947834584,-0.8350629210472107,2.4174487590789795,3.202284574508667,-0.48909857869148254,-0.8525168299674988,-0.18438498675823212,-0.15035155415534973,0.784615159034729,-0.3917868137359619
0.9889100875158539,-1.194201524092218,1.7134495652745951,-0.6812466979026794,2.0649125576019287,3.0199198722839355,-0.5110862255096436,-0.835427463054657,-0.20211908221244812,-0.274100661277771,0.7630091905593872,-0.46346914768218994
0.9597109813919186,-1.183899173880279,1.7236578942958813,-0.41751936078071594,1.6661221981048584,2.8013203144073486,-0.5313471555709839,-0.8190257549285889,-0.2164880484342575,-0.4399968981742859,0.7178752422332764,-0.5447422862052917
0.934054148005327,-1.1794850474982979,1.736528315199096,-0.14178180694580078,1.3113411664962769,2.4862451553344727,-0.5496349930763245,-0.8040370345115662,-0.22677311301231384,-0.7027149796485901,0.6432093977928162,-0.5967283844947815
0.9127120112393964,-1.1790229450291656,1.750711200050622,0.08800964057445526,1.0390106439590454,2.0947563648223877,-0.5652633905410767,-0.791165292263031,-0.23352696001529694,-1.0003188848495483,0.557217538356781,-0.5705500841140747
0.8959024290819712,-1.1806995936542495,1.7648516704653168,0.231038436293602,0.8528860211372375,1.666608452796936,-0.5778735280036926,-0.7807732224464417,-0.2376031130552292,-1.2790906429290771,0.4517480731010437,-0.5017156600952148
0.883344734127627,-1.1823148689711158,1.7772925747222947,0.24854810535907745,0.7622320055961609,1.2452298402786255,-0.5872848629951477,-0.7728656530380249,-0.2403644621372223,-1.5322678089141846,0.3538898825645447,-0.4155344069004059
0.8744647603953409,-1.1820115245397453,1.7865605013587327,0.15763844549655914,0.7199601531028748,0.8441527485847473,-0.5935395359992981,-0.7672002911567688,-0.24313461780548096,-1.7456786632537842,0.2784765958786011,-0.3219744861125946
0.8686767479585688,-1.1787839931570125,1.7913527451966589,-0.03973438963294029,0.6466188430786133,0.46464478969573975,-0.5968456268310547,-0.7634750008583069,-0.24674147367477417,-1.8918933868408203,0.22854763269424438,-0.2642905116081238
0.8653806256154455,-1.1726743435588454,1.790622978365497,-0.30521532893180847,0.436505526304245,0.10659607499837875,-0.5976434350013733,-0.7613421082496643,-0.2513576149940491,-1.974118709564209,0.2134142518043518,-0.2600253224372864
0.8643104635783786,-1.1649492252911522,1.7839794818892172,-0.5697808861732483,0.08550497889518738,-0.240468829870224,-0.596432089805603,-0.7606478333473206,-0.25628846883773804,-1.9975011348724365,0.23042017221450806,-0.3199901580810547
0.8653166743830669,-1.1572429965585853,1.7720132792792493,-0.7547799944877625,-0.3767009973526001,-0.5526464581489563,-0.5937381982803345,-0.7613006234169006,-0.26056933403015137,-1.967419147491455,0.26140743494033813,-0.42958563566207886
0.8685482416029044,-1.1517887900417811,1.7563321154319003,-0.8212158679962158,-0.9173478484153748,-0.8609437942504883,-0.5900576710700989,-0.7633919715881348,-0.26280146837234497,-1.8768155574798584,0.30633026361465454,-0.5824589729309082
0.8747865944937061,-1.1500888376508476,1.7384531667047318,-0.749625563621521,-1.4748319387435913,-1.2209025621414185,-0.58525151014328,-0.767406702041626,-0.26185405254364014,-1.7687065601348877,0.3581507205963135,-0.7466449737548828
0.8851120188585071,-1.1530873240662458,1.7195830050862266,-0.591981828212738,-2.0146291255950928,-1.6400024890899658,-0.5787604451179504,-0.7739859223365784,-0.25686976313591003,-1.6956536769866943,0.41032326221466064,-0.8737605810165405
0.900241221258416,-1.1611082554770655,1.7005415380327562,-0.37108537554740906,-2.534778356552124,-2.079103946685791,-0.5699954628944397,-0.7834768295288086,-0.24752645194530487,-1.6053128242492676,0.4699392318725586,-0.9441848993301392
0.9203827057021593,-1.1742384580628358,1.6821696288223753,-0.11736123263835907,-2.9665606021881104,-2.490036964416504,-0.5585251450538635,-0.79583340883255,-0.2338777482509613,-1.4846420288085938,0.4991568326950073,-0.9654476642608643
0.9451681840947452,-1.1921423034716776,1.6651372735533232,0.10752327740192413,-3.31738543510437,-2.8446359634399414,-0.5441240072250366,-0.8105954527854919,-0.2164812982082367,-1.317356824874878,0.5213497877120972,-0.9454905986785889
0.9739389653263127,-1.2139530565546277,1.6493730981215313,0.2600976824760437,-3.5951497554779053,-3.1486942768096924,-0.5266395211219788,-0.8271059989929199,-0.1963328719139099,-1.1740288734436035,0.5231356024742126,-0.878419816493988
1.0060339636007989,-1.238338690053,1.6340238244137437,0.30627796053886414,-3.819659948348999,-3.4417760372161865,-0.5059084296226501,-0.8447158336639404,-0.17467661201953888,-1.0347105264663696,0.5230910181999207,-0.7794095277786255
1.0411918203222246,-1.2633934215421692,1.6173292638401675,0.2403930425643921,-4.009871959686279,-3.759298324584961,-0.48151010274887085,-0.8630069494247437,-0.15286321938037872,-0.9339562654495239,0.5301669239997864,-0.6672354936599731
1.0793754610437858,-1.286906696942791,1.597423279371993,0.11852678656578064,-4.127754211425781,-4.08529806137085,-0.4529913365840912,-0.8816632628440857,-0.1321694254875183,-0.8618432879447937,0.5517224669456482,-0.5672933459281921
1.12039073913237,-1.3070015413118443,1.5735513499538196,0.020230676978826523,-4.094162940979004,-4.3599324226379395,-0.42027151584625244,-0.9002706408500671,-0.11351071298122406,-0.7615522146224976,0.5796071290969849,-0.5053398609161377
1.1636397118241621,-1.322049928841522,1.5460491457690535,-0.043550699949264526,-3.870424509048462,-4.546339988708496,-0.3838118314743042,-0.9182505011558533,-0.09749089926481247,-0.6191636323928833,0.6039347648620605,-0.4676487445831299
1.2080907988598983,-1.3298752490270846,1.5143329181481748,-0.1113492026925087,-3.551867723464966,-4.601216793060303,-0.34455811977386475,-0.9349403381347656,-0.08465557545423508,-0.45793217420578003,0.6111945509910583,-0.4281769394874573
1.252111683955001,-1.329390699867149,1.477924239222704,-0.13991454243659973,-3.1751904487609863,-4.486373424530029,-0.30423274636268616,-0.949648380279541,-0.07490424066781998,-0.24531257152557373,0.586992621421814,-0.3993540406227112
1.294773508671244,-1.3189097601329354,1.435368268312506,-0.21748074889183044,-2.86301851272583,-4.381864070892334,-0.26393163204193115,-0.9621469378471375,-0.06792345643043518,-0.06811493635177612,0.5812569856643677,-0.3689813017845154
1.3366227367726526,-1.2912004618403419,1.3779526232194736,-0.38333576917648315,-2.7188098430633545,-4.4404616355896,-0.2230290323495865,-0.9727064371109009,-0.06403538584709167,-0.029397159814834595,0.6367841362953186,-0.2920435667037964
1.378318613664968,-1.2346715775721502,1.2921967916131216,-0.5387949347496033,-2.731931686401367,-4.578089714050293,-0.18058671057224274,-0.9815332889556885,-0.06309386342763901,-0.025223836302757263,0.692699670791626,-0.25697433948516846
1.4194120884866388,-1.131024937837578,1.1589599552221654,-0.5487455129623413,-2.7829318046569824,-4.704661846160889,-0.13645780086517334,-0.9885632991790771,-0.06420357525348663,0.030088767409324646,0.7753826379776001,-0.302190363407135
1.4582598837365839,-0.9443887392471817,0.9422255752100102,-0.40636512637138367,-2.8486247062683105,-4.809541702270508,-0.09097831696271896,-0.9936744570732117,-0.06583435833454132,0.14365163445472717,0.8311225175857544,-0.41600751876831055
1.4907684012346185,-0.5909770794930145,0.5585617137062165,-0.06888271123170853,-2.8216915130615234,-4.857588291168213,-0.044542375952005386,-0.9967994689941406,-0.06638488173484802,0.2651386857032776,0.8824653029441833,-0.5329497456550598
1.506341350759157,0.028662220612684225,-0.09057667774155542,0.35180652141571045,-2.7125134468078613,-4.767899513244629,0.0018459007842466235,-0.9979234933853149,-0.06438423693180084,0.4310154318809509,0.8867632150650024,-0.622749388217926
1.4948343833335926,0.6679227675384142,-0.7574146282626992,0.7149788737297058,-2.4338438510894775,-4.594245433807373,0.04700370877981186,-0.9971162676811218,-0.05958293750882149,0.6066523194313049,0.8337249755859375,-0.6054254770278931
1.4651475681475974,1.0487400613073015,-1.161517960143962,0.9695801734924316,-1.8324240446090698,-4.557779312133789,0.091406911611557,-0.9944243431091309,-0.05258597806096077,0.6754083037376404,0.799310028553009,-0.4495348334312439
1.4276889774923753,1.2585411185910174,-1.387305635033132,1.1040244102478027,-1.0263922214508057,-4.52375602722168,0.13572323322296143,-0.9897776246070862,-0.04381362348794937,0.6782416105270386,0.6556406021118164,-0.2604617476463318
1.386473426956336,1.3861116460169305,-1.5230478711173325,1.1380563974380493,-0.26749518513679504,-4.500936031341553,0.1801644265651703,-0.9830605983734131,-0.033657148480415344,0.7522696852684021,0.5715309977531433,-0.0771062970161438
1.3440400685452805,1.4701086942763517,-1.6089287268299628,1.1100349426269531,0.20414745807647705,-4.341131210327148,0.22367921471595764,-0.9744007587432861,-0.0225981492549181,0.8768914341926575,0.4945424199104309,0.0325469970703125
1.303242603909456,1.5270397600096026,-1.6652708368780453,1.0412769317626953,0.19019468128681183,-3.947463035583496,0.26412034034729004,-0.96442049741745,-0.01156438048928976,1.1032655239105225,0.3924599885940552,0.04719376564025879
1.2666632517266607,1.5648523616800238,-1.7040392284058719,0.9564706683158875,-0.08430507034063339,-3.3781888484954834,0.299460768699646,-0.9541069269180298,-0.0017800054047256708,1.351326584815979,0.31384819746017456,0.021799683570861816
1.236000618760062,1.5897941993935227,-1.7325320495149306,0.8713135123252869,-0.3257514238357544,-2.714570999145508,0.3285169005393982,-0.9444774389266968,0.006241873372346163,1.5236711502075195,0.22520869970321655,-0.015915751457214355
1.2122402649805049,1.607832042811073,-1.755303720479115,0.8075217604637146,-0.32163578271865845,-1.955959677696228,0.35068178176879883,-0.9364045262336731,0.01299369242042303,1.6309313774108887,0.1012910008430481,-0.023506879806518555
1.1963257676913912,1.6229463713813577,-1.7745085291577902,0.6955442428588867,-0.2471439391374588,-1.165809988975525,0.3652823865413666,-0.9307014346122742,0.01906678080558777,1.7578712701797485,-0.012886762619018555,0.004126785323023796
1.1879332167445344,1.6345697979493674,-1.7894415272163071,0.4959315061569214,-0.20536187291145325,-0.4649433493614197,0.3728184401988983,-0.9275988340377808,0.023808211088180542,1.7903132438659668,-0.07594120502471924,0.06772935390472412
1.1860599896352053,1.6411846144746698,-1.7991357713764389,0.25163623690605164,-0.2772888243198395,0.1231057271361351,0.3743855059146881,-0.926897406578064,0.02639596164226532,1.7524760961532593,-0.10893023014068604,0.11989021301269531
1.1898308305400416,1.6426596043059907,-1.803829545404672,0.062472712248563766,-0.27387943863868713,0.6492171883583069,0.37085723876953125,-0.9283061027526855,0.02669699117541313,1.7023086547851562,-0.10297441482543945,0.12651658058166504
1.1989249140787466,1.643242357910766,-1.8065573729743614,0.02229413203895092,-0.10146373510360718,1.172131061553955,0.3624063730239868,-0.9316489696502686,0.026300931349396706,1.6820119619369507,-0.11827772855758667,0.07289659976959229
1.2132608541552514,1.647087388609219,-1.810782919224159,0.06614254415035248,0.07137595117092133,1.6979022026062012,0.34894904494285583,-0.9367621541023254,0.026673462241888046,1.6897320747375488,-0.1314905285835266,-0.011841770261526108
1.2327865534809699,1.655123110342598,-1.818090160394817,0.11270914226770401,0.14628270268440247,2.223284959793091,0.3304324150085449,-0.9434165358543396,0.02793053723871708,1.6739469766616821,-0.104145348072052,-0.0711432695388794
1.2575944429590888,1.6667605644255346,-1.8290186512467768,0.13466984033584595,0.10247211158275604,2.7696454524993896,0.30668890476226807,-0.9513519406318665,0.029521847143769264,1.6436132192611694,-0.07619023323059082,-0.09080100059509277
1.2879867911017815,1.6832357503930937,-1.8453735742891504,0.19618207216262817,0.07319079339504242,3.363248825073242,0.2772928774356842,-0.9602752327919006,0.031310711055994034,1.6148122549057007,-0.04633188247680664,-0.1115717887878418
1.3241639573493842,1.710446434389563,-1.8724689841220739,0.2936186194419861,0.14639124274253845,3.9614267349243164,0.24176280200481415,-0.969740092754364,0.03398340567946434,1.598645567893982,-0.01931929588317871,-0.15878498554229736
1.3654277300687032,1.7557904490169358,-1.9168632541600061,0.3209860622882843,0.2857931852340698,4.454710006713867,0.2004484087228775,-0.9789859056472778,0.03751066327095032,1.5423341989517212,0.03603851795196533,-0.15646803379058838
1.4101335897003773,1.831723887156911,-1.9897165212966013,0.2886534035205841,0.5938301086425781,4.8048095703125,0.15455837547779083,-0.9871214628219604,0.04126940295100212,1.395200490951538,0.10395795106887817,-0.08687782287597656
1.456314572758386,1.975462371517345,-2.1265061840203727,0.24521656334400177,1.0375653505325317,5.083926677703857,0.10500544309616089,-0.993454098701477,0.044974278658628464,1.2648370265960693,0.15434283018112183,-0.04320407286286354
1.4993582071098248,2.3079566044893927,-2.4484412002663283,0.16549377143383026,1.2892361879348755,5.229610919952393,0.05284715071320534,-0.9974493980407715,0.047979697585105896,1.16831374168396,0.2045721411705017,-0.05361009016633034
1.5213356230644988,-3.132496994288162,3.0038593319380618,0.05931338667869568,1.3261810541152954,5.280567169189453,-0.0004497063346207142,-0.9987770915031433,0.049440499395132065,1.0569376945495605,0.29551470279693604,-0.07933235168457031
1.497396444761804,-2.3094896074078894,2.193382766366767,0.018930014222860336,1.454797387123108,5.3253045082092285,-0.05421954393386841,-0.9973074197769165,0.04937753081321716,0.9713185429573059,0.381386399269104,-0.11628711223602295
1.4513850338265675,-1.990945313022606,1.8896127044352597,0.10438553988933563,1.7656383514404297,5.454179763793945,-0.10876600444316864,-0.9928789138793945,0.04859134927392006,0.9286054968833923,0.43100470304489136,-0.1875072717666626
1.398362881163478,-1.852857179566326,1.7696828683483772,0.2623019516468048,2.0831127166748047,5.650860786437988,-0.16479986906051636,-0.9851701259613037,0.047756846994161606,0.9279529452323914,0.4636858105659485,-0.2839474678039551
1.3416695086926964,-1.7779812125365266,1.7157341984280983,0.38965529203414917,2.295393705368042,5.825891971588135,-0.22227022051811218,-0.9738650918006897,0.04672146588563919,0.9001571536064148,0.5339694023132324,-0.348219633102417
1.282800973033992,-1.7298023524820034,1.6907369967474004,0.49495187401771545,2.484415292739868,5.932417869567871,-0.28044822812080383,-0.9588151574134827,0.04497260972857475,0.8234474658966064,0.6217331290245056,-0.36726856231689453
1.2230692485255386,-1.694890082854392,1.680997037207896,0.582557201385498,2.6228768825531006,5.930656433105469,-0.33814167976379395,-0.9401496648788452,0.04217799752950668,0.7076789736747742,0.6861518621444702,-0.4018275737762451
1.1634680802691493,-1.667383921632949,1.6803961782842345,0.682750403881073,2.7451348304748535,5.880090236663818,-0.3943116068840027,-0.9181825518608093,0.038204487413167953,0.5983673334121704,0.750885009765625,-0.4353600740432739
1.1047647510429783,-1.6443357384435624,1.6854518589148395,0.7308207154273987,2.7366597652435303,5.739343166351318,-0.4481303095817566,-0.8933585286140442,0.033014774322509766,0.5176340341567993,0.7946950793266296,-0.4619239568710327
1.0483315355254015,-1.6242678056594595,1.6931833715039553,0.7118476033210754,2.613006591796875,5.465744972229004,-0.4983043670654297,-0.8665918111801147,0.02667049504816532,0.3934002220630646,0.8553614020347595,-0.45724284648895264
0.994941411654353,-1.606169319031388,1.7020494233618548,0.6903054118156433,2.5148792266845703,5.130789279937744,-0.5442115068435669,-0.8387270569801331,0.019258422777056694,0.24510866403579712,0.9059725403785706,-0.4443528652191162
0.9449343308706691,-1.5894296741196121,1.7122238310006903,0.7343005537986755,2.503207206726074,4.811420440673828,-0.5856945514678955,-0.8104584813117981,0.010914713144302368,0.12663382291793823,0.8980896472930908,-0.44846034049987793
0.8979986305601182,-1.573646124285995,1.7244108263833713,0.8432348966598511,2.596588611602783,4.535252094268799,-0.6231741905212402,-0.7820812463760376,0.0017759251641109586,0.06250518560409546,0.8947826027870178,-0.46715354919433594
0.8539398616269194,-1.5576942217041578,1.739072786099277,0.9883883595466614,2.8391053676605225,4.253305912017822,-0.6569618582725525,-0.7538748383522034,-0.00860807579010725,-0.015004754066467285,0.9043874740600586,-0.4698769450187683
0.8131865971676961,-1.5405093405046337,1.75609831705374,1.1185117959976196,3.089458703994751,3.914759397506714,-0.6868718862533569,-0.7264806628227234,-0.02080964297056198,-0.14779919385910034,0.8755284547805786,-0.46074235439300537
0.7761648603502785,-1.522453998022857,1.7750263478754817,1.231662631034851,3.1765787601470947,3.5657291412353516,-0.712772011756897,-0.7005478143692017,-0.034483928233385086,-0.2862667441368103,0.8602309823036194,-0.4468391537666321
0.7430388145719545,-1.5046799136867917,1.7952164422020003,1.2978906631469727,3.1158392429351807,3.187141180038452,-0.7348074316978455,-0.6765288710594177,-0.048653747886419296,-0.4274241328239441,0.8469083905220032,-0.44081753492355347
0.7143890147597013,-1.4881116405519148,1.8158117882533955,1.3261432647705078,2.9041998386383057,2.725146532058716,-0.752912700176239,-0.6551559567451477,-0.062396612018346786,-0.6276415586471558,0.8475387096405029,-0.412975549697876
0.6907875873956351,-1.4734962050387483,1.8360865215412503,1.321333408355713,2.6147477626800537,2.241556167602539,-0.7670989036560059,-0.6371443867683411,-0.07487525790929794,-0.8579773902893066,0.8262618780136108,-0.3891596794128418
0.6720199881738786,-1.4609132723934528,1.8554512562958403,1.2638155221939087,2.3222763538360596,1.8029037714004517,-0.777846097946167,-0.6225680112838745,-0.08581778407096863,-1.051285982131958,0.792901873588562,-0.34896600246429443
0.6572462077439769,-1.4499594280148855,1.8730738971592145,1.1351884603500366,2.027695655822754,1.4508644342422485,-0.7859048247337341,-0.6109390258789062,-0.09543123841285706,-1.207106590270996,0.7514572739601135,-0.2758760452270508
0.6457141538293707,-1.4400908316392793,1.8879814371112826,0.9090666174888611,1.749536156654358,1.1276462078094482,-0.7918578386306763,-0.601768970489502,-0.10409362614154816,-1.3600130081176758,0.7183308601379395,-0.182359516620636
0.6372009422392131,-1.4304669128006404,1.8990246186355684,0.6035425066947937,1.4835871458053589,0.7887061834335327,-0.7958632707595825,-0.5949479937553406,-0.11242194473743439,-1.539189338684082,0.6940690875053406,-0.07342994213104248
0.6318084589016573,-1.4208183910225696,1.9055571249438263,0.2827564775943756,1.2200689315795898,0.41562792658805847,-0.7979022264480591,-0.5906050801277161,-0.12057311832904816,-1.715418815612793,0.6669600605964661,0.008314311504364014
0.6299902314044898,-1.4108894523854465,1.907732876069716,0.01940101757645607,1.0162882804870605,-0.005944983102381229,-0.7977244853973389,-0.5891368389129639,-0.12866012752056122,-1.8755848407745361,0.6527050137519836,0.029569700360298157
0.6320399003443533,-1.4010050682614652,1.9060873168649621,-0.2100561410188675,0.7363445162773132,-0.43969351053237915,-0.7952221035957336,-0.5907918214797974,-0.13633441925048828,-1.9876301288604736,0.6302968263626099,-0.008211970329284668
0.6378717956961587,-1.3927430627934207,1.9007916792935609,-0.421860009431839,0.25976860523223877,-0.8481412529945374,-0.7906640768051147,-0.5954870581626892,-0.14228715002536774,-1.9907386302947998,0.6358312964439392,-0.0665292739868164
0.6473115855565551,-1.387642669394134,1.8923306545042022,-0.5569515228271484,-0.24678511917591095,-1.2476733922958374,-0.7843658328056335,-0.6030440330505371,-0.1452876776456833,-1.9315614700317383,0.6690993309020996,-0.14107388257980347
0.660692612634535,-1.3858048148391442,1.8815740323782317,-0.6202458143234253,-0.6806133985519409,-1.6908148527145386,-0.7760958075523376,-0.6136638522148132,-0.14523163437843323,-1.8669707775115967,0.6883098483085632,-0.24324172735214233
0.678399721105728,-1.386703798792035,1.8693066448959283,-0.6051076054573059,-0.9941500425338745,-2.1317553520202637,-0.7654221653938293,-0.6275478601455688,-0.1425221860408783,-1.800205945968628,0.6884304881095886,-0.30820703506469727
0.7006080971782543,-1.3894272253217677,1.8563712777937722,-0.5421370267868042,-1.1760611534118652,-2.5833094120025635,-0.7519117593765259,-0.6446826457977295,-0.1378888189792633,-1.6848560571670532,0.6885973811149597,-0.35588544607162476
0.7274725020175301,-1.3930980361472673,1.8430313554652296,-0.484172523021698,-1.2906969785690308,-3.0445611476898193,-0.7350970506668091,-0.6649841070175171,-0.13201798498630524,-1.5667219161987305,0.6720793843269348,-0.37599271535873413
0.7589900274612789,-1.3969185921637028,1.8286749383919918,-0.5005170702934265,-1.415955662727356,-3.5088136196136475,-0.7145915031433105,-0.6881890296936035,-0.1255190670490265,-1.457649827003479,0.6674675345420837,-0.3567195534706116
0.7949063968739236,-1.4002727978786964,1.8121733884840519,-0.5887134671211243,-1.5491150617599487,-3.9400267601013184,-0.690193772315979,-0.7137980461120605,-0.11884848773479462,-1.342246413230896,0.665442943572998,-0.31859034299850464
0.8344865007411001,-1.4020814229265288,1.7929591569399972,-0.6621269583702087,-1.5858346223831177,-4.263344764709473,-0.6620230078697205,-0.7409517765045166,-0.1127651259303093,-1.1980843544006348,0.6767275333404541,-0.29713159799575806
0.8765853994792393,-1.401847900650139,1.771598191661572,-0.6767274737358093,-1.5854562520980835,-4.465787887573242,-0.6306702494621277,-0.7685588002204895,-0.10757623612880707,-1.0033478736877441,0.6712534427642822,-0.32841306924819946
0.9202209573033575,-1.3999170887287506,1.7485845849338617,-0.6692579984664917,-1.6307177543640137,-4.586471080780029,-0.5968236327171326,-0.7957354784011841,-0.10298914462327957,-0.8063899278640747,0.6681566834449768,-0.3810195326805115
0.964936868425913,-1.3966124715430992,1.723642786346862,-0.6898103952407837,-1.7465192079544067,-4.701571941375732,-0.5608519911766052,-0.8220129609107971,-0.09869148582220078,-0.6450502276420593,0.6846837401390076,-0.41363751888275146
1.0107848946855433,-1.3915615195930773,1.6953231360982646,-0.7631287574768066,-1.9693903923034668,-4.844186782836914,-0.5226863026618958,-0.8472490310668945,-0.09469983726739883,-0.5542790293693542,0.7055102586746216,-0.4191398024559021
1.057824037039085,-1.3842870355069945,1.6627538181719521,-0.7768855690956116,-2.1419854164123535,-4.974526405334473,-0.48225799202919006,-0.8712896704673767,-0.09100325405597687,-0.4822806119918823,0.7451910376548767,-0.4367218613624573
1.105808772163584,-1.3744700349021965,1.6271469175359319,-0.6601918339729309,-2.147939682006836,-5.0388360023498535,-0.4397974908351898,-0.8938271403312683,-0.08747053146362305,-0.3849400281906128,0.7721536159515381,-0.5141223669052124
1.1542706587150502,-1.3626322846311365,1.5909200869558147,-0.4050348997116089,-2.022822856903076,-5.038135051727295,-0.3958515524864197,-0.9145001173019409,-0.08361327648162842,-0.2720256745815277,0.7832287549972534,-0.601048469543457
1.2029326629657566,-1.350113269437828,1.5558862108481955,-0.15578900277614594,-1.9369385242462158,-5.0093255043029785,-0.3509015440940857,-0.9330977201461792,-0.07872011512517929,-0.1323138177394867,0.7968672513961792,-0.6819303631782532
1.251443093676873,-1.3343887437744588,1.5190911146366062,-0.07753521203994751,-1.8334113359451294,-4.964634895324707,-0.3052203059196472,-0.9494386911392212,-0.0735313817858696,-0.03309756517410278,0.8171144127845764,-0.6487585306167603
1.299058874681065,-1.3101219363591194,1.4750592653741805,-0.07195759564638138,-1.729485273361206,-4.857827186584473,-0.25933748483657837,-0.9633060097694397,-0.06917665898799896,0.06201085448265076,0.7978550791740417,-0.5436619520187378
1.345162172259736,-1.2733733100143194,1.4190718994237488,-0.036077093333005905,-1.7911118268966675,-4.742150783538818,-0.2139025777578354,-0.9746524095535278,-0.06556433439254761,0.1841173768043518,0.754086434841156,-0.5251643061637878
1.3901083900688107,-1.2163859844266436,1.3413396452237865,-0.06780155003070831,-2.0537240505218506,-4.764826774597168,-0.168538436293602,-0.9837203025817871,-0.06236505135893822,0.2488454133272171,0.7755140662193298,-0.5681737661361694
1.4341751583796682,-1.1126941755536908,1.213425444360368,-0.16163963079452515,-2.465691566467285,-4.878678321838379,-0.12215402722358704,-0.9906818270683289,-0.06023259460926056,0.23349738121032715,0.7997638583183289,-0.5549864172935486
1.4751991836283518,-0.9038490743114418,0.9766678075056392,-0.09447651356458664,-2.741832971572876,-4.881021976470947,-0.07499773055315018,-0.995434045791626,-0.05904551222920418,0.3119361996650696,0.792736291885376,-0.5442715883255005
1.5067145363757046,-0.46564148867703004,0.5104022490404921,0.21784251928329468,-2.5093774795532227,-4.656235694885254,-0.02875390090048313,-0.9979474544525146,-0.057222284376621246,0.5291048288345337,0.7641215920448303,-0.5843791365623474
1.51635872049007,0.27012858044316457,-0.24885270006208224,0.7176383137702942,-1.8973016738891602,-4.24332857131958,0.014520448632538319,-0.9985186457633972,-0.05243997275829315,0.7810270190238953,0.6455522775650024,-0.6145825982093811
1.5017427592158128,0.8907532905749409,-0.8862938697722603,1.1764836311340332,-1.239577054977417,-3.7389116287231445,0.05365045741200447,-0.9976167678833008,-0.04338887333869934,0.993499219417572,0.512448251247406,-0.5542367100715637
1.476696284548265,1.2326386261327484,-1.2394299218831581,1.373454213142395,-0.8234148621559143,-3.3741183280944824,0.08864066749811172,-0.9955758452415466,-0.031171856448054314,1.098569393157959,0.41221708059310913,-0.379777729511261
1.4478068690282693,1.4175358920753294,-1.4333813916145774,1.255240559577942,-0.8045127987861633,-3.227961540222168,0.12124180793762207,-0.9924463033676147,-0.018728438764810562,1.053227186203003,0.32708680629730225,-0.1561676263809204
1.416973142465775,1.5122735207008784,-1.538285708080095,0.9579289555549622,-1.037497878074646,-3.1875174045562744,0.15295517444610596,-0.9881924986839294,-0.008961599320173264,0.988036036491394,0.26208776235580444,0.030201971530914307
1.3854449806989901,1.5564234248222668,-1.5946507327499344,0.7301679849624634,-1.210307002067566,-3.156672239303589,0.18427316844463348,-0.9828715324401855,-0.0026487226132303476,1.00664484500885,0.21965742111206055,0.11522817611694336
1.3544808907951862,1.580108852033383,-1.6307325991272528,0.7193139791488647,-1.0706275701522827,-2.9934632778167725,0.21462342143058777,-0.9766948819160461,0.0019987437408417463,1.1161870956420898,0.15449029207229614,0.0921175479888916
1.326224662727337,1.6025014417874852,-1.6627075080587626,0.8619036078453064,-0.6497277021408081,-2.5789058208465576,0.24201910197734833,-0.970241129398346,0.007675815373659134,1.3267980813980103,0.05622440576553345,0.019164562225341797
1.3030262247395314,1.6301933100824495,-1.695876773546812,1.0067317485809326,-0.2433004379272461,-1.9488458633422852,0.26411527395248413,-0.9643632769584656,0.015706125646829605,1.580550193786621,-0.0430983304977417,-0.0052841901779174805
1.286255171565298,1.6601793650968824,-1.7285155135666261,0.9889544248580933,-0.07380807399749756,-1.2549805641174316,0.27959662675857544,-0.9597905874252319,0.025057964026927948,1.7596489191055298,-0.13032788038253784,0.04237079620361328
1.2762171987929314,1.6867299746003979,-1.7571244058073592,0.8274710178375244,-0.11480887979269028,-0.5843619704246521,0.2883886694908142,-0.9569244384765625,0.03358455002307892,1.818041443824768,-0.18222063779830933,0.1335909366607666
1.27249135268867,1.7065958037395843,-1.7798930254084004,0.5783413648605347,-0.2788934111595154,0.002710270695388317,0.2911953330039978,-0.9558360576629639,0.03978906571865082,1.8060795068740845,-0.21632903814315796,0.21231675148010254
1.2744590588776272,1.718438852813346,-1.7964969448159733,0.33483579754829407,-0.5202745795249939,0.5127389430999756,0.2888425588607788,-0.9564124941825867,0.042958036065101624,1.7477327585220337,-0.2199639081954956,0.2556718587875366
1.281486461816881,1.724535170881226,-1.8090851311598586,0.1880364865064621,-0.6458958983421326,0.974672794342041,0.28192606568336487,-0.9584410190582275,0.04368772730231285,1.6855117082595825,-0.18052083253860474,0.2404921054840088
1.293053183333049,1.7301938300935915,-1.8216616775829348,0.15911167860031128,-0.621974766254425,1.4062583446502686,0.2707105278968811,-0.9616766571998596,0.04351978749036789,1.6291460990905762,-0.14728641510009766,0.18433988094329834
1.3085049804339224,1.739683258927425,-1.837504784915357,0.17203228175640106,-0.5214806795120239,1.7596687078475952,0.25560569763183594,-0.9657983779907227,0.04358362779021263,1.556894302368164,-0.12053591012954712,0.13497495651245117
1.326930920600485,1.7550206122171133,-1.8580048197294017,0.1882345825433731,-0.37227582931518555,2.0270791053771973,0.23736973106861115,-0.9704118967056274,0.044230781495571136,1.4437673091888428,-0.06129586696624756,0.12860560417175293
1.3475581156488339,1.7769384421194137,-1.8836254359575384,0.1710452139377594,-0.23068834841251373,2.2314300537109375,0.21670155227184296,-0.9751856327056885,0.04531501978635788,1.3187904357910156,-0.019305944442749023,0.14027774333953857
1.369919837097783,1.8056672046615683,-1.9146839756464171,0.1261846423149109,-0.09707675129175186,2.3986620903015137,0.19405026733875275,-0.9798920750617981,0.046433743089437485,1.2156329154968262,0.028231918811798096,0.1491687297821045
1.393583222103566,1.8438850129160649,-1.953828428308902,0.11454395949840546,0.05285441875457764,2.5278220176696777,0.16975483298301697,-0.9843388199806213,0.04754599556326866,1.1315299272537231,0.08262056112289429,0.13617002964019775
1.4178495620678218,1.8986979492175102,-2.0079828458694866,0.15358605980873108,0.22587014734745026,2.6108596324920654,0.14423421025276184,-0.9883264303207397,0.049065880477428436,1.0483012199401855,0.14596498012542725,0.07495772838592529
1.4419140290101224,1.981803631925988,-2.0886465498918456,0.22414730489253998,0.4239286184310913,2.674617290496826,0.11782131344079971,-0.9917061924934387,0.051349982619285583,0.964499831199646,0.21564429998397827,0.010036222636699677
1.4649078637994308,2.112806710104348,-2.215215442666298,0.30414900183677673,0.6318951845169067,2.7500600814819336,0.09054271876811981,-0.9943990707397461,0.05452171713113785,0.899569571018219,0.2694082260131836,-0.03724861517548561
1.4853096165451194,2.3254307924774,-2.421520594211507,0.38056066632270813,0.8039630651473999,2.8428797721862793,0.06220362335443497,-0.9963482618331909,0.05848948657512665,0.8704135417938232,0.32941704988479614,-0.07599115371704102
1.4996444800114623,2.6618917958117594,-2.7503514159467706,0.4553735852241516,0.9073237180709839,2.928968667984009,0.03281007707118988,-0.9974697828292847,0.06306832283735275,0.8496056795120239,0.39554107189178467,-0.12048710137605667
1.5026158439040493,3.104144971642975,3.0991355675274654,0.5111822485923767,1.001071810722351,2.9921371936798096,0.0025507479440420866,-0.9976766109466553,0.06808312982320786,0.8085759878158569,0.46331363916397095,-0.15569889545440674
1.49218475934109,-2.7732277907981517,2.7028792777398394,0.5543554425239563,1.1108847856521606,3.0185742378234863,-0.028278561308979988,-0.9969117045402527,0.07326370477676392,0.7508584856987,0.5161377191543579,-0.1690734624862671
1.4723782243259385,-2.4966016746272564,2.43696641648284,0.5973894596099854,1.2369487285614014,2.954975128173828,-0.05907311290502548,-0.9951608180999756,0.07852015644311905,0.6756349802017212,0.5639321804046631,-0.1819288730621338
1.4484574648199517,-2.3252774793507576,2.2779881406122926,0.6122565269470215,1.4195090532302856,2.804760456085205,-0.0889180526137352,-0.9925259351730347,0.08358313143253326,0.5639546513557434,0.6065700650215149,-0.19988548755645752
1.4236575170753663,-2.2156111302457404,2.182802417978152,0.6151561737060547,1.6481907367706299,2.616661310195923,-0.11717117577791214,-0.9891945719718933,0.08811913430690765,0.45155227184295654,0.6221292018890381,-0.2134242057800293
1.3994062238540192,-2.13786083129903,2.1223478128930076,0.5579149723052979,1.9588111639022827,2.462977886199951,-0.14385783672332764,-0.985348641872406,0.09161367267370224,0.39480388164520264,0.636990487575531,-0.2269437313079834
1.3759782314992832,-2.0725919076360984,2.077826848547421,0.4188031554222107,2.342273473739624,2.412010908126831,-0.16972288489341736,-0.9810829162597656,0.09311612695455551,0.37870723009109497,0.6314734816551208,-0.18804097175598145
1.3528137520212047,-2.0083675161533776,2.038596522935392,0.24334874749183655,2.804563522338867,2.4510560035705566,-0.19588585197925568,-0.9763357043266296,0.09163869172334671,0.3900233805179596,0.5979786515235901,-0.11535071581602097
1.3293105141686028,-1.9429048012304218,2.0023014261853147,0.09110542386770248,3.183096408843994,2.5057923793792725,-0.22278019785881042,-0.9709837436676025,0.08694906532764435,0.39708125591278076,0.5751399397850037,-0.09616515785455704
1.3053089645913696,-1.8781872197410014,1.9698799858521094,-0.01738719642162323,3.4537148475646973,2.5480306148529053,-0.2500811219215393,-0.964964747428894,0.07938902080059052,0.3564806282520294,0.5843799710273743,-0.14925897121429443
1.2807322222889168,-1.8161776695332448,1.9425170940583336,-0.08077336102724075,3.656031370162964,2.5734238624572754,-0.27744635939598083,-0.9582255482673645,0.06948030740022659,0.31058841943740845,0.6166117191314697,-0.2280341386795044
1.2556491101558866,-1.757190250031734,1.9199332853055904,-0.16308213770389557,3.796788454055786,2.60188889503479,-0.30458757281303406,-0.9507507681846619,0.05744002386927605,0.26377028226852417,0.6230835914611816,-0.3015652894973755
1.2299130869349875,-1.699481118628553,1.899669989147334,-0.3296799063682556,3.8734710216522217,2.677983522415161,-0.33155548572540283,-0.942459762096405,0.04290323331952095,0.24073517322540283,0.6465765833854675,-0.3244277238845825
1.2030495128991125,-1.6409149231564812,1.8787542853489383,-0.5915840268135071,3.879798412322998,2.8005034923553467,-0.3586306571960449,-0.9331397414207458,0.02518797107040882,0.22861045598983765,0.6521795988082886,-0.2970384359359741
1.1745417661511908,-1.5805691376262436,1.8553888714249687,-0.9243572354316711,3.8200347423553467,2.9482264518737793,-0.38594773411750793,-0.9225130677223206,0.003771914169192314,0.19046732783317566,0.6336641907691956,-0.2699766159057617
1.1440558364690823,-1.5190460299969637,1.8297040733870893,-1.2473769187927246,3.763113260269165,3.0793631076812744,-0.41335198283195496,-0.9103196859359741,-0.021410204470157623,0.11629384756088257,0.6218217611312866,-0.25843584537506104
1.1116920753651154,-1.4579307366713954,1.8036157624058067,-1.4935922622680664,3.712247371673584,3.1630496978759766,-0.44032588601112366,-0.8964498043060303,-0.04990975186228752,-0.01476752758026123,0.6164357662200928,-0.30061501264572144
1.077587106777563,-1.4000765516693796,1.7795482381449106,-1.6303818225860596,3.527925729751587,3.259960889816284,-0.46657228469848633,-0.8808179497718811,-0.08043608069419861,-0.18796876072883606,0.5802656412124634,-0.39409685134887695
1.0418304499178126,-1.3492551492419693,1.759808679851364,-1.6294275522232056,3.155294179916382,3.3485300540924072,-0.4923073649406433,-0.8633294105529785,-0.11088643968105316,-0.3586448132991791,0.5429253578186035,-0.5033102035522461
1.0054065581766582,-1.3075458627505876,1.7460169381847552,-1.4831193685531616,2.827584981918335,3.342989683151245,-0.517288327217102,-0.8443798422813416,-0.1394118219614029,-0.5956725478172302,0.5137218236923218,-0.596336305141449
0.9701013337567282,-1.2743977846280556,1.738782527709226,-1.2117916345596313,2.5671603679656982,3.1758546829223633,-0.5405696034431458,-0.8249430060386658,-0.1650870144367218,-0.9310948848724365,0.43814796209335327,-0.6547370553016663
0.9382538714058588,-1.2489193160673542,1.7370911849809791,-0.9041593074798584,2.223590850830078,2.791064977645874,-0.5608354210853577,-0.8065270185470581,-0.18702395260334015,-1.3295912742614746,0.33638840913772583,-0.662509024143219
0.9118706916765538,-1.2302979974696249,1.739213513076539,-0.5621111392974854,1.8249294757843018,2.2439045906066895,-0.5771164298057556,-0.790650486946106,-0.20447100698947906,-1.720963954925537,0.23600882291793823,-0.6163144111633301
0.8924554250140514,-1.21716575116305,1.7437938692557178,-0.22359590232372284,1.5334599018096924,1.5833194255828857,-0.5886732935905457,-0.77861487865448,-0.21730776131153107,-2.050441265106201,0.1170547604560852,-0.5590593218803406
0.8803237628119565,-1.2072393118940847,1.7497345716822408,0.0674271434545517,1.3754570484161377,0.9504972696304321,-0.5952723026275635,-0.770945131778717,-0.2264828234910965,-2.273608922958374,-0.015843749046325684,-0.47351399064064026
0.8746857702356768,-1.198423624496042,1.755844680375751,0.23775605857372284,1.3245822191238403,0.3902541399002075,-0.597291886806488,-0.7673420310020447,-0.23329941928386688,-2.340147018432617,-0.08777570724487305,-0.35985541343688965
0.8743183581495674,-1.1889513242304637,1.7605340920266952,0.2818247079849243,1.2773534059524536,-0.09504997730255127,-0.5953168272972107,-0.7671064138412476,-0.23905164003372192,-2.2993364334106445,-0.09596121311187744,-0.251472532749176
0.8782485942507237,-1.178262330625144,1.762650897679063,0.26531386375427246,1.161786675453186,-0.5104368925094604,-0.5899375081062317,-0.7696217894554138,-0.24424602091312408,-2.210721731185913,-0.06781107187271118,-0.21609628200531006
0.8854944313946838,-1.1675141162219627,1.762510705971464,0.28862422704696655,0.9458385109901428,-0.8116297721862793,-0.5821337103843689,-0.774228036403656,-0.24837754666805267,-2.0696606636047363,-0.02392876148223877,-0.2794238328933716
0.8952878644710343,-1.1589195185149515,1.7614644734879379,0.37202590703964233,0.5863940715789795,-1.023253083229065,-0.5730016231536865,-0.780389130115509,-0.25032398104667664,-1.877834677696228,0.03519558906555176,-0.4106561541557312
0.9071292032621591,-1.1548296032644378,1.760627331880059,0.4872680902481079,0.08080649375915527,-1.1769465208053589,-0.5634803175926208,-0.787738561630249,-0.24891380965709686,-1.688640832901001,0.10017746686935425,-0.5519589185714722
0.9208408851141283,-1.156801815221167,1.76031935795656,0.5796966552734375,-0.5255149006843567,-1.346373200416565,-0.5540286302566528,-0.7961107492446899,-0.2434338480234146,-1.5139188766479492,0.17570364475250244,-0.652745246887207
0.9367272185695298,-1.1646940624566353,1.7599387252278083,0.6381291151046753,-1.0950675010681152,-1.584552526473999,-0.5442442297935486,-0.8056235313415527,-0.23402772843837738,-1.4015108346939087,0.23712682723999023,-0.6825675964355469
0.9552647752904754,-1.1770267697217591,1.75870345319685,0.6667866706848145,-1.5451925992965698,-1.8828843832015991,-0.5332043170928955,-0.8164666295051575,-0.22152946889400482,-1.3299548625946045,0.28453004360198975,-0.6686223745346069
0.976865457755545,-1.1920685311197194,1.756193648680546,0.6901037096977234,-1.8468037843704224,-2.2186014652252197,-0.5199660658836365,-0.8287472724914551,-0.20691442489624023,-1.2603380680084229,0.3272212743759155,-0.6347907781600952
1.001842379800011,-1.2082541130473898,1.7522882751725783,0.7178945541381836,-2.0131633281707764,-2.5706088542938232,-0.5037314295768738,-0.8424649834632874,-0.19106937944889069,-1.196402907371521,0.37600380182266235,-0.601349949836731
1.0300747588606154,-1.2248239317744476,1.7477531298188975,0.7921328544616699,-2.037461280822754,-2.8671936988830566,-0.4842536151409149,-0.857337474822998,-0.1745593398809433,-1.1052697896957397,0.42040205001831055,-0.581391453742981
1.0611921530111095,-1.2414127394198957,1.7436955058817865,0.8769096732139587,-1.969813585281372,-3.118731737136841,-0.46160688996315,-0.8729376792907715,-0.15779398381710052,-0.9971486330032349,0.4621710777282715,-0.5794342756271362
1.094740706240908,-1.2579390584357222,1.7401489954994844,0.9046933650970459,-1.9634315967559814,-3.3250906467437744,-0.4360315203666687,-0.8888094425201416,-0.14104785025119781,-0.8976936340332031,0.49589550495147705,-0.568760335445404
1.1298846941564271,-1.274420414531179,1.7360140000816908,0.8400722742080688,-2.077953338623047,-3.4510445594787598,-0.4081580638885498,-0.9043629765510559,-0.12463914602994919,-0.7683709859848022,0.5373736619949341,-0.5282690525054932
1.1654813689394439,-1.290859543401394,1.730030130143682,0.7014433145523071,-2.3003807067871094,-3.481659173965454,-0.3789590001106262,-0.9189782738685608,-0.10894536226987839,-0.5972373485565186,0.566256046295166,-0.48721539974212646
1.2006884208688298,-1.3072203065241732,1.721275761372145,0.5461907386779785,-2.5762457847595215,-3.448747158050537,-0.34922435879707336,-0.9322883486747742,-0.09423968940973282,-0.4234044849872589,0.5873938798904419,-0.4525131583213806
1.2349503994795261,-1.3233034308302247,1.709552858336102,0.4026367664337158,-2.813390016555786,-3.3623573780059814,-0.3195263147354126,-0.9441318511962891,-0.0807356908917427,-0.2633900046348572,0.6019076704978943,-0.43348538875579834
1.2679762183278027,-1.3382128793959447,1.694879288476311,0.27819350361824036,-2.9200363159179688,-3.2481331825256348,-0.29018333554267883,-0.9544993042945862,-0.0687357559800148,-0.12424537539482117,0.6080485582351685,-0.40434759855270386
1.2996034672524772,-1.3508664765791745,1.6773317487786867,0.17407828569412231,-2.947962522506714,-3.1186037063598633,-0.26142874360084534,-0.9634520411491394,-0.05844128876924515,-0.00991833209991455,0.6049009561538696,-0.3676450252532959
1.3298807988322907,-1.3594392694127333,1.6557690820137057,0.053616054356098175,-2.915250062942505,-3.0190865993499756,-0.23328286409378052,-0.9711199402809143,-0.050053536891937256,0.08038975298404694,0.5927324295043945,-0.3268842101097107
1.359137468342287,-1.3602386367971264,1.6268618840256752,-0.10254824906587601,-2.8550472259521484,-2.957320213317871,-0.20544308423995972,-0.9776837825775146,-0.04390843212604523,0.13081228733062744,0.5958782434463501,-0.26653146743774414
1.3874690267676237,-1.3468510201413726,1.5841429547013515,-0.31831467151641846,-2.8429274559020996,-2.919029951095581,-0.177750363945961,-0.9832425713539124,-0.0404854342341423,0.17436286807060242,0.5824551582336426,-0.19642239809036255
1.414603182921056,-1.309946390779092,1.5174130252589098,-0.5582447648048401,-2.917813777923584,-2.8578102588653564,-0.1502971053123474,-0.9878266453742981,-0.04011908173561096,0.2574442923069,0.564318835735321,-0.1222648024559021
1.4394848679030334,-1.2405569282400817,1.4174120100100192,-0.7193236351013184,-2.979328155517578,-2.6983742713928223,-0.12385939061641693,-0.9913910031318665,-0.042458053678274155,0.38896554708480835,0.5361298322677612,-0.083396315574646
1.4607135376176328,-1.1317295133056124,1.2772019111152446,-0.8020201325416565,-3.0828969478607178,-2.474905252456665,-0.099440798163414,-0.9939470291137695,-0.04670147970318794,0.5370934009552002,0.4860581159591675,-0.09406071901321411
1.4774795410658628,-0.9793087971786419,1.092291465722006,-0.8006899356842041,-3.1933200359344482,-2.2715814113616943,-0.07735227048397064,-0.9956491589546204,-0.05195846036076546,0.6358696818351746,0.45942461490631104,-0.11402655392885208
1.4897047315008596,-0.7812981421378745,0.8613544822765943,-0.7326605319976807,-3.171983242034912,-2.1619529724121094,-0.05704374983906746,-0.9967138767242432,-0.057513441890478134,0.6692721247673035,0.45385175943374634,-0.14803755283355713
1.4977258073328277,-0.5375058613603901,0.5860047676181875,-0.587992250919342,-2.92930006980896,-2.1544301509857178,-0.03737899288535118,-0.9973315596580505,-0.06271176040172577,0.6467234492301941,0.42213618755340576,-0.1758134961128235
1.5015860454826127,-0.2556809459883598,0.2760167485313417,-0.39793574810028076,-2.516202688217163,-2.178614377975464,-0.01748959720134735,-0.9976059198379517,-0.0669068694114685,0.612994372844696,0.37431490421295166,-0.19707006216049194
1.5010626042588946,0.037487303993675274,-0.040929761268673544,-0.18038654327392578,-2.0737693309783936,-2.150752067565918,0.0026114301290363073,-0.9975695610046387,-0.06962908804416656,0.6355111002922058,0.32668638229370117,-0.2115597128868103
1.496525627097955,0.30534676721685217,-0.3282314283781371,-0.012327760457992554,-1.6660550832748413,-2.0470166206359863,0.022307276725769043,-0.9972432255744934,-0.07077082991600037,0.693024754524231,0.27223706245422363,-0.2213127613067627
1.4888541337103272,0.5203404333418883,-0.5591069281365468,0.041169386357069016,-1.3761850595474243,-1.8620744943618774,0.0406951941549778,-0.9966446161270142,-0.07101954519748688,0.7383575439453125,0.2207961082458496,-0.198481023311615
1.47914578411805,0.6732719972495714,-0.7258564726884598,-0.029523426666855812,-1.2775511741638184,-1.620781421661377,0.057069070637226105,-0.9958029985427856,-0.07155155390501022,0.7693469524383545,0.17350685596466064,-0.14251387119293213
1.4686025276481376,0.7670229177892421,-0.8331790572672083,-0.18914946913719177,-1.3394962549209595,-1.3453733921051025,0.07079858332872391,-0.9947827458381653,-0.07344947755336761,0.7896140217781067,0.14112979173660278,-0.09479378908872604
1.4579286781847582,0.8136241137742587,-0.894268061932806,-0.3746706247329712,-1.485068917274475,-1.1095565557479858,0.08185656368732452,-0.993637204170227,-0.07736129313707352,0.7795936465263367,0.11972051858901978,-0.07244932651519775
1.447393564856159,0.8284593074299825,-0.9249896796862803,-0.5144287347793579,-1.632433295249939,-0.9372225999832153,0.09070383757352829,-0.9923955202102661,-0.08321026712656021,0.7355595827102661,0.09986317157745361,-0.08626895397901535
1.4372299439712013,0.8257008681629485,-0.9392331735920341,-0.5765427350997925,-1.725836157798767,-0.8158021569252014,0.09788281470537186,-0.9910932779312134,-0.09029464423656464,0.6768974661827087,0.09100782871246338,-0.13259035348892212
1.4277347855956266,0.8158110074179115,-0.9467017209665056,-0.5556857585906982,-1.7017322778701782,-0.7182164192199707,0.10383398085832596,-0.9897841215133667,-0.09770277887582779,0.6205922961235046,0.08864587545394897,-0.17709261178970337
1.4192972283570324,0.8058640703389081,-0.9531064820818781,-0.45736265182495117,-1.5240235328674316,-0.6387878656387329,0.10887861996889114,-0.9885459542274475,-0.10451079905033112,0.577019214630127,0.08244848251342773,-0.20182454586029053
1.412364496317914,0.8012518904636063,-0.9623981330128001,-0.2871946692466736,-1.2119776010513306,-0.5621209144592285,0.11331528425216675,-0.9874759316444397,-0.10977812111377716,0.535335898399353,0.05887162685394287,-0.2147151380777359
1.4072303848539331,0.8046107841607939,-0.9764118395373274,-0.10281815379858017,-0.8884392380714417,-0.49388888478279114,0.1173345074057579,-0.9866529107093811,-0.11291035264730453,0.4972132444381714,0.03590822219848633,-0.21864771842956543
1.4036277138556148,0.8147384631517673,-0.994475016566385,0.033119287341833115,-0.6562278270721436,-0.44185200333595276,0.12105794250965118,-0.986059844493866,-0.11415474861860275,0.4549461007118225,0.012701570987701416,-0.1983451247215271
1.4011276504239667,0.8287339341031054,-1.0146796147933357,0.11484477669000626,-0.5372175574302673,-0.39459583163261414,0.12446010857820511,-0.9856407642364502,-0.11411480605602264,0.4232083559036255,0.00137251615524292,-0.1657617688179016
1.3990009202467912,0.8425831908822674,-1.0343863804247864,0.08489921689033508,-0.6012803316116333,-0.37542277574539185,0.12759214639663696,-0.9852794408798218,-0.11377452313899994,0.38353151082992554,-0.005412697792053223,-0.13677464425563812
1.3965536538960825,0.849175959095225,-1.0482511649875994,-0.06817794591188431,-0.7917482852935791,-0.3119404911994934,0.13014960289001465,-0.9848580956459045,-0.11452368646860123,0.36280086636543274,-0.023274898529052734,-0.07672983407974243
1.3933425524382965,0.8443320614744237,-1.0521197334688805,-0.23353417217731476,-0.9439128041267395,-0.2694198191165924,0.1319563239812851,-0.9842963814735413,-0.11725245416164398,0.3708970546722412,-0.02684253454208374,0.02144266664981842
1.3897759484253707,0.8312252271209041,-1.0488995829507979,-0.3114505410194397,-1.0102391242980957,-0.18320079147815704,0.1330009400844574,-0.9836605191230774,-0.12133720517158508,0.3502601683139801,-0.03951758146286011,0.009444668889045715
1.3866365209518183,0.8146770273666936,-1.042153755543972,-0.27858513593673706,-0.955162763595581,-0.12167330086231232,0.13322097063064575,-0.9830904603004456,-0.1256396472454071,0.34405869245529175,-0.030581414699554443,-0.024979695677757263
1.3842436869776162,0.8004167589007304,-1.0368895522836172,-0.18378406763076782,-0.8544121980667114,-0.10063060373067856,0.1331036537885666,-0.9826494455337524,-0.129164457321167,0.2955614924430847,-0.03126657009124756,-0.06742964684963226
1.3824806388486497,0.7913122530512059,-1.0358979987406385,-0.08835635334253311,-0.767667829990387,-0.13446488976478577,0.13315464556217194,-0.9823209643363953,-0.1315889060497284,0.23809172213077545,-0.012750625610351562,-0.09376801550388336
1.3810813490614158,0.7881404785041618,-1.040121145849771,0.008582714945077896,-0.6908636093139648,-0.17124022543430328,0.13371112942695618,-0.982058048248291,-0.13297978043556213,0.1917741298675537,-0.003018975257873535,-0.0935063362121582
1.3802492273104074,0.7902264042800853,-1.0490571306465617,0.11044101417064667,-0.6474511623382568,-0.18041837215423584,0.13456878066062927,-0.9819007515907288,-0.13327555358409882,0.17849580943584442,-6.341934204101562e-05,-0.09652167558670044
1.3799855309557119,0.7955578151168181,-1.0609136104752142,0.16502010822296143,-0.6076480746269226,-0.1692245602607727,0.1354621946811676,-0.981850802898407,-0.13273729383945465,0.1828361600637436,-0.00043380260467529297,-0.08308285474777222
1.379925919335014,0.8015470817867446,-1.0728190114385807,0.1380615383386612,-0.5232043862342834,-0.159543976187706,0.13629674911499023,-0.9818394780158997,-0.13196425139904022,0.17977382242679596,-0.010256528854370117,-0.024804413318634033
1.3793522717003537,0.8066273065570222,-1.0827613235298366,0.05639516934752464,-0.40841737389564514,-0.1858014166355133,0.1373721957206726,-0.9817304611206055,-0.13166001439094543,0.15013395249843597,-0.025212407112121582,0.054648980498313904
1.378030250602731,0.8109931203140353,-1.0907614426080596,-0.013064747676253319,-0.286150187253952,-0.21515420079231262,0.13888613879680634,-0.9814780950546265,-0.13195252418518066,0.11054928600788116,-0.02456444501876831,0.09249342978000641
1.3762129985783655,0.8157241236703517,-1.0981172457097266,-0.02367025427520275,-0.21828457713127136,-0.24019059538841248,0.14080756902694702,-0.9811283349990845,-0.13251622021198273,0.09469661116600037,-0.024425923824310303,0.08254379034042358
1.3743275634126049,0.8222348715813549,-1.1067968424293981,0.02219516970217228,-0.18342441320419312,-0.26052939891815186,0.14302285015583038,-0.9807620048522949,-0.13285578787326813,0.0917336642742157,-0.013546645641326904,0.04659794270992279
1.3728119114148782,0.8319844031316153,-1.1184532843613837,0.11334984749555588,-0.15189605951309204,-0.2678919732570648,0.14540937542915344,-0.9804649949073792,-0.13245533406734467,0.09596940875053406,-0.006091952323913574,0.002343788743019104
1.3718448154046181,0.8457183903015453,-1.1338821963912498,0.20874418318271637,-0.13050322234630585,-0.2804310619831085,0.1479247510433197,-0.9802743196487427,-0.13107497990131378,0.09725350141525269,-0.005977511405944824,-0.020246267318725586
1.37133664167409,0.8632746466751233,-1.1530606982833094,0.2940894365310669,-0.11065389215946198,-0.29133111238479614,0.15058153867721558,-0.9801737666130066,-0.12878163158893585,0.09284195303916931,-0.008702635765075684,-0.014711856842041016
1.3711542695640675,0.8843447900264868,-1.1753699382264058,0.3572717308998108,-0.0405697375535965,-0.2998868227005005,0.15339985489845276,-0.9801376461982727,-0.12569397687911987,0.08358442783355713,-0.008342087268829346,0.002372562885284424
1.3711354160177627,0.9077739009233219,-1.1992419134031271,0.3712477385997772,0.04196535423398018,-0.2917788326740265,0.15631714463233948,-0.9801338911056519,-0.12207731604576111,0.0787445455789566,-0.01368647813796997,0.025001034140586853
1.371017796643925,0.9303594943749015,-1.2216938798128623,0.3142738938331604,0.07161986827850342,-0.26178213953971863,0.1591261625289917,-0.9801105260848999,-0.11858448386192322,0.08351913094520569,-0.021796882152557373,0.061882972717285156
1.3707729168076375,0.9486596385948647,-1.2395901741736626,0.22609344124794006,0.07571794092655182,-0.1919764131307602,0.16146473586559296,-0.980061948299408,-0.11579275876283646,0.09793470799922943,-0.031901001930236816,0.10379946231842041
1.3705734107563075,0.9609216584782526,-1.251360736786746,0.13320012390613556,0.06638798117637634,-0.11147496849298477,0.16303274035453796,-0.9800222516059875,-0.11391624808311462,0.11553174257278442,-0.04533791542053223,0.11965370178222656
1.3704739956969163,0.9672735523604701,-1.2572800360550813,0.05078648030757904,0.04158196598291397,-0.038630858063697815,0.1638326346874237,-0.9800024628639221,-0.11293325573205948,0.12164406478404999,-0.038216471672058105,0.11603094637393951
1.3704674718261725,0.9682080955479974,-1.2580413153868264,-0.026277856901288033,-0.005147509276866913,0.017086727544665337,0.16394372284412384,-0.9800012111663818,-0.11278396844863892,0.11341531574726105,-0.03055793046951294,0.09960049390792847
1.3704512477056554,0.9644797268578783,-1.2546272177275055,-0.08549244701862335,-0.06949400901794434,0.05685864016413689,0.16353483498096466,-0.979997992515564,-0.11340326815843582,0.10172396898269653,-0.019025444984436035,0.08276373893022537
1.3704382525787804,0.9568993210222795,-1.24792076411527,-0.12840217351913452,-0.13550160825252533,0.09659343212842941,0.16268141567707062,-0.9799953699111938,-0.11464734375476837,0.09358997642993927,-0.004379689693450928,0.06522423028945923
1.3705948842418167,0.9464453521983065,-1.238862012045461,-0.14020822942256927,-0.17555688321590424,0.1403137445449829,0.16134963929653168,-0.9800265431404114,-0.11625209450721741,0.0918700098991394,0.006668210029602051,0.04555825889110565
1.3710720318492586,0.9344359307544856,-1.228479019377806,-0.1323772668838501,-0.18166384100914001,0.18025973439216614,0.159565731883049,-0.9801213145256042,-0.11790342628955841,0.08655855059623718,0.008441567420959473,0.024092495441436768
1.3719029395348556,0.9221521974550183,-1.217673814307573,-0.10996278375387192,-0.15368519723415375,0.20770251750946045,0.15745651721954346,-0.9802858233451843,-0.11936261504888535,0.07279863953590393,0.01058971881866455,0.00922483205795288
1.3729802387739716,0.9100040438433102,-1.2067058197131415,-0.1044977456331253,-0.12797760963439941,0.22277583181858063,0.15516066551208496,-0.9804981350898743,-0.1206180527806282,0.05280140042304993,0.009947538375854492,0.008282959461212158
1.3741136517314085,0.8971259520664496,-1.1948634823378226,-0.12059015780687332,-0.12382441759109497,0.2387678474187851,0.15272586047649384,-0.9807202219963074,-0.12191276997327805,0.03829894959926605,0.011069893836975098,0.019358575344085693
1.3752118276769059,0.8827269298062115,-1.181347591093464,-0.1531577706336975,-0.09399016201496124,0.2582044303417206,0.1501230001449585,-0.9809342622756958,-0.12341545522212982,0.027748748660087585,0.014579713344573975,0.0351434201002121
1.376144175072566,0.8666601587270902,-1.1656471373713988,-0.19480188190937042,-0.040025465190410614,0.27343904972076416,0.14742358028888702,-0.9811149835586548,-0.1252191811800003,0.008643344044685364,0.01047283411026001,0.05248069763183594
1.3768503394835243,0.8488198734063849,-1.147712371827957,-0.23380671441555023,-0.01108041312545538,0.2817038595676422,0.1446460485458374,-0.9812513589859009,-0.12737108767032623,0.0059429556131362915,0.0076795220375061035,0.058752477169036865
1.377188673848328,0.8296095051449394,-1.1282457833545547,-0.27627986669540405,-0.016261326149106026,0.2646617591381073,0.14192727208137512,-0.9813165068626404,-0.12990152835845947,-0.0018668323755264282,0.013115882873535156,0.05266167223453522
1.3769647650561623,0.8100994767944645,-1.1086715630178676,-0.309514582157135,-0.05254611745476723,0.2355775386095047,0.13952578604221344,-0.9812734127044678,-0.13279767334461212,-0.019255995750427246,0.015178382396697998,0.034836411476135254
1.3763133725736185,0.7905756473940114,-1.089531800994833,-0.30936121940612793,-0.09858179092407227,0.19666236639022827,0.13736054301261902,-0.9811477065086365,-0.13594548404216766,-0.026932671666145325,0.02164459228515625,0.009160354733467102
1.375508906764599,0.7721987977801746,-1.071940914919217,-0.2761784791946411,-0.1221979483962059,0.17282456159591675,0.13538981974124908,-0.9809919595718384,-0.13901196420192719,-0.026503100991249084,0.02125990390777588,-0.025233492255210876
1.374779396762039,0.7564783679105603,-1.0571977730556608,-0.2233528196811676,-0.1252451390028,0.13945835828781128,0.13367971777915955,-0.980850100517273,-0.14164425432682037,-0.025449082255363464,0.016830146312713623,-0.05288995802402496
1.3741270738034477,0.7440050053942459,-1.0456126934626278,-0.17962002754211426,-0.08926039934158325,0.0993763878941536,0.13233593106269836,-0.9807228446006775,-0.14377142488956451,-0.029827341437339783,0.013910531997680664,-0.05831582844257355
1.3734339022626971,0.7347085443879638,-1.0367142584193967,-0.15802045166492462,-0.024409230798482895,0.06612842530012131,0.13144883513450623,-0.9805871844291687,-0.14549925923347473,-0.03844648599624634,0.004970669746398926,-0.044350504875183105
1.3725969475704953,0.7275505315099406,-1.0293456000979997,-0.16007182002067566,0.03672967106103897,0.03957586735486984,0.1309497058391571,-0.9804227352142334,-0.14704924821853638,-0.03520078957080841,-0.0067293643951416016,-0.02793841063976288
1.371481259850803,0.7216091558149613,-1.022491105078052,-0.19211497902870178,0.11899632215499878,0.0175296850502491,0.13079631328582764,-0.9802024364471436,-0.14864587783813477,-0.028821811079978943,-0.01131373643875122,-0.010976195335388184
1.3699740447427062,0.7152104163799574,-1.014349895128535,-0.24759037792682648,0.18686828017234802,0.03308750316500664,0.13081105053424835,-0.9799028635025024,-0.1505947858095169,-0.022504150867462158,-0.025422394275665283,0.015340998768806458
1.3682504940926243,0.7059529698525948,-1.0030831471651138,-0.30422595143318176,0.14919520914554596,0.08731772005558014,0.13050703704357147,-0.9795576333999634,-0.15308454632759094,0.004136517643928528,-0.035167157649993896,0.0252312570810318
1.3666242458414743,0.6919347751417675,-0.9878277069330421,-0.33862432837486267,0.029667288064956665,0.17543117702007294,0.12936453521251678,-0.979229211807251,-0.15612535178661346,0.04571482539176941,-0.0323370099067688,0.010632887482643127
1.3653635686143137,0.6733842748747577,-0.9690689164891307,-0.33167561888694763,-0.06229645758867264,0.2604443430900574,0.12721595168113708,-0.9789727926254272,-0.15946294367313385,0.0750393271446228,-0.02752751111984253,-0.022223353385925293
1.3647385412828104,0.6519584928795369,-0.948071365400217,-0.29232555627822876,-0.10643608123064041,0.3360353708267212,0.1241416484117508,-0.9788451194763184,-0.16263821721076965,0.0752907395362854,-0.022284090518951416,-0.055562302470207214
1.364696928350687,0.629169844100233,-0.9259018234556239,-0.25472918152809143,-0.10754502564668655,0.38232937455177307,0.12042756378650665,-0.9788365960121155,-0.16545791923999786,0.06284578144550323,-0.021056652069091797,-0.0650869607925415
1.3650472375881317,0.6061459132995569,-0.9033141670197777,-0.2211933135986328,-0.07005409151315689,0.4066319167613983,0.11639075726270676,-0.9789082407951355,-0.16790418326854706,0.04526086896657944,-0.015064537525177002,-0.054324671626091
1.365647552414121,0.583364683632727,-0.8804005829685778,-0.20360180735588074,0.004121072590351105,0.4299212694168091,0.1122126504778862,-0.9790306687355042,-0.17002223432064056,0.032593294978141785,-0.014240384101867676,-0.032950058579444885
1.3662230548654823,0.5609767018854196,-0.8571140829008428,-0.21314078569412231,0.07811359316110611,0.4212643802165985,0.10807842016220093,-0.9791477918624878,-0.17201422154903412,0.030089937150478363,-0.007058382034301758,-0.012922227382659912
1.366360332775916,0.5402618849322832,-0.8348774386281043,-0.2367640882730484,0.12988518178462982,0.35430294275283813,0.10442289710044861,-0.9791756272315979,-0.1741003543138504,0.008995696902275085,0.0138741135597229,-0.008409902453422546
1.365702724012485,0.5227636723032993,-0.815554164583651,-0.2774387001991272,0.15129148960113525,0.256263792514801,0.1016821563243866,-0.9790419340133667,-0.17645882070064545,-0.022641606628894806,0.023505985736846924,-0.012704312801361084
1.3640931356472494,0.5084998968372441,-0.7994353400334056,-0.32851412892341614,0.14605307579040527,0.15955747663974762,0.09992225468158722,-0.9787128567695618,-0.17926782369613647,-0.041450537741184235,0.02570974826812744,-0.010429337620735168
1.3614734872243386,0.49652190890667125,-0.7859455184959806,-0.3970023989677429,0.08666747808456421,0.07629277557134628,0.09898912161588669,-0.9781718254089355,-0.18270589411258698,-0.038610056042671204,0.02490931749343872,-0.007006481289863586
1.3578432927715256,0.48566086966196836,-0.7744816412112104,-0.46460941433906555,-0.014654615893959999,0.007043132558465004,0.09865529835224152,-0.9774110913276672,-0.1869082748889923,-0.03041798621416092,0.025689899921417236,-0.006573006510734558
1.353434018043146,0.4757098023312166,-0.764848249789072,-0.5004280805587769,-0.0872655063867569,-0.04917876794934273,0.0987633615732193,-0.9764696955680847,-0.1917102336883545,-0.022927165031433105,0.02767813205718994,-0.024903342127799988
1.348683551185338,0.4673259792083869,-0.7572717378129604,-0.48960843682289124,-0.10175922513008118,-0.08533411473035812,0.09924144297838211,-0.9754341840744019,-0.19667096436023712,-0.02149789035320282,0.02529984712600708,-0.048507094383239746
1.344003365998604,0.46118375887332086,-0.7516957963325188,-0.45006147027015686,-0.028595853596925735,-0.1107044517993927,0.10006210207939148,-0.9743925333023071,-0.2013629972934723,-0.018625915050506592,0.022991657257080078,-0.06624549627304077
1.3396333928746422,0.45848439134697166,-0.7485591450712131,-0.39319419860839844,0.09773758053779602,-0.15035200119018555,0.1014016643166542,-0.9734005928039551,-0.2054484635591507,-0.029105499386787415,0.023662984371185303,-0.07484006881713867
1.3354579359848626,0.459750953680624,-0.7482523149876139,-0.3612118661403656,0.21911920607089996,-0.2065829187631607,0.1034645363688469,-0.972435474395752,-0.20896074175834656,-0.05634535849094391,0.014320671558380127,-0.07264009118080139
1.3312166343189995,0.4646339560612415,-0.7503608098253123,-0.3502044975757599,0.33757632970809937,-0.25451502203941345,0.10633088648319244,-0.9714378118515015,-0.21213839948177338,-0.07384488731622696,0.004701793193817139,-0.05582109093666077
1.3269037576236005,0.47172574320202904,-0.7537276850495811,-0.3454815447330475,0.4167397916316986,-0.27101609110832214,0.10973533987998962,-0.9704053401947021,-0.21510876715183258,-0.06798726320266724,0.005897223949432373,-0.04187965393066406
1.3227282333962438,0.4794187030994762,-0.7571096399436605,-0.3161228597164154,0.45678576827049255,-0.2504993677139282,0.11325489729642868,-0.9693886041641235,-0.2178514152765274,-0.04637560248374939,0.0011115074157714844,-0.04429447650909424
1.3190225961018214,0.4864715758569306,-0.7596474680454574,-0.28151461482048035,0.4556422531604767,-0.19852164387702942,0.11646711826324463,-0.9684720635414124,-0.220221146941185,-0.01917704939842224,-0.002856731414794922,-0.06520962715148926
1.3158768879498375,0.49126336907529294,-0.7601797682955967,-0.2608620822429657,0.38462746143341064,-0.11436549574136734,0.1189575046300888,-0.9676836133003235,-0.2223454713821411,0.005157500505447388,-0.016813457012176514,-0.07350705564022064
1.3132751025967404,0.4920384278081152,-0.7576586739543549,-0.26071473956108093,0.24958796799182892,-0.0179071594029665,0.12031912058591843,-0.9670242667198181,-0.2244720607995987,0.026562005281448364,-0.029557883739471436,-0.06469714641571045
1.3109170009503825,0.4883611066080166,-0.7520671380180995,-0.2919110357761383,0.0887889564037323,0.0428193062543869,0.12056224793195724,-0.9664210081100464,-0.2269258350133896,0.031110137701034546,-0.03142756223678589,-0.04521453380584717
1.3084600946767428,0.4812041401819568,-0.7445937454982682,-0.3221673369407654,-0.06808669865131378,0.06435898691415787,0.12003366649150848,-0.9657867550849915,-0.22988687455654144,0.016883470118045807,-0.03551030158996582,-0.03140448033809662
1.3058273739696493,0.4721335842506648,-0.736313955463222,-0.3372570872306824,-0.13205476105213165,0.07772272825241089,0.1190997064113617,-0.9651006460189819,-0.23323023319244385,-0.0064745619893074036,-0.03215289115905762,-0.012710809707641602
1.3032140758498334,0.4625295127550067,-0.7276864190073429,-0.32909825444221497,-0.11611779034137726,0.09056349843740463,0.11797921359539032,-0.9644129872322083,-0.23661945760250092,-0.02630436420440674,-0.040393710136413574,-0.0021194517612457275
1.3009082971602637,0.4533689415396757,-0.7190706421050272,-0.27799510955810547,-0.05481501296162605,0.11522490531206131,0.11678026616573334,-0.9638007283210754,-0.239688441157341,-0.026127777993679047,-0.05121392011642456,-0.009578987956047058
1.2993414790623097,0.44507349658861806,-0.7107322773314829,-0.18856322765350342,0.0029444461688399315,0.15002299845218658,0.1154378280043602,-0.963381826877594,-0.24201138317584991,-0.015187576413154602,-0.04490363597869873,-0.02610066533088684
1.2987551453008548,0.43799641503054293,-0.7031865463256467,-0.09033732116222382,0.030487392097711563,0.16366717219352722,0.11396201699972153,-0.963224470615387,-0.2433343082666397,-0.007119953632354736,-0.03932386636734009,-0.04304248094558716
1.299065841575017,0.43233121973989946,-0.6969583218322536,0.004783278331160545,0.037725403904914856,0.1666857749223709,0.1124560758471489,-0.9633078575134277,-0.24370385706424713,-0.006300665438175201,-0.034815311431884766,-0.04467181861400604
1.3001900617520032,0.4281191004974738,-0.6921730513423338,0.09200339764356613,0.04059016704559326,0.15745365619659424,0.11097891628742218,-0.963608980178833,-0.24319003522396088,-0.00978260487318039,-0.028746366500854492,-0.039250001311302185
1.302060777937007,0.42553549009977476,-0.6889642456394679,0.17343606054782867,0.05743969604372978,0.15220099687576294,0.10960591584444046,-0.9641073942184448,-0.24183368682861328,-0.00807391107082367,-0.02684420347213745,-0.029299557209014893
1.3045005294154601,0.4240281118922473,-0.6867942572069508,0.21844907104969025,0.056203458458185196,0.15367825329303741,0.10827328264713287,-0.9647523164749146,-0.23985430598258972,0.0009949281811714172,-0.026580810546875,-0.01000821590423584
1.3071754714085038,0.42249261417146666,-0.6847702910802802,0.21986356377601624,0.024770528078079224,0.15983816981315613,0.1068461686372757,-0.9654527902603149,-0.2376653552055359,0.010844878852367401,-0.02771127223968506,0.022928565740585327
1.3097008209291479,0.4203162483749495,-0.6824563370181206,0.19146335124969482,-0.014917762018740177,0.15608657896518707,0.10533356666564941,-0.9661077857017517,-0.23567090928554535,0.011960767209529877,-0.029970824718475342,0.054701805114746094
1.3118617128302035,0.41754027340210464,-0.6798454382813786,0.1497536599636078,-0.03438393771648407,0.14214974641799927,0.10383211076259613,-0.9666633009910583,-0.23405352234840393,0.0074197351932525635,-0.033077359199523926,0.07412630319595337
1.3135724569102833,0.41434727373868846,-0.6769669821755403,0.10896521061658859,-0.049402039498090744,0.1273156702518463,0.10241834819316864,-0.9670999646186829,-0.23286978900432587,0.0016313567757606506,-0.03161841630935669,0.07791692018508911
1.3147586489733434,0.41076849317698827,-0.6739543241096811,0.06197638064622879,-0.08432581275701523,0.11117050051689148,0.10112611949443817,-0.9674010276794434,-0.2321828454732895,0.0018249526619911194,-0.032400667667388916,0.07335424423217773
1.315461477762794,0.40638442121184104,-0.670571374723183,0.0078100827522575855,-0.1363661140203476,0.1003388911485672,0.09983852505683899,-0.9675787687301636,-0.23199951648712158,0.010787725448608398,-0.0238153338432312,0.07820630073547363
1.3155928499739347,0.40111809021286143,-0.6668687898371487,-0.05168613791465759,-0.1918402910232544,0.08101958781480789,0.09856557846069336,-0.9676119685173035,-0.2324047088623047,0.018179424107074738,-0.012811064720153809,0.08337225019931793
1.3152303522197908,0.39550877992668326,-0.6631744758280923,-0.07955851405858994,-0.20598140358924866,0.06131725758314133,0.09739552438259125,-0.9675203561782837,-0.2332775741815567,0.01388683170080185,-0.010033965110778809,0.07835520803928375
1.3146937357556439,0.3907908276527244,-0.6601626794704827,-0.07801154255867004,-0.1531897634267807,0.03761409968137741,0.09649169445037842,-0.9673845767974854,-0.2342146933078766,0.011296406388282776,-0.017112553119659424,0.05928809940814972
1.3142205282639083,0.38800516674151636,-0.6585571009154362,-0.0502302423119545,-0.09577253460884094,0.0053887879475951195,0.09601200371980667,-0.9672645926475525,-0.2349061667919159,0.0013085678219795227,-0.01898723840713501,0.03770168125629425
1.3140054027902883,0.38741279104522336,-0.658674927611916,-0.001872014719992876,-0.04876585304737091,-0.022198064252734184,0.09595148265361786,-0.9672099947929382,-0.23515573143959045,-0.005604170262813568,-0.016280055046081543,0.018816769123077393
1.314235975157705,0.3889392391757011,-0.6606200919096983,0.059402529150247574,-0.025628574192523956,-0.04683763161301613,0.09622575342655182,-0.9672685265541077,-0.23480264842510223,-0.003391258418560028,-0.00946187973022461,-0.0052027106285095215
1.3149718878753687,0.39252320897563425,-0.6643864017565897,0.12371101975440979,0.0152472835034132,-0.0729503482580185,0.09679426997900009,-0.9674550294876099,-0.2337983399629593,-0.004081852734088898,-0.0014628767967224121,-0.019390568137168884
1.316124171112408,0.398551347873994,-0.6701528627130848,0.16988864541053772,0.06895791739225388,-0.10568645596504211,0.09776940196752548,-0.9677459597587585,-0.2321835607290268,-0.014822587370872498,-0.00013446807861328125,-0.02269914746284485
1.3174644917074567,0.4070175886434024,-0.6778792893383182,0.18971657752990723,0.12190773338079453,-0.14078211784362793,0.09921783953905106,-0.9680827260017395,-0.23015575110912323,-0.027043752372264862,-0.001323401927947998,-0.011451765894889832
1.3187329671184667,0.4172950416157678,-0.6869928669594602,0.18684250116348267,0.16271242499351501,-0.16599532961845398,0.10108038783073425,-0.9683998823165894,-0.22800153493881226,-0.03060002624988556,-0.0009911060333251953,0.0009813904762268066
1.3197342511347547,0.428236927117287,-0.6964232546964002,0.1607646942138672,0.1936330646276474,-0.1734224110841751,0.10316626727581024,-0.9686490893363953,-0.22599953413009644,-0.02394261211156845,-0.004754900932312012,0.011812031269073486
1.3203919381514604,0.4386176857360234,-0.7050523945179935,0.12431507557630539,0.20657122135162354,-0.1592850238084793,0.10523595660924911,-0.9688122868537903,-0.22433924674987793,-0.009929545223712921,-0.011244475841522217,0.018422022461891174
1.320770076253622,0.4474281853463705,-0.7121137046660092,0.09108786284923553,0.18445537984371185,-0.13096871972084045,0.10705022513866425,-0.9689059257507324,-0.2230737954378128,0.009359106421470642,-0.015103042125701904,0.013189226388931274
1.3209509651353037,0.4541222120867724,-0.7173398181059212,0.06333799660205841,0.14070230722427368,-0.09255848079919815,0.10846389085054398,-0.9689506888389587,-0.22219407558441162,0.023082152009010315,-0.011075615882873535,5.6743621826171875e-05
1.3210678034931607,0.4586128664235926,-0.7207788888015846,0.0514325276017189,0.09556885808706284,-0.05922819674015045,0.10941047221422195,-0.96897953748703,-0.22160324454307556,0.03049737960100174,-0.006865799427032471,-0.014205917716026306
1.3212319653472295,0.4615031646530959,-0.722955436008102,0.05115635693073273,0.06847812235355377,-0.03924570232629776,0.10997987538576126,-0.9690201282501221,-0.22114406526088715,0.02536560595035553,-0.00787818431854248,-0.02485799789428711
1.3216020637054635,0.4633889516410069,-0.7243892936670564,0.06717237830162048,0.03728893771767616,-0.022055206820368767,0.11023624986410141,-0.969111442565918,-0.22061514854431152,0.01776975393295288,-0.004384100437164307,-0.035152554512023926
1.322315414679939,0.4647443960935724,-0.7255842980354027,0.09850526601076126,0.019380774348974228,-0.00962330587208271,0.11022557318210602,-0.9692871570587158,-0.21984799206256866,0.015339046716690063,0.0025053024291992188,-0.04339650273323059
1.3234334895879,0.46656758906092916,-0.7272772192798226,0.1299392580986023,0.02458236739039421,-0.004748934879899025,0.11013857275247574,-0.9695615172386169,-0.21867847442626953,0.007445693016052246,0.005236387252807617,-0.047068506479263306
1.3248191273061385,0.46942018537075836,-0.7298795038379159,0.15663211047649384,0.04461626335978508,-0.0020863066893070936,0.11015402525663376,-0.9698998332023621,-0.21716493368148804,-0.006226390600204468,-0.0014137029647827148,-0.04403489828109741
1.3262783732839594,0.4734219062369161,-0.7334287517657042,0.16789363324642181,0.06259959191083908,-0.011438152752816677,0.11037670075893402,-0.970254123210907,-0.21546240150928497,-0.016001075506210327,-0.002432703971862793,-0.037634968757629395
1.3276548582732017,0.4780355692157433,-0.7374506387882855,0.17155495285987854,0.07681315392255783,-0.008892437443137169,0.11075494438409805,-0.9705864191055298,-0.21376454830169678,-0.01590629667043686,-0.002451300621032715,-0.0316728800535202
1.3289758965752565,0.48256882251000854,-0.7412738945519293,0.17263443768024445,0.07937376946210861,0.004243367817252874,0.11112768948078156,-0.9709036350250244,-0.21212419867515564,-0.010312855243682861,-0.008161306381225586,-0.028323695063591003
1.3302766292324355,0.4861834564644697,-0.7442786654154646,0.1682301014661789,0.05142815411090851,0.01920234225690365,0.11130351573228836,-0.9712142944335938,-0.21060438454151154,-0.004217326641082764,-0.013587892055511475,-0.02860751748085022
1.3315096736356105,0.48862542203031356,-0.7464555979248447,0.1595834195613861,0.017031215131282806,0.02718432806432247,0.11125539243221283,-0.9715073108673096,-0.20927466452121735,0.00024060159921646118,-0.011341869831085205,-0.027984142303466797
1.3326072117980343,0.49001740094808044,-0.7476677845412266,0.11844662576913834,0.0731155201792717,0.0447944812476635,0.11104469746351242,-0.9717668294906616,-0.20817869901657104,-0.0008609667420387268,-0.011845290660858154,-0.01902453601360321
1.3330901722939166,0.4887007978352981,-0.7450097301544828,-0.02371934801340103,0.11239738762378693,0.09710115194320679,0.110550157725811,-0.9718806743621826,-0.20791029930114746,0.015548497438430786,-0.029233276844024658,0.09282863140106201
1.3331086037419606,0.4851830828074403,-0.7402762682856351,-0.06870493292808533,0.11561183631420135,0.10974796861410141,0.10980997234582901,-0.9718850255012512,-0.208282470703125,0.028846658766269684,-0.05877000093460083,0.17726147174835205
1.3330845753127438,0.48036656195060967,-0.7342811878049476,-0.053013816475868225,0.08136238902807236,0.13304536044597626,0.10881597548723221,-0.9718793630599976,-0.20882903039455414,0.016824908554553986,0.005433440208435059,0.014996781945228577
1.3333141661155634,0.475337795936629,-0.7283488519354268,-0.0281329695135355,0.06918428838253021,0.13434019684791565,0.10766257345676422,-0.9719333648681641,-0.20917566120624542,0.0003239065408706665,-0.0012112259864807129,0.007027328014373779
1.3338096502882086,0.47033720263808015,-0.7227310386451434,-0.00014030002057552338,0.02301870658993721,0.14454570412635803,0.10639674216508865,-0.9720498323440552,-0.20928166806697845,-0.0009737536311149597,-0.004360079765319824,-0.026344463229179382
1.3345032551841702,0.4648685662722778,-0.717015004804256,0.005451006814837456,-0.0034720245748758316,0.15366701781749725,0.10494843870401382,-0.9722124338150024,-0.20925775170326233,0.005158998072147369,-0.005891203880310059,-0.035569414496421814
1.3351930415857427,0.45918427735173134,-0.7112608686768707,0.0017365380190312862,-0.00988308060914278,0.14793206751346588,0.10346023738384247,-0.9723736643791199,-0.20925016701221466,-0.0027827247977256775,-0.0034106969833374023,-0.019799411296844482
1.3358123907602584,0.4536716217389173,-0.7055649350795387,-0.0031365142203867435,0.014145555905997753,0.1448100358247757,0.10204125195741653,-0.9725180864334106,-0.20927610993385315,-0.012701019644737244,-0.005967140197753906,-0.005475938320159912
1.3364551297714886,0.44887027685131203,-0.7003519284572077,-0.00686265155673027,0.0338018424808979,0.13128741085529327,0.10076368600130081,-0.9726675152778625,-0.20919977128505707,-0.020197264850139618,-0.003330409526824951,-0.0014629215002059937
1.3370307876274614,0.44497755566919944,-0.6958876185353057,-0.01110293623059988,0.0545814223587513,0.11199308186769485,0.09970739483833313,-0.9728010296821594,-0.20908468961715698,-0.027182362973690033,0.0034712553024291992,0.0005582422018051147
1.33735921120065,0.44172006718046297,-0.6917792205937489,-0.014450058341026306,0.09143564850091934,0.09401985257863998,0.09888928383588791,-0.9728770852088928,-0.2091197520494461,-0.027142442762851715,0.005775034427642822,0.0005627423524856567
1.3376059580759285,0.43937182184127804,-0.6882323546035801,-0.01308598741889,0.12577630579471588,0.07706324011087418,0.09829587489366531,-0.9729341268539429,-0.20913422107696533,-0.02264278382062912,-0.0002409219741821289,-0.0037104934453964233
1.3377620128985546,0.4378173488353916,-0.685251182629482,-0.012374365702271461,0.13895125687122345,0.06198618561029434,0.09790650010108948,-0.972970187664032,-0.20914970338344574,-0.021505728363990784,0.0011377930641174316,-0.006350100040435791
1.337827818021265,0.4366476624416291,-0.6827564251952749,-0.020881300792098045,0.10502071678638458,0.05108426883816719,0.09763442724943161,-0.9729853272438049,-0.20920543372631073,-0.020180806517601013,0.008446812629699707,-0.007118254899978638
1.3376867959933156,0.4347548727531607,-0.680191898377466,-0.052259162068367004,0.008526582270860672,0.042613208293914795,0.09729617089033127,-0.9729527831077576,-0.2095145434141159,-0.012411512434482574,0.008536279201507568,-0.005496963858604431
1.3372323595169007,0.4313435624948842,-0.6771186813425158,-0.08676360547542572,-0.08945351839065552,0.044828154146671295,0.09676562249660492,-0.9728477001190186,-0.21024662256240845,-0.004953488707542419,0.00829392671585083,-0.00027874112129211426
1.3365182884375764,0.42668511496757044,-0.6735637972608514,-0.10741384327411652,-0.1424945741891861,0.0425381138920784,0.09607289731502533,-0.9726821780204773,-0.21132804453372955,-0.008578985929489136,0.0054427385330200195,-0.0017303228378295898
1.33577060470922,0.42109868441025144,-0.669341510692984,-0.10923491418361664,-0.14038294553756714,0.043464891612529755,0.09518790245056152,-0.9725083708763123,-0.21252471208572388,-0.013248205184936523,0.0018357634544372559,-0.008040934801101685
1.3351246497005127,0.41597740038844894,-0.6653430346279341,-0.08711487799882889,-0.09195928275585175,0.042558878660202026,0.0943523421883583,-0.9723577499389648,-0.21358457207679749,-0.013938501477241516,0.004477381706237793,-0.013130366802215576
1.3347170043701928,0.412240465528835,-0.662112756914306,-0.046067312359809875,-0.021255016326904297,0.035565413534641266,0.09371232241392136,-0.972262442111969,-0.2142987847328186,-0.012947529554367065,0.007250785827636719,-0.019221603870391846
1.334633711134202,0.4104511973333418,-0.660183527339275,-0.002255676779896021,0.03889990597963333,0.014754108153283596,0.09336105734109879,-0.9722429513931274,-0.21454039216041565,-0.02059187740087509,0.005827486515045166,-0.025861740112304688
1.3347711726881204,0.41064874791952466,-0.6598334565437942,0.023664871230721474,0.06978058815002441,-0.00899542961269617,0.09334992617368698,-0.9722751379013062,-0.2143990397453308,-0.02827116847038269,0.008072197437286377,-0.02745264768600464
1.3350022547873737,0.4123448753271513,-0.6607835816260862,0.037842247635126114,0.09088550508022308,-0.02178533747792244,0.0936235785484314,-0.9723291397094727,-0.21403497457504272,-0.025599874556064606,0.01352769136428833,-0.018630951642990112
1.3352979220747516,0.41499764941739875,-0.6624048635967505,0.04703468084335327,0.1233888566493988,-0.022650599479675293,0.09407499432563782,-0.9723981618881226,-0.21352247893810272,-0.013096585869789124,0.014603912830352783,-0.010568022727966309
1.3357137125662635,0.4178971605036299,-0.6639052279315444,0.057386063039302826,0.1640494465827942,-0.016485324129462242,0.09452950209379196,-0.9724950790405273,-0.21287901699543,-0.002503730356693268,0.006918907165527344,-0.011730238795280457
1.3361705428754995,0.42074060820208214,-0.6650987620987953,0.05731895565986633,0.17048576474189758,-0.015009401366114616,0.09495299309492111,-0.9726014137268066,-0.21220389008522034,0.002321802079677582,0.005270481109619141,-0.00927726924419403
1.3364816610261543,0.42281132589646664,-0.6657419286901436,0.0319681242108345,0.11968455463647842,-0.007858585566282272,0.09526809304952621,-0.9726737141609192,-0.2117309719324112,0.007301501929759979,0.007677316665649414,-0.0032194703817367554
1.3364571553307063,0.4232699970626489,-0.6654235426171539,-0.008769982494413853,0.04231279343366623,0.0010369052179157734,0.09537520259618759,-0.9726679921150208,-0.21170946955680847,0.011756785213947296,0.009563565254211426,0.008111566305160522
1.3360628295781816,0.42141707545538426,-0.6635081506686843,-0.056853242218494415,-0.028636347502470016,0.020267635583877563,0.09513929486274719,-0.972576379776001,-0.21223501861095428,0.014495104551315308,0.0052607059478759766,0.014801710844039917
1.3353804208763254,0.41729395876703057,-0.6598809107949339,-0.09288367629051208,-0.07485311478376389,0.03843438997864723,0.0945325642824173,-0.972417414188385,-0.2132325917482376,0.017756879329681396,-0.000788271427154541,0.020468473434448242
1.3345195748500311,0.4117143709553501,-0.6550480241190266,-0.1203162893652916,-0.08535388112068176,0.06583695858716965,0.09367639571428299,-0.9722162485122681,-0.21452398598194122,0.0209934264421463,-0.004804074764251709,0.02629166841506958
1.3336268467592112,0.4053346333325335,-0.6493235292385422,-0.12969781458377838,-0.07187402248382568,0.09358390420675278,0.09264817088842392,-0.9720069169998169,-0.21591493487358093,0.02443253993988037,-0.006341040134429932,0.024615615606307983
1.3327762441110333,0.39864905203534023,-0.643003820878194,-0.12803292274475098,-0.03404409810900688,0.1104593575000763,0.09152323752641678,-0.9718067049980164,-0.2172907590866089,0.025328584015369415,-0.004511713981628418,0.02168847620487213
1.3320253527705272,0.3925085764537986,-0.6367900830469395,-0.11534590274095535,0.01272580400109291,0.1084047257900238,0.09046629071235657,-0.9716293811798096,-0.21852268278598785,0.01510927826166153,0.00010228157043457031,0.017122045159339905
1.331379816067115,0.3876293262142516,-0.6314415053972293,-0.10424317419528961,0.0446934774518013,0.0946793481707573,0.08963630348443985,-0.9714764952659607,-0.2195427268743515,-0.002951093018054962,0.0019328594207763672,0.010146468877792358
1.33084197449936,0.3837521270958551,-0.6269317918130727,-0.09699937701225281,0.04624796658754349,0.08747389912605286,0.08897989243268967,-0.9713488221168518,-0.22037272155284882,-0.011007457971572876,0.0032701492309570312,0.0043694376945495605
1.3303475785889607,0.38030406511299014,-0.6228961494035432,-0.09631793200969696,0.04233399033546448,0.0818132609128952,0.08839789777994156,-0.97123122215271,-0.22112447023391724,-0.009632006287574768,0.00643312931060791,0.0018100142478942871
1.3298928589874561,0.3773340097998185,-0.6192243935337545,-0.09295409172773361,0.06841672211885452,0.07920736074447632,0.08790343254804611,-0.9711228013038635,-0.22179649770259857,-0.009351164102554321,0.00829315185546875,-0.0003713369369506836
1.3295089855580098,0.37474124063260733,-0.6156516570849278,-0.09062714129686356,0.09507164359092712,0.08469794690608978,0.08746448904275894,-0.9710311889648438,-0.22237049043178558,-0.008759632706642151,0.0035628080368041992,-0.002437114715576172
1.329081357164438,0.3723156568202952,-0.6120427559387942,-0.09902115911245346,0.10868572443723679,0.08074022084474564,0.0870758518576622,-0.9709289073944092,-0.22296863794326782,-0.01365053653717041,0.0012480616569519043,-0.001167595386505127
1.3284247692087745,0.36992451402606596,-0.6083555752713916,-0.12909655272960663,0.11005879193544388,0.07475017011165619,0.08677271753549576,-0.9707714915275574,-0.22377003729343414,-0.02082422375679016,0.0024945735931396484,0.0026398003101348877
1.32737500356799,0.36650563856012935,-0.6038041467756438,-0.1763780415058136,0.07188104838132858,0.0791342705488205,0.08637235313653946,-0.9705190062522888,-0.2250167578458786,-0.020530663430690765,-0.004899024963378906,0.010905593633651733
1.3258592757793477,0.3618098300732732,-0.5982490778537431,-0.21753624081611633,0.09716938436031342,0.06279081851243973,0.08583563566207886,-0.9701526165008545,-0.22679610550403595,-0.020039722323417664,-0.010529875755310059,0.013493657112121582
1.3241609749543672,0.3569956779505464,-0.591934815071999,-0.21915145218372345,0.12264306098222733,0.11049176007509232,0.08531825989484787,-0.9697393774986267,-0.22874955832958221,0.001885734498500824,-0.013033509254455566,0.02565521001815796
1.3225407597269825,0.3486937643449266,-0.582520132970125,-0.25756171345710754,0.055082425475120544,0.2017696052789688,0.08395298570394516,-0.9693425297737122,-0.2309262454509735,0.057145051658153534,-0.025973021984100342,0.03317244350910187
1.3207348436769208,0.336626325305644,-0.5696310084483693,-0.291899710893631,0.02550935000181198,0.2698117792606354,0.08173835277557373,-0.9688972234725952,-0.23357447981834412,0.06808770447969437,-0.013234734535217285,0.004372328519821167
1.3188815318369613,0.3213208789206581,-0.5538780358111184,-0.31283485889434814,-0.0395650640130043,0.3513335883617401,0.07872111350297928,-0.9684368968009949,-0.2365020364522934,0.07900901138782501,-0.013832509517669678,-0.00026848912239074707
1.3170062214488851,0.3025023998237718,-0.5351537665133598,-0.33407062292099,-0.09413670003414154,0.41474825143814087,0.07479767501354218,-0.9679677486419678,-0.23967450857162476,0.08595368266105652,-0.018787682056427002,-0.0038403868675231934
1.3150891123335833,0.2818448658129224,-0.5148891708261935,-0.3275164067745209,-0.108287513256073,0.44827982783317566,0.07034686952829361,-0.9674846529960632,-0.24295005202293396,0.07145307213068008,-0.009352505207061768,-0.022491738200187683
