attitudeX,attitudeY,attitudeZ,gyroX,gyroY,gyroZ,gravityX,gravityY,gravityZ,accX,accY,accZ
1.3418422825595917,-0.1486663125313292,-0.21834988349365003,0.8852478265762329,0.7826228737831116,0.1629875898361206,-0.03361707180738449,-0.9739043116569519,-0.22445598244667053,0.3533497452735901,-0.11595475673675537,-0.10810917615890503
1.3507172702330381,-0.15639107149773782,-0.2017580229932313,0.9795394539833069,0.9043266773223877,0.29947540163993835,-0.034002259373664856,-0.9758802056312561,-0.21564270555973053,0.42874714732170105,-0.11732053756713867,-0.11200909316539764
1.3604026243687442,-0.17129751639549762,-0.17649307070286976,1.1021790504455566,1.0451722145080566,0.44950708746910095,-0.035600002855062485,-0.977948784828186,-0.20578885078430176,0.4822857975959778,-0.12620782852172852,-0.1440340280532837
1.3709763022019972,-0.19641144849719824,-0.13949538517827922,1.2475067377090454,1.1671719551086426,0.6485602259635925,-0.038736190646886826,-0.9801023006439209,-0.1946769803762436,0.5389498472213745,-0.13853484392166138,-0.17772889137268066
1.3822364298835694,-0.2369988633254238,-0.08551176484841642,1.3883439302444458,1.3096585273742676,0.9007443189620972,-0.04400941729545593,-0.9822751879692078,-0.18220481276512146,0.6052124500274658,-0.13323384523391724,-0.1840669959783554
1.3936547569874085,-0.29788017361865526,-0.009434618456814906,1.5328731536865234,1.465434193611145,1.1570656299591064,-0.051718782633543015,-0.984351396560669,-0.1684568077325821,0.6589728593826294,-0.10945969820022583,-0.19355785846710205
1.4043881116144714,-0.38323817166798124,0.09275260989188282,1.6343015432357788,1.583191156387329,1.4111078977584839,-0.061937615275382996,-0.9861860871315002,-0.15362565219402313,0.6980307698249817,-0.09312915802001953,-0.2043759673833847
1.4127897954238502,-0.4954149169646405,0.2228222801118997,1.6456927061080933,1.635571837425232,1.661876916885376,-0.07480393350124359,-0.9875429272651672,-0.13843253254890442,0.7243705987930298,-0.06932663917541504,-0.17962151765823364
1.417014870230045,-0.6297170957365149,0.3754197801716024,1.572098970413208,1.6427873373031616,1.874234676361084,-0.09020817279815674,-0.9881989359855652,-0.12379642575979233,0.7265607118606567,-0.03047788143157959,-0.12336528301239014
1.4160914322995741,-0.7730155235134782,0.5369668160450238,1.480773687362671,1.602340817451477,2.0192480087280273,-0.10759998857975006,-0.988057017326355,-0.1102982833981514,0.7106578350067139,0.009327709674835205,-0.10565924644470215
1.4100340834606144,-0.9138081478309842,0.69561730020817,1.4314237833023071,1.5793817043304443,2.185941219329834,-0.12674999237060547,-0.9871055483818054,-0.09776102751493454,0.7012128829956055,0.048003315925598145,-0.12277412414550781
1.398966137232121,-1.045021573909608,0.8451297554651447,1.44076669216156,1.675719976425171,2.394287109375,-0.14789196848869324,-0.9852734804153442,-0.08581508696079254,0.7187232971191406,0.09095579385757446,-0.1490786075592041
1.3830501238926487,-1.1623472644577006,0.9825057023564722,1.5066869258880615,1.8919905424118042,2.6414709091186523,-0.17129157483577728,-0.9824274182319641,-0.07413303107023239,0.737865686416626,0.11928343772888184,-0.17202162742614746
1.3624200647036089,-1.2630354570579774,1.1057746616681041,1.5772910118103027,2.1233255863189697,2.897925853729248,-0.19715175032615662,-0.9783681035041809,-0.06266672909259796,0.735542893409729,0.1429799199104309,-0.1863107681274414
1.3374574366047443,-1.345739739817693,1.2133157487129689,1.6482175588607788,2.3040618896484375,3.134434938430786,-0.22539599239826202,-0.9728997945785522,-0.05160101503133774,0.7202079892158508,0.19381654262542725,-0.18758034706115723
1.308709248097155,-1.412697305012257,1.307009409294416,1.7603998184204102,2.444767475128174,3.3572428226470947,-0.25586560368537903,-0.9658513069152832,-0.040792543441057205,0.7071900367736816,0.2620854377746582,-0.20821547508239746
1.2767330851352556,-1.4673568013600347,1.3894667623723274,1.8830569982528687,2.456408977508545,3.5521790981292725,-0.28829431533813477,-0.9570740461349487,-0.029927842319011688,0.6999459266662598,0.31274116039276123,-0.25736451148986816
1.242122393544803,-1.512204108637233,1.4625234533622782,2.0059454441070557,2.4720633029937744,3.6873672008514404,-0.3222341537475586,-0.9464712142944336,-0.018902050331234932,0.6675558090209961,0.37123018503189087,-0.289920449256897
1.2059299716692289,-1.5481701803791736,1.5273850692187079,2.084700107574463,2.5216362476348877,3.6816959381103516,-0.3567332625389099,-0.9341714382171631,-0.008072877302765846,0.5801829695701599,0.4384896755218506,-0.31132400035858154
1.169743858783139,-1.5752550097080393,1.5843825429914553,2.0818402767181396,2.6248602867126465,3.556490182876587,-0.3903842270374298,-0.9206506609916687,0.0017406110418960452,0.46043723821640015,0.4565544128417969,-0.2893838882446289
1.1347944876737186,-1.5933158763338389,1.6336754144898489,2.00221586227417,2.7587947845458984,3.3401432037353516,-0.42221200466156006,-0.9064474105834961,0.009509632363915443,0.3514111638069153,0.45318490266799927,-0.24376249313354492
1.102323432410182,-1.6032471208111667,1.6764637639324034,1.9029756784439087,2.933338165283203,3.0149080753326416,-0.4512866139411926,-0.892258882522583,0.014649751596152782,0.22188594937324524,0.46040457487106323,-0.193711519241333
1.0735132047236229,-1.606730557856937,1.7140869910397005,1.767052173614502,2.99666690826416,2.598172187805176,-0.47673189640045166,-0.8788818717002869,0.017138371244072914,0.100831538438797,0.46866440773010254,-0.20816302299499512
1.0491938294876917,-1.6051737375870931,1.7467180508544284,1.5675324201583862,2.9999802112579346,2.131434202194214,-0.49797576665878296,-0.8670217990875244,0.017125865444540977,0.012090146541595459,0.4583304524421692,-0.19038927555084229
1.0297762767787688,-1.598778663195903,1.774453912042858,1.356512427330017,3.0420989990234375,1.653775930404663,-0.5148091316223145,-0.8571838140487671,0.014409324154257774,-0.10385847091674805,0.4563201069831848,-0.15141785144805908
1.015079188722611,-1.5882316162881887,1.7981139708688754,1.174595594406128,3.0863828659057617,1.2315804958343506,-0.5274726152420044,-0.8495223522186279,0.009197569452226162,-0.20642942190170288,0.43497151136398315,-0.14913582801818848
1.0042213957575823,-1.5743715942838168,1.8185917329043404,1.0248101949691772,3.13171124458313,0.9242947697639465,-0.5367419719696045,-0.8437443375587463,0.0019190042512491345,-0.2854626774787903,0.37807655334472656,-0.16251754760742188
0.996039699857951,-1.5579175407810237,1.8364699153737385,0.8916100263595581,3.135532855987549,0.723264753818512,-0.5435854196548462,-0.8393246531486511,-0.007001107558608055,-0.3427976369857788,0.3229367733001709,-0.17196911573410034
0.9896830741796723,-1.539856530770062,1.851833921240311,0.7495726943016052,3.0164685249328613,0.5909209251403809,-0.5486921668052673,-0.8358520269393921,-0.01698184385895729,-0.43867361545562744,0.2539428472518921,-0.18487656116485596
0.9844099753738512,-1.5209044152582145,1.8643628350488615,0.5777149200439453,2.8337316513061523,0.5176323652267456,-0.5526660084724426,-0.8329457640647888,-0.02759646438062191,-0.5735852122306824,0.1780080795288086,-0.1927555799484253
0.9798256684049118,-1.5015035074188503,1.8735093967574574,0.37867096066474915,2.5368990898132324,0.4553130865097046,-0.5558300614356995,-0.8304002285003662,-0.038576796650886536,-0.7233904004096985,0.11609065532684326,-0.1921054720878601
0.975790414577658,-1.4826330223948179,1.8792644598726844,0.2037058025598526,2.1702189445495605,0.39642098546028137,-0.5583367347717285,-0.8281452059745789,-0.049352746456861496,-0.884915828704834,0.06306952238082886,-0.19690871238708496
0.97210940787819,-1.4656071982494119,1.8824022798652527,0.07906048744916916,1.733383059501648,0.37326857447624207,-0.5604435205459595,-0.826076328754425,-0.05917096510529518,-1.0536770820617676,0.010783910751342773,-0.23599493503570557
0.9683987697856952,-1.451561234289055,1.883630092740731,-0.021035222336649895,1.2688502073287964,0.3755554258823395,-0.5625967383384705,-0.8239794969558716,-0.0674009919166565,-1.2125192880630493,-0.03690618276596069,-0.26830750703811646
0.9646444587825492,-1.4406697043857255,1.8833785439833188,-0.0948716476559639,0.876908540725708,0.3573645353317261,-0.5648926496505737,-0.8218464255332947,-0.07392530143260956,-1.3819153308868408,-0.0687786340713501,-0.2729068398475647
0.9611757211575284,-1.4325764915443417,1.8825631947063448,-0.07498662173748016,0.6162968873977661,0.3161667585372925,-0.5670959949493408,-0.8198652863502502,-0.07888692617416382,-1.5603911876678467,-0.09257978200912476,-0.28546231985092163
0.9582185631332599,-1.4274850643249553,1.8827251458329288,0.009694669395685196,0.42258188128471375,0.26583725214004517,-0.5690838694572449,-0.818168580532074,-0.08211909234523773,-1.6641314029693604,-0.10503381490707397,-0.3442266583442688
0.9561959044485522,-1.4255290232947704,1.8841378631078705,0.08650662750005722,0.1901230663061142,0.14957986772060394,-0.5705587863922119,-0.8170039057731628,-0.08347152173519135,-1.702634572982788,-0.059598326683044434,-0.3873535394668579
0.9557512509178636,-1.4269525392220508,1.8862845899426715,0.14476856589317322,-0.1355108618736267,-0.038743484765291214,-0.5710364580154419,-0.8167474269866943,-0.08271130174398422,-1.7448053359985352,-0.003717660903930664,-0.425406277179718
0.957739416798486,-1.4326628245466102,1.889152207917687,0.2475689798593521,-0.5402210354804993,-0.3188401162624359,-0.569890022277832,-0.8178929686546326,-0.07922544330358505,-1.759303092956543,0.05750173330307007,-0.4887371063232422
0.9630471645081251,-1.4439408161434075,1.893573490221022,0.3986899256706238,-0.9856497645378113,-0.6734331250190735,-0.5664326548576355,-0.8209353685379028,-0.07224304229021072,-1.7380717992782593,0.13963055610656738,-0.5855174660682678
0.9723316284756569,-1.4616230377969455,1.9004959058005562,0.5984640121459961,-1.3930455446243286,-1.0777719020843506,-0.5600206255912781,-0.8262015581130981,-0.061383359134197235,-1.6800611019134521,0.20680159330368042,-0.6499507427215576
0.9857852131536307,-1.4859001558321423,1.9108051618522401,0.8024500608444214,-1.7351902723312378,-1.4788610935211182,-0.5502199530601501,-0.8337059617042542,-0.04682411625981331,-1.5932890176773071,0.2694358825683594,-0.6717731952667236
1.003060619527535,-1.5169474667120946,1.9252303283369818,0.9992193579673767,-2.0357532501220703,-1.8432403802871704,-0.5369451642036438,-0.8431206941604614,-0.028941864147782326,-1.4654810428619385,0.32667165994644165,-0.6654549837112427
1.0235217737491011,-1.5547768737528789,1.9443557196646484,1.1507823467254639,-2.2599995136260986,-2.1596896648406982,-0.5202954411506653,-0.8539459109306335,-0.008335561491549015,-1.320540189743042,0.3698453903198242,-0.6388201117515564
1.0465637244392592,-1.5986434191319208,1.9680914384042947,1.2290217876434326,-2.406543016433716,-2.442244291305542,-0.5003553032875061,-0.8657082915306091,0.013937042094767094,-1.1859546899795532,0.4127052426338196,-0.5812128782272339
1.0716424692600468,-1.6479974117462897,1.9965414899027225,1.2775254249572754,-2.471876621246338,-2.6920788288116455,-0.4772570729255676,-0.8779879212379456,0.03691813722252846,-1.0720746517181396,0.44781213998794556,-0.513083815574646
1.09822202333406,-1.7025253858849003,2.030281695143564,1.2857905626296997,-2.4422972202301025,-2.8997085094451904,-0.4512367248535156,-0.8903994560241699,0.05978721007704735,-0.9563561677932739,0.48195207118988037,-0.4666473865509033
1.1256885076995096,-1.761934082860217,2.069561166216901,1.2485209703445435,-2.375469923019409,-3.055504560470581,-0.4227142632007599,-0.9025642275810242,0.08179518580436707,-0.8288726806640625,0.5236427783966064,-0.42736077308654785
1.1535341283618972,-1.825750767337355,2.114262775472747,1.1456679105758667,-2.241847276687622,-3.1771786212921143,-0.3921591639518738,-0.9142018556594849,0.10220692306756973,-0.701377272605896,0.5590840578079224,-0.3764224052429199
1.1815221333062527,-1.8932652502104776,2.163999532901564,0.9928661584854126,-2.1006617546081543,-3.2771856784820557,-0.35995545983314514,-0.9251847863197327,0.12027253955602646,-0.5869897603988647,0.6000657081604004,-0.3226954936981201
1.2094439857614827,-1.9653178306876002,2.219146214392429,0.8284809589385986,-2.047111749649048,-3.34271240234375,-0.3263809084892273,-0.9354195594787598,0.13588878512382507,-0.4752548635005951,0.6418404579162598,-0.3151947259902954
1.2368947938316026,-2.043908600008676,2.280599020225189,0.6610313057899475,-2.114023447036743,-3.373969793319702,-0.29173213243484497,-0.944770872592926,0.14933401346206665,-0.3514105975627899,0.6884841918945312,-0.3514213562011719
1.263064424939648,-2.1321065563642816,2.350772588847999,0.6186100840568542,-2.1761293411254883,-3.320405960083008,-0.2564210593700409,-0.9530230164527893,0.16123147308826447,-0.21625050902366638,0.7323198318481445,-0.409018874168396
1.285627634189714,-2.2326240899618717,2.4333576497963048,0.7522296905517578,-2.09761905670166,-3.102543592453003,-0.22192464768886566,-0.9596142172813416,0.1728876829147339,-0.02520674467086792,0.7988933324813843,-0.5251061916351318
1.3025662272916612,-2.3436990734974956,2.5276484094123766,0.8874729871749878,-1.9700814485549927,-2.8103439807891846,-0.18972808122634888,-0.9642414450645447,0.18504488468170166,0.17300443351268768,0.810509204864502,-0.6094832420349121
1.313988048447466,-2.4582379670883383,2.6260755455365405,0.8379471898078918,-1.928004264831543,-2.47847580909729,-0.1603723019361496,-0.9672055840492249,0.19696316123008728,0.2844109535217285,0.789364218711853,-0.5824457406997681
1.3220235575227637,-2.5663432993159163,2.7169638559370153,0.49984315037727356,-2.123837947845459,-2.131427049636841,-0.1339518278837204,-0.9692153334617615,0.20658838748931885,0.3754984438419342,0.7779616117477417,-0.4811854362487793
1.33023175506547,-2.6636203855969964,2.792563031070769,-0.10460743308067322,-2.6876840591430664,-1.8646626472473145,-0.10959106683731079,-0.971203625202179,0.21155096590518951,0.4667687714099884,0.7586332559585571,-0.3508940637111664
1.3419943405369918,-2.7537219679903497,2.8539124548660593,-0.8249208331108093,-3.380859851837158,-1.7336044311523438,-0.08578421175479889,-0.9739388227462769,0.2099631279706955,0.4950859546661377,0.7867744565010071,-0.22116291522979736
1.358604045321671,-2.846904012233473,2.911771952175258,-1.4155278205871582,-3.916935682296753,-1.7870938777923584,-0.06116805970668793,-0.9775715470314026,0.20152483880519867,0.49357160925865173,0.8466359376907349,-0.1736011654138565
1.3785280098091954,-2.9599605933740354,2.985478218912031,-1.711856722831726,-4.1893229484558105,-2.040745973587036,-0.0345168374478817,-0.9815733432769775,0.1879427433013916,0.451600581407547,0.86250901222229,-0.2440643459558487
1.3981787313021632,-3.111737568708489,3.0971476358251,-1.7181309461593628,-4.120352745056152,-2.390869617462158,-0.005127232987433672,-0.9851385354995728,0.1716863065958023,0.4015810787677765,0.842896044254303,-0.360925555229187
1.4122829195880624,2.97061321717643,-3.0226508945789154,-1.419779896736145,-3.76080060005188,-2.770984172821045,0.026857810094952583,-0.9874630570411682,0.15554840862751007,0.45727303624153137,0.827612042427063,-0.4222414493560791
1.4147858387069108,2.7353224559604,-2.819291170748728,-0.828848123550415,-3.0458340644836426,-3.1635990142822266,0.06140333041548729,-0.9878550171852112,0.1427307426929474,0.6016520857810974,0.735810399055481,-0.46574389934539795
1.402075733862169,2.5194111837839928,-2.626246511445161,-0.013890769332647324,-1.9765863418579102,-3.468919277191162,0.09786618500947952,-0.9858003854751587,0.1364545077085495,0.7410925626754761,0.6066805124282837,-0.4915722608566284
1.3762042980921023,2.3715553299083427,-2.4904301305012395,0.8030905723571777,-0.8923156261444092,-3.550793170928955,0.13461488485336304,-0.9811266660690308,0.13881532847881317,0.9222241044044495,0.43307656049728394,-0.49307847023010254
1.3435499181302173,2.291624243961464,-2.4141296223551496,1.3275388479232788,-0.23458431661128998,-3.320080518722534,0.1692562997341156,-0.9742904305458069,0.1486973762512207,1.171304702758789,0.20652908086776733,-0.3982851505279541
1.3106302712215436,2.2535194556529765,-2.376037255843907,1.4527584314346313,-0.03553546965122223,-2.846231698989868,0.19958296418190002,-0.9663472771644592,0.16229592263698578,1.4033375978469849,-0.010337412357330322,-0.21007107198238373
1.2824419583071134,2.234133070619236,-2.35681098804975,1.1994760036468506,-0.1813374161720276,-2.1811697483062744,0.22407126426696777,-0.958713173866272,0.17510393261909485,1.6144754886627197,-0.16866731643676758,-0.00303041934967041
1.2620073060190695,2.2193438030366512,-2.3451321133818164,0.727881133556366,-0.5538613796234131,-1.464944839477539,0.24220098555088043,-0.9527022838592529,0.18356776237487793,1.7747973203659058,-0.27961277961730957,0.18853318691253662
1.2501035440319268,2.2034984248976808,-2.335851901741545,0.24505774676799774,-0.8176493644714355,-0.7914885878562927,0.25420665740966797,-0.9490172863006592,0.18639995157718658,1.841771125793457,-0.38006889820098877,0.3184829652309418
1.2455312098112705,2.1883570683088327,-2.328686531437007,-0.04693910852074623,-0.8110378980636597,-0.23489518463611603,0.26053571701049805,-0.947566032409668,0.18504105508327484,1.8011860847473145,-0.43723028898239136,0.35898077487945557
1.2459592825735721,2.178888297505007,-2.3262451748432706,-0.10364499688148499,-0.5942131876945496,0.20201289653778076,0.26194268465042114,-0.9477027654647827,0.18233373761177063,1.694966435432434,-0.4856315851211548,0.3079007863998413
1.2493780098339813,2.179324986103172,-2.3314351480057436,0.0008167657069861889,-0.30229875445365906,0.5323372483253479,0.25920370221138,-0.9487882852554321,0.180595263838768,1.6025364398956299,-0.4850802421569824,0.23403193056583405
1.2542550898554838,2.1916233783549446,-2.346004231745835,0.18568621575832367,-0.002532804384827614,0.7809185981750488,0.253195583820343,-0.9503177404403687,0.18107493221759796,1.5189601182937622,-0.4369197487831116,0.19372688233852386
1.2598195612074858,2.2164607072503353,-2.370504857904967,0.3718614876270294,0.3042832612991333,1.0034050941467285,0.24439315497875214,-0.952035129070282,0.18412227928638458,1.4327155351638794,-0.41013211011886597,0.17877766489982605
1.2659725798445929,2.253296784811454,-2.4044557228704013,0.47412553429603577,0.5914683938026428,1.2256897687911987,0.2328968495130539,-0.9538998603820801,0.1892998069524765,1.3707561492919922,-0.3895450234413147,0.21633994579315186
1.273112437940701,2.300623032292996,-2.4462658213311883,0.4686904847621918,0.8783633708953857,1.4668810367584229,0.21859869360923767,-0.9560183882713318,0.19555960595607758,1.3021990060806274,-0.3464260697364807,0.28577911853790283
1.2818119560659877,2.357335617698245,-2.4950637874452752,0.36862912774086,1.0966147184371948,1.7285789251327515,0.2012803852558136,-0.9585338234901428,0.20174027979373932,1.2384321689605713,-0.3088763952255249,0.3306696116924286
1.2923837654306636,2.422294090461847,-2.5508426670089612,0.2139529138803482,1.1614460945129395,1.982629656791687,0.18107345700263977,-0.9614928960800171,0.20674555003643036,1.1871058940887451,-0.26085811853408813,0.3333545923233032
1.3045573791580072,2.495521483798981,-2.614799859847178,0.07460753619670868,1.1567623615264893,2.2072556018829346,0.15840312838554382,-0.9647672772407532,0.2100771814584732,1.1343214511871338,-0.17991644144058228,0.29085367918014526
1.3174219840292998,2.579388628526145,-2.6895376300557907,-0.004048418253660202,1.169094443321228,2.3924918174743652,0.1336212009191513,-0.9680720567703247,0.21208901703357697,1.0750732421875,-0.09410738945007324,0.21460792422294617
1.3298266772277518,2.6762012242036897,-2.7770000396746553,-0.0477072149515152,1.2231403589248657,2.5297293663024902,0.10709720849990845,-0.971107006072998,0.2132638692855835,1.0027356147766113,-0.013679981231689453,0.13411784172058105
1.3406593209628548,2.786464734996592,-2.8775951179455626,-0.06269428133964539,1.2633830308914185,2.6126863956451416,0.07931669056415558,-0.9736351370811462,0.21387773752212524,0.9313797354698181,0.06834644079208374,0.06880676746368408
1.3486994409797877,2.9092702026177752,-2.990016570247046,-0.002158503979444504,1.3841427564620972,2.655339479446411,0.050715819001197815,-0.9754377007484436,0.21435758471488953,0.8510633707046509,0.14209425449371338,-0.0018329918384552002
1.3523596878994473,3.041963561797819,-3.1108218246018944,0.1636369526386261,1.581583857536316,2.642958879470825,0.021554265171289444,-0.976237416267395,0.21562880277633667,0.766791045665741,0.20157939195632935,-0.10158447921276093
1.3505624607445363,-3.1057457952517895,3.0514477508591344,0.36107224225997925,1.9059070348739624,2.580726146697998,-0.00782936904579401,-0.9758464097976685,0.21831801533699036,0.6625077128410339,0.23935037851333618,-0.19051635265350342
1.3435092909801223,-2.9757882456169633,2.939776315044588,0.5303745269775391,2.3001487255096436,2.4718992710113525,-0.0371907502412796,-0.9742813110351562,0.2222457081079483,0.5571034550666809,0.274986207485199,-0.24652230739593506
1.3324217690086062,-2.8562049396164504,2.8426742518060335,0.6097836494445801,2.6918911933898926,2.37253999710083,-0.06647588312625885,-0.9717230796813965,0.2265734225511551,0.48334598541259766,0.3159765601158142,-0.26508641242980957
1.3188479001183862,-2.7477632193332395,2.76036466754873,0.6073431372642517,2.9970433712005615,2.2866787910461426,-0.09565997868776321,-0.9684285521507263,0.23020727932453156,0.4414241313934326,0.3624715209007263,-0.2623422145843506
1.3037189491406658,-2.6488140643957694,2.690246471134843,0.5721161365509033,3.197295904159546,2.24843692779541,-0.12485130876302719,-0.9645463228225708,0.23251399397850037,0.4341469407081604,0.4114304780960083,-0.2882237434387207
1.2876195345003998,-2.5578510010882725,2.629441984582088,0.4857885241508484,3.2489452362060547,2.2230594158172607,-0.15399518609046936,-0.9601726531982422,0.2331390529870987,0.433688759803772,0.46284306049346924,-0.33676138520240784
1.2712421909117442,-2.474068969435832,2.5754988205672738,0.3425610661506653,3.136934280395508,2.1941864490509033,-0.1826767772436142,-0.9554681777954102,0.23175525665283203,0.4171127676963806,0.5258108973503113,-0.36879414319992065
1.2550283085027252,-2.396363813095312,2.526161954968555,0.1837802231311798,2.9872970581054688,2.1751649379730225,-0.21059449017047882,-0.9505581259727478,0.2282313108444214,0.37685421109199524,0.5840266346931458,-0.39778682589530945
1.2389194192329809,-2.3229226017958764,2.479878995177539,0.023528506979346275,2.925865650177002,2.1995599269866943,-0.23792482912540436,-0.9454324841499329,0.22259674966335297,0.30681824684143066,0.6062143445014954,-0.41703927516937256
1.2224918652321848,-2.250734640024714,2.4345914845705807,-0.1482294499874115,2.9680137634277344,2.252577066421509,-0.2654024064540863,-0.9399527311325073,0.21459358930587769,0.2212587296962738,0.5972098708152771,-0.4084564447402954
1.2057575715845354,-2.1790246581790345,2.3903991950100214,-0.30136600136756897,3.0705201625823975,2.2607293128967285,-0.2929646074771881,-0.9341099262237549,0.20398686826229095,0.11970099806785583,0.5902072787284851,-0.3896251916885376
1.1886912705588313,-2.109181412761487,2.3489698743082053,-0.3746502101421356,3.1617064476013184,2.2263271808624268,-0.3201272785663605,-0.9278817772865295,0.19119171798229218,-0.003862619400024414,0.6024270057678223,-0.41479384899139404
1.1713680568408904,-2.04310248490319,2.312159848836753,-0.3951520323753357,3.2165768146514893,2.1421468257904053,-0.34631675481796265,-0.921283483505249,0.1769230216741562,-0.10775434970855713,0.6347081065177917,-0.4560518264770508
1.1541880741560544,-1.9819154258679323,2.280436848336976,-0.4117032289505005,3.1611297130584717,2.0240159034729004,-0.3709426820278168,-0.9144666790962219,0.16171704232692719,-0.22904816269874573,0.6400373578071594,-0.4799693822860718
1.1375672844710851,-1.925664506113128,2.252657911462098,-0.47421640157699585,2.9892375469207764,1.908319115638733,-0.39364686608314514,-0.9076149463653564,0.14586789906024933,-0.36086979508399963,0.6314613223075867,-0.47712087631225586
1.1215718234122654,-1.8739697891364617,2.227029767633693,-0.5636935234069824,2.677399158477783,1.8201842308044434,-0.41446220874786377,-0.9007841348648071,0.12965074181556702,-0.4909791350364685,0.5971342325210571,-0.4604306221008301
1.1062633734761573,-1.8267846622144122,2.202204145773579,-0.7168910503387451,2.282670497894287,1.7056212425231934,-0.4334063231945038,-0.8940309286117554,0.11343567073345184,-0.6559948921203613,0.5184511542320251,-0.4419419765472412
1.0925059082115147,-1.7821097839622997,2.1754053907312,-1.0045242309570312,1.8684331178665161,1.52496337890625,-0.45002442598342896,-0.8877830505371094,0.09653741866350174,-0.8667328357696533,0.4284171462059021,-0.37291979789733887
1.080402644322572,-1.7390724629381604,2.1460015960417227,-1.2092616558074951,1.5285815000534058,1.351832628250122,-0.46432065963745117,-0.882147490978241,0.07888004183769226,-1.1110882759094238,0.3727481961250305,-0.2876507043838501
1.0698191333136178,-1.6987925914054496,2.115771519746247,-1.295785665512085,1.2085645198822021,1.1534373760223389,-0.4763539135456085,-0.8771136403083801,0.06130668520927429,-1.3190562725067139,0.3337330222129822,-0.28901350498199463
1.060982188389904,-1.6624768193609307,2.0865728065604587,-1.314360499382019,0.9364014267921448,0.8903207778930664,-0.48596563935279846,-0.8728352189064026,0.04467881843447685,-1.552822232246399,0.2665882110595703,-0.2811594009399414
1.0549479221587508,-1.629794330325344,2.0580445845416673,-1.38704252243042,0.6215946674346924,0.5079681873321533,-0.4924152195453644,-0.8698745369911194,0.029085269197821617,-1.79416024684906,0.20878732204437256,-0.23787105083465576
1.0527625022568676,-1.5999091213322638,2.029065441266783,-1.438960313796997,0.31621983647346497,0.043552055954933167,-0.49496325850486755,-0.8687944412231445,0.014413836412131786,-2.012376308441162,0.15961170196533203,-0.144098162651062
1.0551354910949244,-1.5735455773852256,2.000210798318806,-1.3965685367584229,-0.07640877366065979,-0.4802485704421997,-0.49310803413391113,-0.8699670433998108,0.0013556809863075614,-2.147425413131714,0.11976867914199829,-0.14272820949554443
1.0626547110565958,-1.5529307568625104,1.973004151556697,-1.2291277647018433,-0.5391218662261963,-1.0371947288513184,-0.48647722601890564,-0.8736501932144165,-0.008692117407917976,-2.2033421993255615,0.09604692459106445,-0.21733617782592773
1.0754852256545222,-1.5398913100916662,1.949785921302046,-0.9345273375511169,-0.9162184596061707,-1.5944757461547852,-0.4750785827636719,-0.8798208832740784,-0.014686987735331059,-2.1776161193847656,0.1002187728881836,-0.32067054510116577
1.0939841757673006,-1.5344476940416194,1.931001994921732,-0.6933093667030334,-1.298359751701355,-2.1380064487457275,-0.45864638686180115,-0.888462483882904,-0.016678515821695328,-2.084322452545166,0.06314504146575928,-0.4050742983818054
1.117587184451593,-1.536114380710494,1.9167210920117357,-0.40930625796318054,-1.5529745817184448,-2.6178231239318848,-0.43758997321128845,-0.8990465998649597,-0.015182560309767723,-1.9342973232269287,0.034025728702545166,-0.3978269100189209
1.146240476544197,-1.5446028401950829,1.9082881616044287,-0.13909795880317688,-1.6417393684387207,-3.1104953289031982,-0.4117751121520996,-0.9112218022346497,-0.010788293555378914,-1.761335849761963,0.04380530118942261,-0.4389491081237793
1.1796633115209263,-1.5593781244388296,1.906657696809425,0.14275561273097992,-1.5801703929901123,-3.5399248600006104,-0.3812117874622345,-0.9244776964187622,-0.0043529425747692585,-1.597548007965088,0.023079872131347656,-0.4330858588218689
1.216770663771675,-1.5825631286356,1.9151278436689811,0.47036489844322205,-1.4727634191513062,-3.8472986221313477,-0.3466527462005615,-0.9379847049713135,0.004079182632267475,-1.377422571182251,0.018139123916625977,-0.4521228075027466
1.256304460236179,-1.6179991597893097,1.9373926506660941,0.7378197312355042,-1.4022821187973022,-4.062248706817627,-0.3089887201786041,-0.9509536623954773,0.014595985412597656,-1.1437548398971558,0.01975560188293457,-0.4789818525314331
1.2969105094709934,-1.669175249753634,1.976286675951156,0.9058529734611511,-1.3835598230361938,-4.152242660522461,-0.26916712522506714,-0.9627271294593811,0.02656613104045391,-0.9436625242233276,0.037861406803131104,-0.45384252071380615
1.3365271694073084,-1.7421385341316633,2.0369909168542275,1.0464171171188354,-1.452489972114563,-4.048648834228516,-0.22873346507549286,-0.9726842641830444,0.039579786360263824,-0.7244373559951782,0.03748828172683716,-0.4486525058746338
1.3723342777653904,-1.8463754479793621,2.1278681322995077,1.164573311805725,-1.6553096771240234,-3.7448925971984863,-0.18972237408161163,-0.9803709387779236,0.05364854261279106,-0.47881096601486206,0.02021169662475586,-0.4916520118713379
1.4015706018536698,-1.9906020341726471,2.2556986662704395,1.2184685468673706,-2.0551271438598633,-3.302731990814209,-0.15379498898983002,-0.9857154488563538,0.06864478439092636,-0.2596419155597687,0.012616753578186035,-0.5495253801345825
1.4225040528888497,-2.1731921550052076,2.4172641985579304,1.1790220737457275,-2.544884204864502,-2.8138253688812256,-0.12174354493618011,-0.989024817943573,0.08371813595294952,-0.08994168043136597,0.04137766361236572,-0.5659568309783936
1.4348877801869115,-2.380637962815289,2.5984289676432577,1.1166349649429321,-3.0459609031677246,-2.3831663131713867,-0.09343665093183517,-0.9907786250114441,0.09811989217996597,-0.008522622287273407,0.07404571771621704,-0.5631008148193359
1.439691072990962,-2.5931791564460327,2.780156395499716,1.0693997144699097,-3.3851373195648193,-2.019131898880005,-0.06815437972545624,-0.9914180040359497,0.1115594208240509,0.006478339433670044,0.1257563829421997,-0.589830756187439
1.4381921154947839,-2.789616613324364,2.943734075704873,1.0683186054229736,-3.410801649093628,-1.7220715284347534,-0.045581985265016556,-0.9912209510803223,0.12411047518253326,0.012561950832605362,0.21201562881469727,-0.5723525285720825
1.432384500278253,-2.9602410014095923,3.0819804325522435,1.0096111297607422,-3.2906136512756348,-1.5831454992294312,-0.02488401159644127,-0.9904363751411438,0.1357065886259079,-0.024569746106863022,0.27127450704574585,-0.5287882089614868
1.4250121846416413,-3.1101740580293202,-3.082774603441177,0.7847232222557068,-3.2391982078552246,-1.603997826576233,-0.004563384223729372,-0.9893922805786133,0.14519689977169037,-0.08515830338001251,0.3607454299926758,-0.43409132957458496
1.4179123602633066,3.0311359957755535,-2.972166752881059,0.5025442838668823,-3.241427421569824,-1.7324743270874023,0.01678725890815258,-0.9883359670639038,0.15136192739009857,-0.13128922879695892,0.47254306077957153,-0.3452705144882202
1.4106059540677334,2.890533256129022,-2.8626022378087446,0.35836371779441833,-3.201974391937256,-1.8726718425750732,0.03962612524628639,-0.9871969223022461,0.15450546145439148,-0.10647489130496979,0.5641623139381409,-0.3482004404067993
1.401121518229001,2.756555914760616,-2.7584433380540494,0.3781622052192688,-3.0176455974578857,-1.956595778465271,0.06342373788356781,-0.985639750957489,0.1564994901418686,-0.05376491695642471,0.6510143280029297,-0.43771886825561523
1.3886535215972953,2.634693662782377,-2.6647390743528625,0.4530368149280548,-2.887784004211426,-2.06980562210083,0.0879363864660263,-0.9834578037261963,0.15835991501808167,0.007278449833393097,0.7242262959480286,-0.5196573734283447
1.3732372053868658,2.526684357748994,-2.5833656848684408,0.5159652233123779,-2.7148523330688477,-2.1668074131011963,0.11322851479053497,-0.9805485606193542,0.16032356023788452,0.028998635709285736,0.7556036114692688,-0.5277397632598877
1.3554103516373779,2.4315271897022956,-2.5133821539853027,0.509064257144928,-2.613506555557251,-2.2893548011779785,0.1393236219882965,-0.976893961429596,0.1620715856552124,0.04306468367576599,0.7840076088905334,-0.5048906803131104
1.335789733792503,2.3442098178513726,-2.4503961457649748,0.41856494545936584,-2.547595977783203,-2.430978775024414,0.16661080718040466,-0.9725127816200256,0.16266436874866486,0.06442251801490784,0.7987762689590454,-0.44246459007263184
1.3147195198159916,2.2633081837612976,-2.392635289299693,0.3184016942977905,-2.4003374576568604,-2.564382314682007,0.19494116306304932,-0.9673911333084106,0.16171690821647644,0.09100854396820068,0.7945395708084106,-0.3870737552642822
1.292085427949796,2.1908164881182834,-2.3409593117219543,0.2879636287689209,-2.0948424339294434,-2.6537344455718994,0.22390863299369812,-0.9614108800888062,0.15985719859600067,0.12568554282188416,0.7534487247467041,-0.35230088233947754
1.2682453614813989,2.130665245573716,-2.298093640995713,0.32480326294898987,-1.7157315015792847,-2.6522791385650635,0.25246623158454895,-0.9545795321464539,0.1582375019788742,0.21539878845214844,0.684208869934082,-0.3377112150192261
1.243633548306172,2.082901970899099,-2.2643174130968844,0.3817592263221741,-1.4140105247497559,-2.628394842147827,0.2801322340965271,-0.9469579458236694,0.1574697345495224,0.3245735466480255,0.5996221303939819,-0.31587111949920654
1.218848723406223,2.0445298583154567,-2.237618974074638,0.38766440749168396,-1.2369070053100586,-2.5586600303649902,0.3067621886730194,-0.9387031197547913,0.15726830065250397,0.4093175232410431,0.512250542640686,-0.3040577173233032
1.1946929761081606,2.011873775031034,-2.2156920446399457,0.3341117203235626,-1.2059812545776367,-2.4437649250030518,0.3321455419063568,-0.9301029443740845,0.15680506825447083,0.5273057222366333,0.41543930768966675,-0.2771052122116089
1.1718881619762946,1.9817258675468317,-2.1966061865822133,0.23165611922740936,-1.298408031463623,-2.284390926361084,0.35607707500457764,-0.9214856028556824,0.15515588223934174,0.6473866701126099,0.31522345542907715,-0.24135269224643707
1.151075310158756,1.9523333287273401,-2.1795446022952842,0.12706659734249115,-1.439039945602417,-2.0476226806640625,0.37820330262184143,-0.9132026433944702,0.1517336666584015,0.7736673951148987,0.210504949092865,-0.20854200422763824
1.1331905446507342,1.9248705282121372,-2.1656798457354793,0.09249664843082428,-1.4971115589141846,-1.6764651536941528,0.397484689950943,-0.905768871307373,0.14693120121955872,0.9591590166091919,0.10745954513549805,-0.17190970480442047
1.119122210357489,1.9022375572711456,-2.156607381949462,0.12338025867938995,-1.3573886156082153,-1.2224595546722412,0.41271764039993286,-0.8997176289558411,0.1420309841632843,1.143556833267212,0.010679423809051514,-0.13698016107082367
1.1091391860159079,1.8860632843349092,-2.1522877564152743,0.14407561719417572,-1.0803879499435425,-0.7966813445091248,0.4234788119792938,-0.8953155875205994,0.13811540603637695,1.2621443271636963,-0.09664303064346313,-0.07132744789123535
1.1025957859591562,1.8755526976366133,-2.1505689502335383,0.09876646101474762,-0.6991432309150696,-0.505571186542511,0.4304867088794708,-0.8923817873001099,0.13541194796562195,1.282938003540039,-0.19920164346694946,0.03464747965335846
1.0986892744367605,1.8695741328459834,-2.1494544574780585,0.03975164517760277,-0.3003043234348297,-0.2611159086227417,0.43461713194847107,-0.8906120657920837,0.13386103510856628,1.268416404724121,-0.27271831035614014,0.13271024823188782
1.0975898023986823,1.8678770809145326,-2.149336325121591,0.020744934678077698,-0.035994090139865875,0.06476394087076187,0.435779333114624,-0.89011150598526,0.13340972363948822,1.321239709854126,-0.34325647354125977,0.16268718242645264
1.100154360618428,1.87049840210543,-2.1519502759393694,0.06565258651971817,0.07898562401533127,0.5021552443504333,0.43324553966522217,-0.8912773728370667,0.13387714326381683,1.4422580003738403,-0.38132089376449585,0.14999745786190033
1.1070570995329319,1.8779564292933677,-2.159278341181154,0.15359708666801453,0.09091684967279434,1.0067044496536255,0.4263606667518616,-0.8943862318992615,0.13524119555950165,1.5626072883605957,-0.36826348304748535,0.11358393728733063
1.1185643150131357,1.8901545847899357,-2.1719387261803385,0.19282084703445435,0.08401302993297577,1.5082496404647827,0.41488006711006165,-0.899474024772644,0.13719142973423004,1.6211918592453003,-0.3434460759162903,0.1034398227930069
1.1344277369216698,1.9062777192158524,-2.188668928201511,0.1370079219341278,0.12344406545162201,1.9344006776809692,0.3990897536277771,-0.9062924385070801,0.13914701342582703,1.5873148441314697,-0.316364049911499,0.16073420643806458
1.153971763598235,1.925192469239871,-2.207642896479985,0.01315188780426979,0.2076854407787323,2.2408480644226074,0.37969979643821716,-0.9143791794776917,0.1404959261417389,1.4936981201171875,-0.2739143371582031,0.24320173263549805
1.1760722057766588,1.946453436227107,-2.227791060391678,-0.09962686151266098,0.35395610332489014,2.427368640899658,0.35773739218711853,-0.9231026768684387,0.14108650386333466,1.3764697313308716,-0.206246018409729,0.2875940799713135
1.1996031385758066,1.971974638401598,-2.2501173546747575,-0.1228003203868866,0.6203464269638062,2.5442373752593994,0.3339279294013977,-0.9318951964378357,0.14164650440216064,1.2567551136016846,-0.12639343738555908,0.27378952503204346
1.2238904456976116,2.005879752382476,-2.2779220178412047,-0.05470887944102287,0.9446403384208679,2.6720492839813232,0.30831506848335266,-0.9404292106628418,0.14330117404460907,1.2030527591705322,-0.06135624647140503,0.21100808680057526
1.2485514626609,2.051777474939485,-2.3148453880049558,0.05208501219749451,1.249483585357666,2.8061866760253906,0.28076449036598206,-0.9485268592834473,0.14651934802532196,1.1840944290161133,0.004679322242736816,0.13973566889762878
1.2733179442081253,2.112346577069445,-2.3636554067928435,0.11343438923358917,1.5610473155975342,2.9490387439727783,0.25116991996765137,-0.9560786485671997,0.15108847618103027,1.1599781513214111,0.08513730764389038,0.09439517557621002
1.2979133340228557,2.189707661993679,-2.426315352721919,0.13251441717147827,1.859006643295288,3.0729987621307373,0.21951816976070404,-0.9629979133605957,0.15635550022125244,1.1463112831115723,0.15081828832626343,0.07130575180053711
1.32181762977431,2.285528541879074,-2.5052526222005818,0.11005571484565735,2.019818067550659,3.1763665676116943,0.18610909581184387,-0.9691646099090576,0.16150373220443726,1.127718448638916,0.21222186088562012,0.014521822333335876
1.3443267505304128,2.4015986908574414,-2.603570946206562,0.06763710081577301,2.061274766921997,3.250288248062134,0.15140290558338165,-0.9744651913642883,0.16581587493419647,1.0880837440490723,0.29312974214553833,-0.054319754242897034
1.3643019501871123,2.5405381503122384,-2.724382557865201,0.03519660234451294,2.1190505027770996,3.26285457611084,0.11594744026660919,-0.9787557125091553,0.16909699141979218,1.0419353246688843,0.39120060205459595,-0.11540113389492035
1.3801308817619684,2.7047541512155324,-2.869745941197187,0.07442904263734818,2.2094686031341553,3.2570106983184814,0.08017867058515549,-0.9818783402442932,0.17171671986579895,0.9627748727798462,0.47324174642562866,-0.18697534501552582
1.3900919515651038,2.893904878153802,-3.0387267394981397,0.1498953104019165,2.406468152999878,3.2625796794891357,0.04406139999628067,-0.9837173223495483,0.17423811554908752,0.8739683628082275,0.5187820196151733,-0.2661416530609131
1.3931378320030046,3.1000173990022146,3.0610740603082514,0.18016861379146576,2.7042086124420166,3.2617690563201904,0.007345295511186123,-0.9842602014541626,0.17657288908958435,0.7934054136276245,0.5603863000869751,-0.28689372539520264
1.3895390780467805,-2.975930552951951,2.8793239507681347,0.12293381243944168,2.942772626876831,3.2224795818328857,-0.029726943001151085,-0.9836178421974182,0.17779868841171265,0.7193631529808044,0.5871639251708984,-0.2717621326446533
1.380556360587261,-2.782616469351432,2.7135450900479494,0.02237851731479168,3.1066713333129883,3.1195180416107178,-0.0664321780204773,-0.9819588661193848,0.17704178392887115,0.6168472170829773,0.60225909948349,-0.2582031488418579
1.3675332356368164,-2.611678748943228,2.571939948992088,-0.05140595883131027,3.292496919631958,2.966331720352173,-0.10203532874584198,-0.9794130921363831,0.1741807609796524,0.4984739124774933,0.6293764114379883,-0.28706514835357666
1.3516360285849143,-2.464858684496988,2.456837358294173,-0.05369377136230469,3.5432755947113037,2.786667585372925,-0.13615299761295319,-0.9760803580284119,0.16949762403964996,0.4079577922821045,0.6580109596252441,-0.3340482711791992
1.3334034056061224,-2.3420786301746332,2.368686246958126,0.08194048702716827,3.81550669670105,2.60121750831604,-0.16862079501152039,-0.9719544053077698,0.16392630338668823,0.3344075381755829,0.6739044189453125,-0.4031381607055664
1.3132782718945282,-2.24254661258127,2.3068033072589706,0.3002742826938629,4.061944484710693,2.439227342605591,-0.19934725761413574,-0.9670250415802002,0.15850241482257843,0.27188754081726074,0.6830285787582397,-0.49596574902534485
1.291772553623361,-2.1617794265617594,2.2661175251388657,0.48244860768318176,4.207303047180176,2.298560619354248,-0.22870473563671112,-0.9613247513771057,0.1534564048051834,0.22702626883983612,0.6901456117630005,-0.5599961280822754
1.2700719328121532,-2.0943933175049523,2.240354422657418,0.5394136905670166,4.30390739440918,2.149878978729248,-0.25652772188186646,-0.955122172832489,0.14810574054718018,0.14957883954048157,0.6842938661575317,-0.5440864562988281
1.2494827271227391,-2.033652138451597,2.2224839545914783,0.4228098690509796,4.41203498840332,1.9833892583847046,-0.28258422017097473,-0.9488213658332825,0.1410125344991684,0.030646324157714844,0.6505424380302429,-0.4546414613723755
1.230884833012556,-1.973980917561637,2.2064668946324977,0.18485867977142334,4.449787139892578,1.8167225122451782,-0.30667030811309814,-0.9427841901779175,0.13081088662147522,-0.09553614258766174,0.6079452633857727,-0.3544282913208008
1.2142525598023013,-1.9132966850446036,2.18940426848993,-0.05241779237985611,4.451549053192139,1.7018190622329712,-0.32876476645469666,-0.9371087551116943,0.11722193658351898,-0.20417895913124084,0.5709893703460693,-0.3182868957519531
1.19871585327265,-1.8517568314891875,2.1713121695200264,-0.21265338361263275,4.445008277893066,1.6441534757614136,-0.3492997884750366,-0.9315729737281799,0.10080600529909134,-0.27826377749443054,0.5423973798751831,-0.3645387887954712
1.1837113824285428,-1.7900763908152009,2.1525045602824524,-0.4140746593475342,4.336742401123047,1.5834174156188965,-0.3684515357017517,-0.9260134100914001,0.08211443573236465,-0.36151373386383057,0.5029329061508179,-0.4259711503982544
1.1696816979746114,-1.7278159236509263,2.1302095269283265,-0.736798107624054,3.9469220638275146,1.4916960000991821,-0.38564178347587585,-0.9206263422966003,0.061055928468704224,-0.5019010305404663,0.4123559594154358,-0.4339348077774048
1.1560229264326691,-1.6665146272372617,2.1037200730878434,-0.9909465312957764,3.4093873500823975,1.4720925092697144,-0.4011383354663849,-0.9152076840400696,0.038513973355293274,-0.6638489961624146,0.35832273960113525,-0.45532286167144775
1.1419936144167742,-1.609716355063045,2.0756190458057144,-1.074212670326233,2.8145382404327393,1.4811351299285889,-0.41546735167503357,-0.9094642400741577,0.01617817021906376,-0.7990254759788513,0.3205512762069702,-0.5585974454879761
1.1273310731693613,-1.5613531244221432,2.050686798601901,-0.9747342467308044,2.3185317516326904,1.4650931358337402,-0.42905306816101074,-0.9032702445983887,-0.004051755182445049,-0.9821865558624268,0.28217649459838867,-0.6726143956184387
1.1127229780304797,-1.5227466429362557,2.0308805979163074,-0.824569046497345,1.8370615243911743,1.3876566886901855,-0.44171077013015747,-0.8969061374664307,-0.021240411326289177,-1.2051246166229248,0.23003602027893066,-0.7452389597892761
1.098930923805885,-1.4932824868665378,2.0166960398548652,-0.6091225147247314,1.528952956199646,1.2657451629638672,-0.4531838297843933,-0.8907219171524048,-0.03519854322075844,-1.4361900091171265,0.15953600406646729,-0.6983981728553772
1.0867719914302114,-1.4713437831696612,2.0081713128335474,-0.3875446021556854,1.3472442626953125,1.0712593793869019,-0.46304553747177124,-0.8851293921470642,-0.04620348662137985,-1.6443153619766235,0.11005926132202148,-0.6299591064453125
1.0769093451588896,-1.454817131702918,2.003903477979349,-0.22950248420238495,1.1895593404769897,0.8376308083534241,-0.47086745500564575,-0.8804968595504761,-0.05485701188445091,-1.811572790145874,0.047794222831726074,-0.5371075868606567
1.069688307712812,-1.4421346396520447,2.001620809905681,-0.17420050501823425,0.9183991551399231,0.5573593974113464,-0.47642719745635986,-0.8770508170127869,-0.061638422310352325,-1.9066447019577026,0.01148068904876709,-0.4543526768684387
1.0654278500785481,-1.4328917344768473,1.9993912474622002,-0.14406098425388336,0.5241349935531616,0.266108900308609,-0.4795337915420532,-0.8749961256980896,-0.06655234098434448,-1.9417157173156738,0.0281180739402771,-0.42575711011886597
1.0642235224492356,-1.4277286558187376,1.996549797249189,-0.17820195853710175,-0.014505552127957344,-0.0836258977651596,-0.48022669553756714,-0.874412477016449,-0.06917754560709,-1.8995494842529297,0.07419562339782715,-0.47243303060531616
1.0663803902031626,-1.4262771367714437,1.9914631250941288,-0.22592340409755707,-0.5722782611846924,-0.4060090184211731,-0.47825828194618225,-0.8754568696022034,-0.06960275024175644,-1.8445720672607422,0.08619588613510132,-0.497810423374176
1.0714634988533356,-1.4295905865062384,1.9859241895313344,-0.1456516534090042,-1.0409578084945679,-0.6637041568756104,-0.47407403588294983,-0.8779022097587585,-0.06739047169685364,-1.73593270778656,0.11851805448532104,-0.5456618070602417
1.0788563771296136,-1.4385579000182451,1.982250299359277,0.0083624217659235,-1.3722044229507446,-0.8350969552993774,-0.46821296215057373,-0.8814182281494141,-0.062279194593429565,-1.5950499773025513,0.1283053755760193,-0.621299147605896
1.0878619849057396,-1.4531027834220687,1.9818100885889074,0.16788321733474731,-1.6041145324707031,-0.9471139907836914,-0.46116745471954346,-0.8856360912322998,-0.05452843755483627,-1.454771876335144,0.1226813793182373,-0.626684844493866
1.0979861033406462,-1.4722857700820602,1.9840095920014762,0.2380729466676712,-1.834524393081665,-1.0402960777282715,-0.4531823992729187,-0.8902920484542847,-0.04478822275996208,-1.315433382987976,0.12327843904495239,-0.5912437438964844
1.1090983096559062,-1.4945694030616896,1.9870955315602103,0.22472837567329407,-2.0558218955993652,-1.1426278352737427,-0.4441756010055542,-0.8952973484992981,-0.03392387181520462,-1.1934740543365479,0.1418793797492981,-0.5247308015823364
1.1210310842747782,-1.5186398850484748,1.9897911566572586,0.1644677072763443,-2.260756492614746,-1.2071418762207031,-0.43416285514831543,-0.9005491733551025,-0.02266494557261467,-1.078974962234497,0.1658691167831421,-0.4704379439353943
1.1332167859743199,-1.5444782555268568,1.9919891640017526,0.1197485402226448,-2.4989399909973145,-1.20719313621521,-0.42360153794288635,-0.9057799577713013,-0.011150949634611607,-0.932996392250061,0.18786925077438354,-0.4557526111602783
1.1451874440493783,-1.5725023327465388,1.9938367277897504,0.06609330326318741,-2.751500368118286,-1.1791439056396484,-0.41287487745285034,-0.9107875227928162,0.0007043676450848579,-0.7716497182846069,0.22661393880844116,-0.479311466217041
1.156982171426259,-1.6022912540343826,1.9949914888295395,-0.01239386759698391,-2.9735450744628906,-1.1794368028640747,-0.40190520882606506,-0.9155938029289246,0.012662162072956562,-0.6645468473434448,0.2746025323867798,-0.48801910877227783
1.169061429464994,-1.6329017138244453,1.9947619922804165,-0.12153952568769455,-3.1550724506378174,-1.232369065284729,-0.39026203751564026,-0.9203839898109436,0.024268584325909615,-0.6034666299819946,0.3190045952796936,-0.488181471824646
1.1819684799084684,-1.663204148444969,1.992813699041559,-0.2206554114818573,-3.228926420211792,-1.3267197608947754,-0.3774867057800293,-0.9253540635108948,0.0349823534488678,-0.5532231330871582,0.3681030869483948,-0.4746338129043579
1.1961168351772764,-1.6928680427757319,1.989893228160269,-0.29620158672332764,-3.2166285514831543,-1.4606165885925293,-0.363251268863678,-0.9306249618530273,0.04456428438425064,-0.5114893913269043,0.40880483388900757,-0.4881829023361206
1.2119164347488594,-1.7216552217552623,1.9864752468170925,-0.3833533823490143,-3.1554055213928223,-1.6350924968719482,-0.3472368121147156,-0.9362908005714417,0.05278480052947998,-0.4713972806930542,0.46146780252456665,-0.5063369274139404
1.2299274313880522,-1.7497079191452396,1.982887709287577,-0.426789790391922,-3.098142147064209,-1.8680280447006226,-0.3289705514907837,-0.9424645304679871,0.05949277803301811,-0.42572924494743347,0.5042471885681152,-0.5081925392150879
1.2501545009579382,-1.7797356696030409,1.982632241141389,-0.36084693670272827,-2.9389660358428955,-2.0868375301361084,-0.308321475982666,-0.9490333199501038,0.06537459045648575,-0.36936718225479126,0.560727596282959,-0.5674953460693359
1.2721565768823062,-1.81455248836855,1.9888053512090742,-0.2599720060825348,-2.8287193775177,-2.2557411193847656,-0.2855231463909149,-0.9557375907897949,0.0710100308060646,-0.26170286536216736,0.6134523749351501,-0.6473343372344971
1.2949484861929756,-1.8553793461586907,2.0023481506201337,-0.19077299535274506,-2.7220475673675537,-2.3161685466766357,-0.2614086866378784,-0.9621946215629578,0.07646802812814713,-0.11986270546913147,0.6264248490333557,-0.6499236822128296
1.3175549844441408,-1.9024530908210746,2.0235649830754827,-0.11985274404287338,-2.5749809741973877,-2.3080368041992188,-0.23688974976539612,-0.9681054353713989,0.08157939463853836,0.01821601390838623,0.6242180466651917,-0.6197110414505005
1.3393810870206622,-1.9567228634014489,2.053284455145442,-0.09077950567007065,-2.5154104232788086,-2.2714967727661133,-0.21248692274093628,-0.973342776298523,0.08633366972208023,0.137123703956604,0.6018673777580261,-0.6028740406036377
1.360777530504532,-2.0186417325660977,2.090347007841109,-0.17294147610664368,-2.6334457397460938,-2.2906649112701416,-0.18791824579238892,-0.9780269861221313,0.09027601778507233,0.2222047597169876,0.5960385799407959,-0.5755206346511841
1.3823873181103843,-2.0870505860536923,2.132521677946611,-0.34816306829452515,-2.7574479579925537,-2.339907169342041,-0.16288720071315765,-0.9823034405708313,0.09245457500219345,0.27601584792137146,0.6052892208099365,-0.5091109275817871
1.4047286401885197,-2.164391420642267,2.182988561129599,-0.4758632481098175,-2.7308318614959717,-2.3841781616210938,-0.1370275467634201,-0.986242413520813,0.09246276319026947,0.3460729718208313,0.5864469408988953,-0.4392033815383911
1.4267401457278759,-2.257336539114273,2.2507999184657437,-0.44858038425445557,-2.401383876800537,-2.3740127086639404,-0.11103470623493195,-0.9896418452262878,0.09099695086479187,0.43552809953689575,0.5388971567153931,-0.4056941270828247
1.4464056763176323,-2.3770100037683783,2.3497636422984676,-0.2603031396865845,-1.906882405281067,-2.2891454696655273,-0.08588619530200958,-0.9922734498977661,0.08953826874494553,0.5648595690727234,0.47352033853530884,-0.40501368045806885
1.4619035736071146,-2.5364662176071797,2.4929924438788347,-0.030191529542207718,-1.5471926927566528,-2.2435193061828613,-0.0618230365216732,-0.9940770268440247,0.08937979489564896,0.7248631715774536,0.38696038722991943,-0.39914822578430176
1.4724767753998376,-2.743177692372272,2.6860142907790014,0.0841909646987915,-1.4263578653335571,-2.258270502090454,-0.03808288648724556,-0.995170533657074,0.09047403931617737,0.8281524777412415,0.3245924711227417,-0.36755824089050293
1.4781033924872915,-2.989365962619098,2.918258403680495,0.018193203955888748,-1.5807926654815674,-2.2688398361206055,-0.014035893604159355,-0.995707094669342,0.09149058163166046,0.9036232829093933,0.22092676162719727,-0.295668363571167
1.479399165959329,3.0380663457214405,-3.125068100979228,-0.1747240573167801,-1.7782701253890991,-2.084765911102295,0.009432055056095123,-0.9958261847496033,0.09078208357095718,1.0395638942718506,0.0771249532699585,-0.18169379234313965
1.477941301875154,2.8130369686678436,-2.917363140019125,-0.34712526202201843,-1.8211365938186646,-1.6758697032928467,0.029919389635324478,-0.9956920742988586,0.08776281774044037,1.2694275379180908,-0.09941601753234863,-0.05208754539489746
1.4755308178379636,2.6398069378588733,-2.760686095780648,-0.3717999756336212,-1.583731770515442,-1.2000455856323242,0.04575329273939133,-0.9954656958580017,0.0833965390920639,1.4490282535552979,-0.26777905225753784,0.04117631912231445
1.4728125317480751,2.5228555701613393,-2.6572386694071164,-0.20975734293460846,-1.1941370964050293,-0.7888026237487793,0.056740280240774155,-0.99520343542099,0.07969094067811966,1.5247111320495605,-0.37210613489151,0.05087863653898239
1.4694919701368627,2.4563848003067608,-2.600206177931838,0.06740660965442657,-0.7420413494110107,-0.5383496284484863,0.063999705016613,-0.9948731064796448,0.07830517739057541,1.5339007377624512,-0.43084716796875,0.02414250373840332
1.4644810324796653,2.429903855419134,-2.5788326402217265,0.4175550043582916,-0.3092356324195862,-0.46282005310058594,0.0693056583404541,-0.9943538308143616,0.08035723865032196,1.474517583847046,-0.4427341818809509,0.01763474941253662
1.4568252513950797,2.431461059083584,-2.5819615663193005,0.7859612703323364,-0.014592008665204048,-0.4879264831542969,0.07414095848798752,-0.9935123324394226,0.08623472601175308,1.4106613397598267,-0.4514644742012024,0.019081585109233856
1.4464392917761428,2.4535061415592736,-2.6029309630533786,1.1067010164260864,0.2576138973236084,-0.4432006776332855,0.07877087593078613,-0.9922776222229004,0.09581383317708969,1.4067790508270264,-0.4403548240661621,0.04734431952238083
1.4349261040872656,2.493340466135502,-2.6392941226252997,1.249443531036377,0.4885097146034241,-0.22032949328422546,0.08178571611642838,-0.9907838106155396,0.10797504335641861,1.479875087738037,-0.43902575969696045,0.14231503009796143
1.4247538223080218,2.5465171615574334,-2.6874188123106446,1.162095069885254,0.5959105491638184,0.14201673865318298,0.0815773531794548,-0.9893547296524048,0.12051048129796982,1.5710563659667969,-0.41774994134902954,0.3096349239349365
1.417858242863798,2.6086552289123524,-2.7442785975280963,0.8795838356018066,0.5645156502723694,0.5524332523345947,0.07740042358636856,-0.9883277416229248,0.1312161386013031,1.5977094173431396,-0.36370784044265747,0.46462440490722656
1.4157194490632439,2.6774762351589456,-2.8088893214743047,0.4290413558483124,0.41788965463638306,0.9765210747718811,0.06914033740758896,-0.987999677658081,0.13811875879764557,1.5649081468582153,-0.33223676681518555,0.5735207796096802
1.4187853703683329,2.75536779874976,-2.8841947116274373,-0.023399343714118004,0.28268682956695557,1.3546503782272339,0.05704136937856674,-0.988468587398529,0.140271857380867,1.5044972896575928,-0.30665165185928345,0.6393609046936035
1.4253906301306736,2.8484179489249746,-2.9756411739318476,-0.28581491112709045,0.25598475337028503,1.612176537513733,0.04187316820025444,-0.9894471764564514,0.13871097564697266,1.3997466564178467,-0.26104098558425903,0.5973731279373169
1.4324603605897166,2.9612216031898884,-3.0864974094647444,-0.32396334409713745,0.3652387857437134,1.7445650100708008,0.02473778836429119,-0.9904468059539795,0.1356588751077652,1.25419282913208,-0.18216067552566528,0.45397138595581055
1.437239752659861,3.0926360504275014,3.0687359154759775,-0.2110917717218399,0.5715088844299316,1.785171627998352,0.0065164584666490555,-0.9910945892333984,0.1330004781484604,1.122206687927246,-0.10155677795410156,0.293559193611145
1.4380140306774234,-3.050636924500444,2.934681995584589,-0.010130449198186398,0.8401725888252258,1.7504633665084839,-0.012025319039821625,-0.9911973476409912,0.1318458914756775,1.0021681785583496,-0.03591752052307129,0.15939867496490479
1.4342792279316943,-2.916022557879184,2.808840852479696,0.21017464995384216,1.133095622062683,1.6890987157821655,-0.03043905459344387,-0.9906960129737854,0.13264626264572144,0.9116036295890808,0.027057647705078125,0.04801785945892334
1.426621322004757,-2.7968724798695996,2.7013001346082266,0.39694586396217346,1.3850977420806885,1.614851713180542,-0.04855354130268097,-0.9896247982978821,0.135225310921669,0.8588715195655823,0.07820188999176025,-0.027086004614830017
1.4162701141551992,-2.697019500206318,2.6154458556863163,0.5216999053955078,1.5915335416793823,1.5323221683502197,-0.06619340926408768,-0.9880845546722412,0.13895104825496674,0.8164985775947571,0.127183735370636,-0.08168460428714752
1.4042485319778024,-2.6141039253214386,2.548647185129874,0.594463050365448,1.78595769405365,1.472171425819397,-0.08344737440347672,-0.9861629605293274,0.14324535429477692,0.7826966643333435,0.1788662075996399,-0.11912108957767487
1.391368957086059,-2.54368698950399,2.496034393583659,0.6080994009971619,1.910024642944336,1.4275810718536377,-0.10046060383319855,-0.9839460253715515,0.1475048065185547,0.7629972100257874,0.23348838090896606,-0.14472761750221252
1.3781859472842457,-2.4815214506577377,2.4524292764918303,0.5628794431686401,1.9275423288345337,1.4239552021026611,-0.11737445741891861,-0.9815078973770142,0.15121306478977203,0.7478676438331604,0.29313820600509644,-0.17590166628360748
1.3650549887274666,-2.423307645482965,2.412590150736735,0.44848793745040894,1.8918719291687012,1.459955096244812,-0.13444432616233826,-0.9789097905158997,0.153819739818573,0.7348777055740356,0.3350040912628174,-0.20067930221557617
1.35218810078131,-2.3659392812227313,2.3730663782277253,0.30453211069107056,1.8396849632263184,1.5007646083831787,-0.1518494337797165,-0.9762002229690552,0.15483812987804413,0.7232758402824402,0.37039583921432495,-0.2034982591867447
1.339750482600339,-2.3091935682650644,2.3334092269150584,0.1439790278673172,1.7620335817337036,1.51016366481781,-0.169353649020195,-0.973427414894104,0.15413802862167358,0.6650506258010864,0.401222825050354,-0.22631193697452545
1.3281639108044454,-2.2529793500641118,2.2935302060201854,-0.05247090756893158,1.7319244146347046,1.480996012687683,-0.1864885687828064,-0.9707089066505432,0.15148063004016876,0.5726122260093689,0.4202633500099182,-0.24780918657779694
1.3174698827007423,-2.196477233419785,2.2534523199232295,-0.1928536593914032,1.7986470460891724,1.4019827842712402,-0.2031484693288803,-0.9680840969085693,0.1467788964509964,0.4779134690761566,0.44333428144454956,-0.26100611686706543
1.3076650971908543,-2.1419694129362608,2.216520064284519,-0.24900667369365692,1.9587513208389282,1.2718223333358765,-0.21881794929504395,-0.9655802845954895,0.14061784744262695,0.37508320808410645,0.4738658666610718,-0.3220599889755249
1.2987611091877382,-2.0914661174631477,2.1854390485451076,-0.22160042822360992,2.1323771476745605,1.0912189483642578,-0.23308739066123962,-0.9632260203361511,0.1336643248796463,0.26946431398391724,0.5134732127189636,-0.40267670154571533
1.2909003261439185,-2.0470157792862884,2.1623256933018338,-0.12619082629680634,2.2901418209075928,0.8847180008888245,-0.24551831185817719,-0.9610841870307922,0.12664203345775604,0.1751142293214798,0.548532247543335,-0.4805084466934204
1.2841576809727533,-2.0091370489546545,2.147631256091456,-0.01522989384829998,2.452361583709717,0.688995897769928,-0.256000280380249,-0.9591996669769287,0.1200014278292656,0.08674973249435425,0.6062636971473694,-0.5397247076034546
1.2783682683262323,-1.9760486013703946,2.1395172006559338,0.055980369448661804,2.581132173538208,0.5633154511451721,-0.26492801308631897,-0.9575467705726624,0.11365364491939545,0.020772159099578857,0.6327177882194519,-0.5490936040878296
1.2732778499796933,-1.9445758679986564,2.13419425416469,0.0244242362678051,2.6795554161071777,0.49877655506134033,-0.27290791273117065,-0.956066906452179,0.10703931003808975,-0.036662399768829346,0.5931060910224915,-0.499190092086792
1.2691498994400314,-1.9099377132658395,2.1266055716944736,-0.17545080184936523,2.773677110671997,0.4259929060935974,-0.28017058968544006,-0.9548486471176147,0.09883608669042587,-0.12920749187469482,0.5520623922348022,-0.39673328399658203
1.2665006396291885,-1.8677505762343887,2.1119510027233277,-0.493827223777771,2.8509578704833984,0.34870627522468567,-0.2865072786808014,-0.9540582299232483,0.08767185360193253,-0.2557595670223236,0.49992626905441284,-0.27231836318969727
1.2651905752673414,-1.816055545300698,2.088242300708518,-0.7924014329910278,2.943530321121216,0.28589963912963867,-0.29186779260635376,-0.9536648988723755,0.07305395603179932,-0.3812737762928009,0.42275041341781616,-0.19611597061157227
1.264484614393326,-1.7567379698957895,2.0574064878430764,-0.9620994329452515,3.019991636276245,0.2458375096321106,-0.29634639620780945,-0.9534522294998169,0.05574709177017212,-0.45127326250076294,0.3617163896560669,-0.20864009857177734
1.2636221041443305,-1.6948552936879884,2.024626097076001,-0.9323495030403137,3.079101800918579,0.23407192528247833,-0.30004262924194336,-0.9531918168067932,0.03741512447595596,-0.5080933570861816,0.3432217240333557,-0.2824711799621582
1.261903682423365,-1.6360708705359435,1.995366917868984,-0.7970447540283203,3.0800600051879883,0.28447964787483215,-0.30335649847984314,-0.9526708126068115,0.019829627126455307,-0.596423864364624,0.2751500606536865,-0.39447855949401855
1.2590497074302396,-1.5809936503441635,1.9693593991361311,-0.7912536859512329,2.94281268119812,0.3354642689228058,-0.3067055344581604,-0.9517992734909058,0.0031276841182261705,-0.6909904479980469,0.17199891805648804,-0.4343714714050293
1.2556468286414804,-1.5261920364302968,1.9412483504126141,-0.9590636491775513,2.622026205062866,0.3049788773059845,-0.30965062975883484,-0.9507500529289246,-0.01382091362029314,-0.8512685894966125,0.06955492496490479,-0.345950722694397
1.252052180580931,-1.4709238790749635,1.9084789316542188,-1.1152892112731934,2.1877541542053223,0.26309293508529663,-0.31181326508522034,-0.9496297240257263,-0.031245509162545204,-1.052993893623352,-0.06755185127258301,-0.2910047173500061
1.248064170443175,-1.4180460115662716,1.873690554387498,-1.1312689781188965,1.7748959064483643,0.25707605481147766,-0.31346651911735535,-0.9483724236488342,-0.04825802519917488,-1.2230631113052368,-0.1885906457901001,-0.33023613691329956
1.2434012254124907,-1.3720451790540618,1.8420769525190919,-1.0027459859848022,1.427988886833191,0.30786389112472534,-0.3152472972869873,-0.9468832612037659,-0.06349401921033859,-1.3489525318145752,-0.2926492691040039,-0.39045482873916626
1.2382537200659094,-1.3352340915574736,1.8166546094084983,-0.8237345218658447,1.1215587854385376,0.3335244953632355,-0.3174324929714203,-0.9452153444290161,-0.07618959248065948,-1.4741020202636719,-0.3871975541114807,-0.4154484272003174
1.2333868506986518,-1.3069683186479946,1.7972900256972844,-0.642596960067749,0.8779521584510803,0.28430742025375366,-0.3195893466472626,-0.9436154365539551,-0.08632896095514297,-1.6149656772613525,-0.4630618691444397,-0.38966888189315796
1.2295920090006534,-1.2862605647907475,1.78395443719769,-0.4464961588382721,0.7425614595413208,0.17613276839256287,-0.32116785645484924,-0.9423523545265198,-0.09393247961997986,-1.7234793901443481,-0.5049895644187927,-0.3772435784339905
1.2275166552478847,-1.2697707380474428,1.7734067871582466,-0.34687501192092896,0.5668144226074219,0.02237941324710846,-0.32144272327423096,-0.9416558742523193,-0.09979521483182907,-1.7841482162475586,-0.5396827459335327,-0.3641481399536133
1.2272023370771274,-1.2570983938832163,1.7651152896520796,-0.19399255514144897,0.3835580050945282,-0.13539443910121918,-0.320433646440506,-0.9415500164031982,-0.10395178943872452,-1.7638254165649414,-0.5133450031280518,-0.34522104263305664
1.2290785174043612,-1.2501101518613278,1.7600721859638229,-0.001131504774093628,0.04989055544137955,-0.32862353324890137,-0.31802263855934143,-0.9421803951263428,-0.10563156753778458,-1.6891186237335205,-0.46196407079696655,-0.4655505418777466
1.2336037378074611,-1.2511538550292474,1.759652466287038,0.2620789110660553,-0.34097111225128174,-0.5412625670433044,-0.31408119201660156,-0.9436872005462646,-0.10395856946706772,-1.621267318725586,-0.4041673541069031,-0.594695508480072
1.24110254886143,-1.2620319037420058,1.7652961333587271,0.5446232557296753,-0.7655119895935059,-0.7643235921859741,-0.30844274163246155,-0.9461415410041809,-0.09838264435529709,-1.5265334844589233,-0.3263651132583618,-0.7049009203910828
1.2514032848372945,-1.283374824938939,1.7776613430432717,0.8033680319786072,-1.1428827047348022,-0.9642087817192078,-0.3011101484298706,-0.9494261741638184,-0.08901021629571915,-1.402533769607544,-0.2686982750892639,-0.7431734800338745
1.2640342535219584,-1.3149108522657664,1.79706359936196,1.0065079927444458,-1.4558064937591553,-1.1375619173049927,-0.2921411097049713,-0.953316330909729,-0.07643014192581177,-1.2686346769332886,-0.210318922996521,-0.7292338013648987
1.2783085267274732,-1.3557098708762816,1.8231492169664465,1.1406028270721436,-1.7041093111038208,-1.2689839601516724,-0.2816914916038513,-0.9575295448303223,-0.06153995171189308,-1.1335307359695435,-0.16475439071655273,-0.6687455773353577
1.2936028350492574,-1.405079963148384,1.8555893415171338,1.2114641666412354,-1.9296846389770508,-1.3787082433700562,-0.26990821957588196,-0.9618272185325623,-0.04514219984412193,-1.0083510875701904,-0.1181287169456482,-0.6002587080001831
1.3094450604289174,-1.4620037790761513,1.8936102673264072,1.2129212617874146,-2.1008126735687256,-1.4722752571105957,-0.2568592131137848,-0.9660416841506958,-0.028055140748620033,-0.9010235071182251,-0.06620019674301147,-0.5455836653709412
1.3254021311850497,-1.5251031218345414,1.936536406236474,1.1641342639923096,-2.1842994689941406,-1.530910849571228,-0.24268577992916107,-0.9700416326522827,-0.011096814647316933,-0.8162590265274048,-0.013433218002319336,-0.4882164001464844
1.3411217495646734,-1.5931696570456253,1.9837224692364752,1.0828343629837036,-2.2349693775177,-1.5731585025787354,-0.22760441899299622,-0.9737405180931091,0.005093118641525507,-0.7343707084655762,0.035462141036987305,-0.440914511680603
1.3564119244711599,-1.6671245405542763,2.036515400577067,1.059205174446106,-2.2421152591705322,-1.6050828695297241,-0.21176019310951233,-0.9771075248718262,0.020461810752749443,-0.6630567312240601,0.09870481491088867,-0.44158899784088135
1.3709880021207397,-1.751437341514507,2.0992339662679558,1.0844707489013672,-2.3422746658325195,-1.624380111694336,-0.19525250792503357,-0.9801046252250671,0.03565932437777519,-0.5910787582397461,0.1713734269142151,-0.5249779224395752
1.3843667385977845,-1.8490419340598887,2.1739836403805586,1.0876009464263916,-2.4993255138397217,-1.6206642389297485,-0.1782224029302597,-0.9826722741127014,0.05091026797890663,-0.4994204044342041,0.26528042554855347,-0.5928412675857544
1.3961954894372797,-1.959290853443216,2.2594545451440573,1.0237022638320923,-2.72628116607666,-1.6068147420883179,-0.16077099740505219,-0.9847959876060486,0.06580295413732529,-0.4200395941734314,0.35117459297180176,-0.613776445388794
1.4065182271102337,-2.0791579708681587,2.352039737947357,0.8799949288368225,-2.9753050804138184,-1.5925047397613525,-0.14285969734191895,-0.9865366816520691,0.07960281521081924,-0.35674360394477844,0.4112192988395691,-0.593595027923584
1.4156724741691362,-2.20449201934449,2.4478364885068005,0.6870718002319336,-3.1431920528411865,-1.5872527360916138,-0.12450581789016724,-0.9879924058914185,0.09148567914962769,-0.30556318163871765,0.4750986695289612,-0.5356079339981079
1.4240062308606682,-2.3339951910578645,2.5466058117034036,0.5316907167434692,-3.187373399734497,-1.5764755010604858,-0.10569490492343903,-0.9892456531524658,0.10110337287187576,-0.27562224864959717,0.519427478313446,-0.49291837215423584
1.4308426469968545,-2.468422332598172,2.650534416764893,0.4678243100643158,-3.090919256210327,-1.5270417928695679,-0.08697276562452316,-0.9902224540710449,0.1090666875243187,-0.22612234950065613,0.5781893134117126,-0.5075345039367676
1.4356406842409668,-2.6065519787024907,2.7592657342441482,0.4355398714542389,-2.9761455059051514,-1.4663488864898682,-0.06870345771312714,-0.9908803701400757,0.11591445654630661,-0.12378618121147156,0.6373189687728882,-0.5084924697875977
1.4385705691996398,-2.74679376054017,2.8710207953842377,0.36828795075416565,-2.906928777694702,-1.4568334817886353,-0.05070921778678894,-0.991270899772644,0.12169945985078812,-0.04311709105968475,0.6791217923164368,-0.47852611541748047
1.4403290999798815,-2.8896183074517454,2.985647707920043,0.2434607893228531,-2.9140713214874268,-1.5007684230804443,-0.03243569657206535,-0.9915012121200562,0.12599025666713715,0.02100684866309166,0.7389376163482666,-0.44148075580596924
1.4414027705927954,-3.038335739980154,3.10602067502108,0.09761450439691544,-2.9427239894866943,-1.606398582458496,-0.01329994946718216,-0.9916403293609619,0.12834635376930237,0.08797645568847656,0.7865468859672546,-0.40219569206237793
1.4414380945220895,3.085265867537144,-3.0465740155739853,-0.01777201145887375,-3.0731401443481445,-1.7630337476730347,0.00726227555423975,-0.9916448593139648,0.12879472970962524,0.14192289113998413,0.7935398817062378,-0.4181469678878784
1.4393423111727703,2.914366490524791,-2.9064924033585036,-0.06088812276721001,-3.3172123432159424,-1.91996169090271,0.029528487473726273,-0.9913723468780518,0.12770769000053406,0.22594942152500153,0.7924739122390747,-0.4591742753982544
1.4337320888808693,2.741275446843308,-2.766417694689218,-0.021272532641887665,-3.492692708969116,-1.9705383777618408,0.05324847623705864,-0.9906213879585266,0.125833198428154,0.34732526540756226,0.7816674709320068,-0.47370290756225586
1.4244434457660793,2.5853799060727454,-2.6440854063339763,0.08146653324365616,-3.4020190238952637,-1.9352713823318481,0.07699504494667053,-0.9893094897270203,0.12384875118732452,0.47694477438926697,0.7189085483551025,-0.432991623878479
1.4122245622044103,2.4573925238191747,-2.547447452764295,0.1933525949716568,-3.0454800128936768,-1.858627438545227,0.09980634599924088,-0.987453818321228,0.12236691266298294,0.5656751990318298,0.624477744102478,-0.3416966199874878
1.3983225532954209,2.357403645614219,-2.474540453026288,0.2501935362815857,-2.5387356281280518,-1.7803523540496826,0.12120697647333145,-0.9851632118225098,0.12150044739246368,0.6231625080108643,0.5198312401771545,-0.21908020973205566
1.3837166638117824,2.2798177210038695,-2.418711701676344,0.268028199672699,-1.9800244569778442,-1.7116779088974,0.1411665380001068,-0.9825515747070312,0.12109667807817459,0.6766587495803833,0.416267454624176,-0.10252655297517776
1.368795369422635,2.220513841319722,-2.3758428481388525,0.3184427320957184,-1.4741524457931519,-1.6352872848510742,0.1597525179386139,-0.979667067527771,0.12137337774038315,0.7601693868637085,0.33858436346054077,-0.033986106514930725
1.353916356723404,2.1766686582975328,-2.3443807966582475,0.3629145920276642,-1.1621991395950317,-1.5346373319625854,0.17688223719596863,-0.9765735864639282,0.12254268676042557,0.874082088470459,0.2650105357170105,-0.01747049391269684
1.3396334432061003,2.1427181479353137,-2.3208164967384617,0.3436630666255951,-1.0411797761917114,-1.4124722480773926,0.19264964759349823,-0.9734006524085999,0.12400535494089127,0.9729081988334656,0.20418983697891235,-0.009854204952716827
1.326690236613692,2.1140370618274615,-2.3019843286601662,0.27223920822143555,-1.0407768487930298,-1.2400027513504028,0.206895649433136,-0.9703537821769714,0.12493256479501724,1.0456984043121338,0.1508345603942871,0.011587992310523987
1.3156894330156959,2.0886372293437665,-2.286889211301348,0.20117877423763275,-1.1068456172943115,-1.024924874305725,0.21926327049732208,-0.9676363468170166,0.12491394579410553,1.0877587795257568,0.0850222110748291,0.019998900592327118
1.3069499976174448,2.0664751283515113,-2.275491496575385,0.13981793820858002,-1.1083180904388428,-0.7820237278938293,0.22940784692764282,-0.9653940200805664,0.12404192984104156,1.0896687507629395,0.03189188241958618,0.015438780188560486
1.3005335243617022,2.0482782894055034,-2.2679050527000735,0.10556565225124359,-1.0535413026809692,-0.5405364632606506,0.23712413012981415,-0.9637007713317871,0.12269146740436554,1.069867491722107,-0.003538668155670166,0.01950538158416748
1.2962489973923568,2.0339879299673527,-2.2635737508365716,0.07288280874490738,-0.9589895009994507,-0.3312183916568756,0.2425452023744583,-0.962548017501831,0.12113437801599503,1.0131158828735352,-0.030570387840270996,0.04375220835208893
1.2938104504155619,2.0228941323694576,-2.261403676032272,0.03196966275572777,-0.8354272246360779,-0.1646733283996582,0.24598488211631775,-0.9618840217590332,0.11946132779121399,0.9437124729156494,-0.05059778690338135,0.07954396307468414
1.2927918007731447,2.0139467385446364,-2.2601742143496546,-0.0007635164074599743,-0.7080059051513672,-0.0556190088391304,0.24792812764644623,-0.9616050124168396,0.11767534166574478,0.8639035224914551,-0.0399819016456604,0.11996518820524216
1.2925370172596853,2.0069199861421194,-2.259587631398104,-0.005917761474847794,-0.5781499743461609,-0.009087271988391876,0.24897101521492004,-0.9615350365638733,0.11603385210037231,0.7583684921264648,-0.02354186773300171,0.145776629447937
1.2925123402804997,2.0011921350532162,-2.259081509714382,-0.023634172976017,-0.4782172441482544,-0.015464477241039276,0.24965327978134155,-0.9615282416343689,0.11461586505174637,0.6589008569717407,-0.013523638248443604,0.15895915031433105
1.2924472148875905,1.9941317656057898,-2.256769904180178,-0.09434765577316284,-0.4998437166213989,-0.05013880878686905,0.25051349401474,-0.9615103602409363,0.11287615448236465,0.5769859552383423,0.001656174659729004,0.1835411787033081
1.292664074833532,1.9832075575392705,-2.2507577295249295,-0.2336738407611847,-0.5312655568122864,-0.03426637127995491,0.2515403926372528,-0.9615699052810669,0.11004916578531265,0.5074775815010071,0.013007283210754395,0.21023297309875488
1.2938751451994976,1.9672955029996713,-2.2400120612427616,-0.4059654772281647,-0.575165331363678,0.028608467429876328,0.25218459963798523,-0.9619017243385315,0.10558280348777771,0.4775364398956299,0.029391467571258545,0.23181959986686707
1.2963425932339787,1.945874907006088,-2.2238419219953545,-0.5888631343841553,-0.5935171842575073,0.09714838117361069,0.252180278301239,-0.9625734090805054,0.09928774833679199,0.40777766704559326,-0.016812145709991455,0.24664439260959625
1.3000259361492597,1.919344842136978,-2.202448132028685,-0.7363473773002625,-0.5840542912483215,0.1843271106481552,0.2513904571533203,-0.9635651111602783,0.09135139733552933,0.3381633758544922,-0.0625578761100769,0.22316300868988037
1.3047492919248522,1.8893527077576853,-2.1773643180510036,-0.8139012455940247,-0.5718469023704529,0.2632264494895935,0.24969208240509033,-0.9648177623748779,0.08234545588493347,0.30525481700897217,-0.06284648180007935,0.1792207956314087
1.3100087111088117,1.8571216237549601,-2.149882213751306,-0.8543696403503418,-0.56745445728302,0.31109100580215454,0.24734465777873993,-0.9661871790885925,0.07282202690839767,0.25172460079193115,-0.06526118516921997,0.126320481300354
1.3154925091982386,1.8231512211962182,-2.120797910751605,-0.8551843166351318,-0.607498049736023,0.34974464774131775,0.24454094469547272,-0.9675866365432739,0.06305533647537231,0.20075631141662598,-0.07106393575668335,0.08561121672391891
1.3208471383012033,1.78864439375242,-2.0915737721318224,-0.8063456416130066,-0.6217015385627747,0.3419835865497589,0.24150876700878143,-0.9689249992370605,0.05346061289310455,0.16530583798885345,-0.06478172540664673,0.03983175754547119
1.3254906851805572,1.7552379571196135,-2.0632803007348377,-0.7309379577636719,-0.5646859407424927,0.2828076183795929,0.23873376846313477,-0.9700631499290466,0.04453864321112633,0.10747291147708893,-0.05520540475845337,-0.015699390321969986
1.3289590765164698,1.7241464489986793,-2.036793121632353,-0.6396813988685608,-0.5096985697746277,0.17627355456352234,0.23667681217193604,-0.9708996415138245,0.036581624299287796,0.04951706528663635,-0.05331617593765259,-0.05507516860961914
1.3309178069927814,1.696064592983605,-2.0127587030347547,-0.5490135550498962,-0.433278352022171,0.05097581446170807,0.23572313785552979,-0.971366822719574,0.02968405932188034,-0.006734475493431091,-0.041145384311676025,-0.09288585186004639
1.3315195008225287,1.671456552251883,-1.9913214849332994,-0.475784569978714,-0.30992498993873596,-0.041647691279649734,0.23580022156238556,-0.9715096354484558,0.023816196247935295,-0.035177648067474365,-0.038851022720336914,-0.11486530303955078
1.3311799241967166,1.6505411676639212,-1.972206673568048,-0.42098575830459595,-0.16906560957431793,-0.10044655948877335,0.2365761250257492,-0.9714291095733643,0.018905818462371826,-0.04428485035896301,-0.05211526155471802,-0.09394848346710205
1.330515493994428,1.6328204622256772,-1.9552603349405233,-0.37299075722694397,-0.07758289575576782,-0.08076836913824081,0.23751813173294067,-0.9712711572647095,0.014750776812434196,-0.029876500368118286,-0.06037557125091553,-0.08280479907989502
1.330118462400243,1.617709242377657,-1.9402129193040436,-0.3328832685947418,-0.03681709244847298,-0.03520195186138153,0.2380993515253067,-0.9711766242980957,0.011178135871887207,-0.00406000018119812,-0.05784565210342407,-0.07180118560791016
1.3301040316484258,1.604279943224172,-1.926807487558096,-0.30697280168533325,-0.0436435341835022,0.005455269943922758,0.23824167251586914,-0.9711731672286987,0.00798017531633377,-0.002935856580734253,-0.05853569507598877,-0.07327234745025635
1.330442981321988,1.5910696213414097,-1.913923203474536,-0.3071376383304596,-0.11009766161441803,0.04260982945561409,0.23799724876880646,-0.9712539315223694,0.004825649317353964,-0.002172619104385376,-0.05399942398071289,-0.06761538982391357
1.331017278107907,1.5767850853235115,-1.9009720966072348,-0.3056142032146454,-0.2283814549446106,0.058824650943279266,0.23748376965522766,-0.9713904857635498,0.0014222499448806047,0.006092295050621033,-0.037200212478637695,-0.06210637092590332
1.3315804055412876,1.5620586051877248,-1.8886198366804465,-0.2741718590259552,-0.3060680031776428,0.05337821692228317,0.2369321882724762,-0.9715240597724915,-0.002070300281047821,3.6835670471191406e-05,-0.02511906623840332,-0.07025623321533203
1.3320468522014075,1.5486849003998107,-1.8780563049994772,-0.21929961442947388,-0.3007691204547882,0.04621357470750809,0.23642995953559875,-0.9716344475746155,-0.005228655878454447,-0.015040189027786255,-0.023970961570739746,-0.07205694913864136
1.3324471024275175,1.5383129333353127,-1.8701892692728668,-0.1470365971326828,-0.2365531325340271,0.040484316647052765,0.23597440123558044,-0.971729040145874,-0.007667946629226208,-0.02264125645160675,-0.026760339736938477,-0.06133216619491577
1.33275026909117,1.531856832305242,-1.8655443640054292,-0.06930550187826157,-0.15225668251514435,0.026018686592578888,0.23562583327293396,-0.9718005657196045,-0.009179790504276752,-0.03263811767101288,-0.027985870838165283,-0.058035075664520264
1.333024690081088,1.5291119393327064,-1.863858827878197,-0.00845519732683897,-0.07263588905334473,0.03662019968032837,0.23533251881599426,-0.9718652367591858,-0.009815377183258533,-0.03442005813121796,-0.03762555122375488,-0.0524708591401577
1.3335007826248615,1.5290525591032844,-1.8643085296938409,0.03078320063650608,-0.02524462714791298,0.057670362293720245,0.23487049341201782,-0.9719772934913635,-0.009810078889131546,-0.02042345702648163,-0.04236602783203125,-0.03698849678039551
1.3341427913983523,1.530340240419446,-1.8657871221127793,0.042070742696523666,-0.013617797754704952,0.060079459100961685,0.23425941169261932,-0.9721279740333557,-0.00948239304125309,-0.024573087692260742,-0.04227632284164429,-0.01784592866897583
1.3346753931175508,1.5316070478414003,-1.867468773859077,0.03951217979192734,-0.05977266654372215,0.0421215295791626,0.2337544560432434,-0.9722527265548706,-0.00916536059230566,-0.03989148139953613,-0.03479701280593872,-0.005803407169878483
1.335109956574903,1.5322649602061258,-1.8690113482114536,0.042335398495197296,-0.11086753755807877,0.03862879425287247,0.2333373725414276,-0.9723542928695679,-0.00899526011198759,-0.036239564418792725,-0.020031630992889404,-0.006095528602600098
1.3355349642280154,1.533046148157544,-1.8712094774648604,0.0664033442735672,-0.15269143879413605,0.044087983667850494,0.2329310178756714,-0.9724534749984741,-0.008797367103397846,-0.014715060591697693,-0.02422010898590088,-0.019888997077941895
1.336184187711161,1.534373831549828,-1.8742179137402653,0.09317956119775772,-0.15416975319385529,0.07304587215185165,0.23231196403503418,-0.9726045727729797,-0.008465125225484371,0.008242875337600708,-0.03667283058166504,-0.024921000003814697
1.3371679894832622,1.5366027648532166,-1.878010293691876,0.10348587483167648,-0.1285172402858734,0.10308640450239182,0.23137366771697998,-0.9728327989578247,-0.007914574816823006,0.018870502710342407,-0.04598128795623779,-0.009175180457532406
1.3384528196651364,1.538772988972961,-1.8814080108082742,0.07583560794591904,-0.09645304083824158,0.13491570949554443,0.23014132678508759,-0.9731294512748718,-0.007372413296252489,0.016578078269958496,-0.05041491985321045,0.013964354991912842
1.3401559204622102,1.539965600909624,-1.8836472489160516,0.0496007576584816,-0.09768053144216537,0.19462983310222626,0.22849337756633759,-0.9735202193260193,-0.007046849466860294,0.03018893301486969,-0.04341721534729004,0.027814209461212158
1.3423880807729884,1.5402372664086241,-1.8849460494796517,0.033392757177352905,-0.0938812717795372,0.2392399162054062,0.22632244229316711,-0.9740280508995056,-0.006918354891240597,0.045116230845451355,-0.04214644432067871,0.024237215518951416
1.3449973154694026,1.5400360876639365,-1.8856589360584115,0.016958113759756088,-0.0822543278336525,0.2643495202064514,0.22377949953079224,-0.9746155142784119,-0.006885682698339224,0.03493328392505646,-0.046945154666900635,0.016178429126739502
1.3477399326391821,1.538848353251342,-1.885413483530389,-0.0044012367725372314,-0.1122838705778122,0.2715890407562256,0.22109830379486084,-0.9752259254455566,-0.0070660472847521305,0.021165505051612854,-0.03405141830444336,0.018403470516204834
1.3504775974465513,1.5367517608335497,-1.884567514715333,-0.0045333425514400005,-0.13558292388916016,0.2723180651664734,0.21841374039649963,-0.9758278727531433,-0.007438675034791231,0.009674638509750366,-0.010378122329711914,0.018272580578923225
1.3532540040418073,1.5348809560913481,-1.8841818623640678,0.021184803918004036,-0.16060146689414978,0.285353422164917,0.2156921625137329,-0.9764308333396912,-0.007749996613711119,0.014105260372161865,0.007543325424194336,-0.005586088635027409
1.3560816428687037,1.5345979013892632,-1.8856092229194434,0.05983371287584305,-0.17439153790473938,0.2828400135040283,0.2129298746585846,-0.977037250995636,-0.0077110943384468555,0.022055551409721375,0.01347506046295166,-0.02630060911178589
1.3587737922758951,1.5355018443300092,-1.8883332103852941,0.06069551035761833,-0.1768174171447754,0.2566792666912079,0.2103072702884674,-0.9776073098182678,-0.0074257696978747845,0.004521280527114868,0.008002638816833496,-0.020223021507263184
1.3610691913986614,1.5359578102323825,-1.890519695528476,0.023340657353401184,-0.1515786498785019,0.21263760328292847,0.20806752145290375,-0.9780877828598022,-0.007251698058098555,-0.017622515559196472,0.01002424955368042,0.017078518867492676
1.3627957046242871,1.5346754708160446,-1.890391679455265,-0.030700471252202988,-0.074985072016716,0.17006883025169373,0.20637066662311554,-0.9784457683563232,-0.007457528728991747,-0.038981661200523376,0.015249669551849365,0.0531424880027771
1.3642680092355215,1.5318849048808534,-1.8878418692479657,-0.0717795267701149,0.013738207519054413,0.15815642476081848,0.20490840077400208,-0.9787487387657166,-0.007977303117513657,-0.03332328796386719,0.004642844200134277,0.0661134123802185
1.3657687484570238,1.528473645479725,-1.883821482569072,-0.09426938742399216,0.07883171737194061,0.16808362305164337,0.20341259241104126,-0.9790553450584412,-0.008614110760390759,-0.009229212999343872,-0.004678845405578613,0.05251377820968628
1.3673770089673123,1.5241918496604514,-1.8785089475448955,-0.12102872133255005,0.09284497797489166,0.180116206407547,0.20180056989192963,-0.9793815612792969,-0.009411625564098358,-0.0007659941911697388,-0.0073738694190979,0.039273202419281006
1.3691168436524481,1.5174780290388177,-1.8708834814392878,-0.16343849897384644,0.049818675965070724,0.2048942595720291,0.20003031194210052,-0.979731559753418,-0.010675393976271152,0.003445640206336975,-0.006215095520019531,0.04007917642593384
1.3710995171213491,1.5080883956951658,-1.8611449729091927,-0.1775289922952652,-0.013737233355641365,0.24271516501903534,0.19798295199871063,-0.9801267385482788,-0.012431399896740913,0.012664660811424255,-0.0007692575454711914,0.03402268886566162
1.373620162905941,1.498008139630063,-1.85111877239571,-0.17803899943828583,-0.029185432940721512,0.27952590584754944,0.19538280367851257,-0.9806236624717712,-0.014246729202568531,0.02333672344684601,-0.007321953773498535,0.012568414211273193
1.3764958425466771,1.4871918187671302,-1.8403673645729157,-0.19270412623882294,-0.023298438638448715,0.3217147886753082,0.19240649044513702,-0.9811829924583435,-0.016123633831739426,0.018805742263793945,-0.01323246955871582,0.0059003811329603195
1.3797380786912197,1.4743011512169983,-1.8276136221364745,-0.2354089766740799,-0.05046774074435234,0.363756000995636,0.1890154629945755,-0.981803834438324,-0.018295902758836746,0.01977059245109558,-0.01863884925842285,0.01744156889617443
1.3833870960000458,1.4578908302755889,-1.8115912502873581,-0.2831064462661743,-0.07775390148162842,0.41789939999580383,0.18512871861457825,-0.9824902415275574,-0.02099132165312767,0.029303088784217834,-0.019676685333251953,0.03168785572052002
1.3874435843228965,1.4379672544839064,-1.7921283949522768,-0.32528001070022583,-0.08280432224273682,0.4653657078742981,0.1807219386100769,-0.9832379221916199,-0.024147311225533485,0.031207427382469177,-0.025658130645751953,0.03957408294081688
1.3917079968750774,1.4141890064389657,-1.7688761538059616,-0.37895479798316956,-0.0946216955780983,0.4884719252586365,0.17595244944095612,-0.9840065240859985,-0.027782946825027466,0.017483234405517578,-0.024401068687438965,0.04757368937134743
1.3959310445986486,1.3859743746169018,-1.7410957413184305,-0.434772789478302,-0.07784590870141983,0.4980885982513428,0.17101311683654785,-0.984749972820282,-0.031971853226423264,0.0007245838642120361,-0.018378138542175293,0.0660906434059143
1.3999641747035465,1.3542083678501309,-1.709520214417991,-0.46389040350914,-0.04687475040555,0.49860212206840515,0.16603152453899384,-0.985443651676178,-0.03653348982334137,-0.011673569679260254,-0.015700936317443848,0.0717509388923645
1.403717248249017,1.3202923373808724,-1.6754036151325453,-0.47445303201675415,-0.015642262995243073,0.4876466989517212,0.16111288964748383,-0.9860747456550598,-0.0412253811955452,-0.013392522931098938,-0.012490987777709961,0.05367666482925415
1.4069599305144602,1.2848887551940633,-1.6396288408376927,-0.4869025647640228,-0.006276383996009827,0.4403212070465088,0.1564842164516449,-0.9866088032722473,-0.04600031301379204,-0.017156168818473816,-0.0036104917526245117,0.038828786462545395
1.4094857785643842,1.248607630237865,-1.6028490659386125,-0.4947628676891327,0.010120166465640068,0.3920615315437317,0.152348592877388,-0.9870176315307617,-0.050857044756412506,-0.026478812098503113,0.006289303302764893,0.031951479613780975
1.4113391693415318,1.2116386924173932,-1.56520297458417,-0.5103411078453064,0.028495104983448982,0.35107073187828064,0.14865194261074066,-0.9873136281967163,-0.055810101330280304,-0.03503495454788208,0.0021449923515319824,0.03147243708372116
1.4125816135481575,1.1735491743866688,-1.5262857917563784,-0.5387352108955383,0.03912351280450821,0.32654327154159546,0.1452876180410385,-0.9875101447105408,-0.0609557218849659,-0.03424936532974243,-0.006783246994018555,0.03377991169691086
1.4132783992586266,1.1336249819122046,-1.4855223554954768,-0.5717766880989075,0.01777195930480957,0.3163502514362335,0.14211465418338776,-0.9876196980476379,-0.06641437858343124,-0.026910781860351562,-0.003057241439819336,0.036492057144641876
1.4135520427249588,1.0904476641277605,-1.4420719345443662,-0.6234750151634216,-0.07927495986223221,0.3304399847984314,0.13887536525726318,-0.9876625537872314,-0.07236158102750778,-0.02094016969203949,-0.00983494520187378,0.030888326466083527
1.4133876419540616,1.042432431060475,-1.3949224301441685,-0.6817302703857422,-0.20791301131248474,0.35339921712875366,0.13538296520709991,-0.9876368045806885,-0.07902593165636063,-0.0016091465950012207,-0.012851536273956299,0.02443009614944458
1.4127119309219807,0.9890877052687128,-1.3436207586121016,-0.7486222386360168,-0.3194595277309418,0.37570345401763916,0.1315341293811798,-0.9875306487083435,-0.08649858087301254,0.015331730246543884,0.0006226897239685059,0.027996547520160675
1.4115173956815605,0.9323495594423933,-1.2897565396125634,-0.7729334235191345,-0.3843880891799927,0.3986658453941345,0.12736409902572632,-0.9873418807983398,-0.09452101588249207,0.021836355328559875,0.0025092363357543945,0.023521974682807922
1.4100371376680287,0.8750746880736119,-1.2358744281360312,-0.7495865821838379,-0.42340099811553955,0.4224705100059509,0.12286637723445892,-0.9871060252189636,-0.10259354114532471,0.02480819821357727,-0.00022912025451660156,0.0004971176385879517
1.4084615489463703,0.8197944275085656,-1.18418395196609,-0.6992297768592834,-0.42260509729385376,0.43383854627609253,0.118147112429142,-0.9868526458740234,-0.11028674244880676,0.02516346424818039,0.0063686370849609375,-0.017383448779582977
1.4067835284202959,0.7679617975083807,-1.1359503232190646,-0.6476742029190063,-0.41869452595710754,0.41446778178215027,0.11342474073171616,-0.9865800142288208,-0.1174507737159729,0.013833574950695038,0.0107346773147583,-0.023006193339824677
1.4048876385419335,0.7201934874430101,-1.0916149509265984,-0.6098378300666809,-0.3804917335510254,0.38882118463516235,0.10892041027545929,-0.9862686991691589,-0.12413851171731949,-0.0034821555018424988,0.011338889598846436,-0.019736461341381073
1.4027453421377898,0.6770583847784225,-1.0515213767988576,-0.567470133304596,-0.3343186378479004,0.35166609287261963,0.10479014366865158,-0.9859126210212708,-0.1303671896457672,-0.0131610706448555,0.012493252754211426,-0.015415146946907043
1.4004497116781744,0.6388641788169795,-1.015899426180645,-0.529176652431488,-0.27870723605155945,0.3105778992176056,0.1010846495628357,-0.9855260848999023,-0.13608965277671814,-0.023798853158950806,0.011206567287445068,-0.011661052703857422
1.3979537872594616,0.6050854223227581,-0.9843017343447481,-0.5038454532623291,-0.2488316297531128,0.2696661651134491,0.09783001989126205,-0.9850998520851135,-0.14144878089427948,-0.03491799533367157,0.00632476806640625,-0.00804150104522705
1.3953298766555111,0.5749390541400909,-0.9561413636649249,-0.4701349437236786,-0.22753478586673737,0.24339762330055237,0.09492705762386322,-0.9846452474594116,-0.14650164544582367,-0.029771998524665833,0.009196579456329346,-0.010480642318725586
1.3928090592488345,0.5482210649672885,-0.9311647762229606,-0.42236581444740295,-0.19346202909946442,0.2281760573387146,0.09227284044027328,-0.9842020273208618,-0.1511034071445465,-0.027636580169200897,0.011789858341217041,-0.023380756378173828
1.390522510909052,0.5239409904532918,-0.9083783410677659,-0.38566920161247253,-0.18043173849582672,0.23527435958385468,0.08970271050930023,-0.983794629573822,-0.15524694323539734,-0.026958540081977844,-0.001251816749572754,-0.03271067142486572
1.3884472653535609,0.5003571734008372,-0.8861775110793381,-0.3681618571281433,-0.16715802252292633,0.25597962737083435,0.0869961604475975,-0.9834204316139221,-0.15911030769348145,-0.015676550567150116,-0.007607460021972656,-0.022667527198791504
1.386562270659021,0.4766894610893755,-0.8637345968854648,-0.3452571630477905,-0.1521444022655487,0.28271403908729553,0.08405694365501404,-0.9830768704414368,-0.16277164220809937,-0.00016408413648605347,-0.0026258230209350586,-0.017419293522834778
1.384866435767711,0.4531274312174057,-0.8413465619033448,-0.32319366931915283,-0.1599101722240448,0.2943864166736603,0.08092810213565826,-0.9827647805213928,-0.16620475053787231,-0.0011398717761039734,-0.0009235739707946777,-0.01821283996105194
1.3832288260069672,0.43043809298525454,-0.8199425340087235,-0.3103507459163666,-0.17147910594940186,0.27441564202308655,0.07780802994966507,-0.9824607372283936,-0.16946052014827728,-0.008578874170780182,0.0032736659049987793,-0.019443154335021973
1.3814911235258482,0.4100136609556585,-0.8009496281293528,-0.2919994294643402,-0.18752598762512207,0.22482891380786896,0.0750112384557724,-0.9821352362632751,-0.17257951200008392,-0.02427574247121811,0.016208112239837646,-0.023068532347679138
1.3796801296681636,0.3925117352277058,-0.7851864254496062,-0.2732372283935547,-0.21667642891407013,0.17651581764221191,0.07265978306531906,-0.9817928075790405,-0.1755092293024063,-0.04639938473701477,0.016918480396270752,-0.026501715183258057
1.3778107402847852,0.377624426702035,-0.7723459482270225,-0.25341159105300903,-0.23422612249851227,0.1364288479089737,0.07071559876203537,-0.981436014175415,-0.17827726900577545,-0.051428474485874176,0.010778605937957764,-0.025305375456809998
1.375985027144391,0.3651754639938231,-0.7619040038193334,-0.22804105281829834,-0.1970944106578827,0.10684406012296677,0.06913062185049057,-0.9810842275619507,-0.18081726133823395,-0.04404515027999878,0.011281251907348633,-0.02621382474899292
1.3742424491092184,0.35427630788035386,-0.7524805820121353,-0.23008236289024353,-0.13260410726070404,0.11140365898609161,0.06774870306253433,-0.9807453751564026,-0.18316291272640228,-0.03811611235141754,0.004137098789215088,-0.02333413064479828
1.3723236048940959,0.3436572552710965,-0.7426772038227097,-0.2613414525985718,-0.07501416653394699,0.1105072945356369,0.06643397361040115,-0.9803688526153564,-0.18564385175704956,-0.03297141194343567,-0.011513590812683105,0.010335743427276611
1.3700103360149458,0.3332807005834612,-0.7328425087333443,-0.3047778606414795,-0.07459951192140579,0.10184003412723541,0.06524569541215897,-0.979910135269165,-0.18846538662910461,-0.035857245326042175,-0.010537922382354736,0.019337117671966553
1.3672425075006458,0.32286790906686363,-0.7229881223865638,-0.3417130410671234,-0.07814411073923111,0.0932168960571289,0.06414026021957397,-0.9793543815612793,-0.19170649349689484,-0.03150167316198349,-0.0030218958854675293,0.01746651530265808
1.3643228670575214,0.3123754211463221,-0.7131022167791367,-0.3276342451572418,-0.08371411263942719,0.10905418545007706,0.0630037933588028,-0.9787599444389343,-0.1950891762971878,-0.02127096801996231,-0.000274658203125,0.0033473074436187744
1.36182580854856,0.30151264344870216,-0.7027888518329161,-0.27092045545578003,-0.07258908450603485,0.14120760560035706,0.061606138944625854,-0.9782450199127197,-0.19809404015541077,-0.005606364458799362,-0.003429114818572998,-0.024287372827529907
1.3601351723151194,0.29052277738954563,-0.6923548038389713,-0.1725238412618637,-0.08642367273569107,0.17188537120819092,0.059899307787418365,-0.9778928756713867,-0.200344055891037,0.008811049163341522,-0.002209782600402832,-0.055362582206726074
1.3595604709634304,0.2795989252771746,-0.6822011460588309,-0.05641532689332962,-0.11299362778663635,0.1960664838552475,0.057862188667058945,-0.9777725338935852,-0.20152606070041656,0.016814343631267548,0.010807812213897705,-0.09428070485591888
1.3601528170734256,0.26937355705580374,-0.6729593685647927,0.06888293474912643,-0.12379753589630127,0.20415930449962616,0.05564458295702934,-0.9778965711593628,-0.20154958963394165,0.016651596873998642,0.018286406993865967,-0.11885437369346619
1.3620318198102994,0.25980509364631305,-0.6647138857759043,0.19691960513591766,-0.18128639459609985,0.2189142107963562,0.05324124917387962,-0.9782876968383789,-0.20029599964618683,0.01737644523382187,0.01695352792739868,-0.14458301663398743
1.3646838434055815,0.250237388506873,-0.6570859034060564,0.22300179302692413,-0.22566556930541992,0.21080408990383148,0.05067986622452736,-0.9788339138031006,-0.19828206300735474,0.017069179564714432,0.018110036849975586,-0.13152126967906952
1.3670225728577907,0.2416024718515288,-0.6504188768483179,0.15743885934352875,-0.19133082032203674,0.15880054235458374,0.04841805249452591,-0.9793098568916321,-0.19648922979831696,-0.009279228746891022,0.010285139083862305,-0.04989433288574219
1.3683703737409747,0.23494244146453047,-0.6452953457057707,0.05225757509469986,-0.1283276230096817,0.10259026288986206,0.046800967305898666,-0.9795817136764526,-0.19552309811115265,-0.04432901367545128,-0.006197094917297363,0.0241975337266922
1.3685725171586993,0.2303640523850201,-0.6413491338495679,-0.04534967616200447,-0.008978324010968208,0.05479131639003754,0.04586009681224823,-0.9796223640441895,-0.1955426037311554,-0.05568672716617584,-0.011481821537017822,0.07533395290374756
1.367924963303008,0.22836947125471588,-0.6388123895547068,-0.0941702127456665,0.10327871143817902,0.011520007625222206,0.0456136092543602,-0.9794920682907104,-0.19625163078308105,-0.05704241618514061,-0.006668210029602051,0.0797966867685318
1.3670109636004675,0.228879553424931,-0.637754133674664,-0.0823879987001419,0.2004634290933609,-0.01382218487560749,0.04591677710413933,-0.9793075323104858,-0.19710002839565277,-0.05240174010396004,-0.00555574893951416,0.05234000086784363
1.3663548384249757,0.23166975908202683,-0.6382307390637691,-0.038331590592861176,0.2588745355606079,-0.034732792526483536,0.046614013612270355,-0.9791745543479919,-0.1975962519645691,-0.042082127183675766,0.008776605129241943,0.012934520840644836
1.3660369620448636,0.2358067249787393,-0.6398064527258223,-0.008993253111839294,0.24861739575862885,-0.041912440210580826,0.04750386252999306,-0.9791099429130554,-0.1977047175168991,-0.026141531765460968,0.017699360847473145,-0.018481671810150146
1.3659481761051107,0.23945630326211018,-0.6413677890466685,0.007781464606523514,0.17171703279018402,-0.0241725891828537,0.04824583977460861,-0.9790918827056885,-0.19761504232883453,0.0019708722829818726,0.01832205057144165,-0.028275996446609497
1.3660023576660807,0.2415233770106899,-0.6420903532867943,0.013744911178946495,0.10119452327489853,-0.0033558537252247334,0.0486416220664978,-0.9791029095649719,-0.1974637359380722,0.026172257959842682,0.016425728797912598,-0.03125014901161194
1.3661393995747286,0.24209783642483373,-0.6418631271297003,0.007433219347149134,0.062287867069244385,0.015907855704426765,0.04872264340519905,-0.979130744934082,-0.19730453193187714,0.03149283304810524,0.012425422668457031,-0.028586432337760925
1.3662761032311326,0.24119122823418288,-0.6402797715145789,-0.002585336100310087,0.0733874961733818,0.05133800208568573,0.04851194843649864,-0.9791585206985474,-0.1972193717956543,0.033351488411426544,0.008577287197113037,-0.01522865891456604
1.366434684736959,0.23840401342525228,-0.6364170216163734,-0.014959447085857391,0.12191163003444672,0.10371971875429153,0.047925326973199844,-0.9791907072067261,-0.1972026377916336,0.052843742072582245,-0.004467189311981201,-0.008470475673675537
1.3664909005384287,0.23331025378172313,-0.6297327241271875,-0.04896213114261627,0.16353045403957367,0.15703636407852173,0.046907439827919006,-0.979202151298523,-0.19739046692848206,0.06608392298221588,-0.017883479595184326,-0.0005311369895935059
1.3661557165079703,0.22556888547786338,-0.6200717960285903,-0.10699108242988586,0.18166232109069824,0.2034296989440918,0.04545138031244278,-0.9791340827941895,-0.1980675458908081,0.07108001410961151,-0.022788584232330322,0.016900062561035156
1.3652839073013932,0.21549381731545333,-0.6078258798078824,-0.16740073263645172,0.20353490114212036,0.23989461362361908,0.043636057525873184,-0.9789565205574036,-0.19934913516044617,0.07602338492870331,-0.018159568309783936,0.028130367398262024
1.3638137287088055,0.20370878740745657,-0.5935842889984081,-0.23779313266277313,0.22508946061134338,0.2692716717720032,0.04157494753599167,-0.9786554574966431,-0.20125919580459595,0.07048563659191132,-0.01681286096572876,0.02970471978187561
1.3616386900932813,0.18972683102619808,-0.5770030052022713,-0.31546464562416077,0.21881769597530365,0.3243187367916107,0.03915831819176674,-0.9782061576843262,-0.2039107233285904,0.07484012842178345,-0.025837600231170654,0.026924103498458862
1.358798469877135,0.17209852360746228,-0.5568309492636782,-0.38706931471824646,0.20000725984573364,0.4098048806190491,0.03603338822722435,-0.9776124954223633,-0.20730531215667725,0.10765865445137024,-0.033465445041656494,0.01391555368900299
1.35534708612824,0.15030303722424873,-0.5324570851757072,-0.4528670310974121,0.20558878779411316,0.505404531955719,0.03201191499829292,-0.9768804311752319,-0.21137623488903046,0.13993939757347107,-0.03312939405441284,-0.0011633038520812988
1.3513582520657637,0.12495753653465082,-0.5042052166626135,-0.4961305856704712,0.2513256371021271,0.5842903256416321,0.027130160480737686,-0.9760199189186096,-0.2159838229417801,0.1507568210363388,-0.03771299123764038,-0.011738225817680359
1.346933184800524,0.09792472496249813,-0.47349583414974145,-0.5267601609230042,0.33382120728492737,0.6525688171386719,0.021704373881220818,-0.9750471115112305,-0.22093452513217926,0.14478428661823273,-0.03908252716064453,-0.02302287518978119
1.3421166323908549,0.0703706952414696,-0.44118461365439077,-0.5477139353752136,0.45928511023521423,0.702398419380188,0.01593928597867489,-0.9739665389060974,-0.22613058984279633,0.13262030482292175,-0.03744703531265259,-0.025273069739341736
1.3370368502782501,0.04371984519566547,-0.40815882406773324,-0.54935222864151,0.6502451300621033,0.7458587884902954,0.010123911313712597,-0.972802460193634,-0.2314157336950302,0.11966737359762192,-0.03661245107650757,-0.01411333680152893
1.3318043290621246,0.018988060044749486,-0.3748182445106411,-0.5462009310722351,0.8867085576057434,0.778691828250885,0.0044946433044970036,-0.9715771079063416,-0.23668046295642853,0.10007385909557343,-0.03396183252334595,0.0049301087856292725
1.3263332968679185,-0.0030402659073904474,-0.3414422857853013,-0.5576984286308289,1.1887890100479126,0.8049520254135132,-0.0007358519360423088,-0.9702674150466919,-0.2420346438884735,0.07536660879850388,-0.03583616018295288,0.029174625873565674
1.3205014581843453,-0.021545299448297615,-0.30832788826623037,-0.584446132183075,1.5215206146240234,0.8217664361000061,-0.005336144007742405,-0.9688394069671631,-0.24763259291648865,0.05462205037474632,-0.03633338212966919,0.06008690595626831
1.3142246836150997,-0.0358643213800237,-0.27620899722501746,-0.6192905306816101,1.8136732578277588,0.8149508833885193,-0.009099193848669529,-0.9672656655311584,-0.2536028027534485,0.026372160762548447,-0.026722431182861328,0.07740971446037292
1.3074616752969894,-0.046180798132474395,-0.24565025000791674,-0.6641519665718079,1.9996161460876465,0.8028654456138611,-0.012016678228974342,-0.965527355670929,-0.26002439856529236,-0.0014262981712818146,-0.017352402210235596,0.0787653923034668
1.3001528922767411,-0.05348618385502238,-0.21697353864013708,-0.7168546319007874,2.037950277328491,0.7749435901641846,-0.014292794279754162,-0.9635990858078003,-0.2669691741466522,-0.02254190668463707,-0.009057164192199707,0.06221160292625427
1.2922975712121993,-0.05871368451680161,-0.19058286743990163,-0.76730877161026,1.9803850650787354,0.7366675734519958,-0.016131874173879623,-0.9614692330360413,-0.27443912625312805,-0.04473542422056198,0.003827512264251709,0.03147357702255249
1.283932979730244,-0.06227969583505904,-0.16666115713760962,-0.8161352276802063,1.8823078870773315,0.6947488784790039,-0.017610343173146248,-0.9591360688209534,-0.282396525144577,-0.06019420921802521,0.01994234323501587,0.004701942205429077
1.2751006018903404,-0.06498869085530498,-0.1448754255042912,-0.8628862500190735,1.730154275894165,0.6659766435623169,-0.018924765288829803,-0.9565996527671814,-0.2907908260822296,-0.0768393874168396,0.030772387981414795,-0.015971750020980835
1.2657376768245605,-0.06804218218787429,-0.12480371064491741,-0.916363000869751,1.4714475870132446,0.636061429977417,-0.02042066864669323,-0.9538293480873108,-0.299654483795166,-0.08021104335784912,0.03889697790145874,-0.031293272972106934
1.2558929847746136,-0.07194226583336218,-0.10656774805282725,-0.9615634679794312,1.2182003259658813,0.6061610579490662,-0.022263094782829285,-0.9508263468742371,-0.30892372131347656,-0.07923836261034012,0.06628948450088501,-0.05124467611312866
1.245567666864941,-0.07677294832081519,-0.08968064726459281,-1.0112203359603882,1.0243966579437256,0.6034290194511414,-0.024506840854883194,-0.947577714920044,-0.31858450174331665,-0.06562682241201401,0.1069709062576294,-0.0608099102973938
1.2347923643362135,-0.08187206836548377,-0.07333439217451511,-1.0386936664581299,1.0842972993850708,0.6239162087440491,-0.026964468881487846,-0.9440797567367554,-0.3286125957965851,-0.08041162043809891,0.10350364446640015,-0.06806999444961548
1.2239243244257194,-0.08567754818215904,-0.05724513585870761,-1.0249247550964355,1.1622536182403564,0.6192496418952942,-0.029091136530041695,-0.9404407143592834,-0.3387109041213989,-0.14421819150447845,0.025981426239013672,-0.057559698820114136
1.2131732703955902,-0.08722669518575911,-0.04283464373027811,-1.0241748094558716,1.23776113986969,0.5446145534515381,-0.03049487993121147,-0.9367315173149109,-0.3487177789211273,-0.2593153119087219,-0.06104075908660889,-0.06128573417663574
1.202374236601252,-0.08493948055729406,-0.03142175039005622,-1.052918553352356,1.3424885272979736,0.44105637073516846,-0.0305536650121212,-0.9328967928886414,-0.3588455021381378,-0.296640545129776,-0.09061706066131592,-0.05097493529319763
1.1914002422650503,-0.07871057859866813,-0.023207536659061966,-1.0775080919265747,1.4215577840805054,0.33218395709991455,-0.029121149331331253,-0.9288884997367859,-0.3692132234573364,-0.28600335121154785,-0.06496232748031616,-0.03296256065368652
1.1804120153229494,-0.06909739731921624,-0.017765143213219335,-1.0681072473526,1.509894847869873,0.23680730164051056,-0.026273688301444054,-0.9247629046440125,-0.3796360194683075,-0.2732105553150177,-0.0190696120262146,-0.04670971632003784
1.1698267060809138,-0.057442643959294874,-0.013024916031237026,-1.0030163526535034,1.6928998231887817,0.26789623498916626,-0.02240818925201893,-0.920682966709137,-0.3896676003932953,-0.24256068468093872,0.03442192077636719,-0.10023096203804016
1.1604717878712296,-0.045948570941419443,-0.0064998591283850675,-0.8168115615844727,1.7671221494674683,0.3418220579624176,-0.01832275278866291,-0.9169914126396179,-0.3984858989715576,-0.19879455864429474,0.08560097217559814,-0.14576444029808044
1.1535289227389875,-0.03643396625952569,0.0021720725835021734,-0.5300799012184143,1.7145286798477173,0.4105185866355896,-0.014762112870812416,-0.9141997694969177,-0.4049951732158661,-0.19893723726272583,0.0460813045501709,-0.16237235069274902
