attitudeX,attitudeY,attitudeZ,gyroX,gyroY,gyroZ,gravityX,gravityY,gravityZ,accX,accY,accZ
1.3586322436354235,0.06785139150811327,0.010571951667126787,0.32849717140197754,-0.16035114228725433,0.005462362430989742,0.014276928268373013,-0.9775775074958801,-0.21009166538715363,-0.018122151494026184,-0.0020978450775146484,-0.13370400667190552
1.3622437476259368,0.06508324489583159,0.011378938371454768,0.3816453218460083,-0.22127653658390045,0.07804469019174576,0.01346560101956129,-0.9783316254615784,-0.2066059112548828,0.05793027579784393,-0.026398658752441406,-0.09420573711395264
1.3662407718409741,0.05857306844454356,0.015971894714411145,0.3917509615421295,-0.17061834037303925,0.16310152411460876,0.011891260743141174,-0.9791513681411743,-0.20278361439704895,0.11240682005882263,-0.027440428733825684,-0.07163034379482269
1.3701262626793638,0.04810964152682148,0.025261963658815955,0.3562837839126587,-0.10260545462369919,0.25356483459472656,0.009585833176970482,-0.9799332618713379,-0.19909599423408508,0.15967990458011627,-0.048051536083221436,-0.040894120931625366
1.3735884178101783,0.03298651318696455,0.04003719257089618,0.30858296155929565,-0.022333167493343353,0.35769301652908325,0.006461946293711662,-0.9806174635887146,-0.19582556188106537,0.208076611161232,-0.08111965656280518,-0.011892184615135193
1.3764303201467742,0.012997229535260096,0.06062963247390938,0.23856444656848907,0.06304777413606644,0.4546957314014435,0.0025102796498686075,-0.9811702966690063,-0.19312873482704163,0.24297311902046204,-0.09710735082626343,-0.001069784164428711
1.3785395777514702,-0.01208490201139451,0.0870696647393728,0.18216535449028015,0.1057191789150238,0.5600655674934387,-0.0023090620525181293,-0.9815755486488342,-0.19106067717075348,0.26683542132377625,-0.09244483709335327,0.0003869682550430298
1.3799358018310062,-0.04328404842759874,0.12000839719637717,0.13554272055625916,0.11645464599132538,0.6831310391426086,-0.00820859707891941,-0.9818413257598877,-0.18952640891075134,0.30010920763015747,-0.0854194164276123,-0.0019712448120117188
1.3807805611694608,-0.08158820521479676,0.16004565497614767,0.13424326479434967,0.08574920892715454,0.8175873756408691,-0.015392876230180264,-0.9820012450218201,-0.18824665248394012,0.33422523736953735,-0.08146011829376221,-0.01274198293685913
1.381291031503237,-0.12806719325789967,0.20831150213910007,0.15392988920211792,0.11118213832378387,0.9813219308853149,-0.02405865490436554,-0.9820975661277771,-0.18683145940303802,0.37620097398757935,-0.073688805103302,-0.037213221192359924
1.3812442872896176,-0.18408784452933816,0.26685958107443797,0.1803821176290512,0.1800689399242401,1.1947021484375,-0.03448997437953949,-0.9820887446403503,-0.18523485958576202,0.4197591245174408,-0.05991858243942261,-0.05936339497566223
1.3804813239301448,-0.2515971992689426,0.33741441687743917,0.25287896394729614,0.15807442367076874,1.4309349060058594,-0.04709366336464882,-0.9819446802139282,-0.1832124888896942,0.4534657299518585,-0.04349172115325928,-0.07783471047878265
1.3789194096674333,-0.3315906256724707,0.4199012693804267,0.3431991636753082,0.03009873628616333,1.6450186967849731,-0.06208232790231705,-0.9816480278968811,-0.18031302094459534,0.44767192006111145,-0.01981675624847412,-0.08929435908794403
1.3759641539470213,-0.42119484725859097,0.5106752677709004,0.3801603615283966,-0.13396184146404266,1.796043872833252,-0.07915442436933517,-0.981080174446106,-0.17668142914772034,0.3929513990879059,0.01616007089614868,-0.0769195407629013
1.3709949087986364,-0.5147751182466013,0.6040175318951759,0.3811730146408081,-0.26679909229278564,1.900838851928711,-0.09771686047315598,-0.980105996131897,-0.17275306582450867,0.3251491189002991,0.030246376991271973,-0.0420447438955307
1.3639126648313973,-0.6072764232285492,0.6954698392067424,0.38419702649116516,-0.3040918707847595,1.9584195613861084,-0.1172141432762146,-0.9786757826805115,-0.16868437826633453,0.2820090651512146,0.02732086181640625,-0.02436964213848114
1.3550650420388333,-0.6936888242302912,0.7811667800196229,0.37859275937080383,-0.1954554319381714,1.9533449411392212,-0.13686658442020416,-0.9768201112747192,-0.16459080576896667,0.23905467987060547,0.04269224405288696,-0.024007678031921387
1.3448322960016037,-0.7693769633788063,0.8579957183773029,0.3432254493236542,0.06783957779407501,1.9039126634597778,-0.155866339802742,-0.9745785593986511,-0.1609424352645874,0.2083107829093933,0.05375635623931885,-0.027900218963623047
1.333529987926051,-0.8335195015505877,0.9261914524269197,0.33765140175819397,0.3842352330684662,1.8912941217422485,-0.17400574684143066,-0.9719841480255127,-0.15801607072353363,0.22725889086723328,0.054839253425598145,-0.042789459228515625
1.3213497960662428,-0.8884188859779598,0.9887196142975516,0.3590666949748993,0.7795007824897766,1.9166862964630127,-0.1915883868932724,-0.9690492153167725,-0.1556849330663681,0.2858876585960388,0.058969080448150635,-0.06614722311496735
1.3080493796486827,-0.9362949947682362,1.048268252268972,0.39799192547798157,1.1532769203186035,2.0330123901367188,-0.20918159186840057,-0.9656801223754883,-0.15396429598331451,0.3645160496234894,0.08358478546142578,-0.08608679473400116
1.2929587263861155,-0.9795186787161363,1.1067389831148484,0.41357114911079407,1.4525730609893799,2.230114698410034,-0.22771301865577698,-0.9616507887840271,-0.1528882533311844,0.4742187261581421,0.10540378093719482,-0.09329694509506226
1.2752570356283561,-1.018795827616088,1.1638558958474368,0.3786126971244812,1.6133838891983032,2.4852471351623535,-0.24799762666225433,-0.9566451907157898,-0.15273208916187286,0.548763632774353,0.1412612795829773,-0.0697866678237915
1.2543599537137113,-1.0550516596798696,1.2185315391535565,0.32270175218582153,1.5211700201034546,2.782806158065796,-0.27070510387420654,-0.9503504037857056,-0.1534695327281952,0.5862263441085815,0.18324530124664307,-0.03244338929653168
1.2297867491711765,-1.0897947616338532,1.2699017950949496,0.2305387705564499,1.223610281944275,3.1090831756591797,-0.29649052023887634,-0.9424175024032593,-0.1547338217496872,0.5922669172286987,0.23459285497665405,0.006708458065986633
1.201243155216182,-1.1238829996321615,1.3171836261853127,0.15919268131256104,0.8027372360229492,3.4429116249084473,-0.3257238566875458,-0.9324888586997986,-0.15610440075397491,0.5732214450836182,0.2935117483139038,0.036811307072639465
1.1691126650984462,-1.158165581938434,1.3602079806196268,0.10073404759168625,0.3150032162666321,3.7152762413024902,-0.358154296875,-0.9204040169715881,-0.15678651630878448,0.5201416015625,0.34353017807006836,0.04913586378097534
1.1340689332076392,-1.191957495821182,1.3983043925965084,0.06235736608505249,-0.09839766472578049,3.913651943206787,-0.39298516511917114,-0.9061407446861267,-0.15643440186977386,0.43850207328796387,0.39138543605804443,0.06366103887557983
1.0970920965135993,-1.2244234271922094,1.431867101148902,0.0789811760187149,-0.33288416266441345,4.008589267730713,-0.42909303307533264,-0.8898845911026001,-0.15486976504325867,0.33606016635894775,0.3913493752479553,0.0651940107345581
1.0593660877241002,-1.2540378511405064,1.461620127939698,0.12488368153572083,-0.3194924294948578,4.002884864807129,-0.4650760591030121,-0.8720453977584839,-0.15244996547698975,0.20320475101470947,0.37578386068344116,0.04919387400150299
1.0219826757880741,-1.2792181381032868,1.4878100724179506,0.15833920240402222,-0.1907544732093811,3.8836257457733154,-0.49965617060661316,-0.8531439900398254,-0.14996296167373657,0.04918619990348816,0.3727515935897827,0.03309603035449982
0.9857225150791227,-1.299650356046924,1.5104203497275097,0.15921670198440552,-0.09300155192613602,3.736470937728882,-0.5320839285850525,-0.8336713314056396,-0.14791522920131683,-0.11194378137588501,0.3435284495353699,0.04008150100708008
0.9505592705904241,-1.3164208766249321,1.5298906395911411,0.14012941718101501,-0.0599917471408844,3.607191801071167,-0.5625247359275818,-0.8137406706809998,-0.14626085758209229,-0.2689725160598755,0.31177228689193726,0.056997060775756836
0.9163388409949806,-1.330844011563996,1.5464358251610866,0.09592893719673157,-0.199520081281662,3.4883978366851807,-0.5912885069847107,-0.7933782935142517,-0.14466829597949982,-0.4393816590309143,0.3006414771080017,0.05717451870441437
0.8833899008201405,-1.3460223160089952,1.5606916454272592,0.122443787753582,-0.6228910088539124,3.290269613265991,-0.6185727119445801,-0.7728943228721619,-0.14142894744873047,-0.6835818290710449,0.28914493322372437,0.02566063404083252
0.8530522009707979,-1.3647847708639362,1.5737561923946775,0.23835280537605286,-1.1209901571273804,2.9334771633148193,-0.6437800526618958,-0.7532913088798523,-0.1345347911119461,-1.006915807723999,0.24467003345489502,-0.027833878993988037
0.8276596934634067,-1.3872251635126969,1.5860722486368888,0.3926538825035095,-1.502072811126709,2.333909034729004,-0.6652329564094543,-0.7363499402999878,-0.12350805103778839,-1.315708875656128,0.21080660820007324,-0.09330393373966217
0.8090450759012938,-1.4122232932787566,1.5982490956549285,0.6105062961578369,-1.671693205833435,1.580912470817566,-0.6815304756164551,-0.7236284017562866,-0.10898740589618683,-1.5992465019226074,0.23557603359222412,-0.14217215776443481
0.7989584182400626,-1.4377879403026737,1.6108166787478464,0.808090090751648,-1.5997105836868286,0.6465207934379578,-0.6912934184074402,-0.7166300415992737,-0.09249391406774521,-1.836401343345642,0.2607278823852539,-0.16051191091537476
0.7985891222238356,-1.4619852525106103,1.6235952847162982,0.9344800114631653,-1.3842509984970093,-0.37075477838516235,-0.6935919523239136,-0.7163724303245544,-0.07576975226402283,-2.0187952518463135,0.2729213833808899,-0.1413169503211975
0.8087180697847547,-1.4835104742707157,1.6361087752712216,0.9658185839653015,-1.1192456483840942,-1.4718374013900757,-0.6877979636192322,-0.7234026789665222,-0.06018796190619469,-2.1541666984558105,0.2968127727508545,-0.08962273597717285
0.8296575773627545,-1.5019150387924072,1.6473969636592531,0.8731334209442139,-0.9204064607620239,-2.557069778442383,-0.6735275983810425,-0.7377002239227295,-0.04646696150302887,-2.198085069656372,0.3530413508415222,-0.011272195726633072
0.8605717989346087,-1.5172679820545123,1.656426699302151,0.6869217157363892,-0.8042622208595276,-3.4978187084198,-0.651070237159729,-0.7582154870033264,-0.03488403558731079,-2.1202921867370605,0.42279672622680664,0.06146496534347534
0.8999113829938701,-1.5301130809520957,1.6627268137325264,0.4823206663131714,-0.8061975240707397,-4.276991844177246,-0.6211652159690857,-0.783271849155426,-0.025284968316555023,-1.9603779315948486,0.4820631742477417,0.10287606716156006
0.9460919571537897,-1.541783344730671,1.6666098252729196,0.31029313802719116,-0.9163526892662048,-4.888084888458252,-0.5846113562583923,-0.8111360669136047,-0.0169660784304142,-1.7599472999572754,0.561242938041687,0.11193692684173584
0.9975790981819098,-1.5536507195011782,1.668676640096431,0.1632070243358612,-1.1169068813323975,-5.350534439086914,-0.5422580242156982,-0.8401604890823364,-0.009298253804445267,-1.5369045734405518,0.6549952030181885,0.08891874551773071
1.0530405321786134,-1.5666593200257952,1.669455184783618,0.0395110547542572,-1.3437223434448242,-5.690028667449951,-0.49492692947387695,-0.8689320683479309,-0.002047527814283967,-1.329261302947998,0.7335562705993652,0.04976189136505127
1.111469444472915,-1.5810529575794054,1.6694074396934322,-0.07902410626411438,-1.5172733068466187,-5.950348377227783,-0.4433215856552124,-0.8963510990142822,0.004547145217657089,-1.145530343055725,0.8110697865486145,0.0059205288998782635
1.1720994628346761,-1.5953969737820848,1.6684600613398248,-0.21385587751865387,-1.4819327592849731,-6.127877235412598,-0.38810041546821594,-0.9215676784515381,0.009549448266625404,-0.9850990772247314,0.8889443874359131,-0.03318524360656738
1.2344783910417154,-1.6063739555319516,1.6656714208529049,-0.3608655631542206,-1.202938437461853,-6.296577453613281,-0.3298049867153168,-0.9439761638641357,0.011738631874322891,-0.8283066153526306,0.974157989025116,-0.06384730339050293
1.29864608768727,-1.6117005262868538,1.6603071607260154,-0.43529999256134033,-0.8893177509307861,-6.470547199249268,-0.2685789167881012,-0.9631951451301575,0.010992136783897877,-0.6949831247329712,1.0251761674880981,-0.09204661846160889
1.3644770352018545,-1.612783893747967,1.6535825959335526,-0.4206866919994354,-0.6317626237869263,-6.622785568237305,-0.20467838644981384,-0.9787915945053101,0.008599000982940197,-0.5855438113212585,1.028672456741333,-0.12360429763793945
1.4315473755032055,-1.610860979811992,1.6463609967569484,-0.3788969814777374,-0.4154989719390869,-6.717529773712158,-0.13868902623653412,-0.9903205037117004,0.005559503100812435,-0.47520262002944946,1.0414679050445557,-0.14917516708374023
1.499151457812937,-1.6036605711176164,1.6355040822914266,-0.3425073027610779,-0.3238449692726135,-6.730349063873291,-0.07154586911201477,-0.9974346160888672,0.0023521478287875652,-0.35203811526298523,1.0724315643310547,-0.15440583229064941
1.5662127297775688,-1.3700052514546348,1.3983346406826176,-0.3400595784187317,-0.3819330334663391,-6.632588863372803,-0.004501539748162031,-0.9999895095825195,-0.0009162152418866754,-0.21426373720169067,1.086644172668457,-0.14314186573028564
1.50968521176607,1.4956200825159727,-1.4719543291439887,-0.36493244767189026,-0.5555546283721924,-6.407023906707764,0.06090262532234192,-0.9981333017349243,-0.004587075207382441,-0.050984419882297516,1.0806832313537598,-0.13658714294433594
1.4471552433155852,1.4984004617851645,-1.4818527023534571,-0.36462363600730896,-0.8747060894966125,-6.0226664543151855,0.12300455570220947,-0.9923661947250366,-0.008920610882341862,0.13958394527435303,1.045649766921997,-0.15334123373031616
1.3892962493819099,1.4935736603376106,-1.4880592958225876,-0.295992374420166,-1.3165258169174194,-5.477395057678223,0.17996840178966522,-0.9835740327835083,-0.013925330713391304,0.33074331283569336,0.959861695766449,-0.1829129457473755
1.3374985798519223,1.4855301063056856,-1.495728207554885,-0.23211480677127838,-1.7797430753707886,-4.835443496704102,0.2303476482629776,-0.9729092717170715,-0.01968860998749733,0.5232992172241211,0.8522427082061768,-0.21303832530975342
1.292383337436669,1.472221587295317,-1.5023870727944872,-0.2686677575111389,-2.1370298862457275,-4.151758193969727,0.27349647879600525,-0.9614928364753723,-0.02704750932753086,0.6890737414360046,0.723608136177063,-0.20935678482055664
1.2539311383175478,1.4525010659001563,-1.5050614858436036,-0.41565296053886414,-2.2771494388580322,-3.491624593734741,0.3094116449356079,-0.9502168297767639,-0.03677362576127052,0.8170379400253296,0.5810152292251587,-0.17610162496566772
1.2213520843468357,1.426856521273906,-1.5021592143777076,-0.6199270486831665,-2.2925314903259277,-2.943484306335449,0.33883488178253174,-0.9395631551742554,-0.04911147430539131,0.8868578672409058,0.46748673915863037,-0.14691805839538574
1.1930573941499607,1.3962661731118873,-1.4942163306483873,-0.8273144364356995,-2.326166868209839,-2.554485559463501,0.3632170557975769,-0.929500937461853,-0.06404393166303635,0.8934357762336731,0.38203078508377075,-0.139462411403656
1.1674946158120683,1.3622635844032256,-1.4826122167294775,-1.0000139474868774,-2.2982494831085205,-2.2948343753814697,0.3839552104473114,-0.9197702407836914,-0.08124838024377823,0.8889177441596985,0.32081693410873413,-0.16048121452331543
1.1436066415507613,1.327940330002854,-1.4695643591813776,-1.069946527481079,-2.1525912284851074,-2.1225619316101074,0.4021570384502411,-0.9101337194442749,-0.09963274002075195,0.9191015362739563,0.27523064613342285,-0.225455641746521
1.1209493040871354,1.297121297102325,-1.458116431973467,-1.0019174814224243,-1.9145228862762451,-2.0020480155944824,0.41864556074142456,-0.9005136489868164,-0.11752163618803024,0.9906409978866577,0.23387235403060913,-0.3318190574645996
1.0996258486016974,1.273288786605416,-1.4510131083499611,-0.7835690379142761,-1.5514572858810425,-1.8995964527130127,0.43398866057395935,-0.8910375833511353,-0.1330641359090805,1.1049213409423828,0.19369560480117798,-0.44419097900390625
1.0800716605487362,1.2592843843276067,-1.4501976846567135,-0.44670793414115906,-1.0870192050933838,-1.7898443937301636,0.4485839605331421,-0.8819915652275085,-0.14444196224212646,1.238534688949585,0.15939635038375854,-0.5414252281188965
1.0630883136497988,1.2557846105611112,-1.4560355092550603,-0.06754259765148163,-0.6451060771942139,-1.592044711112976,0.4622521996498108,-0.8738611340522766,-0.1506306231021881,1.4057440757751465,0.12135869264602661,-0.5957071781158447
1.0496027520882996,1.2608986169486136,-1.4671961824540818,0.2694418132305145,-0.2736898958683014,-1.29339599609375,0.47419726848602295,-0.8672255277633667,-0.15184494853019714,1.5973817110061646,0.1044539213180542,-0.5909222364425659
1.0402130487936416,1.2720265442237269,-1.4813713795176753,0.5086630582809448,0.03886116296052933,-0.9073247909545898,0.4836185872554779,-0.8625120520591736,-0.14894911646842957,1.7663508653640747,0.11460262537002563,-0.5294564962387085
1.0355129605032318,1.2867491281341032,-1.49655790877911,0.6871169209480286,0.2924942374229431,-0.4193969666957855,0.4896450340747833,-0.8601241111755371,-0.14294761419296265,1.9215182065963745,0.12489473819732666,-0.4358028471469879
1.0364533228013177,1.304094593992646,-1.5114635362353932,0.8126099109649658,0.6189275979995728,0.20415671169757843,0.49127084016799927,-0.860603392124176,-0.13422033190727234,2.0806896686553955,0.1372755765914917,-0.3404194116592407
1.0441218901449145,1.3241478789913559,-1.524973239676353,0.8867930769920349,1.0694020986557007,0.9426960349082947,0.48744893074035645,-0.8644834756851196,-0.1227274015545845,2.227562665939331,0.16025978326797485,-0.25163161754608154
1.0593741654004778,1.3470922817311877,-1.536546565640665,0.9281338453292847,1.4833661317825317,1.7528748512268066,0.4772230088710785,-0.8720493316650391,-0.10857392847537994,2.3114123344421387,0.2082766890525818,-0.1691969633102417
1.0826169871183065,1.3712844487278981,-1.5456382955972703,0.8792352676391602,1.7276147603988647,2.598940134048462,0.4597151279449463,-0.8831882476806641,-0.09295527637004852,2.326402425765991,0.2645358443260193,-0.07759207487106323
1.1140267469264336,1.3937220964511863,-1.5508790705040518,0.747378945350647,1.8022363185882568,3.457028388977051,0.43415480852127075,-0.8974819779396057,-0.07769134640693665,2.291278600692749,0.33560752868652344,0.01719033718109131
1.153259795578753,1.4117680917703244,-1.5507857113829926,0.5405203104019165,1.811402678489685,4.241207122802734,0.4003932476043701,-0.9140906929969788,-0.06421608477830887,2.1742680072784424,0.4315314292907715,0.0937725305557251
1.1992580975424585,1.4229738244080707,-1.5431200433308592,0.2756503224372864,1.8349499702453613,4.893195629119873,0.35909003019332886,-0.9317699670791626,-0.0534716360270977,1.9800517559051514,0.5280376076698303,0.13686102628707886
1.2506884445341944,1.4245427956727996,-1.5248447056905987,0.007480120752006769,1.9160027503967285,5.414973258972168,0.3113097846508026,-0.9492014646530151,-0.045857589691877365,1.750274658203125,0.6144998669624329,0.1330006718635559
1.3063954507393005,1.4123809335474902,-1.4915835242033977,-0.1984158754348755,2.0054571628570557,5.841805458068848,0.25805890560150146,-0.965249240398407,-0.041225939989089966,1.522748589515686,0.6982051730155945,0.06985151767730713
1.3653646654919458,1.3778890509099615,-1.4351563218636791,-0.3209995627403259,2.06246280670166,6.176449775695801,0.20020687580108643,-0.9789730310440063,-0.039107680320739746,1.3085211515426636,0.784728467464447,-0.0322880782186985
1.4261523635920748,1.2964475001779932,-1.3310793655938713,-0.3861820697784424,2.148597240447998,6.425790309906006,0.13875022530555725,-0.9895572662353516,-0.03905065730214119,1.1052988767623901,0.8692874312400818,-0.13746285438537598
1.4856869050529593,1.0721314921179597,-1.083213501288094,-0.40282389521598816,2.240232229232788,6.604762077331543,0.07465582340955734,-0.9963803887367249,-0.04065532982349396,0.9268090128898621,0.9545102119445801,-0.23343819379806519
1.5262215548864293,0.19983486309322462,-0.18645568982673025,-0.386383593082428,2.333885669708252,6.726110935211182,0.008845635689795017,-0.9990066885948181,-0.043673932552337646,0.7607771754264832,1.0262436866760254,-0.3184322714805603
1.4957113408885432,-0.8797129047073149,0.9181061408237284,-0.32039767503738403,2.327465295791626,6.786574363708496,-0.057802941650152206,-0.9971824288368225,-0.04781223461031914,0.6037623882293701,1.0932669639587402,-0.3970118761062622
1.4353956250219895,-1.1709791564740457,1.2337163912665994,-0.21141870319843292,2.2055726051330566,6.780862331390381,-0.12434180825948715,-0.9908473491668701,-0.05254407972097397,0.44761449098587036,1.1507898569107056,-0.4727243185043335
1.3710555760675525,-1.2769323741811662,1.3629234677265778,-0.1029614731669426,2.0805141925811768,6.746001243591309,-0.18990996479988098,-0.9801180362701416,-0.057471636682748795,0.3074789047241211,1.184631586074829,-0.5291523933410645
1.305692781627445,-1.3322989903855238,1.440268257801666,0.10821300745010376,1.8675895929336548,6.752580642700195,-0.25459304451942444,-0.9650653600692749,-0.06189784035086632,0.19538894295692444,1.1998370885849,-0.5747292637825012
1.2401813612627666,-1.3699152165016537,1.4972547448821136,0.28757718205451965,1.4738729000091553,6.7063164710998535,-0.31809744238853455,-0.9458428621292114,-0.06477339565753937,0.04194381833076477,1.2236747741699219,-0.599456787109375
1.1750873449970736,-1.3992486180967736,1.541927783375764,0.4175213873386383,1.0034664869308472,6.636335372924805,-0.3798047602176666,-0.9227235317230225,-0.06580138951539993,-0.13798701763153076,1.2248475551605225,-0.5769597291946411
1.110414621208439,-1.4259980415469242,1.5795457282283634,0.6403698921203613,0.48256200551986694,6.582907676696777,-0.4396407902240753,-0.8958829641342163,-0.06410790234804153,-0.29928135871887207,1.2054836750030518,-0.565759539604187
1.0464370213807803,-1.4543785257018726,1.6141923477034095,0.9271568655967712,-0.05433332175016403,6.481568336486816,-0.49726971983909607,-0.8656448721885681,-0.05815400928258896,-0.5088338255882263,1.157606601715088,-0.5605134963989258
0.9835768236938385,-1.484554054134639,1.6461197147236308,1.1274089813232422,-0.5444372296333313,6.32236385345459,-0.5519894957542419,-0.8324844241142273,-0.047723207622766495,-0.7680330872535706,1.0817519426345825,-0.49887698888778687
0.9221648765059327,-1.5150470700855225,1.6742145380807631,1.2338175773620605,-0.9531451463699341,6.101819038391113,-0.6031581163406372,-0.7969112992286682,-0.03366049751639366,-1.0270910263061523,0.9971979856491089,-0.3886263370513916
0.8633573267500954,-1.5453190060042197,1.6986396879263097,1.3433197736740112,-1.275714635848999,5.7074995040893555,-0.6496788263320923,-0.7600287199020386,-0.016555657610297203,-1.3499855995178223,0.8918188810348511,-0.296051025390625
0.8091792359803169,-1.5754850245144059,1.7207495586395374,1.4934145212173462,-1.4523566961288452,5.1004815101623535,-0.6900851726531982,-0.7237210273742676,0.003235624637454748,-1.7496883869171143,0.8142818808555603,-0.23471128940582275
0.7618130255827598,-1.6053683255657616,1.741756666652311,1.648705005645752,-1.5323295593261719,4.242214679718018,-0.7231534719467163,-0.6902344822883606,0.02501082606613636,-2.174368381500244,0.7899659276008606,-0.17486727237701416
0.7241209336501817,-1.6349052893412996,1.7626030041263079,1.7701301574707031,-1.5292918682098389,3.072667360305786,-0.7475433349609375,-0.6624771952629089,0.047989990562200546,-2.6084747314453125,0.7770249843597412,-0.1003274917602539
0.6990095226035629,-1.6634284722153818,1.783823450060155,1.7941234111785889,-1.3685884475708008,1.6463345289230347,-0.762198269367218,-0.6434597969055176,0.07080670446157455,-2.9783718585968018,0.7895932197570801,-0.0037899017333984375
0.6880275518428958,-1.688985806086811,1.8052890090175586,1.685714840888977,-0.9769424200057983,0.19171887636184692,-0.7671109437942505,-0.6350147128105164,0.09108897298574448,-3.17820143699646,0.7978412508964539,0.12834787368774414
0.6908541519142307,-1.7101346998268228,1.8263503211156558,1.4361659288406372,-0.5787779688835144,-1.1459182500839233,-0.7632324695587158,-0.6371957063674927,0.10704120993614197,-3.1557891368865967,0.78204745054245,0.2850182056427002
0.706080723205071,-1.726829508182074,1.8459013552369896,1.0504193305969238,-0.2581585645675659,-2.26590633392334,-0.7516669034957886,-0.648856520652771,0.1182461604475975,-2.9724693298339844,0.7848123908042908,0.4413090944290161
0.7316844559913273,-1.739375126757044,1.8623072848624354,0.5420900583267212,-0.1184144988656044,-3.13846755027771,-0.7335026264190674,-0.6681239008903503,0.12483782321214676,-2.68640398979187,0.8148066401481628,0.5672399997711182
0.7655853597559825,-1.7487989501494003,1.874014802438396,-0.02223152294754982,-0.19776058197021484,-3.785367727279663,-0.7095850706100464,-0.6929591298103333,0.1276591569185257,-2.3613226413726807,0.8311579823493958,0.6404684782028198
0.8059105773558466,-1.756191691426997,1.8801555908565082,-0.5701606869697571,-0.42355960607528687,-4.256958484649658,-0.6805883049964905,-0.7214614748954773,0.12764370441436768,-2.0404200553894043,0.8507339954376221,0.6383323669433594
0.8511232400900577,-1.7624105615835708,1.880621727298979,-1.0483038425445557,-0.7656590938568115,-4.596614837646484,-0.6470751762390137,-0.7520212531089783,0.12552890181541443,-1.7538342475891113,0.8728404641151428,0.5659079551696777
0.9000341033263387,-1.7683905390056804,1.8757745622025581,-1.4300868511199951,-1.1691932678222656,-4.846405506134033,-0.6094883680343628,-0.7833480834960938,0.12202359735965729,-1.5011073350906372,0.892860472202301,0.44082748889923096
0.951987532392101,-1.774141822070584,1.8664921174043227,-1.7091617584228516,-1.4346706867218018,-5.085806846618652,-0.5681139230728149,-0.8145700097084045,0.11714246869087219,-1.2893232107162476,0.924051821231842,0.27932679653167725
1.0070119797205719,-1.7788680855930155,1.8540549283037915,-1.8681257963180542,-1.5562258958816528,-5.372543811798096,-0.522862434387207,-0.8452388644218445,0.11039060354232788,-1.1358747482299805,0.9597408771514893,0.0943366140127182
1.0651604538960522,-1.7829063030023644,1.840225090954536,-1.9067519903182983,-1.6175341606140137,-5.672241687774658,-0.4735088348388672,-0.8748666644096375,0.10196978598833084,-1.0242938995361328,0.9883767366409302,-0.08596324920654297
1.1261973610879938,-1.7874439981509884,1.8269874075090384,-1.8544297218322754,-1.625276803970337,-5.9646220207214355,-0.4200419485569,-0.902783215045929,0.09245210886001587,-0.9234639406204224,1.0448119640350342,-0.24633681774139404
1.1901234916445476,-1.7935961449200206,1.816248397279176,-1.759289026260376,-1.5437192916870117,-6.28934907913208,-0.3623621463775635,-0.9284148812294006,0.08209716528654099,-0.8298223614692688,1.1115963459014893,-0.37772083282470703
1.2570973054194732,-1.8021104700768493,1.8102382603461988,-1.6397291421890259,-1.2473276853561401,-6.625845432281494,-0.3003605306148529,-0.9511986374855042,0.07074391096830368,-0.7552729845046997,1.162654995918274,-0.4741402864456177
1.3270240958830282,-1.8156994961228654,1.8138035001323178,-1.4467850923538208,-0.7583889961242676,-6.965845584869385,-0.23416341841220856,-0.9704343676567078,0.058522071689367294,-0.6549509763717651,1.233007550239563,-0.5511060953140259
1.399498770184255,-1.8482145696699677,1.8420576509118267,-1.1536048650741577,-0.20992857217788696,-7.28770112991333,-0.16394440829753876,-0.9853644371032715,0.04668499901890755,-0.5413168668746948,1.2877933979034424,-0.607399582862854
1.4732793119016891,-1.9608617240161426,1.9555954964043731,-0.7878836393356323,0.17159627377986908,-7.5756001472473145,-0.09005023539066315,-0.9952489733695984,0.03702247515320778,-0.44570112228393555,1.3095647096633911,-0.6391493082046509
1.5373550303918233,-2.736878561269272,2.7352078704439564,-0.4541149437427521,0.2877582907676697,-7.795198440551758,-0.013166154734790325,-0.9994409084320068,0.030736109241843224,-0.3486807942390442,1.3299920558929443,-0.6256608963012695
1.4997558139788976,1.9658285163090246,-1.9638259487059313,-0.26335757970809937,0.18188625574111938,-7.915241241455078,0.06551489233970642,-0.9974777102470398,0.02731640823185444,-0.22028478980064392,1.3769179582595825,-0.5658599138259888
1.4237715738592163,1.7438990902343878,-1.7403283145205761,-0.16491487622261047,-0.1306775063276291,-7.873585224151611,0.1443060338497162,-0.9892113208770752,0.025232303887605667,-0.04370485246181488,1.4262230396270752,-0.4907931089401245
1.3467966742192063,1.6751136419378467,-1.6749490926451784,-0.09577713906764984,-0.8210504651069641,-7.618732929229736,0.22092391550540924,-0.9750168323516846,0.023130152374505997,0.16281937062740326,1.41883385181427,-0.432309627532959
1.2733329397408548,1.6350467494763838,-1.6474543250982638,-0.07402098178863525,-1.8951749801635742,-7.058151721954346,0.2924915850162506,-0.9560830593109131,0.018818609416484833,0.4113353490829468,1.369367241859436,-0.3770338296890259
1.2063475807255424,1.598346277539566,-1.634594668018004,-0.15327253937721252,-2.9616236686706543,-6.306076526641846,0.3562994599342346,-0.9343203902244568,0.009818516671657562,0.6958246231079102,1.29313063621521,-0.32175374031066895
1.1470756851800261,1.557763934833933,-1.6266264344591275,-0.37423738837242126,-3.6045026779174805,-5.508943557739258,0.41112020611763,-0.9115654826164246,-0.005358182825148106,0.9419224262237549,1.1685081720352173,-0.27261102199554443
1.0957274338659257,1.5138833973384571,-1.619699637792184,-0.5561609864234924,-3.854414701461792,-4.69857931137085,0.4566589593887329,-0.8892611861228943,-0.026017896831035614,1.159643530845642,1.024393081665039,-0.24514591693878174
1.052137850425435,1.4709523681280046,-1.614790124601371,-0.5682317614555359,-3.8199522495269775,-3.943876266479492,0.49324676394462585,-0.8684849739074707,-0.04941201210021973,1.3400967121124268,0.8690190315246582,-0.2783313989639282
1.0151793733547805,1.4322232167760887,-1.6130029292685135,-0.48384788632392883,-3.5572378635406494,-3.383408546447754,0.5224112868309021,-0.8495751619338989,-0.07285911589860916,1.4211158752441406,0.7418939471244812,-0.3485885262489319
0.9825007189768671,1.399982053946716,-1.6144139657144003,-0.3628418445587158,-3.0918831825256348,-3.111827850341797,0.546867847442627,-0.8318877220153809,-0.09433208405971527,1.420417308807373,0.6693205237388611,-0.402951717376709
0.9519499756494343,1.3760122469112772,-1.6194760270564137,-0.17284440994262695,-2.5018422603607178,-2.9870152473449707,0.5691261887550354,-0.8145482540130615,-0.11228032410144806,1.4458274841308594,0.6271855235099792,-0.4288114905357361
0.9232628006768384,1.361715085952761,-1.6286753680272732,0.09013555943965912,-1.8142139911651611,-2.820809841156006,0.5900841951370239,-0.7975740432739258,-0.12520532310009003,1.587283968925476,0.5708131790161133,-0.43128257989883423
0.8974222705395037,1.3575927094381632,-1.6415308124667725,0.3580631911754608,-1.0217729806900024,-2.5315542221069336,0.6095068454742432,-0.7817219495773315,-0.13195452094078064,1.8271691799163818,0.4878072142601013,-0.3959079086780548
0.875744450060275,1.3628094501257286,-1.6565862344010724,0.5850475430488586,-0.2876224219799042,-2.0689139366149902,0.6266233921051025,-0.7680204510688782,-0.13224183022975922,2.115976095199585,0.4114682078361511,-0.31102585792541504
0.8599768793936062,1.374715117201886,-1.6720053864391018,0.7067630887031555,0.30224576592445374,-1.376753807067871,0.6399524211883545,-0.7578274607658386,-0.12711594998836517,2.422196626663208,0.33546411991119385,-0.18417847156524658
0.8521114447794469,1.3899997156893833,-1.6851412078125865,0.6656095385551453,0.7451440691947937,-0.4676603674888611,0.6476640105247498,-0.7526722550392151,-0.11838821321725845,2.697413444519043,0.28460896015167236,-0.02673797309398651
0.853392964446007,1.4053495410889867,-1.6939925559610973,0.5094770193099976,0.9551805853843689,0.5264296531677246,0.6484529972076416,-0.753515362739563,-0.1082741841673851,2.8751981258392334,0.2681485414505005,0.12569981813430786
0.8643251891312022,1.4174790552687053,-1.6973748760193803,0.2599812150001526,0.9305676221847534,1.5595941543579102,0.6415391564369202,-0.7606573700904846,-0.09913703799247742,2.905595302581787,0.28220266103744507,0.2475135773420334
0.8850096681906967,1.4238292532439312,-1.6942211349891843,-0.04391234368085861,0.8220953941345215,2.568307399749756,0.6264551281929016,-0.7739211320877075,-0.09273692220449448,2.826120615005493,0.31763756275177,0.3234347105026245
0.9147137724767649,1.4240417980026734,-1.6841358318797885,-0.31574171781539917,0.8186439275741577,3.4509122371673584,0.6034604907035828,-0.7923880219459534,-0.08920185267925262,2.645364761352539,0.3775625228881836,0.32598787546157837
0.9520193524551968,1.419957958013704,-1.667821169603404,-0.48138079047203064,1.0102161169052124,4.169131278991699,0.5734533667564392,-0.8145884871482849,-0.08716080337762833,2.383364200592041,0.46073710918426514,0.24078643321990967
0.9954163052585835,1.4139692739981329,-1.6464322928225388,-0.5550577044487,1.3361626863479614,4.7290496826171875,0.5374757647514343,-0.8389855623245239,-0.08498864620923996,2.1079862117767334,0.5379449725151062,0.1023075059056282
1.043569160119121,1.4072251476404494,-1.6203940010149507,-0.5955080389976501,1.7427912950515747,5.164725303649902,0.4964233338832855,-0.864205539226532,-0.08193257451057434,1.8326783180236816,0.6165094971656799,-0.03331691026687622
1.095357859935186,1.3992922936699095,-1.5891526875687507,-0.6302193999290466,2.1289660930633545,5.504934310913086,0.45101332664489746,-0.8890920877456665,-0.07811801880598068,1.58772873878479,0.7196431756019592,-0.15035170316696167
1.1502286141654054,1.3884570938800442,-1.551715553100304,-0.6178288459777832,2.4216370582580566,5.8315911293029785,0.4015107750892639,-0.9128572940826416,-0.0740334689617157,1.3957610130310059,0.8192139267921448,-0.25981342792510986
1.2078983970922124,1.3722391591255856,-1.5066379821338165,-0.5801283121109009,2.6505556106567383,6.098005294799805,0.34801042079925537,-0.934872031211853,-0.07002260535955429,1.2416349649429321,0.9067195057868958,-0.35893237590789795
1.2676529904296467,1.34581930354021,-1.4494535232583916,-0.5597057938575745,2.849760055541992,6.320606708526611,0.29099857807159424,-0.9544028639793396,-0.06659537553787231,1.1015337705612183,0.9775809645652771,-0.43367916345596313
1.328838073312702,1.2993244360700202,-1.3708643714641873,-0.5349663496017456,2.9631881713867188,6.53339147567749,0.2308291643857956,-0.9708706140518188,-0.06424977630376816,0.9668331742286682,1.034515142440796,-0.4915667176246643
1.3904876376386524,1.209131681245391,-1.2481815473058318,-0.5123410224914551,2.9582197666168213,6.716096878051758,0.1677326261997223,-0.9837883710861206,-0.06345401704311371,0.8458629846572876,1.1078269481658936,-0.5537638664245605
1.4497478975468883,1.0082321391720122,-1.0158231349364597,-0.4668049216270447,2.7956299781799316,6.87595796585083,0.1021447405219078,-0.9926825761795044,-0.06440505385398865,0.732388973236084,1.1865606307983398,-0.6171896457672119
1.4953142056812774,0.47803369123302114,-0.45606745566911044,-0.41800281405448914,2.615601062774658,6.9818549156188965,0.03469174727797508,-0.99715256690979,-0.06695772707462311,0.6195898652076721,1.256948709487915,-0.6715674996376038
1.4923942414388245,-0.44441546194894793,0.4944525702998482,-0.32951343059539795,2.501784086227417,7.031639575958252,-0.033673424273729324,-0.9969281554222107,-0.07071487605571747,0.5102053880691528,1.3040112257003784,-0.7289370894432068
1.4437007762893888,-0.9377401266136605,1.0148546501314029,-0.19020937383174896,2.396327018737793,7.061208724975586,-0.10219209641218185,-0.9919342398643494,-0.0749891847372055,0.39189544320106506,1.326483130455017,-0.7941970825195312
1.3817086698995558,-1.135534291650454,1.2387399267797907,-0.02741752751171589,2.2646806240081787,7.098440647125244,-0.17043736577033997,-0.9821761250495911,-0.07925428450107574,0.2720150947570801,1.3418104648590088,-0.8450314402580261
1.3154700675781432,-1.2355647382937562,1.363612904399556,0.15364336967468262,2.079428195953369,7.186061859130859,-0.23850233852863312,-0.9675809741020203,-0.08308963477611542,0.15575389564037323,1.344549298286438,-0.8669682145118713
1.2468802019249279,-1.2973203944739267,1.448120047236625,0.3410454988479614,1.7350711822509766,7.284819602966309,-0.3064539432525635,-0.9479962587356567,-0.08596153557300568,0.0224725604057312,1.3421459197998047,-0.8642794489860535
1.1771797941779905,-1.3422109809215876,1.511847175243282,0.5218027830123901,1.1900177001953125,7.2554121017456055,-0.3735548257827759,-0.9235280752182007,-0.08690814673900604,-0.1997484266757965,1.3190357685089111,-0.8388577103614807
1.1082074710565406,-1.3799410414889657,1.56277838460489,0.7399521470069885,0.5312083959579468,7.042609691619873,-0.4381634294986725,-0.8949002027511597,-0.08465620130300522,-0.5006793737411499,1.2662379741668701,-0.8058313727378845
1.0417906640777128,-1.415549898300919,1.6061347146572236,1.0381183624267578,-0.0024779578670859337,6.693719387054443,-0.4986059367656708,-0.8633093237876892,-0.07803471386432648,-0.8252924084663391,1.192792296409607,-0.7950425148010254
0.9790480797228337,-1.451284013810335,1.6459418898099618,1.436720848083496,-0.3820505738258362,6.263067245483398,-0.5538341999053955,-0.8299667239189148,-0.06650695204734802,-1.132246732711792,1.096369981765747,-0.7875578999519348
0.9206847913366982,-1.4879487557031046,1.6848968176963781,1.8804205656051636,-0.5922872424125671,5.7620086669921875,-0.6031992435455322,-0.796016275882721,-0.05008824169635773,-1.4050405025482178,0.984401285648346,-0.7424989342689514
0.8671834647447192,-1.5247382501646818,1.7240230007181154,2.303331136703491,-0.6461581587791443,5.1775360107421875,-0.6462907791137695,-0.7625097036361694,-0.029787978157401085,-1.6707258224487305,0.8888829350471497,-0.638607919216156
0.8194168673796984,-1.560523766031197,1.7635404855076482,2.653578996658325,-0.6016677021980286,4.465699195861816,-0.6826116442680359,-0.7307478785514832,-0.0070124161429703236,-1.9816035032272339,0.8259474039077759,-0.48572421073913574
0.7788825725735501,-1.59473123725547,1.8029577631712657,2.8563759326934814,-0.5951077938079834,3.544307231903076,-0.7114951014518738,-0.7024846076965332,0.017032824456691742,-2.333686113357544,0.814484179019928,-0.2941933870315552
0.7476801610759041,-1.6270584486773283,1.8409881155193104,2.8367533683776855,-0.6021664142608643,2.442063570022583,-0.7321079969406128,-0.6799395084381104,0.04123346507549286,-2.68093204498291,0.8110888600349426,-0.06337380409240723
0.7271624871509743,-1.6561685932471053,1.8760386519470469,2.5761425495147705,-0.4964812994003296,1.2682433128356934,-0.7443428635597229,-0.6647524833679199,0.0637010708451271,-2.936595916748047,0.8125491738319397,0.17917311191558838
0.7180192114008408,-1.6808584108946625,1.9063920663418537,2.098179578781128,-0.44924700260162354,0.11525872349739075,-0.7485536932945251,-0.6578941941261292,0.08272167295217514,-3.06229829788208,0.8296013474464417,0.4005700349807739
0.7200572854496567,-1.7021184085774677,1.931067371585322,1.5178970098495483,-0.5696045756340027,-0.9440678954124451,-0.7452951073646545,-0.6594277620315552,0.09844023734331131,-3.0602927207946777,0.8150368332862854,0.5953313112258911
0.7324792019911393,-1.720662499800713,1.9493965442804018,0.8278288245201111,-0.6949920654296875,-1.878153681755066,-0.7351848483085632,-0.6687150001525879,0.11101169139146805,-2.946272611618042,0.8056626915931702,0.7310446500778198
0.7546111589917452,-1.7354711549819652,1.960400748224695,0.08112826943397522,-0.7503474950790405,-2.7127695083618164,-0.718682050704956,-0.6850054264068604,0.11943036317825317,-2.7589638233184814,0.8241198658943176,0.7938234806060791
0.7855095582670996,-1.7453676061355494,1.9637687167509221,-0.6446365118026733,-0.7535852193832397,-3.42691969871521,-0.696281909942627,-0.7071855664253235,0.12280082702636719,-2.541968822479248,0.8381364941596985,0.7931081056594849
0.8241247390098294,-1.7494427931296763,1.9593221103530991,-1.3014295101165771,-0.6945732831954956,-4.029923915863037,-0.668390154838562,-0.733953595161438,0.12069223076105118,-2.2756099700927734,0.8606168627738953,0.7301226854324341
0.8693321170574109,-1.747249156379988,1.9473859618383553,-1.822911024093628,-0.6575866341590881,-4.551904678344727,-0.6353167295455933,-0.7638980746269226,0.11328157782554626,-2.0095503330230713,0.9027681946754456,0.5982053279876709
0.920057687150336,-1.739459414309245,1.9288754294197583,-2.1645562648773193,-0.6770788431167603,-5.0026116371154785,-0.5971784591674805,-0.7956365942955017,0.10168804228305817,-1.7719316482543945,0.9628728628158569,0.4143948554992676
0.9751784285915942,-1.7273162596334741,1.9050967972889803,-2.320821523666382,-0.7612870335578918,-5.390860080718994,-0.5541624426841736,-0.8278020024299622,0.08745279163122177,-1.5539308786392212,1.0287907123565674,0.19866490364074707
1.0340943082786902,-1.7123684270892203,1.877620699522206,-2.3118600845336914,-0.8853808045387268,-5.787558078765869,-0.5061895251274109,-0.8593996167182922,0.07214494794607162,-1.3721065521240234,1.09568190574646,-0.02087532728910446
1.096708887115354,-1.6953436165964055,1.8474255977239231,-2.2262015342712402,-0.9708598256111145,-6.197198867797852,-0.4529906213283539,-0.8897097110748291,0.05671229958534241,-1.2294893264770508,1.150543451309204,-0.21436595916748047
1.162936105044234,-1.6749735319913004,1.8141301513570796,-2.085092544555664,-0.9634524583816528,-6.591636657714844,-0.3944956362247467,-0.917971670627594,0.04124677553772926,-1.0913594961166382,1.1887998580932617,-0.36737263202667236
1.2324150492883963,-1.6491926629026803,1.776627809792888,-1.8906664848327637,-0.8386656045913696,-6.946019649505615,-0.330941379070282,-0.9432932734489441,0.02599787339568138,-0.9628971815109253,1.2394357919692993,-0.49168074131011963
1.3048122968632168,-1.6135222216916658,1.7317286590867027,-1.6369374990463257,-0.5872848033905029,-7.294993877410889,-0.2626195549964905,-0.9648343324661255,0.01122748851776123,-0.8343042731285095,1.3197689056396484,-0.5940062999725342
1.379951942418354,-1.5592280445699809,1.6715700644441827,-1.3071298599243164,-0.2664737105369568,-7.6284332275390625,-0.1896752119064331,-0.981844425201416,-0.0021943142637610435,-0.7176886796951294,1.379641056060791,-0.6697873473167419
1.45712711586128,-1.4542331546917828,1.5641559502477476,-0.9577586650848389,0.0033910544589161873,-7.913642883300781,-0.11265498399734497,-0.9935466051101685,-0.013191219419240952,-0.6173102259635925,1.427735447883606,-0.7122572660446167
1.5322393860528245,-0.9833641998316887,1.0928258601505716,-0.6751331686973572,0.08603145182132721,-8.180906295776367,-0.03208615630865097,-0.9992567896842957,-0.02136434242129326,-0.5021851062774658,1.507267713546753,-0.7068001627922058
1.5132655641025823,1.0848110648983438,-0.9758713921199293,-0.42871004343032837,-0.018584435805678368,-8.358039855957031,0.050842080265283585,-0.9983455538749695,-0.026856930926442146,-0.3660276532173157,1.5745480060577393,-0.6767104268074036
1.4327859851373521,1.3503454966738113,-1.2435268037659375,-0.19617687165737152,-0.20669721066951752,-8.361383438110352,0.134243443608284,-0.9904916882514954,-0.03008299507200718,-0.1870846450328827,1.615628957748413,-0.6563945412635803
1.3508603104139452,1.4255487281295876,-1.3240967870103062,0.03839143365621567,-0.6646621227264404,-8.176472663879395,0.21587035059928894,-0.9759114384651184,-0.03157702088356018,0.05222657322883606,1.6369831562042236,-0.6541985869407654
1.2720627981817398,1.4589562816540367,-1.3695109889268293,0.2656390964984894,-1.4520760774612427,-7.641510486602783,0.29247182607650757,-0.9557099938392639,-0.03284712880849838,0.3550806939601898,1.5972809791564941,-0.6311084032058716
1.2000603522123428,1.4722974874067654,-1.403819900957919,0.45683035254478455,-2.34696888923645,-6.858546257019043,0.3605458438396454,-0.932060956954956,-0.03562864288687706,0.6948893666267395,1.485130786895752,-0.5878758430480957
1.1362905991610632,1.4714001232827683,-1.4323310415836141,0.4971589148044586,-3.0127415657043457,-6.010079383850098,0.4188843369483948,-0.907078206539154,-0.04177317023277283,0.9506529569625854,1.3500714302062988,-0.5382895469665527
1.0808495406030212,1.4611428579891534,-1.4562370425048148,0.4698660671710968,-3.245765447616577,-5.217022895812988,0.4677530527114868,-0.8823578953742981,-0.051497310400009155,1.1172384023666382,1.2339203357696533,-0.4680643677711487
1.0327168290535895,1.4471455261856223,-1.4771350457203436,0.44675901532173157,-3.147559404373169,-4.57180118560791,0.5085749626159668,-0.8586944937705994,-0.06320817023515701,1.2223362922668457,1.1153168678283691,-0.42067837715148926
0.9902492118338656,1.4324768559710237,-1.4958023642370701,0.40692105889320374,-2.917154312133789,-4.102546691894531,0.5432429313659668,-0.8361626863479614,-0.07562397420406342,1.2749638557434082,0.9947473406791687,-0.37238919734954834
0.9517045846275725,1.4186182690643936,-1.5127964215021383,0.3778390884399414,-2.638519763946533,-3.7931580543518066,0.5735894441604614,-0.8144058585166931,-0.08796783536672592,1.3012886047363281,0.8920730352401733,-0.31764113903045654
0.9157643332442973,1.4068027411420465,-1.528839808124151,0.37046295404434204,-2.275742530822754,-3.590937852859497,0.6010115146636963,-0.7930284142494202,-0.09945521503686905,1.3438432216644287,0.8085007071495056,-0.2672896385192871
0.8818343021397025,1.3981272043495334,-1.5441022879459325,0.3686201572418213,-1.8194715976715088,-3.3894011974334717,0.6262829899787903,-0.771906316280365,-0.10922741889953613,1.458571195602417,0.7420904636383057,-0.20945222675800323
0.8503985278697659,1.3940385780353435,-1.5589319120610867,0.4367869794368744,-1.221577763557434,-3.10011887550354,0.649405300617218,-0.7515433430671692,-0.11599799245595932,1.6727077960968018,0.6688101291656494,-0.16239851713180542
0.8226057511569467,1.3966470017232895,-1.5740398605685464,0.5936872959136963,-0.48624134063720703,-2.6884520053863525,0.6700235605239868,-0.7329210638999939,-0.11787824332714081,1.9375203847885132,0.5844682455062866,-0.13984256982803345
0.8001232501623528,1.4067763282996761,-1.589945407074358,0.8034860491752625,0.1833479404449463,-2.061084747314453,0.6872690320014954,-0.717441976070404,-0.1137477308511734,2.2347586154937744,0.4867900609970093,-0.11087673902511597
0.7854475805355453,1.4227093542902562,-1.606318013021913,0.9929921627044678,0.6396277546882629,-1.1554310321807861,0.6993332505226135,-0.7071416974067688,-0.10432587563991547,2.5669631958007812,0.3867223262786865,-0.02680802345275879
0.780647441474604,1.4412017241296864,-1.6221719464875717,1.0689992904663086,0.779201090335846,-0.0916832685470581,0.7045006155967712,-0.7037395238876343,-0.0918140560388565,2.836545705795288,0.328357994556427,0.11955463141202927
0.7864870421792611,1.4579969192454143,-1.6354311651629474,0.9010528326034546,0.6833803653717041,1.0234630107879639,0.701847493648529,-0.7078763246536255,-0.07950547337532043,2.9427599906921387,0.315313458442688,0.3026043772697449
0.8030163625513272,1.4694181659572696,-1.6434358015181412,0.5433766841888428,0.444410115480423,2.1243340969085693,0.6909736394882202,-0.7194543480873108,-0.07029061019420624,2.9068503379821777,0.3388391137123108,0.4845516085624695
0.8294956612459847,1.4732579339635878,-1.6442342191660637,0.08398827165365219,0.23246364295482635,3.0942211151123047,0.6720382571220398,-0.7375909090042114,-0.06575819849967957,2.767643690109253,0.3719751238822937,0.6009145975112915
0.8644541911494421,1.4705077827448643,-1.6369090074487163,-0.34478384256362915,0.3615925908088684,3.9183237552642822,0.6457940936088562,-0.760741114616394,-0.06498375535011292,2.5464818477630615,0.4206990599632263,0.6070523858070374
0.9066021480811903,1.4644615359697846,-1.6220349406486438,-0.6311506628990173,0.7504405379295349,4.617133617401123,0.6129432320594788,-0.7874137759208679,-0.06542395800352097,2.3032097816467285,0.49914467334747314,0.4928990602493286
0.9548966909777068,1.4576402498763703,-1.6012573293808627,-0.7532161474227905,1.2085943222045898,5.213485240936279,0.5739984512329102,-0.8162540793418884,-0.06523005664348602,2.0718297958374023,0.5864109992980957,0.30995064973831177
1.0084630910752101,1.4507142907775583,-1.5758912551897426,-0.7925257086753845,1.6079413890838623,5.706074237823486,0.5293222665786743,-0.8460134267807007,-0.06386937946081161,1.8490804433822632,0.6839956045150757,0.13261032104492188
1.066364956885169,1.4425302544545453,-1.5456162199389063,-0.8207911849021912,1.947860598564148,6.1227641105651855,0.4793395698070526,-0.8754494190216064,-0.06182241439819336,1.6389771699905396,0.794440507888794,-0.00305783748626709
1.1280437506801178,1.430865655637728,-1.5092801784899923,-0.8026083707809448,2.156433343887329,6.494365215301514,0.4242408871650696,-0.9035757780075073,-0.059754833579063416,1.4517967700958252,0.8968313932418823,-0.11402738094329834
1.1928969838530439,1.4119580593433423,-1.4648262027575878,-0.7722043991088867,2.1812376976013184,6.804958820343018,0.3643246293067932,-0.9294417500495911,-0.058360323309898376,1.2649478912353516,0.9949780702590942,-0.20154249668121338
1.260159374601488,1.3781796218604843,-1.4063247296812131,-0.768172562122345,2.0634925365448,7.078098773956299,0.30001235008239746,-0.9521390795707703,-0.058512818068265915,1.0981504917144775,1.0833189487457275,-0.24400776624679565
1.3288710435418798,1.3146496493495439,-1.319373673533491,-0.8006367683410645,1.9566820859909058,7.3128581047058105,0.23175646364688873,-0.970878541469574,-0.060696955770254135,0.968820333480835,1.1710126399993896,-0.2671990394592285
1.3971268167724435,1.1853919021831552,-1.167882976197097,-0.8286012411117554,1.847456693649292,7.52377462387085,0.16012337803840637,-0.9849573373794556,-0.06496092677116394,0.8607048988342285,1.2587151527404785,-0.2992357015609741
1.4592916537904712,0.8798885024492918,-0.8410515608641242,-0.8126798272132874,1.787052035331726,7.700705528259277,0.08575574308633804,-0.993789792060852,-0.07090829312801361,0.7607560753822327,1.336151123046875,-0.35497963428497314
1.4922347955298516,0.1221358109818799,-0.06232289730842035,-0.7581263780593872,1.7933348417282104,7.811347007751465,0.009561391547322273,-0.9969156384468079,-0.07789526134729385,0.6561490297317505,1.4043406248092651,-0.4309089183807373
1.4615484613670036,-0.6644011799350348,0.7456528528417888,-0.7278158664703369,1.859778881072998,7.857595443725586,-0.06722644716501236,-0.9940384030342102,-0.08583765476942062,0.5551415085792542,1.4633530378341675,-0.48928123712539673
1.397868063640608,-0.9872778119197164,1.090598641334296,-0.6856192350387573,1.8868768215179443,7.8972578048706055,-0.14359523355960846,-0.985085129737854,-0.0948028564453125,0.47713708877563477,1.5028159618377686,-0.5299071073532104
1.3251926145072412,-1.1271043708376538,1.252083906252242,-0.5793668031692505,1.7281255722045898,7.981266975402832,-0.21959936618804932,-0.9699907302856445,-0.10437528043985367,0.41869601607322693,1.515721321105957,-0.5753578543663025
1.2490673537925288,-1.2041756863210773,1.3490890121644432,-0.4222308099269867,1.4755053520202637,8.074424743652344,-0.2951935827732086,-0.9486901164054871,-0.1133485808968544,0.37908637523651123,1.5353447198867798,-0.6296474933624268
1.1713409311940433,-1.254666200557844,1.4171429186586129,-0.2545430064201355,1.1588900089263916,8.113792419433594,-0.36964428424835205,-0.9212729334831238,-0.1209106594324112,0.2913818955421448,1.576058030128479,-0.6707762479782104
1.0931732021716591,-1.292303282918232,1.469693206732759,-0.053947169333696365,0.822727382183075,8.072021484375,-0.4419591426849365,-0.8880900144577026,-0.1263664960861206,0.13689011335372925,1.579068899154663,-0.6874303817749023
1.0159356162397524,-1.323953484220824,1.5132168015152014,0.18860262632369995,0.4091360867023468,7.891641616821289,-0.5108564496040344,-0.8499738574028015,-0.12872643768787384,-0.08329039812088013,1.5317211151123047,-0.6943477392196655
0.9408413615944028,-1.353212799596931,1.550797720963515,0.43907302618026733,-0.027006521821022034,7.626275539398193,-0.5752186179161072,-0.8080540299415588,-0.1271713227033615,-0.3302990794181824,1.4623966217041016,-0.6856489777565002
0.8688359904489764,-1.3819770711531718,1.584298262720943,0.7037789821624756,-0.43704384565353394,7.254215240478516,-0.6342393159866333,-0.7635778188705444,-0.12120041251182556,-0.5786513090133667,1.389813780784607,-0.654327392578125
0.8008936858547286,-1.4098540126494052,1.6148732570500897,0.9622911810874939,-0.5669455528259277,6.778186321258545,-0.6870699524879456,-0.7179784178733826,-0.11154337972402573,-0.8499326705932617,1.2723302841186523,-0.5937634706497192
0.7383639802788278,-1.434572516704459,1.6428371807804658,1.145038366317749,-0.4512893259525299,6.123294353485107,-0.732719361782074,-0.6730788350105286,-0.10043585300445557,-1.1367722749710083,1.1521894931793213,-0.5181400775909424
0.6829298443335889,-1.454399805124484,1.6684630975759027,1.3082435131072998,-0.1526893973350525,5.302947044372559,-0.7704783082008362,-0.6310684680938721,-0.09008820354938507,-1.4597768783569336,1.057460069656372,-0.4383845925331116
0.6364183352170985,-1.4687488972410176,1.6926745108379073,1.468276023864746,0.24956032633781433,4.314264297485352,-0.8000458478927612,-0.5943188071250916,-0.08192721009254456,-1.8233978748321533,0.9673198461532593,-0.3626527786254883
0.6001894130699372,-1.4778687845934588,1.7158798746389459,1.5724374055862427,0.6075971126556396,3.235434055328369,-0.8216680884361267,-0.5647987723350525,-0.07657615095376968,-2.1747002601623535,0.8859963417053223,-0.269126832485199
0.5747669517367114,-1.482438719075297,1.7377835657703327,1.5814180374145508,0.8949108719825745,2.147312879562378,-0.8360448479652405,-0.5436391830444336,-0.07406376302242279,-2.4453272819519043,0.8277273774147034,-0.15344464778900146
0.5598735457394577,-1.4836567066013977,1.757871769316657,1.5144835710525513,0.9694349765777588,1.1088972091674805,-0.8441073298454285,-0.5310790538787842,-0.07374193519353867,-2.6151058673858643,0.802655041217804,-0.026050381362438202
0.5549308910427466,-1.4841661376613646,1.7755920623619466,1.3803635835647583,0.7686185240745544,0.14014126360416412,-0.8467496037483215,-0.5268845558166504,-0.07353813201189041,-2.7288119792938232,0.7651200294494629,0.10602420568466187
0.5592415455476892,-1.4861643450937574,1.7901808484827244,1.1311615705490112,0.35004016757011414,-0.7771579623222351,-0.8446238040924072,-0.5305434465408325,-0.0716533437371254,-2.7949025630950928,0.7356520891189575,0.23725712299346924
0.5720115320195555,-1.490227609787561,1.8000892832914481,0.731320858001709,-0.09056330472230911,-1.6096301078796387,-0.8380862474441528,-0.5413244962692261,-0.06767001748085022,-2.7726316452026367,0.7546729445457458,0.35711413621902466
0.5923986662724573,-1.4951693735738256,1.8042981034564392,0.2868632972240448,-0.41620010137557983,-2.3767762184143066,-0.8272325992584229,-0.5583525896072388,-0.06268062442541122,-2.6748580932617188,0.7743407487869263,0.43563610315322876
0.6199731696852254,-1.4993306836360183,1.8026076450931245,-0.1515531986951828,-0.5902273058891296,-3.1223714351654053,-0.8118165731430054,-0.5810133218765259,-0.058115966618061066,-2.5354583263397217,0.7942396402359009,0.451640248298645
0.6546544947404946,-1.5010026488154138,1.7951956327864922,-0.534958004951477,-0.6019220352172852,-3.8500428199768066,-0.7913270592689514,-0.6088852286338806,-0.05531947687268257,-2.366372585296631,0.8223862051963806,0.4141300320625305
0.6961040821817498,-1.498572851976837,1.7828369368561667,-0.7779496312141418,-0.44165462255477905,-4.5173869132995605,-0.7653458118438721,-0.6412330269813538,-0.055372241884469986,-2.1561477184295654,0.8390175104141235,0.32124149799346924
0.7436706253432299,-1.491764769710187,1.767091811837658,-0.8406952619552612,-0.27774426341056824,-5.10642147064209,-0.7336912751197815,-0.6769940257072449,-0.05810578912496567,-1.9109468460083008,0.8871991038322449,0.1800847053527832
0.7965910266902603,-1.4816134281653341,1.749298193168572,-0.801773190498352,-0.18237486481666565,-5.6099934577941895,-0.6963695883750916,-0.7149768471717834,-0.062269434332847595,-1.6763873100280762,0.9507404565811157,0.03448331728577614
0.8541307797720914,-1.469219575201668,1.729950593960458,-0.7115542888641357,-0.18530817329883575,-6.049318790435791,-0.6534883379936218,-0.7540002465248108,-0.06660846620798111,-1.465041995048523,1.015474796295166,-0.08182888478040695
0.9156768581422382,-1.454816261898004,1.7086116347565414,-0.6357130408287048,-0.24447987973690033,-6.431714057922363,-0.6051610708236694,-0.792975127696991,-0.07050301879644394,-1.2882869243621826,1.0826480388641357,-0.1632615327835083
0.9805197565557722,-1.4381988605210785,1.6843653897546813,-0.5605173707008362,-0.3770994544029236,-6.735140323638916,-0.5517050623893738,-0.8307867646217346,-0.07358646392822266,-1.1228097677230835,1.1566991806030273,-0.2195957899093628
1.047866525187994,-1.418429587945458,1.6557443106144223,-0.5296127200126648,-0.5136604905128479,-6.981472969055176,-0.4936346113681793,-0.8663597106933594,-0.07580099254846573,-0.9527307748794556,1.2441215515136719,-0.25098109245300293
1.1173469558000924,-1.3909959834216672,1.6189702636084453,-0.5731949806213379,-0.473381906747818,-7.2405853271484375,-0.4310072362422943,-0.8989413976669312,-0.0783412829041481,-0.7983629107475281,1.309448480606079,-0.26258569955825806
1.1886070427256366,-1.3495851781199464,1.5690911563053391,-0.5378865599632263,-0.37591978907585144,-7.4752607345581055,-0.36386504769325256,-0.9278503656387329,-0.08183015137910843,-0.6670187711715698,1.3425078392028809,-0.28610485792160034
1.2608889040288063,-1.2869672089477284,1.4991182534954344,-0.4511103928089142,-0.250450998544693,-7.639276504516602,-0.2927686274051666,-0.9523618221282959,-0.0854019746184349,-0.5318163633346558,1.3613736629486084,-0.32553237676620483
1.3323188177088372,-1.1846212016133364,1.3914381533799791,-0.35303282737731934,-0.04220406711101532,-7.683284282684326,-0.2188270390033722,-0.9716987609863281,-0.08897305279970169,-0.3603508472442627,1.4065132141113281,-0.34843528270721436
1.3996503134920164,-1.004239524050017,1.2063999236617027,-0.16735222935676575,-0.19032613933086395,-7.61830472946167,-0.1437017023563385,-0.9853902459144592,-0.09141173213720322,-0.1802271604537964,1.423088550567627,-0.367358922958374
1.4556017654355975,-0.6462760967735964,0.840584464200367,0.003104459960013628,-0.6972535252571106,-7.449970722198486,-0.06921915709972382,-0.9933724403381348,-0.09176061302423477,-0.025812610983848572,1.3898110389709473,-0.3727473020553589
1.4798676951642749,0.02998178320992791,0.15089170375152078,0.13474619388580322,-1.3171263933181763,-7.1379075050354,0.0027220784686505795,-0.9958688616752625,-0.0907638743519783,0.142038032412529,1.3497201204299927,-0.36109447479248047
1.4566599703345349,0.6663625382718233,-0.5044383594069426,0.2221146523952484,-1.789893388748169,-6.7409987449646,0.07039866596460342,-0.9934934973716736,-0.08952580392360687,0.3282066583633423,1.3000119924545288,-0.3405582904815674
1.4096143248490263,0.981407348754389,-0.8420120513625391,0.23664844036102295,-2.0837631225585938,-6.278541564941406,0.1334087997674942,-0.987038254737854,-0.08920660614967346,0.5053393840789795,1.229790210723877,-0.3145408034324646
1.3582920196490045,1.1270291171486584,-1.0126153126448536,0.21458229422569275,-2.2981996536254883,-5.692955017089844,0.19048084318637848,-0.9775058031082153,-0.09055285155773163,0.6800025701522827,1.1222352981567383,-0.2804949879646301
1.3096341200335455,1.1992214917124393,-1.1110094273416893,0.16251462697982788,-2.364121437072754,-5.020456790924072,0.24058346450328827,-0.9660905599594116,-0.09374960511922836,0.860444962978363,0.9896652698516846,-0.2568056583404541
1.2658203347102461,1.2352785966582782,-1.1728018148723358,0.031351812183856964,-2.2519588470458984,-4.37199592590332,0.2835279405117035,-0.9538541436195374,-0.09886667877435684,1.0008196830749512,0.8484920263290405,-0.23539228737354279
1.2267589104959666,1.2508239635050449,-1.2116012144483514,-0.20978794991970062,-1.9747092723846436,-3.800053358078003,0.32017138600349426,-0.9414005875587463,-0.10609158128499985,1.0716438293457031,0.7259311676025391,-0.1991909146308899
1.1919428974713395,1.253379111252158,-1.2342545038157418,-0.43645304441452026,-1.7671613693237305,-3.3032538890838623,0.35137948393821716,-0.9290893077850342,-0.1154370903968811,1.1104888916015625,0.6583678126335144,-0.16863560676574707
1.1610706246222524,1.2471797686438426,-1.246859185989463,-0.5648589730262756,-1.8166265487670898,-2.8457584381103516,0.37767958641052246,-0.9172301292419434,-0.1266767382621765,1.12056565284729,0.6004882454872131,-0.18325965106487274
1.1343144809828296,1.235484972651826,-1.2547947775950998,-0.5295566320419312,-1.9512509107589722,-2.418519973754883,0.39920973777770996,-0.9062445759773254,-0.1391127109527588,1.1083738803863525,0.5468695759773254,-0.25665438175201416
1.1115937212253293,1.221644539581759,-1.2618487293569784,-0.4059121906757355,-2.077637195587158,-2.0585641860961914,0.4164902865886688,-0.8964062333106995,-0.15163059532642365,1.0645124912261963,0.4907360076904297,-0.342174232006073
1.0927833066512906,1.2077685351725962,-1.2702357587074828,-0.18431349098682404,-2.1713733673095703,-1.7229082584381104,0.43003490567207336,-0.8879107236862183,-0.16335460543632507,1.0326879024505615,0.418870747089386,-0.39044779539108276
1.077818951977626,1.1952867875867843,-1.280953462422987,0.03288443014025688,-2.188930034637451,-1.431766152381897,0.4402754604816437,-0.8809277415275574,-0.17356327176094055,1.0045182704925537,0.33531904220581055,-0.3999382257461548
1.0658978598986546,1.1848055867674812,-1.2935088913109827,0.18284648656845093,-2.0800187587738037,-1.2280184030532837,0.44812941551208496,-0.8752235770225525,-0.18210899829864502,0.94264817237854,0.25858545303344727,-0.34975123405456543
1.0559523766585237,1.1767800895880751,-1.3065829695359943,0.2330142855644226,-1.7700872421264648,-1.0976544618606567,0.45466893911361694,-0.870369553565979,-0.18903204798698425,0.8685275316238403,0.1869741678237915,-0.2504667043685913
1.0471115644892737,1.1720006697151728,-1.3192335339964207,0.23492059111595154,-1.3742949962615967,-1.013966679573059,0.46083322167396545,-0.8659824132919312,-0.19418329000473022,0.8079351186752319,0.12654149532318115,-0.14654533565044403
1.0389910157016844,1.1699224221946014,-1.330757886023297,0.19125324487686157,-1.038846492767334,-0.9272686839103699,0.46688854694366455,-0.8618929982185364,-0.19787843525409698,0.753631591796875,0.07501232624053955,-0.05145004391670227
1.0313739232981067,1.168307380845784,-1.3398138273981044,0.03218182921409607,-0.869479775428772,-0.8283610343933105,0.47259521484375,-0.8580055236816406,-0.2011980414390564,0.7088623642921448,0.039462924003601074,0.04648935794830322
1.0234901865553436,1.1612207864859234,-1.3419918042847798,-0.4415794014930725,-0.9030738472938538,-0.6982417702674866,0.4773472845554352,-0.8539294600486755,-0.20722918212413788,0.6998682618141174,0.019182205200195312,0.31800809502601624
1.0154803174551241,1.146356404872626,-1.3357250241121563,-0.7660198211669922,-0.9936990737915039,-0.49737972021102905,0.4804321229457855,-0.8497338891029358,-0.21711137890815735,0.6915038824081421,0.03383117914199829,0.3826388120651245
1.0083087852654735,1.1281959267055062,-1.3260987038284862,-0.7208259105682373,-0.9843519330024719,-0.3844653367996216,0.48190468549728394,-0.8459311723709106,-0.22840410470962524,0.6344283819198608,-0.05040067434310913,0.2065383940935135
1.0025716259959754,1.112976827005553,-1.3188572776180036,-0.4521140158176422,-0.7973135709762573,-0.30823609232902527,0.48271840810775757,-0.8428576588630676,-0.23785272240638733,0.5679255723953247,-0.07266968488693237,-0.013947650790214539
0.9988533853436817,1.1050423466628438,-1.3168428525823739,-0.06602226942777634,-0.44857078790664673,-0.2645801305770874,0.4836128056049347,-0.8408508896827698,-0.24308107793331146,0.5257103443145752,-0.038207948207855225,-0.2238224595785141
0.9970904276029395,1.1055436615784988,-1.3213806957607688,0.34526515007019043,-0.2435198873281479,-0.277201384305954,0.4850586950778961,-0.8398953676223755,-0.24350331723690033,0.4684019982814789,-0.03710353374481201,-0.3367730379104614
0.9969700457278204,1.1125961929469599,-1.3323984615581146,0.6990389227867126,-0.19744566082954407,-0.27224817872047424,0.4868547320365906,-0.8398300409317017,-0.24012118577957153,0.4096601903438568,-0.022444188594818115,-0.3730989098548889
0.997978032440398,1.1235280496343039,-1.3475059124732969,0.8144184947013855,-0.16785527765750885,-0.2700191140174866,0.48868682980537415,-0.8403767943382263,-0.2344183623790741,0.38538241386413574,0.02096456289291382,-0.30346906185150146
0.9990898300311614,1.1343955253343925,-1.3628576115636895,0.7750799655914307,-0.24223771691322327,-0.23002827167510986,0.4903586506843567,-0.8409788608551025,-0.22869887948036194,0.3570382595062256,-0.005563557147979736,-0.1485898494720459
1.0004827323058787,1.1436655813225265,-1.376819064236923,0.7025998830795288,-0.24194210767745972,-0.14660315215587616,0.49139103293418884,-0.8417317271232605,-0.2236580103635788,0.3759491443634033,-0.04903078079223633,-0.03824374079704285
1.0021749984569852,1.1515518218006178,-1.3887205021673954,0.6002618670463562,-0.17692747712135315,-0.06566286087036133,0.49183768033981323,-0.8426441550254822,-0.2191956639289856,0.38163650035858154,-0.0440441370010376,0.023379743099212646
1.004215889662032,1.1583533481027355,-1.3982405846147767,0.4943769872188568,-0.07084977626800537,0.024133339524269104,0.4917406737804413,-0.8437413573265076,-0.21515560150146484,0.3721052408218384,-0.03699612617492676,0.066657155752182
1.006528753684811,1.1639050791668977,-1.4053685413315982,0.39364153146743774,-0.038506679236888885,0.09493418037891388,0.4911338686943054,-0.8449805378913879,-0.2116493135690689,0.3407905697822571,-0.03983086347579956,0.09345486760139465
1.0091206490438571,1.1679531284809674,-1.4106047457973008,0.3241865634918213,-0.03064928948879242,0.16016672551631927,0.48997029662132263,-0.8463638424873352,-0.20880021154880524,0.29846662282943726,-0.02176976203918457,0.1046285629272461
1.0121059142647306,1.1712669898735288,-1.4144030664393366,0.2840251922607422,0.05985601991415024,0.23228085041046143,0.48832961916923523,-0.8479500412940979,-0.20619158446788788,0.27747851610183716,0.007419586181640625,0.09295624494552612
1.0156906522555496,1.1749784439520163,-1.4174273078283424,0.2899746894836426,0.15467627346515656,0.30497848987579346,0.48628368973731995,-0.849844753742218,-0.2032044380903244,0.26852282881736755,0.020453274250030518,0.06180138885974884
1.0201132824187256,1.1789946907459914,-1.420266931673724,0.32492074370384216,0.155574768781662,0.39717838168144226,0.48361730575561523,-0.8521673083305359,-0.19981254637241364,0.25004053115844727,0.015924692153930664,0.031004756689071655
1.0255275633957701,1.182463545088387,-1.4229071333987178,0.3308188319206238,0.0723552331328392,0.49626556038856506,0.4800303280353546,-0.8549879193305969,-0.19638392329216003,0.23562216758728027,0.02310919761657715,0.020465493202209473
1.0318256125642065,1.1836852055940437,-1.4244812003193759,0.2905850112438202,-0.10570985078811646,0.603148877620697,0.47527408599853516,-0.8582374453544617,-0.19376064836978912,0.22521117329597473,0.043006062507629395,0.029240503907203674
1.0389828174830353,1.1819791618022786,-1.424817459505191,0.28617268800735474,-0.2819943428039551,0.7039237022399902,0.46924662590026855,-0.8618888854980469,-0.19223763048648834,0.21659022569656372,0.048122286796569824,0.0241011381149292
1.0469855332534492,1.1783485632925608,-1.4244260011166325,0.28010886907577515,-0.35560134053230286,0.7842161059379578,0.4621577560901642,-0.8659193515777588,-0.19129595160484314,0.20636039972305298,0.05532658100128174,-0.0034823715686798096
1.0556054732147941,1.1739132729771138,-1.4233407900011876,0.28487300872802734,-0.34226131439208984,0.8475199937820435,0.45440351963043213,-0.8701987266540527,-0.19045139849185944,0.18966996669769287,0.06239837408065796,-0.030144795775413513
1.0649135457369643,1.1692663388135465,-1.4221487818604832,0.3346256613731384,-0.38746920228004456,0.9118848443031311,0.4460383653640747,-0.8747470378875732,-0.18938694894313812,0.1780461072921753,0.05516695976257324,-0.062398239970207214
1.0751805464552704,1.1640541679473073,-1.4214591163669392,0.4150802791118622,-0.544459342956543,0.9959158301353455,0.43677398562431335,-0.8796760439872742,-0.18814624845981598,0.1752561628818512,0.058249473571777344,-0.08967038989067078
1.0865333285547265,1.1577014215346213,-1.421467599962104,0.4836370050907135,-0.7218547463417053,1.0799368619918823,0.4263950288295746,-0.8850182890892029,-0.18689563870429993,0.1618618369102478,0.06699460744857788,-0.09789423644542694
1.0988868659154802,1.1499609867857783,-1.421786806392714,0.5377928614616394,-0.8747441172599792,1.1608504056930542,0.4149243235588074,-0.8907018899917603,-0.18570968508720398,0.1431659460067749,0.06279045343399048,-0.08870428800582886
1.1120488315245227,1.14110292162094,-1.4223420219171838,0.5877161026000977,-0.9833535552024841,1.2111672163009644,0.40256989002227783,-0.8966078162193298,-0.18447764217853546,0.12317174673080444,0.04887521266937256,-0.0726785659790039
1.1258083528965028,1.1315969918063018,-1.4229549373807948,0.6121380925178528,-1.0129292011260986,1.2545220851898193,0.389594703912735,-0.9026158452033997,-0.18303267657756805,0.09828990697860718,0.04707062244415283,-0.059520915150642395
1.1399651703823614,1.1219626908727909,-1.4234005766436608,0.6342941522598267,-0.994000256061554,1.276619791984558,0.3762618601322174,-0.9086189270019531,-0.18121424317359924,0.07222446799278259,0.0384102463722229,-0.048399850726127625
1.154267459231103,1.112121090847191,-1.4238440846951737,0.6480717062950134,-1.0575854778289795,1.2684047222137451,0.36277011036872864,-0.9144988059997559,-0.17913584411144257,0.030418366193771362,0.025430262088775635,-0.035600945353507996
1.168425278963835,1.1016328379809568,-1.424415265263517,0.654964804649353,-1.1371408700942993,1.234318494796753,0.34928756952285767,-0.9201350808143616,-0.17705875635147095,-0.01193094253540039,0.020492076873779297,-0.012638390064239502
1.182165912041601,1.0908398453343315,-1.4251302029446393,0.6448996067047119,-1.1345139741897583,1.17672598361969,0.33610907196998596,-0.9254288673400879,-0.17496344447135925,-0.045474886894226074,0.02303934097290039,0.006155550479888916
1.1952413569663694,1.0806172966760306,-1.4259390523822533,0.6216286420822144,-1.0417861938476562,1.100419282913208,0.32359927892684937,-0.930304229259491,-0.17267844080924988,-0.06882321834564209,0.020956575870513916,0.017328858375549316
1.2074421721322095,1.0719270340323395,-1.4268620128003586,0.5909211039543152,-0.8561209440231323,1.0103133916854858,0.3120955526828766,-0.9347099661827087,-0.17004065215587616,-0.08866104483604431,0.009386420249938965,0.02634871006011963
1.2186984147660884,1.0658170902345216,-1.4283577487652281,0.5822325944900513,-0.6460356116294861,0.9064870476722717,0.3018229603767395,-0.9386512637138367,-0.16684333980083466,-0.10525920987129211,0.00286024808883667,0.02489091455936432
1.2290336727017042,1.062418626256212,-1.4309373550484428,0.5702084302902222,-0.5346483588218689,0.814852774143219,0.2927641272544861,-0.9421653747558594,-0.16313716769218445,-0.1249326765537262,0.0005759596824645996,0.02208501100540161
1.2386098501007154,1.0601056863751048,-1.4340473797681597,0.5387985706329346,-0.5149174928665161,0.7548253536224365,0.28450170159339905,-0.9453315734863281,-0.15939657390117645,-0.12605440616607666,0.00632089376449585,0.0376926064491272
1.2476236560723302,1.0579121839940675,-1.4372039712287605,0.5215570330619812,-0.5185586214065552,0.7143477201461792,0.27671515941619873,-0.9482326507568359,-0.15583252906799316,-0.11256107687950134,0.014486193656921387,0.050485968589782715
1.2561752779552986,1.056034365794194,-1.4407314412321746,0.5059181451797485,-0.5289093852043152,0.6612765192985535,0.2693540155887604,-0.9509137272834778,-0.15235400199890137,-0.11635410785675049,0.015214204788208008,0.05633056163787842
1.264126852008762,1.0540841193041741,-1.4443509685637619,0.4648790955543518,-0.5477957129478455,0.6159327030181885,0.2624739110469818,-0.9533442854881287,-0.14913883805274963,-0.12592297792434692,0.012410998344421387,0.0689845085144043
1.2715245633871923,1.050807837336722,-1.446875529584963,0.3979777693748474,-0.5891270637512207,0.599224328994751,0.2558562457561493,-0.9555514454841614,-0.14648960530757904,-0.1073271632194519,0.010254144668579102,0.08597338199615479
1.2785460479848132,1.0457089044941217,-1.4478789954013562,0.35115140676498413,-0.6151679754257202,0.5848909020423889,0.2492942363023758,-0.9575979709625244,-0.14442533254623413,-0.0860709398984909,0.004762828350067139,0.09341531991958618
1.2851531203654267,1.039925717916351,-1.44811567288018,0.32202479243278503,-0.5790122747421265,0.5457345843315125,0.24299345910549164,-0.9594805836677551,-0.1426583230495453,-0.08677394688129425,0.0004961490631103516,0.09071755409240723
1.2911469954984172,1.0342856033042294,-1.4480057822214887,0.2784496247768402,-0.5239782929420471,0.48751944303512573,0.2372378706932068,-0.9611523151397705,-0.14108452200889587,-0.09552942216396332,-0.0017232298851013184,0.08302496373653412
1.2965072537276012,1.0285358587602764,-1.4472582192275292,0.23493720591068268,-0.4804229438304901,0.4557998776435852,0.23200614750385284,-0.9626179933547974,-0.13978520035743713,-0.09560778737068176,0.003007948398590088,0.07369953393936157
1.301400220796438,1.0228999050858112,-1.4461972151964366,0.22108398377895355,-0.44025900959968567,0.4124164581298828,0.22719092667102814,-0.9639317989349365,-0.13863521814346313,-0.08929723501205444,0.0045659542083740234,0.05896921455860138
1.3059058812672024,1.0181743101834388,-1.4457225649384742,0.2242339551448822,-0.4125082492828369,0.3676794171333313,0.2228344976902008,-0.9651212096214294,-0.1374261975288391,-0.08948791027069092,0.008456110954284668,0.043615296483039856
1.3100045735110188,1.0144739970558354,-1.4459135259875329,0.20758679509162903,-0.36054787039756775,0.3258603513240814,0.21896347403526306,-0.9661861062049866,-0.13615982234477997,-0.08978252112865448,0.017425060272216797,0.03899198770523071
1.3136881604684216,1.0109182117187199,-1.4456992976990715,0.17151853442192078,-0.310491144657135,0.3064965009689331,0.21546077728271484,-0.9671293497085571,-0.13504645228385925,-0.07433220744132996,0.025967180728912354,0.038687288761138916
1.3171126758456895,1.0071347057708315,-1.4449493347485396,0.16086481511592865,-0.30304306745529175,0.2947002947330475,0.2121475785970688,-0.9679945111274719,-0.13409045338630676,-0.059254467487335205,0.02342963218688965,0.031047940254211426
1.3203887270711603,1.0037088448475262,-1.444479865691419,0.1700463891029358,-0.2857525646686554,0.270391583442688,0.20901094377040863,-0.9688115119934082,-0.13311219215393066,-0.05973416566848755,0.011780202388763428,0.017114996910095215
1.3234745153570597,1.0018508804272515,-1.4452293484788985,0.18710286915302277,-0.2233981043100357,0.2301645427942276,0.20624379813671112,-0.9695715308189392,-0.13188914954662323,-0.06337571144104004,0.011716246604919434,0.004920840263366699
1.3262518463311623,1.0019855405886855,-1.4471564379611812,0.18748444318771362,-0.1204112097620964,0.18520709872245789,0.20399166643619537,-0.9702476859092712,-0.13041023910045624,-0.06387016177177429,0.01654285192489624,0.0031215548515319824
1.328561991889462,1.0040309320281466,-1.4500003396637646,0.17090493440628052,-0.027496445924043655,0.12817177176475525,0.20236629247665405,-0.9708044528961182,-0.12878884375095367,-0.06822624802589417,0.014749765396118164,0.012990012764930725
1.3303049021178417,1.007206678163528,-1.4533280889691353,0.14592626690864563,0.006948907859623432,0.08368659764528275,0.20134373009204865,-0.9712210297584534,-0.12724147737026215,-0.07045382261276245,0.0010062456130981445,0.03101964294910431
1.3315885510357393,1.00994389667431,-1.4562468960268433,0.10437776148319244,-0.035056598484516144,0.0629112720489502,0.2006351351737976,-0.9715259671211243,-0.1260264813899994,-0.061993762850761414,0.000944972038269043,0.04787112772464752
1.3325485095740728,1.0104615529480219,-1.4575647206571483,0.04708117991685867,-0.11862555891275406,0.07119397073984146,0.19991040229797363,-0.9717530012130737,-0.1254269778728485,-0.04521678388118744,0.00880134105682373,0.05749495327472687
1.3334038517203441,1.007854247997665,-1.4564375175660034,0.002488143742084503,-0.18077495694160461,0.10315190255641937,0.19888001680374146,-0.9719544649124146,-0.12550435960292816,-0.02256469428539276,0.00889599323272705,0.0530710369348526
1.3343521473690039,1.0030404245599573,-1.453536419581584,-0.0150893684476614,-0.21444007754325867,0.1280544102191925,0.19749629497528076,-0.9721770882606506,-0.12596452236175537,-0.008882373571395874,-0.0020508766174316406,0.03891324996948242
1.3354135825992137,0.9973774398551277,-1.450033390325031,-0.007581651210784912,-0.2321019023656845,0.14049109816551208,0.19591271877288818,-0.9724251627922058,-0.12652094662189484,-0.008321136236190796,-0.01017981767654419,0.022227242588996887
1.3366218325113055,0.9920537778056061,-1.4467696154624323,0.00859634205698967,-0.190700963139534,0.1408059000968933,0.19425317645072937,-0.9727061986923218,-0.1269197314977646,-0.010796725749969482,-0.008556067943572998,0.003399968147277832
1.3377983002056537,0.9880212409376381,-1.444223320308007,0.02256595343351364,-0.11715643107891083,0.11792747676372528,0.19278410077095032,-0.9729785323143005,-0.12707209587097168,-0.020619139075279236,-0.005659222602844238,-0.01135551929473877
1.3388143988374552,0.9863170550421142,-1.4431710585574984,0.047582000494003296,-0.01963493973016739,0.08023176342248917,0.19174207746982574,-0.9732126593589783,-0.12685450911521912,-0.02963268756866455,-0.0070119500160217285,-0.01865313947200775
1.3397314813615933,0.9872259249539032,-1.443984784581812,0.08484974503517151,0.034851472824811935,0.049473848193883896,0.19111265242099762,-0.9734230637550354,-0.1261885166168213,-0.029979795217514038,-0.0060538649559021,-0.02321016788482666
1.340871781888388,0.9906587773801931,-1.4471451666476753,0.11121421307325363,0.023039866238832474,0.036689165979623795,0.1906159520149231,-0.9736835956573486,-0.12492302805185318,-0.024707108736038208,0.0001576542854309082,-0.019638583064079285
1.3420325221118785,0.9944865660102676,-1.4509872518746956,0.1136387512087822,-0.018162162974476814,0.05593583360314369,0.19014500081539154,-0.9739474654197693,-0.12357654422521591,-0.012547940015792847,0.0056705474853515625,-0.004612371325492859
1.3432565726835264,0.9964930225434776,-1.4534520894255483,0.0805194154381752,-0.061402577906847,0.09010099619626999,0.18939164280891418,-0.974224328994751,-0.12254712730646133,0.01226852834224701,0.0023767948150634766,0.013935215771198273
1.3445181687931804,0.9958081409486923,-1.4533655653545625,0.03543955460190773,-0.05497290939092636,0.1232333853840828,0.18827638030052185,-0.9745081663131714,-0.12200849503278732,0.02896304428577423,-0.0031377673149108887,0.02654963731765747
1.345792536082951,0.9922739670536171,-1.4502611100717053,-0.01215459406375885,-0.05125132203102112,0.1585940271615982,0.1868039071559906,-0.9747932553291321,-0.12199389934539795,0.03479951620101929,-0.008116960525512695,0.029693603515625
1.3470869166408812,0.9856154329690154,-1.4442532914494808,-0.05455824360251427,-0.10850422084331512,0.19168834388256073,0.18493595719337463,-0.975081205368042,-0.12253828346729279,0.03871217370033264,-0.010941922664642334,0.029063090682029724
1.348454089014787,0.976040774277082,-1.435833540716293,-0.07920736819505692,-0.14877793192863464,0.22235961258411407,0.1826493740081787,-0.9753836393356323,-0.12355594336986542,0.04363851249217987,-0.014087855815887451,0.023199021816253662
1.3499174989063563,0.9650685396383867,-1.4259649471307279,-0.08606234192848206,-0.10056433826684952,0.23807865381240845,0.18010909855365753,-0.9757052659988403,-0.12473970651626587,0.03993794322013855,-0.011355280876159668,0.00791853666305542
1.3514215247165402,0.9550769419349864,-1.4164033839555934,-0.057543233036994934,-0.02289065346121788,0.23312348127365112,0.1776556670665741,-0.9760336875915527,-0.1256854087114334,0.029390886425971985,-0.002237856388092041,-0.016068637371063232
1.3530659600253645,0.9481493242713803,-1.4091303698220912,-0.0045713623985648155,0.055656883865594864,0.21944548189640045,0.1754763424396515,-0.9763902425765991,-0.12597669661045074,0.0205533504486084,0.006129622459411621,-0.036285147070884705
1.3548511023059424,0.945151307238108,-1.4052462327280937,0.056456394493579865,0.0899672880768776,0.19276487827301025,0.17368482053279877,-0.976774275302887,-0.12548132240772247,0.00919179618358612,0.005552411079406738,-0.040412113070487976
1.3566550893585778,0.9455453873540551,-1.404649017558741,0.09830451011657715,0.09100751578807831,0.15406915545463562,0.17230603098869324,-0.9771592617034912,-0.12438187748193741,-0.008274003863334656,0.0022292733192443848,-0.02980811893939972
1.3583017696551762,0.9478094609191862,-1.405941084306665,0.1017177402973175,0.10082642734050751,0.11740478873252869,0.17127975821495056,-0.9775078296661377,-0.12305214256048203,-0.023055821657180786,0.008772969245910645,-0.010172262787818909
1.3595399548117142,0.9504542302701147,-1.4074249481433363,0.06586439907550812,0.13370954990386963,0.08154212683439255,0.17061984539031982,-0.9777682423591614,-0.12189517915248871,-0.02895718812942505,0.01220715045928955,0.01261185109615326
1.360284652627242,0.952697445993974,-1.4079215009544974,0.02248336561024189,0.21017031371593475,0.05892123654484749,0.17029912769794464,-0.977924108505249,-0.12108998000621796,-0.02488282322883606,0.012759864330291748,0.0270501971244812
1.3606296292843623,0.9542418141865183,-1.4070411857284608,-0.016723424196243286,0.25837191939353943,0.04809282347559929,0.17021037638187408,-0.9779961705207825,-0.12063153088092804,-0.01968240737915039,0.00949031114578247,0.02796502411365509
1.3607705716628993,0.9542174877708997,-1.4044106507889311,-0.045906197279691696,0.2440393716096878,0.057618770748376846,0.17009465396404266,-0.9780255556106567,-0.12055573612451553,-0.0034381449222564697,0.002348184585571289,0.025951407849788666
1.3608995757469844,0.9525521493292046,-1.4003372541653067,-0.051245834678411484,0.22464117407798767,0.07291463762521744,0.16979122161865234,-0.9780524373054504,-0.12076597660779953,0.007103964686393738,-0.00029540061950683594,0.016319692134857178
1.3611411998315586,0.9502359200315732,-1.3959005191479947,-0.041215598583221436,0.18286052346229553,0.07510490715503693,0.16931892931461334,-0.9781027436256409,-0.12102162092924118,-0.0029523074626922607,0.0026540756225585938,-0.0002551078796386719
1.3615051048618514,0.9479699604856304,-1.3921416976120928,-0.023455511778593063,0.09987109899520874,0.06517557799816132,0.16875526309013367,-0.9781784415245056,-0.1211974173784256,-0.021645233035087585,0.0035689473152160645,-0.011004626750946045
1.36190218588788,0.946488097694184,-1.3899246485186176,0.0023830686695873737,0.045114628970623016,0.04276250675320625,0.16826000809669495,-0.9782608151435852,-0.12122008204460144,-0.03569161891937256,8.088350296020508e-05,-0.02242600917816162
1.362388006167271,0.9466209241914887,-1.3895486440024167,0.036972470581531525,0.06846949458122253,0.030057361349463463,0.167890727519989,-0.9783614873886108,-0.12092015892267227,-0.03394903242588043,0.003751993179321289,-0.03610789775848389
1.3630454123368088,0.9492627896928171,-1.3912189098003696,0.07418695092201233,0.13191238045692444,0.022062020376324654,0.16768662631511688,-0.9784972667694092,-0.12010163068771362,-0.0268479585647583,0.007458388805389404,-0.042862117290496826
1.3637964625351795,0.9534947107008498,-1.3940524790796505,0.0846417248249054,0.154249370098114,0.021956292912364006,0.16759392619132996,-0.9786519408226013,-0.11896540224552155,-0.01875966787338257,0.000777125358581543,-0.0336528941988945
1.3645549128937775,0.9577806183692399,-1.3968313971642374,0.07515844702720642,0.15582747757434845,0.03693879395723343,0.1674957573413849,-0.9788075089454651,-0.1178193986415863,-0.006149232387542725,-0.004926860332489014,-0.013283997774124146
1.3652579480495872,0.9612955426493892,-1.398823845860779,0.06046365201473236,0.14915946125984192,0.04077960550785065,0.1673443764448166,-0.9789512753486633,-0.11683584004640579,-0.006867662072181702,-0.005271255970001221,-0.002014756202697754
1.3659224701449975,0.9636058834987699,-1.3998213987428914,0.05442330613732338,0.11297968029975891,0.04293205961585045,0.16707949340343475,-0.9790866374969482,-0.11607765406370163,-0.016063228249549866,-0.004510223865509033,0.0024608373641967773
1.3666046664907507,0.9647141208755625,-1.3999984112084234,0.052117541432380676,0.08001639693975449,0.04281967505812645,0.1666588932275772,-0.979225218296051,-0.11551181226968765,-0.019228428602218628,-0.00963592529296875,3.343820571899414e-05
1.3673151076022347,0.9655429823568038,-1.4000698042438133,0.06765679270029068,0.08803340792655945,0.030151372775435448,0.16618229448795319,-0.979369044303894,-0.11497768014669418,-0.020186185836791992,-0.010316073894500732,-0.008816711604595184
1.3679314760522139,0.9674791707070982,-1.4010306622424993,0.08505495637655258,0.1222963035106659,0.010299904271960258,0.16590763628482819,-0.9794933795928955,-0.1143132895231247,-0.025084227323532104,-0.004927456378936768,-0.01784294843673706
1.3685400075151772,0.9701829000496118,-1.4025793717545598,0.09931698441505432,0.12252498418092728,0.023037804290652275,0.16572415828704834,-0.9796158075332642,-0.11352730542421341,-0.022383064031600952,-0.005644261837005615,-0.014142870903015137
1.3693449901391692,0.9726237928053207,-1.4041377526778347,0.0908457338809967,0.06695627421140671,0.05676434561610222,0.1653490960597992,-0.9797772169113159,-0.11267836391925812,-0.008244559168815613,-0.012120425701141357,0.0029219985008239746
1.370318414617065,0.9735374722599873,-1.4048454087665134,0.06263410300016403,-0.01944543607532978,0.08070234209299088,0.1646634042263031,-0.9799715280532837,-0.11199091374874115,0.002862870693206787,-0.01535940170288086,0.024741291999816895
1.3712524604121257,0.9720612510150684,-1.4039615234326204,0.020694639533758163,-0.09434044361114502,0.08804094791412354,0.16374137997627258,-0.9801570773124695,-0.11171770840883255,-0.00044180452823638916,-0.012717068195343018,0.036034293472766876
1.3720139678796845,0.9684837982060321,-1.4013876446151683,-0.01636878028512001,-0.10675594210624695,0.08719735592603683,0.16272541880607605,-0.9803077578544617,-0.11187976598739624,-0.006872132420539856,-0.006813764572143555,0.034670427441596985
1.372638219929515,0.9634437375716438,-1.3971772942346763,-0.04267095774412155,-0.06969060003757477,0.0966704860329628,0.1616572141647339,-0.9804308414459229,-0.11234941333532333,-0.004033878445625305,-0.008674442768096924,0.025115013122558594
1.373219699626679,0.9583365237241797,-1.3924853992589992,-0.02738627791404724,-0.02614578790962696,0.08952522277832031,0.16061441600322723,-0.980545163154602,-0.1128455325961113,-0.00154152512550354,-0.016692936420440674,0.004828706383705139
1.3738269896618729,0.9553463460655981,-1.3894093314893714,0.013401098549365997,0.03776954486966133,0.060191560536623,0.15979009866714478,-0.9806641936302185,-0.11298153549432755,-0.012313887476921082,-0.016314566135406494,-0.019708804786205292
1.3743391996585799,0.9553400840485711,-1.3887499052076162,0.039093978703022,0.09356382489204407,0.018417930230498314,0.15937916934490204,-0.9807642698287964,-0.11269248276948929,-0.03291429579257965,-0.008264601230621338,-0.02893947809934616
1.3746105537779676,0.9583049716622553,-1.3905907541085685,0.044506847858428955,0.136627659201622,-0.017606116831302643,0.15949520468711853,-0.9808171987533569,-0.11206670105457306,-0.04209405183792114,-0.004427611827850342,-0.021768033504486084
1.3746769480653716,0.9630357851094247,-1.3939365371624333,0.036535270512104034,0.1376962959766388,-0.036120589822530746,0.15996988117694855,-0.9808301329612732,-0.11127355694770813,-0.039959490299224854,-0.0017747879028320312,-0.011590048670768738
1.3746773699660764,0.9676830831051081,-1.3973844711443881,0.02644961141049862,0.10357853770256042,-0.03638344630599022,0.16048508882522583,-0.9808302521705627,-0.11052879691123962,-0.028954297304153442,0.003886282444000244,-8.206814527511597e-05
1.374628481088828,0.9710209684391405,-1.400020920651414,0.009683563373982906,0.03463026136159897,-0.033713001757860184,0.16089294850826263,-0.9808207154273987,-0.1100197359919548,-0.013172566890716553,0.004273414611816406,0.011936366558074951
1.3744247788839552,0.9728457212770568,-1.4018052221658697,-0.0013989144936203957,-0.01933310553431511,-0.04351503401994705,0.16125884652137756,-0.9807809591293335,-0.10983863472938538,-0.012104153633117676,-0.0005270838737487793,0.011541664600372314
1.3741046780922384,0.9740637783302126,-1.4033309531407228,0.01233911793678999,-0.030184848234057426,-0.04952161759138107,0.161652073264122,-0.9807184934616089,-0.10981845110654831,-0.012344777584075928,0.002034902572631836,-0.011397242546081543
1.3738098277624613,0.9760605263777323,-1.4055205943215427,0.052599988877773285,0.010367106646299362,-0.06252370029687881,0.16211044788360596,-0.9806607961654663,-0.1096574142575264,-0.01698407530784607,0.0002530217170715332,-0.04071784019470215
1.3737374569475769,0.9808220743180771,-1.410162590348388,0.11103320121765137,0.029762107878923416,-0.07778894156217575,0.16268932819366455,-0.9806466698646545,-0.10892348736524582,-0.021225079894065857,-0.009068906307220459,-0.058266930282115936
1.3738409627008765,0.9878508944185233,-1.4171437050354485,0.13754338026046753,0.012982595711946487,-0.0825195163488388,0.16336661577224731,-0.9806669354438782,-0.1077217161655426,-0.019521981477737427,-0.008987724781036377,-0.04645293951034546
1.37404004882637,0.9944984277734848,-1.4239439643895553,0.11330946534872055,-0.011877243407070637,-0.056766390800476074,0.16391521692276,-0.9807058572769165,-0.10652686655521393,0.0008186846971511841,-0.0060800909996032715,-0.007349364459514618
1.3742675345553779,0.9987814057955917,-1.4285566571745845,0.05979697406291962,-0.029642658308148384,-0.02700876258313656,0.16418218612670898,-0.980750322341919,-0.1057029440999031,0.026110202074050903,-0.00739365816116333,0.027944274246692657
1.3744033414416965,1.0001541398894584,-1.430237726787359,0.005662545096129179,-0.02361740544438362,0.004519869573414326,0.1642153412103653,-0.9807767868041992,-0.10540571063756943,0.034286290407180786,-0.0007143616676330566,0.04891782999038696
1.3744046468906936,0.9983534833701037,-1.4286317744749042,-0.06230958178639412,-0.014062250964343548,0.021197648718953133,0.16402409970760345,-0.9807770848274231,-0.10570047795772552,0.03263120353221893,-0.0021331310272216797,0.057025082409381866
1.3740420274041123,0.9935093914787377,-1.4236030773093284,-0.13269615173339844,0.02796000987291336,0.0196621585637331,0.16380822658538818,-0.9807062149047852,-0.10668792575597763,0.026056915521621704,-0.004660665988922119,0.06782388687133789
1.3733221649215073,0.9860294153456014,-1.4156561715622658,-0.19046331942081451,0.03842277079820633,0.025517383590340614,0.1635940670967102,-0.9805652499198914,-0.10829975455999374,0.020228609442710876,-0.001612544059753418,0.07453221082687378
1.3724805231385202,0.9772270851309622,-1.406027767930778,-0.19720277190208435,0.09729041159152985,0.035528916865587234,0.1633187085390091,-0.9803997874259949,-0.11019724607467651,0.020336106419563293,-0.004814505577087402,0.045255959033966064
1.371724754022398,0.9690761740557595,-1.396568358603212,-0.1826629787683487,0.1256389617919922,0.04342145845293999,0.1630256474018097,-0.9802505970001221,-0.11194401979446411,0.022917985916137695,-0.0009048581123352051,0.018270432949066162
1.3711893003861908,0.9619949108485765,-1.388019903734898,-0.1561773121356964,0.13277941942214966,0.060194313526153564,0.16265998780727386,-0.9801445603370667,-0.11339618265628815,0.02752561867237091,0.006313204765319824,-0.00031216442584991455
1.3708696765932609,0.9559812327718424,-1.3805774669548516,-0.13668882846832275,0.11525183171033859,0.06277678161859512,0.16223080456256866,-0.9800811409950256,-0.11455284804105759,0.019028395414352417,0.012719511985778809,-0.0074868351221084595
1.3705979846173173,0.9504440891147087,-1.3740016715519585,-0.11948788911104202,0.05707322061061859,0.05094533413648605,0.161810964345932,-0.9800271391868591,-0.11560436338186264,0.0057000815868377686,0.01390153169631958,-0.0076560527086257935
1.3703312869362274,0.9458837543799575,-1.36916697625471,-0.083140529692173,-0.03067660517990589,0.02607247419655323,0.16149328649044037,-0.979974091053009,-0.11649342626333237,-0.010126069188117981,0.012749969959259033,-0.022620789706707
1.3701823710712504,0.9430302868407507,-1.3670818601027357,-0.014080388471484184,-0.13257285952568054,0.003325795754790306,0.16127853095531464,-0.9799444079399109,-0.11703962832689285,-0.026726484298706055,0.012918651103973389,-0.05483525991439819
1.3703325179685564,0.9435436097133094,-1.3692783659708596,0.08570931851863861,-0.19608952105045319,-0.024300239980220795,0.16121919453144073,-0.9799743294715881,-0.11687026917934418,-0.029856249690055847,0.008981287479400635,-0.09002351015806198
1.3708549104643462,0.9479178725206305,-1.3758025504351998,0.17769931256771088,-0.20158985257148743,-0.04049030318856239,0.16131307184696198,-0.9800782203674316,-0.11586529016494751,-0.02198505401611328,0.007711887359619141,-0.11152099817991257
1.371684570697049,0.9560996815553227,-1.3860938820816382,0.24315422773361206,-0.17353186011314392,-0.061917830258607864,0.16159150004386902,-0.9802426695823669,-0.11407274752855301,-0.007294610142707825,0.0026883482933044434,-0.10647766292095184
1.3724752041847774,0.9669503287469473,-1.398676137957022,0.24372999370098114,-0.11943293362855911,-0.08708683401346207,0.16218192875385284,-0.9803987145423889,-0.11187274008989334,-0.010997802019119263,-0.00786733627319336,-0.07088160514831543
1.3729966596776026,0.9781265876949259,-1.4109102212734905,0.2116841822862625,-0.042735226452350616,-0.09385232627391815,0.1629980504512787,-0.9805013537406921,-0.10976763814687729,-0.007907673716545105,-0.021085619926452637,-0.02994173765182495
1.373286776124091,0.9888331920324958,-1.4218641552030526,0.1785551756620407,0.037500299513339996,-0.09705104678869247,0.16392642259597778,-0.9805583357810974,-0.10785996168851852,0.013243407011032104,-0.020723462104797363,-0.007923603057861328
1.3733239764504244,0.9989854809149267,-1.4314810206667232,0.1461849808692932,0.10815823078155518,-0.10460563749074936,0.16498246788978577,-0.98056560754776,-0.10617056488990784,0.014140516519546509,-0.016199707984924316,0.0040131062269210815
1.373111162689315,1.0085726936952606,-1.4398815935095017,0.11813443154096603,0.15766341984272003,-0.11693500727415085,0.1661689579486847,-0.9805238246917725,-0.10469500720500946,0.007659211754798889,-0.022177040576934814,0.016606152057647705
1.3725537058800414,1.017333269966108,-1.4471428622589166,0.0855378732085228,0.16969318687915802,-0.1371835619211197,0.16754457354545593,-0.9804142117500305,-0.10352247208356857,-0.001788318157196045,-0.021477937698364258,0.02669459581375122
1.3716127060087602,1.0250127011034358,-1.4533174118060788,0.04734654352068901,0.15763403475284576,-0.15632130205631256,0.1691237986087799,-0.9802284240722656,-0.10271207243204117,-0.013148412108421326,-0.022335171699523926,0.034352824091911316
1.370378834804439,1.0313368696075482,-1.458253842640166,0.014897258952260017,0.14539681375026703,-0.1622079610824585,0.17080655694007874,-0.9799835681915283,-0.10226104408502579,-0.018310189247131348,-0.02529597282409668,0.03587020933628082
1.3689949949080382,1.0367743381472518,-1.4623798015508434,0.005151720717549324,0.1350734978914261,-0.16126154363155365,0.17252789437770844,-0.9797071218490601,-0.10202135145664215,-0.010952532291412354,-0.024412810802459717,0.027253448963165283
1.367628067598402,1.0421828673371019,-1.4664502125593997,0.004934939555823803,0.14755652844905853,-0.15668436884880066,0.17423324286937714,-0.979432225227356,-0.10176197439432144,-0.0036246925592422485,-0.015578210353851318,0.010499238967895508
1.3663615623335241,1.047572561139773,-1.4704440816597042,0.010261972434818745,0.13997644186019897,-0.14150461554527283,0.17585355043411255,-0.979175865650177,-0.10144118219614029,0.0011179149150848389,-0.010097265243530273,-0.003645956516265869
1.365268733133391,1.052424823595186,-1.4741053806678983,0.010959187522530556,0.11203722655773163,-0.12190616130828857,0.17727278172969818,-0.9789534211158752,-0.10111665725708008,0.0068550556898117065,-0.012104928493499756,-0.008258163928985596
1.3643559114038635,1.0566678646837924,-1.4774210562126016,0.016507204622030258,0.09104419499635696,-0.10648627579212189,0.17847797274589539,-0.9787667393684387,-0.10080283880233765,0.008976265788078308,-0.013405442237854004,-0.009502813220024109
1.363565509642982,1.0607310692525358,-1.4805997267061664,0.013438709080219269,0.10271177440881729,-0.09863581508398056,0.1795615553855896,-0.9786044359207153,-0.10045471042394638,0.008152082562446594,-0.008318841457366943,-0.008614949882030487
1.3628703812575762,1.064730301947438,-1.483545689295876,0.011702772229909897,0.11755070835351944,-0.09103195369243622,0.18055687844753265,-0.9784611463546753,-0.10006555914878845,0.006393834948539734,-0.0038692355155944824,-0.006852686405181885
1.362244314870436,1.068552033474233,-1.486190407077244,0.002608876209706068,0.1254512369632721,-0.09220587462186813,0.18147505819797516,-0.9783317446708679,-0.09966976195573807,0.003995567560195923,-0.0051125288009643555,-0.003082752227783203
1.3615621570174368,1.0722388832889855,-1.4886402030080788,0.0012187049724161625,0.12864388525485992,-0.09668291360139847,0.18242675065994263,-0.9781902432441711,-0.09931875765323639,0.001823142170906067,-0.010274052619934082,0.004363492131233215
1.3607259544163228,1.0758784151282716,-1.4909642624784731,-0.004287114366889,0.14477331936359406,-0.11004665493965149,0.18350738286972046,-0.9780162572860718,-0.09904295206069946,-0.0020650923252105713,-0.009608983993530273,0.010084331035614014
1.3596900587133316,1.0792652315458893,-1.492929607477407,-0.01903410255908966,0.14575330913066864,-0.11846144497394562,0.18473483622074127,-0.9777997136116028,-0.0988989844918251,-0.01359221339225769,-0.0017840862274169922,0.012259721755981445
1.3584813767389785,1.0820769254986076,-1.4944432119697793,-0.029410842806100845,0.1191888228058815,-0.12572601437568665,0.18605516850948334,-0.9775457382202148,-0.09893378615379333,-0.01718612015247345,0.009985864162445068,0.009044408798217773
1.357271854090847,1.084301738069883,-1.4956673472452162,-0.024759838357567787,0.08670831471681595,-0.11427859961986542,0.1873198300600052,-0.977290153503418,-0.09907230734825134,-0.012408316135406494,0.014735162258148193,4.286319017410278e-05
1.3562562853179294,1.086561906660752,-1.4971564457625095,0.001475759781897068,0.07851723581552505,-0.09866128861904144,0.18842154741287231,-0.9770744442939758,-0.09911065548658371,-0.0006773918867111206,0.012383222579956055,-0.014780811965465546
1.3555339165885485,1.0899827500216923,-1.4998168655747743,0.04072270169854164,0.08501031249761581,-0.08298841118812561,0.18938501179218292,-0.9769203662872314,-0.09879181534051895,0.0038980692625045776,0.01258021593093872,-0.026909932494163513
1.3551561617746597,1.0941518587725714,-1.5032175004675052,0.057662539184093475,0.08364783972501755,-0.058332864195108414,0.1901235580444336,-0.9768396019935608,-0.0981709212064743,0.0102243572473526,0.012224733829498291,-0.027347736060619354
1.35508049009998,1.0980438394432348,-1.5064079654241564,0.053873274475336075,0.06714858114719391,-0.026540225371718407,0.19057051837444305,-0.9768234491348267,-0.09746413677930832,0.025127798318862915,0.009354948997497559,-0.011147812008857727
1.3552857794195399,1.100717790707123,-1.5085951414669498,0.0342220738530159,0.04285602644085884,0.0071295867674052715,0.19065162539482117,-0.9768673181533813,-0.09686335921287537,0.03830656409263611,0.0059198737144470215,0.007492765784263611
1.3556534178887873,1.101352279125914,-1.5088368555261626,-0.004448473919183016,0.03767523914575577,0.028396882116794586,0.19039270281791687,-0.9769458770751953,-0.09657987952232361,0.03795510530471802,0.004610002040863037,0.02603858709335327
1.355952452150398,1.0998932960346537,-1.5070698310247852,-0.04230158030986786,0.015140634961426258,0.03522096574306488,0.189991295337677,-0.9770097136497498,-0.09672503918409348,0.027965307235717773,0.00404810905456543,0.03912322223186493
1.3560632380935767,1.0966591513339892,-1.503682170880673,-0.07020828127861023,0.002327653579413891,0.03366399556398392,0.18958090245723724,-0.9770333170890808,-0.09728942811489105,0.016977369785308838,0.0011268854141235352,0.0399775505065918
1.3559417399134828,1.0920877941751763,-1.498966018765035,-0.09944339841604233,0.013067116029560566,0.0364571176469326,0.1892392635345459,-0.9770073890686035,-0.09820958226919174,0.01504543423652649,0.0004143714904785156,0.034260161221027374
1.3557026586610743,1.0865513642862834,-1.4930494834130443,-0.11089318245649338,0.04014670103788376,0.0427657887339592,0.18889927864074707,-0.9769564270973206,-0.09936448186635971,0.01901702582836151,0.004132270812988281,0.026748061180114746
1.355440630261004,1.0810145189209195,-1.4869054173003566,-0.11378644406795502,0.05271602421998978,0.047331247478723526,0.1885717213153839,-0.9769004583358765,-0.10052907466888428,0.013149484992027283,0.00535815954208374,0.016743198037147522
1.3552373408906357,1.075773893725065,-1.481019719708403,-0.11743325740098953,0.04713607579469681,0.06360334157943726,0.18821759521961212,-0.9768570065498352,-0.10161056369543076,0.016860544681549072,0.00786280632019043,0.009676463901996613
1.3551471057354496,1.070699570015084,-1.4753434403585277,-0.11450404673814774,0.0450524166226387,0.07877670228481293,0.18777690827846527,-0.976837694644928,-0.10260658711194992,0.026120826601982117,0.008621692657470703,0.0029057860374450684
1.3552344461385386,1.0665215869096978,-1.4704069814759217,-0.09512434154748917,0.07170257717370987,0.07799568772315979,0.18727172911167145,-0.9768563508987427,-0.10334890335798264,0.02300967276096344,0.0034829378128051758,-0.00347774475812912
1.3554308938195132,1.0632559054605177,-1.4662008693647002,-0.08973810076713562,0.07720333337783813,0.07341744750738144,0.18676528334617615,-0.9768983721733093,-0.10386652499437332,0.011522695422172546,0.00041222572326660156,-0.006484910845756531
1.3556501582151388,1.059764040132369,-1.4618831967919907,-0.0974293127655983,0.0519232302904129,0.07534930109977722,0.1862146407365799,-0.9769452214241028,-0.10441329330205917,0.004489719867706299,0.003114044666290283,-0.0004450008273124695
1.355869106558938,1.0552498932079877,-1.456848187451698,-0.11288842558860779,0.019628940150141716,0.08731328696012497,0.1855551302433014,-0.9769918918609619,-0.10514727979898453,0.008033141493797302,0.004793524742126465,0.004561498761177063
1.3560279248162037,1.0498176761110196,-1.4512099624396857,-0.11587022244930267,-0.0167195163667202,0.08435672521591187,0.18484728038311005,-0.9770258069038391,-0.10607683658599854,0.006192803382873535,0.0070397257804870605,0.005109548568725586
1.3561473647053415,1.0441518204456617,-1.4456334798687245,-0.10669856518507004,-0.025823798030614853,0.07200738042593002,0.1841428130865097,-0.9770511984825134,-0.10706401616334915,-0.0013272017240524292,0.0066378116607666016,-0.0013648420572280884
1.3560706272550191,1.0391868762162804,-1.4406224331954924,-0.1034529060125351,0.005063425749540329,0.04917033761739731,0.18367284536361694,-0.977034866809845,-0.10801450908184052,-0.011492624878883362,0.0027917027473449707,-0.00723499059677124
1.3557886738206526,1.0350501503421634,-1.436305540667122,-0.09053178131580353,0.0005182083696126938,0.03515305370092392,0.1834612488746643,-0.9769747853279114,-0.10891397297382355,-0.017445608973503113,0.00044280290603637695,-0.011996559798717499
1.3555520747616745,1.0312378077945474,-1.432544819279338,-0.0743471309542656,-0.03006036765873432,0.036121916025877,0.1832432895898819,-0.9769242405891418,-0.1097315177321434,-0.010620564222335815,0.0035507678985595703,-0.016031265258789062
1.3554356894845114,1.027427160480857,-1.4289584631918055,-0.06878644973039627,-0.027061382308602333,0.03689343109726906,0.18292132019996643,-0.9768993854522705,-0.11048789322376251,-0.005736231803894043,0.010377109050750732,-0.014664530754089355
