attitudeX,attitudeY,attitudeZ,gyroX,gyroY,gyroZ,gravityX,gravityY,gravityZ,accX,accY,accZ
1.0217058805549237,-0.6085805457941155,0.45320566957331426,0.26381829380989075,-0.6010735034942627,0.5865387320518494,-0.2983787953853607,-0.8529995679855347,-0.42820796370506287,0.26635053753852844,-0.19654589891433716,-0.23336732387542725
1.0206908222720754,-0.624913138479401,0.4663737801117836,0.3625914454460144,-0.4009619653224945,0.6354096531867981,-0.3058386743068695,-0.8524693846702576,-0.4239795506000519,0.2798681855201721,-0.1832820177078247,-0.19445902109146118
1.020348193150476,-0.6388415006333694,0.4803464503910521,0.43805795907974243,0.03806786611676216,0.5595108866691589,-0.3118884265422821,-0.8522902131080627,-0.4199133813381195,0.22973507642745972,-0.1712237000465393,-0.15450364351272583
1.021392189107098,-0.646328433115275,0.49284353798560526,0.5145419836044312,0.5988309383392334,0.34341901540756226,-0.3144872486591339,-0.8528358340263367,-0.41685572266578674,0.1351354420185089,-0.18396836519241333,-0.11801046133041382
1.0246205596258398,-0.6455935315974338,0.5027586945206943,0.6284033060073853,1.2402833700180054,0.09448428452014923,-0.3125227391719818,-0.8545171618461609,-0.41488558053970337,0.056617558002471924,-0.2488611936569214,-0.13305741548538208
1.030470378636486,-0.6370481867091751,0.5110165779179007,0.8329148888587952,1.8599474430084229,-0.09718229621648788,-0.3059873580932617,-0.857541024684906,-0.413515567779541,0.08226299285888672,-0.2703123688697815,-0.20242056250572205
1.0393579236867339,-0.6237969260024802,0.5198431736072446,1.1413795948028564,2.25321364402771,-0.20520438253879547,-0.2960173487663269,-0.8620790243148804,-0.41133132576942444,0.19344782829284668,-0.22474336624145508,-0.31663501262664795
1.0514524067631101,-0.6105338775060555,0.5318404835085138,1.5340005159378052,2.4513931274414062,-0.18656329810619354,-0.2845374047756195,-0.8681449890136719,-0.4066482484340668,0.345130056142807,-0.1595955491065979,-0.4395277798175812
1.0662041326846905,-0.6025419487123069,0.5511204343439656,1.9288862943649292,2.452793598175049,0.08807864785194397,-0.27399006485939026,-0.8753716945648193,-0.3983137309551239,0.47935810685157776,-0.10909491777420044,-0.4929214417934418
1.0812964218557575,-0.6042777352571439,0.5798258524232656,2.070490837097168,2.2157833576202393,0.4513375461101532,-0.2671438455581665,-0.8825681209564209,-0.3869209885597229,0.5512930154800415,-0.08059728145599365,-0.42734891176223755
1.094904594407855,-0.6156067222088184,0.6162145645792373,2.0732171535491943,1.9433865547180176,0.7458842396736145,-0.2645498514175415,-0.8888845443725586,-0.3740292191505432,0.6082693338394165,-0.04805099964141846,-0.3248385190963745
1.1066279949412612,-0.6353022227759031,0.6582318784896565,2.037775993347168,1.5936897993087769,0.9543355107307434,-0.26566240191459656,-0.8941941857337952,-0.3603339195251465,0.6206275224685669,-0.01771700382232666,-0.21838608384132385
1.1164458932843482,-0.6617920361507217,0.7041542425640479,1.9665330648422241,1.355781078338623,1.0936659574508667,-0.26970502734184265,-0.8985462784767151,-0.3462282419204712,0.5744229555130005,0.0027788877487182617,-0.12445953488349915
1.1241605393558907,-0.6922302310874257,0.7524383777905376,1.854364037513733,1.2556679248809814,1.2058062553405762,-0.2756842374801636,-0.9019052982330322,-0.3325132727622986,0.5280951261520386,0.03862398862838745,-0.056402623653411865
1.1296318261236395,-0.7234660049691608,0.8014089577806597,1.690747857093811,1.3797235488891602,1.2525548934936523,-0.2826635539531708,-0.9042550325393677,-0.32003796100616455,0.4921056926250458,0.0662270188331604,0.0007326602935791016
1.133146623656896,-0.7484893077569501,0.8476126169452283,1.4747400283813477,2.107109308242798,1.1810344457626343,-0.2884179949760437,-0.9057502746582031,-0.31053468585014343,0.4859277307987213,0.08972543478012085,0.0646699070930481
1.1346336233209762,-0.7620511655408478,0.893379439785977,1.3681834936141968,3.3477253913879395,1.498450756072998,-0.2916725277900696,-0.9063794612884521,-0.3056200444698334,0.5286567211151123,0.1064220666885376,0.08532899618148804
1.131752275797701,-0.7714820565132489,0.9448239835978419,1.244125247001648,3.987208366394043,2.0020554065704346,-0.29636117815971375,-0.9051584005355835,-0.3047265112400055,0.42398568987846375,0.070792555809021,0.051552802324295044
1.1257729864749786,-0.7812463709076701,0.9998126808915528,1.1922682523727417,3.8589584827423096,2.1262404918670654,-0.30312806367874146,-0.9026006460189819,-0.3056556284427643,0.32615360617637634,-0.003725588321685791,0.04550868272781372
1.11932041826852,-0.793828408104142,1.052402402939772,1.1099961996078491,3.029698610305786,1.9763901233673096,-0.31109631061553955,-0.8998041749000549,-0.30589479207992554,0.23663341999053955,0.031746864318847656,0.026277631521224976
1.1131819714657314,-0.8102539823027054,1.099566127044688,1.011165738105774,2.173640012741089,1.77663254737854,-0.3200741410255432,-0.8971090316772461,-0.304545521736145,0.21298792958259583,0.1378164291381836,0.04920506477355957
1.1073741708926357,-0.8293042601515475,1.141562887267481,0.9193538427352905,1.5562217235565186,1.6150951385498047,-0.3296543061733246,-0.8945279717445374,-0.3019070625305176,0.1933932602405548,0.21819734573364258,0.06014692783355713
1.1018962142977877,-0.8495265457737319,1.1795399781852356,0.8993551135063171,1.2171504497528076,1.471168875694275,-0.3393665850162506,-0.8920658826828003,-0.2984107732772827,0.13595160841941833,0.27281832695007324,0.013956546783447266
1.0975263285812138,-0.8694641531901485,1.215284207669602,0.9966945648193359,1.1838970184326172,1.3096565008163452,-0.3482230305671692,-0.890082597732544,-0.2940981090068817,0.0991232693195343,0.28563618659973145,-0.057891517877578735
1.0948237773784917,-0.8883193721748505,1.2508299326114956,1.1587988138198853,1.3824667930603027,1.188562035560608,-0.3555716276168823,-0.8888475298881531,-0.2889966368675232,0.08642181754112244,0.3017350435256958,-0.08180707693099976
1.0935796660624717,-0.9055886246670362,1.2879788933363954,1.3502277135849,1.7660539150238037,1.1393601894378662,-0.3613790273666382,-0.8882767558097839,-0.28349581360816956,0.06328323483467102,0.3338027000427246,-0.0725221335887909
1.0934878006985798,-0.9220777355894746,1.3286988241568525,1.5964511632919312,2.1576201915740967,1.1590396165847778,-0.3660690188407898,-0.888234555721283,-0.27754780650138855,0.016978412866592407,0.32230132818222046,-0.0823306143283844
1.0944891863043131,-0.9370433138966755,1.3738908349295362,1.830885410308838,2.8666601181030273,1.1578950881958008,-0.36946460604667664,-0.888694167137146,-0.27151167392730713,-0.006359398365020752,0.3101571798324585,-0.11317756772041321
1.0962157002858381,-0.9508719952431353,1.42226530527349,1.9214037656784058,2.856572151184082,1.1389338970184326,-0.3719344139099121,-0.8894844651222229,-0.26548483967781067,-0.05279400944709778,0.3633461594581604,-0.1077297031879425
1.0983008852995622,-0.9655559508195534,1.469922845615446,1.844427227973938,2.678255796432495,1.0011253356933594,-0.37426653504371643,-0.8904353380203247,-0.2589391767978668,-0.24464526772499084,0.3915950059890747,-0.07907339930534363
1.1009268260423313,-0.9782417750610842,1.513524235578087,1.704040288925171,2.5346155166625977,0.7847988605499268,-0.37558019161224365,-0.8916273713111877,-0.2528637945652008,-0.37930265069007874,0.34891802072525024,-0.042393654584884644
1.1042597724056262,-0.9866060059425469,1.551125784495125,1.4677671194076538,2.497859001159668,0.5418300032615662,-0.37520119547843933,-0.8931314945220947,-0.2480732649564743,-0.49468713998794556,0.28271883726119995,-0.02675265073776245
1.107930921961708,-0.9890804274638036,1.5814386329587953,1.1963504552841187,2.384403944015503,0.34858304262161255,-0.373071551322937,-0.8947767019271851,-0.24534067511558533,-0.5712491273880005,0.2458815574645996,-0.007131114602088928
1.1111743498038893,-0.9871266812299129,1.6048286325030607,0.8936471939086914,2.1791441440582275,0.27175286412239075,-0.3701682388782501,-0.8962202668190002,-0.24446870386600494,-0.6416574120521545,0.17718029022216797,-0.0163038969039917
1.1129964603885976,-0.9819225985370976,1.6232093287437366,0.6536908149719238,2.147580623626709,0.3511054813861847,-0.36753228306770325,-0.8970270752906799,-0.24548426270484924,-0.6926941871643066,0.09829044342041016,-0.04562276601791382
1.111773873389679,-0.9756195409885723,1.6391380299443339,0.38815709948539734,1.9195994138717651,0.6397004723548889,-0.3668854832649231,-0.8964860439300537,-0.24841059744358063,-0.7681548595428467,0.013231039047241211,-0.08435295522212982
1.107231829758377,-0.9723275557657056,1.6546139063384107,0.2543015778064728,1.504257082939148,0.8558071851730347,-0.36942628026008606,-0.894464373588562,-0.251908540725708,-0.9054761528968811,-0.09067368507385254,-0.15557730197906494
1.1014143035801225,-0.9728768455405294,1.670292901314654,0.2717244327068329,1.1811199188232422,0.8651790618896484,-0.37385910749435425,-0.8918479681015015,-0.25463053584098816,-1.056881308555603,-0.09748619794845581,-0.2520527243614197
1.0970419940134146,-0.9765260866599528,1.6859767376143489,0.43057987093925476,0.8861871361732483,0.624322772026062,-0.3780132234096527,-0.8898617029190063,-0.2554454803466797,-1.264763355255127,-0.05593913793563843,-0.37166017293930054
1.096493787841707,-0.9818473153449072,1.7003460004274047,0.5486428737640381,0.5022551417350769,0.16641978919506073,-0.3797725439071655,-0.8896114826202393,-0.25370118021965027,-1.514529824256897,-0.06964755058288574,-0.4989384710788727
1.1002424750829602,-0.9883676923745124,1.7074789695887154,0.47906914353370667,-0.44015365839004517,-0.4264219403266907,-0.37863102555274963,-0.8913173079490662,-0.24938347935676575,-1.6222540140151978,-0.05683332681655884,-0.5296539068222046
1.1091776663363477,-0.9967895111866008,1.708871981863084,0.5757903456687927,-0.985588788986206,-0.9882603287696838,-0.3740151524543762,-0.8953326940536499,-0.24185171723365784,-1.5997703075408936,-0.009605169296264648,-0.53399658203125
1.1225603483256126,-1.0050912440475341,1.7052088596734751,0.5947685837745667,-1.2976616621017456,-1.4152112007141113,-0.36586129665374756,-0.9012129902839661,-0.2322947382926941,-1.5134875774383545,0.05544877052307129,-0.5475971102714539
1.1392667889050252,-1.0119538140418114,1.6974712676992023,0.6244140863418579,-1.449149489402771,-1.7409754991531372,-0.3546302318572998,-0.908327043056488,-0.22176384925842285,-1.4131462574005127,0.03923231363296509,-0.5118023157119751
1.1585452497103024,-1.0172621258442072,1.6866502310015914,0.6538931131362915,-1.5914422273635864,-1.9766908884048462,-0.34084123373031616,-0.9162212014198303,-0.2106325477361679,-1.2784062623977661,0.014167308807373047,-0.5130611658096313
1.1795409232071223,-1.0225993707254626,1.6737104706526076,0.6790351271629333,-1.8546841144561768,-2.103698968887329,-0.325468510389328,-0.9244310259819031,-0.1987399011850357,-1.1156479120254517,0.020485103130340576,-0.5224361419677734
1.2012451483880884,-1.0299870848136652,1.6601337674113232,0.6990242600440979,-2.1193578243255615,-2.102092742919922,-0.30965176224708557,-0.9324895739555359,-0.1859552264213562,-0.9506632685661316,0.05227088928222656,-0.5370365977287292
1.2225357629615592,-1.0401410348205025,1.6470817972807295,0.6796494126319885,-2.3430211544036865,-2.0072989463806152,-0.2943316400051117,-0.9399677515029907,-0.17271310091018677,-0.807490348815918,0.0827440619468689,-0.5376291871070862
1.2428265985616773,-1.0530997827261828,1.6344190208952731,0.615063488483429,-2.6397366523742676,-1.9192841053009033,-0.27991148829460144,-0.9466983079910278,-0.15941162407398224,-0.6863056421279907,0.10036951303482056,-0.5139738321304321
1.2622104199876307,-1.067766340173571,1.6197487078256871,0.46173763275146484,-3.0725510120391846,-1.9120762348175049,-0.2660898268222809,-0.9527639746665955,-0.1464141458272934,-0.607582688331604,0.14934295415878296,-0.46210622787475586
1.281111828476908,-1.0804870867419762,1.5984481316445454,0.2268175482749939,-3.5207715034484863,-2.010761022567749,-0.2519970238208771,-0.9583340287208557,-0.13451234996318817,-0.5703144669532776,0.22479814291000366,-0.38849782943725586
1.3002637144461173,-1.0861216969798695,1.56531156207504,-0.05923066660761833,-3.9453656673431396,-2.229355812072754,-0.23646557331085205,-0.9636287093162537,-0.12451496720314026,-0.5630492568016052,0.2968500852584839,-0.3366360664367676
1.3203067066464398,-1.0787784905687356,1.514946363149799,-0.34748217463493347,-4.2701826095581055,-2.514939069747925,-0.21847543120384216,-0.9687911868095398,-0.1170990839600563,-0.5729369521141052,0.353373646736145,-0.30666786432266235
1.3412660766100237,-1.0521062596506052,1.4426799183282775,-0.6243669390678406,-4.375064849853516,-2.7953875064849854,-0.19759464263916016,-0.9737733602523804,-0.11279171705245972,-0.5727300643920898,0.3903992772102356,-0.29112356901168823
1.3626571595053614,-0.9986332602040917,1.3433838134245892,-0.8270081877708435,-4.27438497543335,-3.0733585357666016,-0.17372888326644897,-0.978417158126831,-0.11188565939664841,-0.5523911714553833,0.432320237159729,-0.29753804206848145
1.384126891746116,-0.912198646335693,1.2124862909114313,-0.8539667129516602,-4.062984943389893,-3.3674569129943848,-0.14677175879478455,-0.982627809047699,-0.1135808452963829,-0.5279414057731628,0.4911879897117615,-0.36943602561950684
1.4055083196366913,-0.7882160329794169,1.0469840584480818,-0.6548866629600525,-3.6874659061431885,-3.621673583984375,-0.11667217314243317,-0.9863709807395935,-0.11601648479700089,-0.4639400243759155,0.5476350784301758,-0.49032193422317505
1.4260574384963947,-0.6218002103152627,0.8433616539603401,-0.28345176577568054,-3.240868091583252,-3.7801849842071533,-0.0840163603425026,-0.989543616771698,-0.11723809689283371,-0.355192631483078,0.5832020044326782,-0.6326854825019836
1.4445182004830546,-0.40224886827449996,0.5910773284681838,0.14399516582489014,-2.8586740493774414,-3.918466091156006,-0.04930509999394417,-0.9920375347137451,-0.11589021980762482,-0.2559775114059448,0.6273219585418701,-0.731674313545227
1.458283234520801,-0.11298622256001266,0.2716603116013971,0.5296800136566162,-2.7336714267730713,-4.0718278884887695,-0.012658839114010334,-0.9936770796775818,-0.11156162619590759,-0.17061449587345123,0.6691072583198547,-0.778529167175293
1.4624941468861778,0.23600272052171226,-0.10749726699669182,0.7871970534324646,-2.8380210399627686,-4.134603500366211,0.025273948907852173,-0.9941410422325134,-0.10509610176086426,-0.03987662121653557,0.6960604190826416,-0.7484194040298462
1.4540319172771852,0.5742602149678215,-0.4774439077240411,0.9203730225563049,-2.9895362854003906,-4.075871467590332,0.0632842630147934,-0.9931907653808594,-0.09781251847743988,0.10003054141998291,0.7176322340965271,-0.6761283874511719
1.4350499589907502,0.8350633797513628,-0.7702914142408188,0.9761332273483276,-2.9203073978424072,-3.9363584518432617,0.10032514482736588,-0.9908006191253662,-0.09082387387752533,0.20897051692008972,0.6887834072113037,-0.5873681306838989
1.4095129413646228,1.0170517009580333,-0.9830006753608381,0.9808287620544434,-2.7416749000549316,-3.8996565341949463,0.13658730685710907,-0.9870219826698303,-0.08444774150848389,0.25605183839797974,0.6696239709854126,-0.5093936920166016
1.3794629254149904,1.1436216250157563,-1.137989161346664,0.9927780628204346,-2.4144668579101562,-3.957014560699463,0.17307989299297333,-0.981751561164856,-0.07878698408603668,0.254547655582428,0.6653910279273987,-0.42678236961364746
1.3461922508612252,1.2387810008421112,-1.2573339013796103,1.1274781227111816,-1.86337411403656,-4.0171051025390625,0.21055743098258972,-0.9748823642730713,-0.07259561121463776,0.29917770624160767,0.6560041308403015,-0.3818873167037964
1.3110854400749037,1.3190384093913967,-1.3556716531447488,1.3731755018234253,-1.183133840560913,-4.024847984313965,0.2487061470746994,-0.9664642810821533,-0.06397102028131485,0.4363677203655243,0.6290313005447388,-0.3700956106185913
1.2752142913231048,1.3925031584205556,-1.4410505648712788,1.6560457944869995,-0.5643627047538757,-3.932250738143921,0.28667929768562317,-0.9566327333450317,-0.05166153609752655,0.6257352828979492,0.5498791933059692,-0.3613327145576477
1.239790763454509,1.460955999667915,-1.5165008614816362,1.912502408027649,-0.13153859972953796,-3.704972267150879,0.32303598523139954,-0.9457160234451294,-0.03562576696276665,0.8489916324615479,0.4966955780982971,-0.3217349052429199
1.206160324721888,1.5240146564380572,-1.5838140771295,2.108597993850708,0.05308191478252411,-3.3077502250671387,0.3562191128730774,-0.9342536330223083,-0.01667669229209423,1.0700961351394653,0.43271249532699585,-0.2693796753883362
1.1760909425631743,1.5796687817331827,-1.643391585661355,2.156524896621704,-0.016620470210909843,-2.754079818725586,0.3845212161540985,-0.9231098890304565,0.0034117368049919605,1.296234369277954,0.35456740856170654,-0.2121061086654663
1.1509795744338698,1.6252591042872786,-1.6947509653731705,2.039355754852295,-0.31464117765426636,-2.111384630203247,0.4069889783859253,-0.9131636619567871,0.022187693044543266,1.4738551378250122,0.30589431524276733,-0.10766732692718506
1.1318049736110904,1.659481150098594,-1.7376027787872763,1.766234278678894,-0.6159549355506897,-1.449329137802124,0.4233565330505371,-0.905180811882019,0.03764404356479645,1.5827622413635254,0.26197707653045654,0.018676280975341797
1.1189183663614404,1.683206241564489,-1.7717845292310508,1.4132851362228394,-0.7838587164878845,-0.8198986053466797,0.4339003264904022,-0.8996286392211914,0.048981182277202606,1.6121965646743774,0.20060813426971436,0.15710413455963135
1.1119346443285931,1.6991111496492664,-1.7984414280781769,1.0867321491241455,-0.7915451526641846,-0.29650941491127014,0.4392867982387543,-0.8965572714805603,0.0566784143447876,1.590467929840088,0.17470967769622803,0.25733232498168945
1.1099513882162086,1.7112703735334196,-1.820090197475466,0.884982168674469,-0.6347935795783997,0.14596599340438843,0.44032448530197144,-0.8956770896911621,0.06226425617933273,1.5275709629058838,0.16372829675674438,0.2775033712387085
1.1120142465146543,1.7234990323128032,-1.8396326936486573,0.7806978225708008,-0.40983158349990845,0.4917375147342682,0.437703400850296,-0.8965924978256226,0.06736289709806442,1.4676005840301514,0.17038094997406006,0.24254322052001953
1.1168806591911906,1.738024883863044,-1.85892302426411,0.7455593347549438,-0.13981105387210846,0.7235605120658875,0.4323713183403015,-0.8987370133399963,0.07298646867275238,1.3843859434127808,0.19336891174316406,0.20789754390716553
1.1235764639376655,1.756370002848731,-1.8792899171328794,0.7673309445381165,0.13529402017593384,0.898435115814209,0.425035685300827,-0.9016528725624084,0.07979350537061691,1.2960946559906006,0.20975828170776367,0.17389929294586182
1.1318186678523814,1.7791786626930852,-1.901867481059848,0.8076732754707336,0.3397403657436371,1.0969372987747192,0.41582006216049194,-0.905186653137207,0.08792592585086823,1.2527438402175903,0.21219342947006226,0.13077843189239502
1.1419632242821738,1.806788842990884,-1.9276419055871186,0.8545846343040466,0.498248815536499,1.356608271598816,0.40428483486175537,-0.9094516038894653,0.09721973538398743,1.2645536661148071,0.22752106189727783,0.08681666105985641
1.154355143957697,1.839595403334166,-1.9575352152826095,0.8908699154853821,0.6019954085350037,1.6461819410324097,0.38998228311538696,-0.9145342707633972,0.1074267253279686,1.2759112119674683,0.24609273672103882,0.04349801689386368
1.16909000492868,1.8776612417322252,-1.9920836441944985,0.9007137417793274,0.6640704870223999,1.951010823249817,0.37272483110427856,-0.9203951954841614,0.11810687929391861,1.2654893398284912,0.25254833698272705,0.005519881844520569
1.1861912607990333,1.9214995415708913,-2.0320480265161356,0.8828281760215759,0.7155875563621521,2.2562859058380127,0.35235610604286194,-0.9269466996192932,0.12890088558197021,1.2462767362594604,0.2668970823287964,-0.01452086865901947
1.2053536363528785,1.9718594118384303,-2.078002680746473,0.829182505607605,0.8097635507583618,2.5240771770477295,0.3290051519870758,-0.9339656233787537,0.13951361179351807,1.1921130418777466,0.2905787229537964,-0.012407779693603516
1.226232313031655,2.030331489620872,-2.1307759781386175,0.7581641674041748,0.9890300631523132,2.7822704315185547,0.3027442395687103,-0.9412227869033813,0.149819016456604,1.1195123195648193,0.30870020389556885,-0.0019001960754394531
1.2485524374067822,2.0993649781113395,-2.1922068236322922,0.6598151922225952,1.2075848579406738,3.0315918922424316,0.2734765410423279,-0.9485271573066711,0.159709170460701,1.061057209968567,0.31765246391296387,0.00046253204345703125
1.271947668058013,2.1815233521649087,-2.2645297255254007,0.5346667766571045,1.4401167631149292,3.2630019187927246,0.24119827151298523,-0.9556760787963867,0.16883917152881622,1.0040867328643799,0.3506345748901367,0.004378661513328552
1.295831957187197,2.2796442359976328,-2.350475805899877,0.37941351532936096,1.693867802619934,3.464008331298828,0.20610879361629486,-0.9624348878860474,0.17674393951892853,0.939490556716919,0.3971272110939026,-0.003953337669372559
1.3193997420634418,2.3985808956206665,-2.4543879148039154,0.23680013418197632,2.016305923461914,3.6536903381347656,0.16828669607639313,-0.9685659408569336,0.1831936091184616,0.8682886362075806,0.4336232542991638,-0.019970178604125977
1.3414092302767453,2.544437353334532,-2.582090610166341,0.09099047631025314,2.3222031593322754,3.805525302886963,0.12785466015338898,-0.9738059639930725,0.1880301982164383,0.8017718195915222,0.46736669540405273,-0.05222678184509277
1.3602319861769783,2.7203361715750694,-2.7372541325366044,-0.07309561222791672,2.5461697578430176,3.90034556388855,0.08546698838472366,-0.9779131412506104,0.19074027240276337,0.7235540151596069,0.521217405796051,-0.08620211482048035
1.3740781930896517,2.9262559952517835,-2.920400854690652,-0.2246324121952057,2.742250442504883,3.9602913856506348,0.04176368564367294,-0.9807133078575134,0.19093894958496094,0.6500240564346313,0.6041109561920166,-0.1229608952999115
1.3809784698849887,-3.1268061408437444,-3.1259624988002095,-0.349261611700058,2.902590036392212,3.995177984237671,-0.0027898328844457865,-0.9820386171340942,0.1886603981256485,0.5833867192268372,0.6778239607810974,-0.17115840315818787
1.3796228509082171,-2.8877058704731,2.9438895212331078,-0.4586583971977234,2.994730234146118,4.0100884437561035,-0.04772487282752991,-0.9817819595336914,0.18392062187194824,0.5204116106033325,0.7398232221603394,-0.2204805612564087
1.3699516495727888,-2.659009266681394,2.7417780610413525,-0.5685760974884033,3.081336259841919,4.006260871887207,-0.092580646276474,-0.9798983931541443,0.1767147332429886,0.4605615735054016,0.7982882857322693,-0.25531256198883057
1.352824672089722,-2.4540552098920023,2.5646304707754113,-0.6388925909996033,3.234865188598633,3.987433433532715,-0.13724054396152496,-0.9763380885124207,0.1671210378408432,0.39435112476348877,0.8398785591125488,-0.2775028944015503
1.3296983460576164,-2.2790955511210895,2.419378430046257,-0.6782132983207703,3.4551994800567627,3.928946018218994,-0.18133853375911713,-0.9710763692855835,0.15533018112182617,0.32350462675094604,0.8532173037528992,-0.3071397542953491
1.3024471148025865,-2.132286427097963,2.305164172353258,-0.7225916981697083,3.787067174911499,3.8407492637634277,-0.22443127632141113,-0.9642099142074585,0.14117339253425598,0.24805186688899994,0.8634408712387085,-0.32009780406951904
1.2725833285808557,-2.007153048403596,2.2162829265721182,-0.7839633226394653,4.134857654571533,3.749645471572876,-0.26628199219703674,-0.9558630585670471,0.1241772472858429,0.18402183055877686,0.8608160018920898,-0.32344162464141846
1.2413193349193303,-1.8976366794913382,2.1461819011807046,-0.9053523540496826,4.387345790863037,3.632338523864746,-0.30642014741897583,-0.9462116956710815,0.10387592017650604,0.12386396527290344,0.8486469984054565,-0.3236786127090454
1.2096381332787178,-1.7991548737687484,2.0891894738910533,-1.0581514835357666,4.544339179992676,3.4859912395477295,-0.3441845178604126,-0.935488224029541,0.07999280840158463,0.0420452356338501,0.8544182777404785,-0.3082946538925171
1.1781612569038804,-1.7096155866423053,2.042293649308435,-1.1726993322372437,4.5956645011901855,3.306784152984619,-0.3789435625076294,-0.9239040017127991,0.052945204079151154,-0.05573359131813049,0.8451686501502991,-0.3236818313598633
1.1473662010096308,-1.6284244025222119,2.0037783882048585,-1.2529557943344116,4.526664733886719,3.09840989112854,-0.4102083444595337,-0.9116849303245544,0.023665720596909523,-0.17392873764038086,0.8246486186981201,-0.36567604541778564
1.1175525950922538,-1.5555694836866745,1.972350558363639,-1.2684497833251953,4.303593635559082,2.901543617248535,-0.43783360719680786,-0.8990314602851868,-0.006667339242994785,-0.3244650959968567,0.7883440852165222,-0.40679991245269775
1.0887289199233792,-1.4919890009472965,1.9476213860819984,-1.215487003326416,3.958153247833252,2.741462469100952,-0.46217286586761475,-0.8860383629798889,-0.03649819642305374,-0.49446162581443787,0.7174898982048035,-0.4586493968963623
1.0607915802350032,-1.4383525426914765,1.9293123038112767,-1.091687560081482,3.508852243423462,2.616105079650879,-0.48390620946884155,-0.8727421760559082,-0.06446776539087296,-0.695964515209198,0.6114810705184937,-0.491119921207428
1.0341708132340557,-1.3953283327943928,1.9169232162198204,-0.9437258243560791,2.9239323139190674,2.4167490005493164,-0.5033890604972839,-0.8594387173652649,-0.0892464891076088,-0.9589065909385681,0.45630139112472534,-0.47903645038604736
1.0103068958763155,-1.3614813857398942,1.9085434312675558,-0.8283550143241882,2.4183661937713623,2.078160047531128,-0.5199981331825256,-0.8469950556755066,-0.11046131700277328,-1.3280091285705566,0.27575159072875977,-0.42486268281936646
0.9902114515170221,-1.3335147564254455,1.901802723454873,-0.7783088088035583,2.041173219680786,1.6536874771118164,-0.5331442356109619,-0.8361420035362244,-0.12893420457839966,-1.6889933347702026,0.10260617733001709,-0.3341241478919983
0.9745416680819906,-1.3075200398582418,1.8939246323729813,-0.8540557622909546,1.8707878589630127,1.1510735750198364,-0.5421978831291199,-0.8274446129798889,-0.14614009857177734,-1.9884874820709229,-0.06469100713729858,-0.2356041520833969
0.9633902983333976,-1.2788016664062514,1.8823098593479421,-1.0206108093261719,1.9686440229415894,0.6237371563911438,-0.5465810298919678,-0.8211312890052795,-0.16429480910301208,-2.2060739994049072,-0.19917821884155273,-0.14605361223220825
0.9567723936254281,-1.2445637739122761,1.8656216605088818,-1.1963469982147217,2.1208994388580322,0.04857642576098442,-0.5457723736763,-0.8173362016677856,-0.18464615941047668,-2.3539469242095947,-0.26521384716033936,-0.13475072383880615
0.9548034885958054,-1.2053266283727813,1.8434736743494164,-1.3205337524414062,2.0567266941070557,-0.5394124984741211,-0.5396111607551575,-0.8162001967430115,-0.20648783445358276,-2.423874616622925,-0.262641966342926,-0.24913953244686127
0.9573383029115167,-1.164480882601645,1.8167912186980766,-1.308377742767334,1.7033296823501587,-1.0723435878753662,-0.5288270711898804,-0.8176621198654175,-0.22753188014030457,-2.3929717540740967,-0.19178307056427002,-0.46478980779647827
0.9642341653080527,-1.126551489118077,1.7877991393568298,-1.1172547340393066,1.1005032062530518,-1.5364881753921509,-0.5147151350975037,-0.8216125965118408,-0.24499236047267914,-2.263742446899414,-0.08678895235061646,-0.7458064556121826
0.9756053120880706,-1.0951931871716758,1.7588152553380103,-0.7926912307739258,0.3734506070613861,-1.9443070888519287,-0.49844232201576233,-0.8280414342880249,-0.25671523809432983,-2.1074843406677246,0.011619925498962402,-1.0061324834823608
0.9916800714540707,-1.0722257446197532,1.7308566485930967,-0.43305692076683044,-0.4353838562965393,-2.332414150238037,-0.48066186904907227,-0.8369466662406921,-0.26169535517692566,-1.9566855430603027,0.09672755002975464,-1.167641043663025
1.012457872642723,-1.057799161600524,1.703880688731678,-0.09205993264913559,-1.201219916343689,-2.6914398670196533,-0.4615834653377533,-0.8481365442276001,-0.26001009345054626,-1.8271892070770264,0.15639454126358032,-1.2182459831237793
1.0376551922535393,-1.0511663394574704,1.6783548908928536,0.28569671511650085,-1.8059943914413452,-2.964731216430664,-0.44115498661994934,-0.8612148761749268,-0.25237181782722473,-1.6831737756729126,0.19591623544692993,-1.2254265546798706
1.0666156970700338,-1.0527342517709586,1.656512395784945,0.7039850354194641,-2.2667555809020996,-3.101594924926758,-0.4196993410587311,-0.8755705952644348,-0.23922502994537354,-1.4735198020935059,0.21132498979568481,-1.240541696548462
1.098299445106049,-1.0629959628598438,1.640309775411502,1.0627890825271606,-2.6301660537719727,-3.1356570720672607,-0.39768335223197937,-0.8904346823692322,-0.22130060195922852,-1.2475802898406982,0.22104692459106445,-1.214551329612732
1.131552905991835,-1.0816526877055856,1.6296286574175736,1.2570219039916992,-3.000960350036621,-3.135390043258667,-0.3753878176212311,-0.9050736427307129,-0.19981467723846436,-1.0624175071716309,0.22555392980575562,-1.1141347885131836
1.1654529927105135,-1.1065304500931503,1.6217323083901383,1.2520347833633423,-3.3948729038238525,-3.167241334915161,-0.35259461402893066,-0.918967068195343,-0.1765698790550232,-0.9333704710006714,0.2340914011001587,-0.9683274626731873
1.1995285851279873,-1.1345201819509905,1.6132192192033838,1.1162313222885132,-3.746472120285034,-3.229980945587158,-0.32881489396095276,-0.9318681359291077,-0.15330640971660614,-0.8423430323600769,0.2696823477745056,-0.8302292227745056
1.2335888825074282,-1.1623379947965709,1.601275972353652,0.9098978042602539,-4.024013519287109,-3.301889419555664,-0.3036351501941681,-0.9436822533607483,-0.13141316175460815,-0.7631373405456543,0.31335699558258057,-0.7379257082939148
1.2677540746761347,-1.1871913029367374,1.5836778839778474,0.7048434615135193,-4.249757766723633,-3.408651113510132,-0.2767362594604492,-0.954433023929596,-0.1116904467344284,-0.6841859817504883,0.37630802392959595,-0.6944465041160583
1.3025850804309818,-1.2070948403569266,1.5593930866259214,0.5725426077842712,-4.337597370147705,-3.558892250061035,-0.2476719617843628,-0.9642464518547058,-0.09427253901958466,-0.6150141954421997,0.4740120768547058,-0.7072257399559021
1.3387151614279151,-1.2213021439451464,1.5294479512815897,0.5812743306159973,-4.264081001281738,-3.6972196102142334,-0.2160991132259369,-0.9731898307800293,-0.07875848561525345,-0.5377156138420105,0.574248731136322,-0.7496105432510376
1.3761579966074473,-1.2339517846654509,1.4995778788250422,0.757649302482605,-4.067429542541504,-3.7400624752044678,-0.1825430542230606,-0.9811176657676697,-0.06392484903335571,-0.39819127321243286,0.6407702565193176,-0.8142945766448975
1.4143235827521448,-1.2539652895724702,1.4793143058616456,1.0192375183105469,-3.914046049118042,-3.681997537612915,-0.14807996153831482,-0.9877830743789673,-0.048551879823207855,-0.22395986318588257,0.7037405371665955,-0.8935408592224121
1.4524955815484533,-1.2947783831887418,1.4812364198957058,1.2401319742202759,-3.8522722721099854,-3.5787549018859863,-0.11355867981910706,-0.9930106401443481,-0.03216525912284851,-0.08431732654571533,0.7790974974632263,-0.928604245185852
1.489891576204043,-1.3749737049801876,1.522733031047119,1.2760542631149292,-3.918537139892578,-3.481217861175537,-0.07927287369966507,-0.9967290163040161,-0.01572493650019169,0.01687966287136078,0.8379765152931213,-0.8690710663795471
1.525597458859789,-1.5412041481746261,1.648926894624657,1.0786267518997192,-4.124139785766602,-3.404188632965088,-0.04516516253352165,-0.9989787340164185,-0.001336925895884633,0.07183749973773956,0.8770303726196289,-0.7342281341552734
1.556265780784759,-2.2586063062747455,2.3241182022567153,0.7842295169830322,-4.316566467285156,-3.3278679847717285,-0.011235789395868778,-0.9998944401741028,0.009232008829712868,0.12343364953994751,0.9340068101882935,-0.6036074161529541
1.5436252003533302,2.172650507471217,-2.1506909991638183,0.5053555369377136,-4.386292934417725,-3.2758147716522217,0.022400114685297012,-0.999630868434906,0.015385794453322887,0.1765592396259308,0.9891021251678467,-0.558293342590332
1.512208073999185,1.877091106452281,-1.8988253638745076,0.30389031767845154,-4.357365131378174,-3.2534244060516357,0.055829375982284546,-0.9982842206954956,0.0176558680832386,0.20778146386146545,1.0204399824142456,-0.5727552175521851
1.4800397258434244,1.7588397375282334,-1.8235970940662343,0.19851405918598175,-4.235815525054932,-3.2381443977355957,0.089035764336586,-0.9958844184875488,0.016942761838436127,0.229689821600914,1.0140728950500488,-0.6097313165664673
1.447878008684741,1.6908258783920491,-1.7965168551018933,0.23065708577632904,-3.932537078857422,-3.186492681503296,0.12172729521989822,-0.9924550652503967,0.014681446366012096,0.2998272776603699,1.0202717781066895,-0.6421685218811035
1.4156006930278708,1.6501749952492215,-1.793840041438372,0.3361075520515442,-3.6480517387390137,-3.248612403869629,0.15408667922019958,-0.9879813194274902,0.01225695013999939,0.3957943022251129,1.0041708946228027,-0.6688271760940552
1.3820077604228405,1.6245558911789224,-1.8039136741013853,0.4569178521633148,-3.445772409439087,-3.4251933097839355,0.18739868700504303,-0.9822323322296143,0.010084188543260098,0.39492249488830566,0.9422693848609924,-0.6642283201217651
1.346232709752137,1.6096161664394184,-1.8226883260262619,0.6544814109802246,-3.172382116317749,-3.6698427200317383,0.22251299023628235,-0.9748913645744324,0.008642259985208511,0.42958661913871765,0.9156415462493896,-0.6411188840866089
1.3079196166589175,1.6065629749495811,-1.8501027245743893,0.9573835134506226,-2.7238147258758545,-3.907841682434082,0.259693443775177,-0.9656464457511902,0.009292326867580414,0.5172992944717407,0.8574768304824829,-0.6248165369033813
1.2675387178276638,1.615333444282169,-1.8853570675241773,1.3237310647964478,-2.238929033279419,-4.048397064208984,0.29833468794822693,-0.9543687105178833,0.013295759446918964,0.6611684560775757,0.7545243501663208,-0.5992026329040527
1.2267071222608712,1.6344697160198325,-1.92636784333036,1.7086420059204102,-1.7020920515060425,-3.9109158515930176,0.33665552735328674,-0.9413830637931824,0.021465016528964043,0.8843069672584534,0.6468885540962219,-0.5510669946670532
1.1874964049539058,1.6601916892588222,-1.9702366014047075,1.9611185789108276,-1.3814455270767212,-3.634577989578247,0.37248969078063965,-0.927435576915741,0.033387839794158936,1.1492693424224854,0.537115752696991,-0.4690260887145996
1.1506903837914964,1.6854738513554213,-2.011962058224498,1.9976047277450562,-1.2581145763397217,-3.325442314147949,0.4051785171031952,-0.9130457639694214,0.04666963219642639,1.2839083671569824,0.41614317893981934,-0.33501482009887695
1.1167903837013617,1.706096527310541,-2.0484689346047813,1.893362045288086,-1.2300283908843994,-2.998546838760376,0.43456149101257324,-0.8986974358558655,0.059157680720090866,1.3887571096420288,0.32238805294036865,-0.1701653003692627
1.0861951634392761,1.7218601164323264,-2.079384560183318,1.7331966161727905,-1.1044111251831055,-2.6303517818450928,0.46055030822753906,-0.8848608136177063,0.07010657340288162,1.473318099975586,0.2073248028755188,-0.040870554745197296
1.0596127670974742,1.734829610322653,-2.105575532323247,1.5640103816986084,-0.8897189497947693,-2.2103662490844727,0.482643187046051,-0.872166097164154,0.07988734543323517,1.5689468383789062,0.11409419775009155,0.059867970645427704
1.0371599171751469,1.7463413446264973,-2.128040666609417,1.404085636138916,-0.713253378868103,-1.8450201749801636,0.5008502006530762,-0.8609630465507507,0.08883616328239441,1.6269421577453613,0.06797903776168823,0.12144529074430466
1.0181401444670892,1.7574649229051138,-2.147893751608181,1.3011159896850586,-0.4452577829360962,-1.509945273399353,0.5158302783966064,-0.8511331677436829,0.09742353111505508,1.595879316329956,0.03277391195297241,0.12656031548976898
1.0028600167106998,1.7702746194804706,-2.1667799185919425,1.2449650764465332,-0.1984112560749054,-1.0869814157485962,0.5272273421287537,-0.843012809753418,0.10658793896436691,1.5997869968414307,-0.024190068244934082,0.09800209105014801
0.9920793240562877,1.7850611605939608,-2.1855833816025645,1.182642936706543,-0.003698487766087055,-0.6003966331481934,0.5344431400299072,-0.8371650576591492,0.11629755795001984,1.6847188472747803,-0.04006260633468628,0.09097800403833389
0.9859808435177183,1.8016045146917554,-2.204283639966619,1.0752965211868286,0.18348444998264313,-0.13927136361598969,0.5374061465263367,-0.8338139653205872,0.1262883096933365,1.708550214767456,-0.03680664300918579,0.10382959246635437
0.9844177756673146,1.8189044151446767,-2.2219823300632173,0.8938047289848328,0.3239685595035553,0.28784415125846863,0.536404013633728,-0.8329500555992126,0.13588595390319824,1.6808507442474365,-0.035305559635162354,0.1428312063217163
0.9871122679667415,1.83628271029544,-2.238169307073159,0.6979774236679077,0.4464566707611084,0.675948977470398,0.5317939519882202,-0.8344380259513855,0.14459733664989471,1.6463371515274048,-0.013935327529907227,0.18801377713680267
0.9936504363203443,1.8538592844478785,-2.25317906334093,0.533252477645874,0.5504735708236694,1.018222689628601,0.5239207744598389,-0.8380233645439148,0.15239466726779938,1.5860798358917236,0.025752127170562744,0.19515492022037506
1.0036214828585321,1.8719765165030877,-2.2675076487485706,0.37584981322288513,0.6667101979255676,1.325912356376648,0.5130682587623596,-0.8434221744537354,0.15937431156635284,1.5025262832641602,0.05803704261779785,0.18286524713039398
1.0166247507935016,1.8912280837368605,-2.2814454162104845,0.24279503524303436,0.820151686668396,1.5870083570480347,0.4994533658027649,-0.8503366708755493,0.16575291752815247,1.4082157611846924,0.10221350193023682,0.18030129373073578
1.0319100386272237,1.912134585841532,-2.2953496147377757,0.13251273334026337,0.9791304469108582,1.7527384757995605,0.4835737943649292,-0.8582807779312134,0.1717863529920578,1.2876664400100708,0.14844191074371338,0.16183196008205414
1.0486446510997567,1.9351667694229466,-2.3095660779617977,0.06538820266723633,1.1733479499816895,1.868889331817627,0.4660029411315918,-0.866748034954071,0.1777338683605194,1.1579442024230957,0.18666374683380127,0.13392698764801025
1.0662192227427907,1.9615242871995227,-2.3247922153508562,0.035566654056310654,1.4424118995666504,1.9332469701766968,0.44700199365615845,-0.8753790259361267,0.18412286043167114,1.0538372993469238,0.22947430610656738,0.09348048269748688
1.0839646771766036,1.9923657191033546,-2.3416759447103854,0.044468771666288376,1.7459189891815186,1.9461852312088013,0.42686891555786133,-0.8838195204734802,0.19143202900886536,0.953242838382721,0.2559661269187927,0.04369068145751953
1.1013184533356357,2.028426818834358,-2.3608464265612685,0.07663948833942413,2.0465946197509766,1.930586576461792,0.4058675765991211,-0.8918046355247498,0.19989022612571716,0.8609323501586914,0.28085798025131226,-0.009490862488746643
1.1179772403098036,2.0695743780446647,-2.382424471243036,0.08611355721950531,2.291227340698242,1.898102879524231,0.3842006027698517,-0.8992173075675964,0.2092805653810501,0.7799229621887207,0.31712502241134644,-0.05730283260345459
1.1339391959459624,2.114664329059327,-2.4057149198452903,0.057147953659296036,2.502575159072876,1.8541425466537476,0.3620471656322479,-0.9060858488082886,0.21892981231212616,0.7017803192138672,0.36236947774887085,-0.08050206303596497
1.149294870346503,2.162929943779711,-2.4300188888013694,-0.006159517914056778,2.707972288131714,1.8163669109344482,0.3394773602485657,-0.9124757051467896,0.22834952175617218,0.6189882755279541,0.3909607529640198,-0.10188448429107666
1.1644868121511227,2.213888930303758,-2.4550547930170983,-0.11829457432031631,2.877976894378662,1.8228504657745361,0.31627464294433594,-0.9185856580734253,0.23700417578220367,0.5576725006103516,0.4036014676094055,-0.12971937656402588
1.180151936726316,2.2671675463646115,-2.4806146632490607,-0.2706669270992279,3.0486056804656982,1.8514434099197388,0.29212820529937744,-0.9246639013290405,0.24424956738948822,0.5277875661849976,0.4260371923446655,-0.14619649946689606
1.1964226507467417,2.3232454057128598,-2.506910554052162,-0.4046577513217926,3.278357744216919,1.875536322593689,0.26696017384529114,-0.9307368397712708,0.24992316961288452,0.48976901173591614,0.4550592303276062,-0.1720421016216278
1.2131129862088834,2.384376537223828,-2.535642696438551,-0.4841911792755127,3.553107500076294,1.9338326454162598,0.24048736691474915,-0.9367104172706604,0.2544390857219696,0.44579192996025085,0.47745150327682495,-0.22547784447669983
1.2300554739059129,2.4525848759667443,-2.5691566701411217,-0.5357608795166016,3.7599663734436035,2.017383098602295,0.21246583759784698,-0.9425073266029358,0.25795039534568787,0.4391302466392517,0.495974063873291,-0.2990269660949707
1.247064151495807,2.5291113815015973,-2.6093018314036813,-0.583393931388855,3.9229869842529297,2.113006830215454,0.18287982046604156,-0.9480547904968262,0.2602832019329071,0.43320906162261963,0.5521653890609741,-0.36613330245018005
1.2640618503043162,2.6146441513464524,-2.6574090601953158,-0.6737169027328491,4.000998497009277,2.2237532138824463,0.15184898674488068,-0.9533246755599976,0.2609872817993164,0.3976200222969055,0.5711833834648132,-0.41098102927207947
1.2813523082797378,2.7103131805331118,-2.715298121322542,-0.8314464092254639,4.039527893066406,2.3785300254821777,0.11931516230106354,-0.958402693271637,0.2592846751213074,0.37322330474853516,0.5868511199951172,-0.41106367111206055
1.2992034600720663,2.819233475414562,-2.786144498873306,-1.049013376235962,4.102991104125977,2.5705885887145996,0.08498835563659668,-0.9633448123931885,0.2544487416744232,0.3587067127227783,0.6176109910011292,-0.3901143968105316
1.3175699132387166,2.9455833683646224,-2.8742536541667776,-1.3253353834152222,4.119446277618408,2.773829460144043,0.048792194575071335,-0.968109130859375,0.2457318753004074,0.32410210371017456,0.630157470703125,-0.3721660375595093
1.3356288581300333,3.095064341523581,-2.9857342489495684,-1.5885624885559082,4.11329984664917,3.000310182571411,0.010837482288479805,-0.9724753499031067,0.2327542006969452,0.27828603982925415,0.6403676867485046,-0.370159387588501
1.3512223543956774,-3.0092249654501146,-3.1269853372380916,-1.7811713218688965,4.118406772613525,3.231948137283325,-0.028747446835041046,-0.975990355014801,0.21590884029865265,0.24145495891571045,0.6593704223632812,-0.41776716709136963
1.361368058584959,-2.7988578791768757,2.983126696830018,-1.900452971458435,4.103487014770508,3.422372817993164,-0.06986783444881439,-0.978149950504303,0.19580867886543274,0.1927773654460907,0.6874091029167175,-0.4974900782108307
1.3632473736572415,-2.5689666275664598,2.790169447886682,-1.93980872631073,4.079601764678955,3.537170648574829,-0.11165271699428558,-0.9785389304161072,0.17319098114967346,0.08583482354879379,0.6988759636878967,-0.5756566524505615
1.3555045572521371,-2.342030129720122,2.5994940220728595,-1.9081496000289917,3.9774866104125977,3.5973124504089355,-0.15318560600280762,-0.97691410779953,0.1489063799381256,-0.05843856930732727,0.6896063685417175,-0.6604266166687012
1.338500590586111,-2.1400467310540643,2.4325079205092077,-1.7645562887191772,3.8259806632995605,3.6324357986450195,-0.1939089298248291,-0.9731404781341553,0.12408454716205597,-0.2052610218524933,0.6780049800872803,-0.7366180419921875
1.3140871326062744,-1.9756221142843484,2.3022117586554174,-1.5083026885986328,3.7572951316833496,3.586135149002075,-0.233377143740654,-0.9672307372093201,0.1000005453824997,-0.3908599615097046,0.6239231824874878,-0.8137149810791016
1.2854499511508022,-1.8488372259503392,2.2095542287385723,-1.2489618062973022,3.69580340385437,3.435415744781494,-0.2706793546676636,-0.959564208984375,0.07726120948791504,-0.6301538348197937,0.55670166015625,-0.8518123626708984
1.2554048598645604,-1.7516033074741515,2.1454805444561607,-1.0780260562896729,3.4707624912261963,3.256789207458496,-0.3051324784755707,-0.9506750106811523,0.055779241025447845,-0.8924535512924194,0.47692012786865234,-0.805916428565979
1.2255055357430364,-1.6754437006159475,2.1000627395610842,-0.9938334822654724,3.127454996109009,3.054399013519287,-0.33661890029907227,-0.9409770965576172,0.03535543754696846,-1.1281943321228027,0.3887004256248474,-0.7152106761932373
1.1970311074258486,-1.6145873379629798,2.0661976687457315,-0.9505394697189331,2.678244113922119,2.7701573371887207,-0.36477336287498474,-0.930959165096283,0.01598401367664337,-1.34151029586792,0.30942291021347046,-0.6163257360458374
1.1712296943123794,-1.5663517510362026,2.040678379411833,-0.8616639375686646,2.223789930343628,2.3987631797790527,-0.3890155255794525,-0.9212296605110168,-0.00172902038320899,-1.5640790462493896,0.24669957160949707,-0.5488231778144836
1.1491114385074455,-1.5287901268767006,2.0215662236648937,-0.761884331703186,1.7660818099975586,1.97335946559906,-0.4089372754096985,-0.9124006032943726,-0.01718801259994507,-1.7792646884918213,0.17724740505218506,-0.5141991972923279
1.1310870477087098,-1.499833370490796,2.006554592953189,-0.6971573233604431,1.277376651763916,1.5423736572265625,-0.42460504174232483,-0.9048754572868347,-0.03018190898001194,-1.97903573513031,0.07847476005554199,-0.4554288983345032
1.1173050342138449,-1.47765160419532,1.9931513295424357,-0.6816835403442383,0.7350132465362549,1.0991839170455933,-0.43620774149894714,-0.8989230394363403,-0.04074836149811745,-2.1339826583862305,-0.010622918605804443,-0.3868942856788635
1.1078961861550278,-1.4613694242355537,1.980168924833799,-0.6413397789001465,0.19316202402114868,0.6517412066459656,-0.4438740611076355,-0.8947612047195435,-0.04876656457781792,-2.2368357181549072,-0.06939584016799927,-0.3443760275840759
1.102871521525877,-1.4511157188761765,1.9679829962321087,-0.5561420917510986,-0.3121328353881836,0.21624086797237396,-0.4478088319301605,-0.8925061821937561,-0.05385139212012291,-2.275473117828369,-0.0938524603843689,-0.36086708307266235
1.1024412023584713,-1.446322717161412,1.9565919749183072,-0.4693610668182373,-0.7450594305992126,-0.26541614532470703,-0.44792672991752625,-0.8923120498657227,-0.056044802069664,-2.2739665508270264,-0.08470827341079712,-0.38751280307769775
1.107084153760287,-1.4456161119324409,1.9455777789970552,-0.3947528898715973,-1.0661420822143555,-0.7863368391990662,-0.4437716007232666,-0.8943983316421509,-0.05584342032670975,-2.2547147274017334,-0.045726239681243896,-0.3877142071723938
1.1172374296490013,-1.4476235241317295,1.9343750582054273,-0.334152489900589,-1.333810567855835,-1.349807620048523,-0.4348476529121399,-0.898893415927887,-0.05383392795920372,-2.175259828567505,0.007383465766906738,-0.39346206188201904
1.133166632047167,-1.452041275568105,1.9230425657326682,-0.24337302148342133,-1.581425428390503,-1.916401982307434,-0.42080894112586975,-0.9057587385177612,-0.05020944029092789,-2.036741256713867,0.078152596950531,-0.42029517889022827
1.1545885687392177,-1.459617616940671,1.9128109898968766,-0.10005544871091843,-1.7831506729125977,-2.4134597778320312,-0.40179914236068726,-0.9146286845207214,-0.0448564849793911,-1.84882652759552,0.15205538272857666,-0.48558467626571655
1.1807471948048365,-1.4716061367467437,1.9051754604412465,0.04535767436027527,-2.0102384090423584,-2.822223424911499,-0.37836477160453796,-0.924890398979187,-0.037653643637895584,-1.6290204524993896,0.2090548872947693,-0.5532886385917664
1.2106775934379443,-1.4882273082386006,1.899905461367884,0.10002955049276352,-2.287900686264038,-3.1483142375946045,-0.35118529200553894,-0.935854971408844,-0.02906310185790062,-1.4140125513076782,0.2633848190307617,-0.5708208084106445
1.2436158925758207,-1.5082540395294264,1.8950374411951523,0.04083919897675514,-2.614874839782715,-3.414806365966797,-0.3207463324069977,-0.946952223777771,-0.02008640579879284,-1.2401362657546997,0.3006051182746887,-0.540902853012085
1.2787403996639817,-1.5298382357720846,1.8888484733190338,-0.05034464970231056,-2.847973585128784,-3.581428050994873,-0.2876809537410736,-0.9576539397239685,-0.011789456009864807,-1.0715110301971436,0.3341643810272217,-0.5217644572257996
1.3149312231283994,-1.5525665738656518,1.8819449211668955,-0.10585345327854156,-2.997732162475586,-3.6311144828796387,-0.2530404329299927,-0.9674447178840637,-0.004613375756889582,-0.8685415983200073,0.3547585606575012,-0.5431464910507202
1.3512945336687898,-1.577404643231098,1.8761154817924341,-0.11919800937175751,-3.0692687034606934,-3.6115803718566895,-0.21773871779441833,-0.976006031036377,0.0014389072312042117,-0.6700329184532166,0.37281084060668945,-0.5867658853530884
1.3873294510302487,-1.60665094589462,1.8746279901993923,-0.09133414924144745,-3.0347235202789307,-3.5727462768554688,-0.1823221892118454,-0.9832171201705933,0.006539895664900541,-0.5083364248275757,0.4152544140815735,-0.6357054710388184
1.423294229018009,-1.643975005589658,1.8819780631881118,-0.05628591403365135,-2.964944839477539,-3.6088318824768066,-0.14657539129257202,-0.9891412854194641,0.010745381005108356,-0.40461787581443787,0.45839476585388184,-0.6885254383087158
1.4596993493860715,-1.7004419058358928,1.9092279242846035,0.019571829587221146,-2.8964922428131104,-3.6831655502319336,-0.10993921011686325,-0.9938350915908813,0.014333529397845268,-0.3454746603965759,0.5080103874206543,-0.7532402276992798
1.496166403215938,-1.811170737575236,1.9915663058114548,0.1478388011455536,-2.829080104827881,-3.729358434677124,-0.07241865992546082,-0.9972164630889893,0.017750797793269157,-0.2679744362831116,0.5578853487968445,-0.8255051374435425
1.5299692212545155,-2.1248758969949217,2.277605784364855,0.29094961285591125,-2.7750120162963867,-3.6815967559814453,-0.03471206873655319,-0.9991666674613953,0.021477481350302696,-0.1543443351984024,0.5876370072364807,-0.8775564432144165
1.5454754726807878,3.0478424607006236,-2.922455251440928,0.3457372486591339,-2.7769174575805664,-3.586080551147461,0.0023702033795416355,-0.999679446220398,0.0252080038189888,-0.03706870973110199,0.6191710233688354,-0.8666843175888062
1.523234134672313,2.191539202407965,-2.094125957481885,0.2504828870296478,-2.9078590869903564,-3.5167617797851562,0.038674525916576385,-0.9988691210746765,0.027653489261865616,0.03237038478255272,0.6613600254058838,-0.7703443765640259
1.4913576693788413,1.9249002512611593,-1.8570552003252894,0.05957452580332756,-3.086012601852417,-3.4584381580352783,0.07443086802959442,-0.9968464374542236,0.027516068890690804,0.052415430545806885,0.7044575810432434,-0.6549574136734009
1.4584403168102262,1.7876673429089809,-1.7511938862756542,-0.14013245701789856,-3.246948003768921,-3.401231288909912,0.10949289053678513,-0.9936947226524353,0.024125253781676292,0.09520373493432999,0.7620663642883301,-0.5695810317993164
1.425844652352172,1.6954250644506335,-1.6911852242577994,-0.24695655703544617,-3.2535529136657715,-3.2993967533111572,0.1433248370885849,-0.9895128607749939,0.01795545406639576,0.1720743328332901,0.7922013998031616,-0.5187945365905762
1.3938251969141289,1.6287751961973542,-1.6561717229024573,-0.2771701216697693,-3.133838653564453,-3.1675751209259033,0.1757538765668869,-0.9843814373016357,0.010201443918049335,0.2689635455608368,0.8087983727455139,-0.4955986738204956
1.362688307407137,1.5787854733405686,-1.6361817808586834,-0.2735019028186798,-2.9038503170013428,-3.0718369483947754,0.2066027969121933,-0.9784235954284668,0.0016506151296198368,0.3403332531452179,0.8126825094223022,-0.44079840183258057
1.3320766423670631,1.5417553239320534,-1.6264424617581241,-0.21715423464775085,-2.586850643157959,-3.0330920219421387,0.23635941743850708,-0.9716415405273438,-0.006866044830530882,0.3858787417411804,0.784843385219574,-0.3797610402107239
1.3016060619050367,1.5149564605764259,-1.6239546993005263,-0.16857168078422546,-2.2766358852386475,-3.0310750007629395,0.2655365467071533,-0.9639865756034851,-0.014842954464256763,0.45092466473579407,0.7424594163894653,-0.3389319181442261
1.2709487857873958,1.4967187128997537,-1.6273076625978828,-0.03682457655668259,-1.9768340587615967,-3.0900585651397705,0.2945646345615387,-0.9553815126419067,-0.021860646083950996,0.5426546335220337,0.7323590517044067,-0.2668812870979309
1.2396745256759385,1.4885212313211234,-1.6375843747021048,0.18393929302692413,-1.6066265106201172,-3.176414728164673,0.3240044116973877,-0.9456782341003418,-0.026717808097600937,0.5846259593963623,0.6864619255065918,-0.2554171085357666
1.207807948388418,1.48975898807348,-1.6544528493381978,0.4415023922920227,-1.3193801641464233,-3.242784023284912,0.35390472412109375,-0.9348399043083191,-0.028742441907525063,0.6421738266944885,0.6255593299865723,-0.27261853218078613
1.1760243943589461,1.4989532460425683,-1.677124223646476,0.7508069276809692,-1.038433313369751,-3.1835737228393555,0.38360586762428284,-0.9230843186378479,-0.027606939896941185,0.761215329170227,0.5651588439941406,-0.2691458463668823
1.145743545278724,1.5157570607348092,-1.7050791993707568,1.0752534866333008,-0.7203413844108582,-2.9622809886932373,0.41174471378326416,-0.9110169410705566,-0.022685037925839424,0.9414352178573608,0.48152774572372437,-0.2549484372138977
1.118205919078329,1.5382517744072493,-1.7363168893897825,1.3082356452941895,-0.4367278516292572,-2.6266884803771973,0.4370652437210083,-0.8993173241615295,-0.014229116961359978,1.1170120239257812,0.38981109857559204,-0.19997358322143555
1.0940480625855542,1.5633225906536141,-1.7678196530812056,1.3989002704620361,-0.19815737009048462,-2.2482709884643555,0.4588797092437744,-0.8884918093681335,-0.0034296095836907625,1.2501351833343506,0.3060944080352783,-0.08356064558029175
1.0729134812644836,1.5882982970585582,-1.7976160894680244,1.3896552324295044,-0.08448068797588348,-1.9562557935714722,0.47749361395835876,-0.8785955905914307,0.008357932791113853,1.323455572128296,0.20185303688049316,0.022236108779907227
1.0546552573189092,1.6109146273168415,-1.8240622358249199,1.2646962404251099,-0.03641914948821068,-1.584917426109314,0.4931306540966034,-0.8697301149368286,0.01979418471455574,1.3679685592651367,0.11593067646026611,0.09679830074310303
1.0404070214461574,1.628955242588456,-1.8458773711810392,1.0321996212005615,-0.14774967730045319,-1.150298833847046,0.5050137639045715,-0.8626102209091187,0.029404213652014732,1.5197664499282837,0.15176433324813843,0.18023645877838135
1.0304182574390286,1.6405379573200998,-1.8621322977437316,0.7448754906654358,-0.3328119218349457,-0.7315179109573364,0.5132096409797668,-0.8575142621994019,0.035850223153829575,1.6086927652359009,0.12292563915252686,0.26477861404418945
1.0248889491454807,1.6454393407467638,-1.8727718468343808,0.42859402298927307,-0.5042862892150879,-0.2858351171016693,0.5177485346794128,-0.8546565175056458,0.038718245923519135,1.6227391958236694,0.0329400897026062,0.3066645860671997
1.024072585508076,1.6442075562048106,-1.8780639985737466,0.14042265713214874,-0.6308512091636658,0.157703697681427,0.5184908509254456,-0.8542324304580688,0.03813157603144646,1.6399716138839722,0.023055732250213623,0.3301241397857666
1.027727918300649,1.6388388945024785,-1.8792161019323,-0.05219312384724617,-0.6176954507827759,0.5708409547805786,0.5155696868896484,-0.8561270833015442,0.035134926438331604,1.624124526977539,0.024400949478149414,0.31987619400024414
1.0352530205029096,1.632331491586993,-1.8782971920785465,-0.119315966963768,-0.506665825843811,0.9037007093429565,0.5093426704406738,-0.8599914908409119,0.031382106244564056,1.5606188774108887,0.02489316463470459,0.2664695978164673
1.045661743989161,1.6273468188739817,-1.8774132107898025,-0.08018352091312408,-0.3291032612323761,1.1512404680252075,0.5005284547805786,-0.8652564883232117,0.028335342183709145,1.4553890228271484,0.043036460876464844,0.19111669063568115
1.0581385844309352,1.6256733761469793,-1.8781529388258376,0.016653815284371376,-0.13840842247009277,1.3224776983261108,0.4897569417953491,-0.8714439868927002,0.0269034281373024,1.347630262374878,0.07603377103805542,0.12205302715301514
1.0719765936900778,1.627903041694604,-1.8811482211261157,0.11481225490570068,0.0615207739174366,1.440277338027954,0.4776097536087036,-0.8781477808952332,0.027304410934448242,1.242269515991211,0.09215229749679565,0.07930886745452881
1.086703026398075,1.6341289128188297,-1.886216601460643,0.17568014562129974,0.28328219056129456,1.5178200006484985,0.46447300910949707,-0.885097324848175,0.029455671086907387,1.144627332687378,0.11318570375442505,0.05156862735748291
1.1022765128452081,1.6436569469552025,-1.8924646101009128,0.17752794921398163,0.5130957961082458,1.6183689832687378,0.4503682255744934,-0.892237663269043,0.03287229686975479,1.0832469463348389,0.1289929747581482,0.04253673553466797
1.1188549956632583,1.6558639696733883,-1.8989254115464447,0.1334526389837265,0.7649410963058472,1.7185453176498413,0.4351334571838379,-0.8996009826660156,0.03710532560944557,1.0486464500427246,0.13765347003936768,0.05312001332640648
1.1362497225363815,1.6706987698569478,-1.9055130430568323,0.1125728115439415,1.0047385692596436,1.7805938720703125,0.41890040040016174,-0.9070610404014587,0.041988957673311234,1.0026237964630127,0.15620636940002441,0.03410685434937477
1.154034555602595,1.6886021874507793,-1.9127055972272005,0.08871860802173615,1.2598835229873657,1.804735779762268,0.4019961655139923,-0.914404571056366,0.04757780581712723,0.9436154365539551,0.2028261423110962,-0.017639875411987305
1.1719645143376594,1.7094863110081213,-1.9204382111477414,0.05671384185552597,1.4873731136322021,1.820235252380371,0.38461342453956604,-0.9215152859687805,0.05368668958544731,0.8851772546768188,0.25313448905944824,-0.05124521255493164
1.1900771279976794,1.7332296925182826,-1.9287287385995338,0.024829678237438202,1.7136815786361694,1.840868592262268,0.3666973114013672,-0.9283976554870605,0.06009332463145256,0.8456592559814453,0.2924264669418335,-0.08432412147521973
1.2083652821719657,1.7603375524637757,-1.938281308236539,0.024274403229355812,1.913238763809204,1.87237548828125,0.3481990396976471,-0.9350376725196838,0.06679994612932205,0.8086003065109253,0.32085609436035156,-0.13605952262878418
1.227107003571806,1.792170493884791,-1.9506521348816859,0.049617309123277664,2.116217613220215,1.970792293548584,0.3287399113178253,-0.9415178894996643,0.07398710399866104,0.7906448841094971,0.3370562791824341,-0.20737934112548828
1.2469452436299429,1.8298866098942068,-1.9670220840581125,0.04430490732192993,2.3173577785491943,2.127948045730591,0.30759865045547485,-0.9480169415473938,0.08152831345796585,0.8009523153305054,0.3679236173629761,-0.2553105354309082
1.26816684894838,1.873671110460031,-1.9876025460531985,-0.005233350675553083,2.506502389907837,2.285616636276245,0.2844662368297577,-0.9545561075210571,0.08889254927635193,0.785770058631897,0.3977627158164978,-0.2738746404647827
1.2907573032345248,1.923289064209904,-2.012257092810987,-0.1204032152891159,2.6731765270233154,2.4327433109283447,0.25939950346946716,-0.9610446691513062,0.09542164951562881,0.7365874648094177,0.4302523136138916,-0.28696513175964355
1.3148755130051608,1.9773113423001079,-2.0398483362671795,-0.31611573696136475,2.779310941696167,2.5717968940734863,0.23250751197338104,-0.967430591583252,0.10009311884641647,0.6673948764801025,0.4752734899520874,-0.27320384979248047
1.3407411334267283,2.0345008805049867,-2.0698272964732274,-0.5605642795562744,2.8204028606414795,2.7113916873931885,0.20395202934741974,-0.9736537933349609,0.10199052840471268,0.594738781452179,0.5190792083740234,-0.24888670444488525
1.3686061593890575,2.095279650831746,-2.1028420447116423,-0.8355057835578918,2.866093158721924,2.8480396270751953,0.17382276058197021,-0.9796290993690491,0.10056172311306,0.5287376642227173,0.5675959587097168,-0.2367004156112671
1.398591011940498,2.1622652057942298,-2.141704242207657,-1.0983352661132812,2.8678295612335205,2.9832959175109863,0.14224660396575928,-0.9852092862129211,0.09554493427276611,0.4571796655654907,0.6265361309051514,-0.23649024963378906
1.4302397133036922,2.243691333067054,-2.1949272892352036,-1.284859299659729,2.8903610706329346,3.075892210006714,0.10955705493688583,-0.9901381731033325,0.08731446415185928,0.36674603819847107,0.6641798615455627,-0.2661319971084595
1.4622924328680509,2.359349611925528,-2.2818721949692544,-1.3598408699035645,2.96804141998291,3.1164424419403076,0.07633234560489655,-0.9941192269325256,0.07681555300951004,0.26293155550956726,0.7044157981872559,-0.33920562267303467
1.4926113036504327,2.5573278801398818,-2.450192000169421,-1.3252005577087402,3.0955896377563477,3.1102635860443115,0.04308311641216278,-0.9969450831413269,0.06515099853277206,0.15746313333511353,0.7468991279602051,-0.4226337671279907
1.5165411338441777,2.9456536681958405,-2.8070965453902703,-1.229780912399292,3.3316140174865723,3.0366978645324707,0.01055834535509348,-0.9985285401344299,0.05319451540708542,0.032212033867836,0.7642601728439331,-0.49383771419525146
1.524543142448517,-2.671385189194205,2.8439501617264873,-1.124118447303772,3.593425750732422,2.925516128540039,-0.02094903588294983,-0.9989305138587952,0.04121984541416168,-0.08723579347133636,0.7724900245666504,-0.5321865081787109
1.512313665975069,-2.09096608551972,2.300000336663339,-1.0393831729888916,3.8085899353027344,2.7502613067626953,-0.0507192499935627,-0.9982903599739075,0.029051339253783226,-0.1948252022266388,0.7734978795051575,-0.5330489873886108
1.4908921830466737,-1.7773747180730612,2.024817361405999,-0.9897761344909668,3.9681475162506104,2.5491037368774414,-0.07812292128801346,-0.9968093633651733,0.016372064128518105,-0.31054896116256714,0.7521346211433411,-0.5115196704864502
1.4676553056855444,-1.5983769104416774,1.8858054248992848,-0.9856281280517578,4.110368251800537,2.3299500942230225,-0.10291993618011475,-0.9946856498718262,0.0028393117245286703,-0.42820802330970764,0.7041429877281189,-0.48616135120391846
1.4451612000624467,-1.4756483054050906,1.804205357203442,-1.0243831872940063,4.183623313903809,2.0818254947662354,-0.1247384250164032,-0.9921182990074158,-0.011904560960829258,-0.5582144856452942,0.6423410177230835,-0.4647645950317383
1.4243186692805725,-1.378568694430398,1.7487345659466251,-1.0531715154647827,4.209144115447998,1.8125087022781372,-0.14326614141464233,-0.9892913103103638,-0.02788401208817959,-0.6846452355384827,0.5873137712478638,-0.4485563039779663
1.4054530398294156,-1.29531047629497,1.7072034365760447,-1.065732479095459,4.19649076461792,1.5525234937667847,-0.15838505327701569,-0.9863619208335876,-0.044771213084459305,-0.8075421452522278,0.5236848592758179,-0.45817357301712036
1.388421487927312,-1.2211258415353752,1.6740880748533675,-1.0634465217590332,4.074448108673096,1.3374110460281372,-0.17039057612419128,-0.9834157228469849,-0.0621337927877903,-0.9278760552406311,0.42828571796417236,-0.47247302532196045
1.372695479147273,-1.1543027612583243,1.6466157629020721,-1.0642417669296265,3.858130931854248,1.189934253692627,-0.17998380959033966,-0.9804421067237854,-0.07962004840373993,-1.0656980276107788,0.3073920011520386,-0.4755250811576843
1.3579756717796412,-1.0950016087227519,1.623992141927508,-1.023688554763794,3.530315399169922,1.0665489435195923,-0.18775728344917297,-0.9774390459060669,-0.09674709290266037,-1.234743356704712,0.13320082426071167,-0.48394131660461426
1.3441689093646467,-1.0447280265877958,1.6064942184209599,-0.9672247767448425,3.0696775913238525,0.9878183007240295,-0.1943112164735794,-0.974429726600647,-0.11282636225223541,-1.400644302368164,-0.05614882707595825,-0.5032776594161987
1.3311323646931248,-1.004166967975489,1.5933873675901467,-0.9010529518127441,2.4569427967071533,0.9148911833763123,-0.2002778798341751,-0.9714177846908569,-0.12742146849632263,-1.5609831809997559,-0.2161584496498108,-0.4975784420967102
1.3190358311257602,-0.9737812067678309,1.583777857769246,-0.818497896194458,1.7229969501495361,0.8338181376457214,-0.20601755380630493,-0.968475341796875,-0.14004327356815338,-1.7133703231811523,-0.36788928508758545,-0.49763667583465576
1.308132702467088,-0.9522308690457983,1.5747695820529877,-0.8045176863670349,0.8222419023513794,0.684444785118103,-0.21154284477233887,-0.9657017588615417,-0.15056467056274414,-1.8345081806182861,-0.4604761600494385,-0.4893888235092163
1.298537511871182,-0.9373481277102607,1.5630525970164286,-0.8122459053993225,-0.09517368674278259,0.500566303730011,-0.21673743426799774,-0.9631659388542175,-0.15917399525642395,-1.9291976690292358,-0.5281671285629272,-0.4542292356491089
1.290503265376475,-0.928532934380934,1.5490239197795146,-0.7398853302001953,-0.8066444993019104,0.33029207587242126,-0.22151553630828857,-0.960974395275116,-0.16570864617824554,-1.9323084354400635,-0.5228819847106934,-0.4500138759613037
1.2846090097432994,-0.9255647185884641,1.5349318670664152,-0.5865543484687805,-1.264984130859375,0.1292700320482254,-0.22554415464401245,-0.9593271613121033,-0.16976876556873322,-1.8671377897262573,-0.455299973487854,-0.48989903926849365
1.2815636281207199,-0.9262818560299125,1.5212182411119737,-0.38943490386009216,-1.4646620750427246,-0.12005538493394852,-0.22800014913082123,-0.9584630131721497,-0.17136138677597046,-1.7948881387710571,-0.3977839946746826,-0.5230202078819275
1.2819536567629266,-0.928164534003279,1.507988376847011,-0.16513577103614807,-1.4188655614852905,-0.4014205038547516,-0.22802306711673737,-0.9585741758346558,-0.17070777714252472,-1.7073559761047363,-0.344801127910614,-0.5259779095649719
1.2860286651997863,-0.9286896591239009,1.4943849337751478,0.029045328497886658,-1.289095163345337,-0.7077851891517639,-0.22498290240764618,-0.9597269296646118,-0.16824749112129211,-1.598671317100525,-0.28450536727905273,-0.5205951929092407
1.2934936983341085,-0.9263180359083045,1.4788839576577746,0.16903838515281677,-1.218114972114563,-0.9942702651023865,-0.21884948015213013,-0.9617973566055298,-0.16447150707244873,-1.4521405696868896,-0.220819890499115,-0.4980192184448242
1.3037417449295803,-0.9204456733219384,1.4599501964942305,0.24650560319423676,-1.2625616788864136,-1.239596962928772,-0.21002420783042908,-0.9645523428916931,-0.15977756679058075,-1.2678964138031006,-0.15785372257232666,-0.4822053909301758
1.3159365970976578,-0.911837388544977,1.437052704504086,0.2986777126789093,-1.444746732711792,-1.39337158203125,-0.19932590425014496,-0.9676986932754517,-0.15436556935310364,-1.072540044784546,-0.10046243667602539,-0.4747694134712219
1.3292331790501466,-0.9029236244827609,1.4114088926199377,0.347954660654068,-1.7473865747451782,-1.4566962718963623,-0.18782217800617218,-0.9709652066230774,-0.1481536477804184,-0.8652021884918213,-0.05131268501281738,-0.48339223861694336
1.3431001124428836,-0.8973916615354373,1.3857532484692117,0.4459003806114197,-2.1216745376586914,-1.4403040409088135,-0.1764572411775589,-0.974189043045044,-0.1407794952392578,-0.6701767444610596,-0.00017631053924560547,-0.5077494382858276
1.3572336345435239,-0.8993549931588909,1.3644323010004258,0.5876545310020447,-2.390728235244751,-1.3303755521774292,-0.1659359484910965,-0.9772820472717285,-0.13185317814350128,-0.493625283241272,0.050859808921813965,-0.5387399792671204
1.3710534970066741,-0.9129457927369853,1.353152379337312,0.7442563772201538,-2.505638837814331,-1.1183897256851196,-0.15700934827327728,-0.9801176190376282,-0.1213158592581749,-0.3118169903755188,0.06953412294387817,-0.5411901473999023
1.3838931445659388,-0.9399071614650554,1.3546589141885823,0.8265334367752075,-2.572200059890747,-0.9028224349021912,-0.15004776418209076,-0.9825843572616577,-0.10960650444030762,-0.15764576196670532,0.07459491491317749,-0.49728119373321533
1.3953933861284056,-0.975510984321664,1.3642309255115825,0.7529657483100891,-2.646697759628296,-0.7942451238632202,-0.14448870718479156,-0.9846562743186951,-0.09785319864749908,-0.08172288537025452,0.12419784069061279,-0.39860665798187256
1.405718217357567,-1.0087206922396263,1.3704949907336188,0.5339163541793823,-2.748133420944214,-0.8343092799186707,-0.1390482783317566,-0.9864055514335632,-0.08757883310317993,-0.08643089234828949,0.1711282730102539,-0.2743290066719055
1.4154926307481888,-1.0282168696638132,1.3614375803866943,0.24654635787010193,-2.9341628551483154,-0.9789934754371643,-0.1324661821126938,-0.9879646301269531,-0.079869344830513,-0.1141006350517273,0.19629263877868652,-0.18308526277542114
1.42523059606869,-1.0294455725499392,1.3317563378241772,0.006669275928288698,-3.1567330360412598,-1.136427640914917,-0.12431249022483826,-0.9894239902496338,-0.07474502176046371,-0.08764739334583282,0.2328473925590515,-0.16025543212890625
1.4352175145019481,-1.0133710008578964,1.2826816880179772,-0.12005671113729477,-3.3133978843688965,-1.2772433757781982,-0.1147029846906662,-0.9908232688903809,-0.07150224596261978,-0.01846049726009369,0.2800535559654236,-0.19870030879974365
1.4457678841895936,-0.9822222681279953,1.2174108142298283,-0.14851114153862,-3.3665332794189453,-1.4053527116775513,-0.10372067242860794,-0.9921941161155701,-0.0692327618598938,0.03534598648548126,0.29830050468444824,-0.26255422830581665
1.4570788903807164,-0.9370442066815128,1.1379792355137037,-0.09232137352228165,-3.3417632579803467,-1.5178872346878052,-0.09143780171871185,-0.9935411214828491,-0.06719556450843811,0.07892556488513947,0.30684977769851685,-0.31209200620651245
1.4691289791043005,-0.8816088600690425,1.049287666571396,0.07993686944246292,-3.1578972339630127,-1.527013897895813,-0.07832947373390198,-0.9948363304138184,-0.06454121321439743,0.1497253179550171,0.31610995531082153,-0.3495211601257324
1.4816603492306966,-0.8235802405231094,0.9608258664853122,0.29255059361457825,-2.820406913757324,-1.4560472965240479,-0.06530323624610901,-0.9960300326347351,-0.06049756705760956,0.2565110921859741,0.3239870071411133,-0.3772464394569397
1.4942756929264076,-0.7598022492576413,0.8698431993410815,0.381489098072052,-2.5635194778442383,-1.3924896717071533,-0.052655838429927826,-0.9970737099647522,-0.055422816425561905,0.32145464420318604,0.30060136318206787,-0.35126960277557373
1.506417618731847,-0.6710682500379437,0.7557808053737204,0.371511310338974,-2.416003465652466,-1.4037814140319824,-0.04000578075647354,-0.9979283809661865,-0.05038547143340111,0.33997830748558044,0.27746933698654175,-0.25804030895233154
1.5168989467841705,-0.5268392750317071,0.587553856753845,0.2145264446735382,-2.335860252380371,-1.4105613231658936,-0.027087902650237083,-0.9985479116439819,-0.04656846821308136,0.33517807722091675,0.28582507371902466,-0.183762788772583
1.523421424554131,-0.30089077295573535,0.33752204662589924,-0.05517081543803215,-2.418825387954712,-1.414038062095642,-0.014035756699740887,-0.998878002166748,-0.045231036841869354,0.36578136682510376,0.27904456853866577,-0.0982014536857605
1.5237917889426351,-0.024132848291638257,0.03554418747554923,-0.324006050825119,-2.5359909534454346,-1.3856271505355835,-0.0011338857002556324,-0.9988954663276672,-0.046976033598184586,0.39589402079582214,0.24573677778244019,-0.04256243258714676
1.518286077839802,0.21205805672239933,-0.22654077348788426,-0.4985789358615875,-2.5428805351257324,-1.2912628650665283,0.01104724407196045,-0.9986216425895691,-0.05131213739514351,0.43437206745147705,0.22330725193023682,-0.051654040813446045
1.5095750243606136,0.36726905982471686,-0.4069595431053735,-0.5597572326660156,-2.4188034534454346,-1.161234974861145,0.021969029679894447,-0.9981265664100647,-0.057103246450424194,0.4776342511177063,0.2071262001991272,-0.09936022758483887
1.5000422323975298,0.46172970628508075,-0.5250635328702687,-0.5385041236877441,-2.2310497760772705,-1.024495244026184,0.03149399161338806,-0.9974979758262634,-0.06329116225242615,0.49186721444129944,0.1763005256652832,-0.1465933918952942
1.4911212275841652,0.521981543462,-0.6065537938739645,-0.4468488395214081,-1.9492813348770142,-0.9031553268432617,0.03968491405248642,-0.9968276023864746,-0.06899373233318329,0.49699723720550537,0.17286807298660278,-0.18581265211105347
1.4832435537405295,0.5685020069269272,-0.6714048750825139,-0.33880332112312317,-1.6618479490280151,-0.8487546443939209,0.04707637429237366,-0.9961696863174438,-0.07368842512369156,0.46265873312950134,0.1705622673034668,-0.2073325514793396
1.4760639213425597,0.6121027730465686,-0.7306711074027116,-0.25397396087646484,-1.419060468673706,-0.8538457751274109,0.05435192957520485,-0.9955162405967712,-0.0774185061454773,0.40408313274383545,0.15481781959533691,-0.20500630140304565
1.4691152119893103,0.6556439653375316,-0.7877674670450264,-0.20250862836837769,-1.2406235933303833,-0.8797346353530884,0.06188578903675079,-0.9948348999023438,-0.08046013116836548,0.3733711838722229,0.15697473287582397,-0.18887263536453247
1.4622317786393793,0.6977674918536568,-0.8419189719083104,-0.1509883552789688,-1.0949158668518066,-0.879828691482544,0.06961655616760254,-0.9941126704216003,-0.08302716910839081,0.36622023582458496,0.14212292432785034,-0.16979557275772095
1.4557174005584206,0.7381534544288602,-0.8929029552524128,-0.0768938735127449,-0.9572442770004272,-0.8461815118789673,0.07726799696683884,-0.9933857321739197,-0.08493702858686447,0.38078558444976807,0.12270402908325195,-0.1753319948911667
1.4497865446484226,0.7764930740037094,-0.9407637479741702,-0.006598267704248428,-0.8821752071380615,-0.799552857875824,0.08459464460611343,-0.9926872253417969,-0.08611486852169037,0.38917550444602966,0.11025625467300415,-0.1868494749069214
1.4444955854475146,0.8128154847412353,-0.9860838531104567,0.06790632754564285,-0.8367496728897095,-0.7531188130378723,0.0914791151881218,-0.9920346736907959,-0.0865955650806427,0.3762332797050476,0.0962674617767334,-0.18432414531707764
1.439787731994863,0.8476971297228302,-1.0292805501144608,0.11438044160604477,-0.7406954169273376,-0.7014678120613098,0.09794425964355469,-0.9914306402206421,-0.08644228428602219,0.3574542999267578,0.08257138729095459,-0.17329269647598267
1.4354102580466452,0.880814695407462,-1.0698189319121416,0.14948703348636627,-0.672832190990448,-0.6683530211448669,0.10409927368164062,-0.9908493161201477,-0.08591367304325104,0.3324546813964844,0.06706684827804565,-0.12787705659866333
1.431304055993926,0.9135625338541389,-1.1093554840950504,0.1834300309419632,-0.5967142581939697,-0.6504673361778259,0.11007634550333023,-0.9902867078781128,-0.08494393527507782,0.30835017561912537,0.06902205944061279,-0.12053077667951584
1.42738239112871,0.9454508876951133,-1.1472370787186015,0.20374035835266113,-0.5320239067077637,-0.6195759773254395,0.1158771961927414,-0.9897338151931763,-0.08366447687149048,0.2925243079662323,0.060809195041656494,-0.09554988145828247
1.4237125156613064,0.9748133165898507,-1.1822353682718438,0.2016373574733734,-0.5180234909057617,-0.5621986985206604,0.12128817290067673,-0.9892026782035828,-0.08226440846920013,0.29925933480262756,0.05751615762710571,-0.07522141933441162
1.420326036152685,0.9999850808366789,-1.2128860864253057,0.18616758286952972,-0.5101836919784546,-0.5069924592971802,0.1261378824710846,-0.9887006878852844,-0.0809948667883873,0.3172825276851654,0.055595219135284424,-0.044935815036296844
1.4172464122719235,1.0213232623773942,-1.2397205794134656,0.1809644103050232,-0.529621958732605,-0.4453113377094269,0.13043391704559326,-0.9882343411445618,-0.07987517863512039,0.3160993158817291,0.04223513603210449,-0.034947097301483154
1.4147519549653536,1.0394518163409179,-1.2637432363457324,0.20170031487941742,-0.5884804725646973,-0.3636007606983185,0.13398492336273193,-0.987849771976471,-0.07874622195959091,0.32069650292396545,0.028392314910888672,-0.04852718114852905
1.4130680545246956,1.0552230235674047,-1.2859055187798425,0.23003056645393372,-0.6199452877044678,-0.28115010261535645,0.1366574615240097,-0.9875866770744324,-0.07744361460208893,0.3290713131427765,0.027335762977600098,-0.059976935386657715
1.4120873059519103,1.0688861430486098,-1.3060320905231106,0.2208423912525177,-0.6136828660964966,-0.20755045115947723,0.1385519802570343,-0.9874321222305298,-0.07603529840707779,0.3113534450531006,0.02124553918838501,-0.04107576608657837
1.411386310292832,1.0786436151557703,-1.3221005410758964,0.15737536549568176,-0.6050479412078857,-0.1654312014579773,0.13989731669425964,-0.9873210787773132,-0.07500685751438141,0.27373796701431274,0.007111668586730957,0.015650272369384766
1.4105845212191526,1.0832646091733535,-1.332875289248256,0.07266927510499954,-0.5908543467521667,-0.14762423932552338,0.14094191789627075,-0.9871935248374939,-0.07473047077655792,0.22914479672908783,0.00821995735168457,0.06763529032468796
1.4094749985466042,1.0835151474782854,-1.338851366902775,-0.0029311696998775005,-0.5273390412330627,-0.14555159211158752,0.14192840456962585,-0.9870159029960632,-0.07520797848701477,0.19016392529010773,0.015442848205566406,0.09901183098554611
1.4080086948002153,1.0815787371759753,-1.3416869250384382,-0.04664882272481918,-0.41086438298225403,-0.16235214471817017,0.14306001365184784,-0.9867793321609497,-0.07616279274225235,0.15697358548641205,0.010430335998535156,0.11601889133453369
1.4062581648601515,1.0804622148422132,-1.3440100043026664,-0.04631364345550537,-0.27530667185783386,-0.19100724160671234,0.14449773728847504,-0.9864941239356995,-0.07713540643453598,0.13171687722206116,0.011457443237304688,0.10916370153427124
1.4042129576723041,1.081930637344069,-1.3477713924928931,-0.034941673278808594,-0.17586638033390045,-0.2331078201532364,0.146391823887825,-0.9861570596694946,-0.07787049561738968,0.10485939681529999,0.0072141289710998535,0.09398389607667923
1.4018760161881174,1.0858619936983598,-1.3531324117032812,-0.024798566475510597,-0.10299157351255417,-0.2639962136745453,0.14873507618904114,-0.9857668280601501,-0.07836832851171494,0.08576200902462006,-0.002071857452392578,0.09260494261980057
1.3994903978981608,1.090626933071026,-1.3587664914109463,-0.033822424709796906,-0.054243214428424835,-0.2432139664888382,0.15119202435016632,-0.9853630065917969,-0.07874476164579391,0.09476441144943237,-0.007816314697265625,0.09690285474061966
1.3974249969788797,1.0935912691204017,-1.362235927785442,-0.04815496504306793,-0.03166685625910759,-0.1799968183040619,0.15323305130004883,-0.9850087761878967,-0.07923122495412827,0.12900878489017487,-0.017570018768310547,0.1095048189163208
1.3959531431406371,1.0944790688355985,-1.363185745653236,-0.05559717118740082,0.029605822637677193,-0.09481775015592575,0.15459087491035461,-0.9847538471221924,-0.07975944131612778,0.15243123471736908,-0.023913145065307617,0.10991097241640091
1.3952874468541707,1.0926085322413397,-1.3607488886985395,-0.08480394631624222,0.06841170787811279,0.011147459968924522,0.15502364933490753,-0.9846377968788147,-0.08035025000572205,0.16606706380844116,-0.029751300811767578,0.10490179061889648
1.3953334958080106,1.0857666366793066,-1.353186342351434,-0.14406301081180573,0.04630187153816223,0.1148751825094223,0.15443041920661926,-0.9846458435058594,-0.08138801157474518,0.16933059692382812,-0.0405312180519104,0.10999840497970581
1.3959645402132914,1.0729221313940205,-1.3399335121667655,-0.20340748131275177,-0.008563579060137272,0.20623332262039185,0.15282680094242096,-0.98475581407547,-0.08306831121444702,0.16728737950325012,-0.035660624504089355,0.10909991711378098
1.3970013909911894,1.0542348954669858,-1.3214194129893186,-0.25442567467689514,-0.07922603189945221,0.2799200713634491,0.1503596007823944,-0.9849356412887573,-0.08540499955415726,0.15797477960586548,-0.02626436948776245,0.09326344728469849
1.3982387330708927,1.030418136749619,-1.2983833419434039,-0.2993156611919403,-0.14565403759479523,0.3290914297103882,0.14723823964595795,-0.9851488471031189,-0.08833467960357666,0.13758234679698944,-0.02077174186706543,0.07754682749509811
1.3995582530989443,1.0024907782428425,-1.2718462056058952,-0.32672998309135437,-0.20554879307746887,0.3666380047798157,0.1436183601617813,-0.9853745698928833,-0.09171188622713089,0.12415815889835358,-0.01042938232421875,0.05239015817642212
1.4009985778282479,0.9721551221009473,-1.2433197001981675,-0.31379809975624084,-0.23341728746891022,0.4059779644012451,0.1395975947380066,-0.9856189489364624,-0.09522564709186554,0.1150563508272171,-0.000831305980682373,0.028331220149993896
1.4028150594231914,0.9407769197751953,-1.2139936673771936,-0.2839975953102112,-0.2605295777320862,0.4539646804332733,0.13509401679039001,-0.9859243035316467,-0.09850306063890457,0.11763730645179749,-0.012519299983978271,-0.0023574084043502808
1.4049222478215437,0.9075166266194259,-1.183126913182616,-0.2778731882572174,-0.3020138740539551,0.49566036462783813,0.1301063448190689,-0.9862744212150574,-0.10166165232658386,0.12279282510280609,-0.013084709644317627,-0.010429255664348602
1.4070495852184273,0.8716695508656666,-1.1499819534769131,-0.300811767578125,-0.32320356369018555,0.5142961144447327,0.12477312237024307,-0.9866234064102173,-0.10490883141756058,0.11895552277565002,0.0018822550773620605,0.0054064542055130005
1.4087831937454416,0.8330568713722625,-1.1141175209971406,-0.345931738615036,-0.31368154287338257,0.505031406879425,0.1193646565079689,-0.9869045615196228,-0.10849684476852417,0.09319029748439789,0.0007747411727905273,0.02960902452468872
1.409832721438336,0.7928095747411149,-1.0763457565321026,-0.3909916281700134,-0.2797190546989441,0.47768232226371765,0.1141643151640892,-0.9870733022689819,-0.11248449981212616,0.0657368153333664,-0.007753908634185791,0.04250778257846832
1.410178604387215,0.7513278001365775,-1.0369457756171447,-0.4355732500553131,-0.23395203053951263,0.47373637557029724,0.10916796326637268,-0.9871286749839783,-0.11687222123146057,0.05509289354085922,-0.009392201900482178,0.046468280255794525
1.4100278602879235,0.7084905075052601,-0.9956382543614272,-0.4617454707622528,-0.18152956664562225,0.48992466926574707,0.10416018217802048,-0.9871045351028442,-0.12155360728502274,0.05979552119970322,-0.013643145561218262,0.040117569267749786
1.4095873328928352,0.6644244128873146,-0.9527430994603538,-0.4736780822277069,-0.17314483225345612,0.5168213248252869,0.09897267073392868,-0.9870339632034302,-0.12636657059192657,0.06302991509437561,-0.0193137526512146,0.02065378427505493
1.4089442524970224,0.6185061629539809,-0.908142461173548,-0.48516032099723816,-0.20454749464988708,0.5536246299743652,0.09343623369932175,-0.9869305491447449,-0.13129405677318573,0.06632331758737564,-0.020378589630126953,0.005378589034080505
1.4081670848322572,0.5705499556144122,-0.8618454435388285,-0.476589560508728,-0.24796094000339508,0.5958265662193298,0.08744876086711884,-0.9868049621582031,-0.13626720011234283,0.06802306324243546,-0.011562347412109375,-0.009515166282653809
1.4073033493979783,0.5207952577173838,-0.8141612540419436,-0.46855559945106506,-0.29160216450691223,0.6338365077972412,0.08098776638507843,-0.9866647720336914,-0.14118756353855133,0.06622906029224396,-0.01171797513961792,-0.020479217171669006
1.4063062853075676,0.46979065664486275,-0.7656764918937754,-0.4558621048927307,-0.3435695469379425,0.6576628088951111,0.0741293802857399,-0.9865019917488098,-0.14600946009159088,0.05784390866756439,-0.005868673324584961,-0.02791011333465576
1.4050950341401118,0.4186012028802688,-0.7176581752628076,-0.43557894229888916,-0.4202131927013397,0.6557090878486633,0.06704705208539963,-0.98630291223526,-0.1507028043270111,0.043747030198574066,-0.0013375282287597656,-0.03783464431762695
1.4036289005825915,0.36909074955919385,-0.6721085463810926,-0.40803834795951843,-0.4911614656448364,0.6169832348823547,0.06002838909626007,-0.9860600233078003,-0.1551852971315384,0.02223176509141922,0.007803738117218018,-0.04305678606033325
1.401901454878419,0.3235937237545683,-0.631104289961635,-0.3784327805042267,-0.513239860534668,0.5464834570884705,0.053449615836143494,-0.985771119594574,-0.159369096159935,-0.007825814187526703,0.0205610990524292,-0.04772305488586426
1.399952395385955,0.283843163439788,-0.5959252118308238,-0.3451760411262512,-0.502414345741272,0.4720468819141388,0.04761192947626114,-0.9854416251182556,-0.16321112215518951,-0.03744955733418465,0.021025121212005615,-0.04598669707775116
1.397950797933466,0.2488299572962924,-0.5654247974234156,-0.3164919316768646,-0.4849277436733246,0.43120092153549194,0.042355138808488846,-0.9850993752479553,-0.16668954491615295,-0.04438454285264015,0.012839794158935547,-0.04064677655696869
1.3960232792547809,0.2161238765597961,-0.5371331181839821,-0.281846284866333,-0.4821975529193878,0.4338969588279724,0.03728880733251572,-0.9847660064697266,-0.16983969509601593,-0.025432705879211426,0.008020401000976562,-0.03740507364273071
1.3944116409429566,0.18386389265095424,-0.5092811096069858,-0.22520244121551514,-0.482109397649765,0.45426613092422485,0.032081376761198044,-0.9844844937324524,-0.17251373827457428,-0.00101446732878685,0.007189631462097168,-0.04231463372707367
1.3931763146620117,0.15215816324317089,-0.481843358044635,-0.1776801347732544,-0.43977823853492737,0.4611850082874298,0.026780780404806137,-0.984266996383667,-0.17464579641819,-0.000825563445687294,-0.0013896822929382324,-0.04720160365104675
1.3921231226883501,0.12097161783988619,-0.4543432240837575,-0.16745197772979736,-0.3893779218196869,0.47117987275123596,0.021447231993079185,-0.9840803742408752,-0.1764257550239563,-0.005669627338647842,-0.012883245944976807,-0.02735525369644165
1.3908350317106095,0.09049688740222653,-0.4271956263028142,-0.19350354373455048,-0.3655748665332794,0.4601309597492218,0.016176121309399605,-0.9838505983352661,-0.17825958132743835,-0.013368483632802963,-0.011846482753753662,0.012152552604675293
1.3889875948100532,0.06137325346586775,-0.4011495182792968,-0.24571987986564636,-0.33407554030418396,0.44018787145614624,0.011089879088103771,-0.9835182428359985,-0.18046870827674866,-0.026241838932037354,-0.00660938024520874,0.04416203498840332
1.3864606783764015,0.03451236711321951,-0.377094344710419,-0.3011724054813385,-0.3075297772884369,0.40516197681427,0.006324650254100561,-0.9830582141876221,-0.18318472802639008,-0.04160295054316521,-0.013417065143585205,0.06254887580871582
1.3832112619250105,0.010628522101442607,-0.35575753361497975,-0.36532077193260193,-0.269039124250412,0.36653122305870056,0.0019820467568933964,-0.9824574589729309,-0.18647673726081848,-0.05415182560682297,-0.012995481491088867,0.07209700345993042
1.3791940044996442,-0.010007250545742313,-0.3375036586116404,-0.4381394684314728,-0.2801584303379059,0.3207401633262634,-0.0019056673627346754,-0.9817003607749939,-0.19042231142520905,-0.060518018901348114,-0.014225482940673828,0.08083382248878479
1.3743449108456625,-0.028047935706261354,-0.3223030740459156,-0.5160784721374512,-0.34867942333221436,0.2835184931755066,-0.005473990924656391,-0.9807654023170471,-0.1951143741607666,-0.05238731950521469,-0.012780308723449707,0.07977327704429626
1.368771587657691,-0.04428001488769162,-0.3099292274496878,-0.5711327195167542,-0.4563080966472626,0.24701610207557678,-0.008882039226591587,-0.979662299156189,-0.2004568874835968,-0.0412583202123642,-0.01251000165939331,0.06656110286712646
1.3628604158997257,-0.05924435280503837,-0.29948899685395847,-0.5757072567939758,-0.4761425256729126,0.23623907566070557,-0.012223315425217152,-0.9784591197967529,-0.20607890188694,-0.029173754155635834,-0.0030472874641418457,0.04287099838256836
1.3570820147140306,-0.07282845018905139,-0.2902277463476829,-0.5370479226112366,-0.41631728410720825,0.2270648032426834,-0.01543261669576168,-0.9772498607635498,-0.21152889728546143,-0.02823801338672638,0.004746198654174805,0.02671457827091217
1.3518265687203996,-0.0852892044922371,-0.2813814513468475,-0.47707465291023254,-0.34421059489250183,0.23220950365066528,-0.01850445196032524,-0.9761217832565308,-0.21643491089344025,-0.023930221796035767,-0.0031720995903015137,0.010807573795318604
1.3470911780639896,-0.09693519828215015,-0.2728723643248767,-0.4338439106941223,-0.3268722593784332,0.22091498970985413,-0.021470870822668076,-0.9750821590423584,-0.22080294787883759,-0.006254330277442932,0.006210029125213623,0.00304490327835083
1.3426567102223939,-0.10700990891783074,-0.2655748980635054,-0.4124739170074463,-0.25392189621925354,0.1927214413881302,-0.02415584772825241,-0.9740888476371765,-0.2248723804950714,-0.012800924479961395,0.014265179634094238,0.01620858907699585
1.3385147485679252,-0.1150062904009752,-0.2594096712528575,-0.3755894899368286,-0.14615832269191742,0.18100830912590027,-0.026415955275297165,-0.9731436967849731,-0.22867783904075623,-0.021649209782481194,0.011458516120910645,0.028742030262947083
1.3346960447349396,-0.12234746121516456,-0.2530404162334194,-0.3469807505607605,-0.09756842255592346,0.19624930620193481,-0.02854735404253006,-0.9722575545310974,-0.23216478526592255,-0.0027941763401031494,0.008954882621765137,0.020922183990478516
1.3310808986203686,-0.12932379355352736,-0.2468371409429075,-0.33384206891059875,-0.08566939830780029,0.18403616547584534,-0.030619366094470024,-0.971405565738678,-0.23544372618198395,0.009684324264526367,0.019501209259033203,0.018326520919799805
1.3276214283329817,-0.13513131006709467,-0.24146154229273664,-0.312298983335495,-0.028768569231033325,0.1602320373058319,-0.032438747584819794,-0.9705783724784851,-0.23859058320522308,-0.011826984584331512,0.025464177131652832,0.021946430206298828
1.3243979220711304,-0.13933589481601438,-0.23707465734884126,-0.2948961853981018,0.035809002816677094,0.1345933973789215,-0.03387598320841789,-0.9697971940040588,-0.24154917895793915,-0.020430024713277817,0.018701553344726562,0.02009846270084381
1.321329761251333,-0.14139668513459444,-0.23419735549793,-0.29183700680732727,0.11663807183504105,0.08922618627548218,-0.03479287400841713,-0.9690442681312561,-0.24442364275455475,-0.021634109318256378,0.015873372554779053,0.026512980461120605
1.3182508659365584,-0.14041253109635138,-0.23337191320625789,-0.3117885887622833,0.24085399508476257,0.03430836647748947,-0.03496967628598213,-0.9682795405387878,-0.2474106401205063,-0.033145539462566376,0.02023559808731079,0.04558277130126953
1.3150578548022076,-0.1363391287822134,-0.23442727386223614,-0.3272053599357605,0.36947908997535706,0.003496658056974411,-0.03438166528940201,-0.9674767851829529,-0.2506130635738373,-0.0397760309278965,0.01641160249710083,0.06317418813705444
1.3117424678061047,-0.13048808566870518,-0.2360934559009515,-0.3384748101234436,0.46972474455833435,0.0016982024535536766,-0.03333190083503723,-0.9666327834129333,-0.25398874282836914,-0.017174668610095978,0.0199621319770813,0.06046164035797119
1.3083568052835264,-0.12368239176383242,-0.23796161020850123,-0.3445340394973755,0.5194401144981384,-0.01395692303776741,-0.03200604021549225,-0.9657599329948425,-0.25745517015457153,0.005547329783439636,0.02490311861038208,0.04372549057006836
1.3049594705461842,-0.1156382434866119,-0.2407482789306295,-0.34388285875320435,0.5457502603530884,-0.0521535649895668,-0.030312517657876015,-0.9648729562759399,-0.2609628140926361,-0.010748866945505142,0.028898656368255615,0.02712199091911316
1.301706982116967,-0.10635280004933134,-0.2446059884930135,-0.3210800886154175,0.561242938041687,-0.07690578699111938,-0.028221050277352333,-0.964013397693634,-0.2643519341945648,-0.031074583530426025,0.027260959148406982,0.008004426956176758
1.2988417751130903,-0.09722870303010282,-0.24822593171341806,-0.26319536566734314,0.5596420168876648,-0.05256032198667526,-0.026075957342982292,-0.9632477164268494,-0.2673463225364685,-0.015046458691358566,0.02489316463470459,-0.019961297512054443
1.2966233557218367,-0.08990627633009876,-0.2500597187840666,-0.18922874331474304,0.5439831614494324,-0.007271935697644949,-0.024309450760483742,-0.9626494646072388,-0.2696576714515686,0.018663713708519936,0.027545034885406494,-0.04728254675865173
1.2950860350278541,-0.08437830932270231,-0.25025077033585263,-0.12262716889381409,0.5295974016189575,0.022766010835766792,-0.02294309251010418,-0.9622320532798767,-0.27126187086105347,0.02636107988655567,0.026349544525146484,-0.05901452898979187
1.2941140099136448,-0.07982903707425817,-0.24924775714808586,-0.06643206626176834,0.5674896240234375,0.05059657618403435,-0.021783411502838135,-0.9619669914245605,-0.27229589223861694,0.011941511183977127,0.02391761541366577,-0.046948373317718506
1.29371824320452,-0.07537415176303752,-0.24721262951773174,0.0005695377476513386,0.7262390851974487,0.078575499355793,-0.02059883065521717,-0.9618588089942932,-0.2727699875831604,-0.0010838918387889862,0.015752792358398438,-0.02920132875442505
1.2939666376141787,-0.07154619538600152,-0.24283808144061134,0.058072779327631,0.8667304515838623,0.14750529825687408,-0.019537443295121193,-0.9619267582893372,-0.2726084291934967,0.026098739355802536,0.006573855876922607,-0.024159669876098633
1.2945242578578422,-0.06853635384581074,-0.2365849488536065,0.07281097024679184,0.9231495261192322,0.18078121542930603,-0.018680084496736526,-0.9620789885520935,-0.27213042974472046,0.02612639218568802,0.014401435852050781,-0.013498663902282715
1.295147889668882,-0.06595122457499344,-0.22943539061969165,0.07567093521356583,0.9634617567062378,0.1929529309272766,-0.01793699711561203,-0.9622489213943481,-0.2715792655944824,0.0019305422902107239,0.01061922311782837,0.0016971826553344727
1.2959149047286274,-0.06317652405996266,-0.22201584293634882,0.10677410662174225,1.0207839012145996,0.19499267637729645,-0.017136797308921814,-0.9624574184417725,-0.27089163661003113,-0.020796537399291992,0.02543032169342041,-0.008771359920501709
1.2971425221387207,-0.05958931382232414,-0.21479960564837194,0.14280827343463898,1.036917805671692,0.17049212753772736,-0.016094550490379333,-0.9627898931503296,-0.2697714567184448,-0.04298746585845947,0.040441811084747314,-0.039966583251953125
1.2983105995815236,-0.056701470400756654,-0.20729665257750707,0.12693341076374054,1.0116571187973022,0.22283078730106354,-0.015251688659191132,-0.9631049036979675,-0.2686939239501953,-0.028754647821187973,0.013062119483947754,-0.05972093343734741
1.2997425885730616,-0.055374342986400704,-0.19782124712342872,0.18928681313991547,1.0717817544937134,0.2569386959075928,-0.014818740077316761,-0.963489294052124,-0.2673366367816925,0.01710757054388523,-0.006710350513458252,-0.08833032846450806
1.3015704480317847,-0.05458252721708936,-0.1878351260351565,0.1926538348197937,0.9787245988845825,0.25376981496810913,-0.014510965906083584,-0.9639770984649658,-0.2655896246433258,-0.043808113783597946,0.03258049488067627,-0.09869861602783203
1.3028536496569414,-0.05582969492695928,-0.1774293310564948,0.0765269547700882,0.7711905837059021,0.2894502878189087,-0.014773116447031498,-0.9643176198005676,-0.26433539390563965,-0.04739117622375488,0.009147942066192627,-0.05023965239524841
1.3028121711115326,-0.06174507044548432,-0.16356447587548964,-0.044918760657310486,0.7231255769729614,0.47924596071243286,-0.01633896492421627,-0.964306652545929,-0.2642833888530731,0.002194080501794815,-0.005007922649383545,0.02218756079673767
1.3008411953673686,-0.07597529465267006,-0.14172834605074627,-0.2637626826763153,0.6336835622787476,0.6851043105125427,-0.02024226076900959,-0.9637828469276428,-0.2659192979335785,0.10700374841690063,-0.06040239334106445,0.05904078483581543
1.2965766644520214,-0.09667784251955072,-0.11323561331289338,-0.4643707275390625,0.7238745093345642,0.899116039276123,-0.026139212772250175,-0.9626368284225464,-0.2695314884185791,0.13859650492668152,-0.007044017314910889,0.13742104172706604
1.2899341036429843,-0.12035056132982141,-0.08140150188748026,-0.6493805050849915,0.6105612516403198,0.9602888226509094,-0.03327878192067146,-0.9608168005943298,-0.27517905831336975,0.11785826086997986,0.025712430477142334,0.15597757697105408
1.2818817271087366,-0.1456941913515304,-0.05032421344508215,-0.6947084665298462,0.28767257928848267,0.9731894135475159,-0.04136333242058754,-0.958553671836853,-0.2818935215473175,0.08665142953395844,0.06402236223220825,0.06762969493865967
1.2736270257541962,-0.1722639976669645,-0.021469197702176004,-0.6635696887969971,-0.10122296959161758,0.9165767431259155,-0.050192371010780334,-0.9561691880226135,-0.28848105669021606,0.01714184135198593,0.05730438232421875,-0.058579981327056885
1.2657889594955603,-0.19933685207368929,0.002698581697757745,-0.6075482964515686,-0.7179921269416809,0.7593531012535095,-0.05946534126996994,-0.9538447260856628,-0.294354110956192,-0.04728515073657036,0.051378726959228516,-0.14746400713920593
1.2587689983117913,-0.22266918329904103,0.016481275855651876,-0.5981369614601135,-1.2553541660308838,0.2869509160518646,-0.06779344379901886,-0.9517131447792053,-0.29940956830978394,-0.11163464933633804,0.06565052270889282,-0.16729560494422913
1.2530744370158053,-0.23275074527553508,0.013841625020024066,-0.48816439509391785,-1.1265242099761963,-0.07896379381418228,-0.07205743342638016,-0.9499495625495911,-0.3039797842502594,-0.08281926810741425,-0.09959578514099121,-0.13704490661621094
1.2505196940447247,-0.2390072951078733,0.013177111252501223,-0.00970965065062046,-0.2173660546541214,0.16077820956707,-0.0745321735739708,-0.9491483569145203,-0.30587995052337646,0.08722749352455139,-0.2628878355026245,-0.16416692733764648
1.2514405672902638,-0.2434861610197293,0.019370921860460463,0.22995217144489288,0.4095628559589386,0.1293211728334427,-0.07569065690040588,-0.9494378566741943,-0.30469462275505066,0.10529270768165588,-0.10193854570388794,-0.18155711889266968
1.2533742148148153,-0.24135176975501,0.022034503946179382,0.1607331484556198,0.48160403966903687,-0.04920783266425133,-0.07460124045610428,-0.9500432014465332,-0.30307239294052124,0.0056772977113723755,-0.03434717655181885,-0.04197448492050171
1.2544922103888212,-0.23450574766270837,0.020066714623022314,0.028883568942546844,0.5415394306182861,-0.10633441805839539,-0.07227770239114761,-0.9503915309906006,-0.3025422692298889,-0.05258495360612869,-0.053728342056274414,0.059653013944625854
1.2544911865883075,-0.22380424823288422,0.01615263875759161,-0.084109827876091,0.8832240700721741,-0.13796503841876984,-0.06903618574142456,-0.9503912329673767,-0.30329933762550354,-0.05918341130018234,-0.04207092523574829,0.08432057499885559
1.253341045339742,-0.20601646930658363,0.00924449781212402,-0.24480673670768738,1.35023832321167,-0.24237827956676483,-0.06385410577058792,-0.9500328302383423,-0.30554914474487305,-0.08223353326320648,-0.00959247350692749,0.1158214807510376
1.2503833808544345,-0.17894751715930335,-0.002782861204244373,-0.48400893807411194,1.7583296298980713,-0.38744068145751953,-0.05606077238917351,-0.949105441570282,-0.30992940068244934,-0.1388244777917862,-0.0011052489280700684,0.169624924659729
1.245130191551161,-0.14286951878126708,-0.02035418802117529,-0.7257874608039856,2.1032159328460693,-0.5468785762786865,-0.045554373413324356,-0.9474378228187561,-0.31668058037757874,-0.17980268597602844,0.0007976889610290527,0.1900937557220459
1.2375536811658963,-0.09933879978755367,-0.04276279650484212,-0.9404981732368469,2.3202149868011475,-0.6993251442909241,-0.03244120255112648,-0.9449866414070129,-0.3254963755607605,-0.18949787318706512,0.006387948989868164,0.16137298941612244
1.2279441558015576,-0.052290874585778316,-0.06800909176275687,-1.0879522562026978,2.2878189086914062,-0.8169736266136169,-0.017570842057466507,-0.9417996406555176,-0.3357148766517639,-0.1707683801651001,0.01829206943511963,0.13725918531417847
1.216584054010866,-0.004685543157644777,-0.09477219793261664,-1.2285304069519043,2.1915931701660156,-0.9432775378227234,-0.0016251822235062718,-0.9379200339317322,-0.346847802400589,-0.1553572416305542,0.023506581783294678,0.12159767746925354
1.2035376710181218,0.042751878783179424,-0.12254662239547263,-1.325340747833252,2.092263698577881,-1.0571426153182983,0.015345736406743526,-0.9333151578903198,-0.35873010754585266,-0.1177627295255661,0.011348605155944824,0.10331341624259949
1.1896035132079668,0.0882191664903262,-0.14978996966321495,-1.2961212396621704,1.8787593841552734,-1.097900390625,0.03277745470404625,-0.9282215237617493,-0.37058135867118835,-0.03198399767279625,-0.004273653030395508,0.06966286897659302
1.1761571432779159,0.1276707688653893,-0.17512370419224768,-1.166611671447754,1.2634432315826416,-1.0935356616973877,0.04895303025841713,-0.9231353402137756,-0.3813462257385254,0.03565695881843567,-0.022406160831451416,0.03144705295562744
1.1630885161108866,0.1570883458575333,-0.1989020179601621,-1.1760461330413818,0.176021009683609,-1.1193963289260864,0.06203066557645798,-0.9180321097373962,-0.3916241228580475,0.005870945751667023,0.0021689534187316895,0.06220221519470215
1.1483902738495677,0.17273075702902443,-0.22139990671118875,-1.4484206438064575,-1.1085103750228882,-1.1368815898895264,0.0704604759812355,-0.9121052026748657,-0.4038558602333069,-0.03808131814002991,0.09724003076553345,0.20398104190826416
1.1308326839478127,0.17576935231969923,-0.2393381081783785,-1.7080764770507812,-1.3412277698516846,-0.9015923738479614,0.0744764432311058,-0.9047671556472778,-0.41934433579444885,0.1470048725605011,0.12208276987075806,0.2792840301990509
1.1122645795738093,0.17241334166756112,-0.2480647105507574,-1.7867534160614014,-0.8732861876487732,-0.47387605905532837,0.0759381502866745,-0.8967033624649048,-0.4360694885253906,0.3689013421535492,0.09357213973999023,0.08713161945343018
1.0943815804009374,0.16639730848279854,-0.2481037076542491,-1.7100210189819336,-0.3524765074253082,-0.17045411467552185,0.07595749944448471,-0.888644814491272,-0.45226189494132996,0.3573005497455597,0.09973490238189697,-0.04596796631813049
1.0781609493336828,0.1617398684792691,-0.24561920760025976,-1.5022984743118286,-0.19633649289608002,-0.1518395096063614,0.0761616975069046,-0.8810895085334778,-0.4667767882347107,0.2620951235294342,0.015000641345977783,-0.24490821361541748
1.064507309347294,0.1577451657620409,-0.24470399367416368,-1.18740713596344,-0.4782280921936035,-0.18691414594650269,0.07617933303117752,-0.8745501041412354,-0.4789142906665802,0.017128169536590576,-0.046165287494659424,-0.28646647930145264
1.0545744634073353,0.1517446311615981,-0.2453075488080477,-0.7444109916687012,-0.8316045999526978,-0.17719270288944244,0.07461369782686234,-0.8696902394294739,-0.48792582750320435,-0.09803593903779984,-0.04054230451583862,-0.2978558838367462
1.0494860389280902,0.14325505979764805,-0.24752283484854945,-0.22318583726882935,-1.2607405185699463,-0.194466233253479,0.07109969109296799,-0.8671673536300659,-0.4929156005382538,-0.1517728865146637,-0.018162965774536133,-0.28834956884384155
1.0493265633382762,0.13192167366653745,-0.25202214469261186,0.2411317080259323,-1.7761387825012207,-0.25667881965637207,0.06552702933549881,-0.8670879602432251,-0.49382680654525757,-0.1686916947364807,-0.03617143630981445,-0.2598657011985779
1.0532563343058228,0.11815667422626189,-0.25905145163291254,0.6108887195587158,-2.1514029502868652,-0.33772093057632446,0.05832136794924736,-0.8690388798713684,-0.49129435420036316,-0.15820538997650146,-0.06835442781448364,-0.20499461889266968
1.0602780740443698,0.1039388949391028,-0.2680869625568777,0.8652458190917969,-2.2065656185150146,-0.3807738721370697,0.05069621279835701,-0.8724914193153381,-0.4859924614429474,-0.14441567659378052,-0.06169748306274414,-0.16577133536338806
1.0694693447278678,0.09146353146297102,-0.2775484206806563,1.0402262210845947,-1.88998281955719,-0.3423260748386383,0.043895166367292404,-0.8769456148147583,-0.4785808324813843,-0.04452076926827431,-0.049079835414886475,-0.19799372553825378
1.0802245155231758,0.08188304292925455,-0.2857358587937123,1.1540513038635254,-1.4657765626907349,-0.2386873960494995,0.03853448107838631,-0.882063627243042,-0.469551682472229,0.09539191424846649,-0.04777646064758301,-0.27017900347709656
1.09202324560022,0.07373236724393208,-0.29124450273986907,1.227020263671875,-1.138942003250122,-0.08915223181247711,0.03393704816699028,-0.8875608444213867,-0.4594390094280243,0.18095248937606812,-0.026211857795715332,-0.25534361600875854
1.1044416932023007,0.06564026948969687,-0.29352788527589263,1.2450058460235596,-0.8861606121063232,0.05314943939447403,0.029492856934666634,-0.8932132720947266,-0.44866490364074707,0.2101769596338272,0.012475907802581787,-0.14372694492340088
1.1166516549965095,0.05722543883136911,-0.2928018780252443,1.1671770811080933,-0.662849485874176,0.15544626116752625,0.02509075030684471,-0.8986365795135498,-0.43797579407691956,0.20467610657215118,0.04473942518234253,-0.015515327453613281
1.127627964323276,0.049325027236515544,-0.2900658635681613,0.9935583472251892,-0.41155773401260376,0.18712665140628815,0.021142197772860527,-0.9033976197242737,-0.42828255891799927,0.16889077425003052,0.05526822805404663,0.10060018301010132
1.136389261346941,0.04377182363469627,-0.28703843679054436,0.7287858128547668,-0.1564335823059082,0.14186754822731018,0.01841648295521736,-0.9071197509765625,-0.42046958208084106,0.08213895559310913,0.036880433559417725,0.16610562801361084
1.1421796413398964,0.04191666163503427,-0.2855313738222665,0.4152180254459381,0.060407672077417374,0.03210067376494408,0.017416009679436684,-0.9095415472984314,-0.41524797677993774,-0.02451133355498314,-0.010471940040588379,0.1886245608329773
1.144773854714622,0.043842611995668294,-0.2860014916466979,0.10312671214342117,0.22865340113639832,-0.04100948944687843,0.01811225153505802,-0.9106166958808899,-0.4128550887107849,-0.10322576761245728,-0.06216174364089966,0.1916790008544922
1.1443461066292449,0.04764336427633443,-0.287254379454759,-0.171157106757164,0.28177952766418457,-0.05843000486493111,0.01969982124865055,-0.9104398488998413,-0.41317218542099,-0.0970008373260498,-0.07768887281417847,0.19051608443260193
1.1416796119476902,0.05103927393019416,-0.28829880183681544,-0.33819642663002014,0.1860857754945755,-0.05184294283390045,0.02122657559812069,-0.9093335866928101,-0.4155259132385254,-0.062120117247104645,-0.06257498264312744,0.16966119408607483
1.1380667415399068,0.052051286170262376,-0.28853904228124383,-0.36608484387397766,-0.040823739022016525,0.0017955773510038853,0.021817881613969803,-0.9078244566917419,-0.41878262162208557,-0.04621667414903641,-0.03301727771759033,0.11585003137588501
1.1346961653404932,0.04866455955941062,-0.2870201462241702,-0.2985475957393646,-0.3685978949069977,0.09803555905818939,0.020548183470964432,-0.9064058661460876,-0.42190784215927124,-0.017908399924635887,-0.001812577247619629,0.02771240472793579
1.1324295125503965,0.03975966691120527,-0.2830599126555104,-0.1574486643075943,-0.6858566999435425,0.2101130336523056,0.016871996223926544,-0.9054461121559143,-0.42412590980529785,0.02187008410692215,0.009846627712249756,-0.0494457483291626
1.131722852939403,0.026495753273119392,-0.2773627168462592,-0.01841994747519493,-0.898483157157898,0.2527283728122711,0.011262061074376106,-0.9051459431648254,-0.42495208978652954,0.03327835723757744,0.0010624527931213379,-0.08496606349945068
1.1310425831661637,0.013049877683279587,-0.2721505819157731,-0.13384051620960236,-0.8214041590690613,0.171441450715065,0.005555393174290657,-0.9048565030097961,-0.4256804287433624,-0.027055012062191963,-0.017293155193328857,0.029379278421401978
1.1286992422324267,0.004325027157251874,-0.26939033913255345,-0.3403976857662201,-0.3994462788105011,0.07595354318618774,0.0018503955798223615,-0.9038564562797546,-0.4278317987918854,-0.16055704653263092,-0.05886632204055786,0.19920951128005981
1.124712923671961,0.0003805509326931425,-0.2675835558985762,-0.4244227707386017,-0.10559895634651184,0.08000518381595612,0.00016418324958067387,-0.9021437764167786,-0.43143564462661743,-0.18871702253818512,-0.06587386131286621,0.08515280485153198
1.121433047299176,-0.0021866183025205043,-0.2659001611293832,-0.18625684082508087,-0.13502687215805054,0.06014625355601311,-0.0009498491999693215,-0.9007238745689392,-0.43439117074012756,-0.08219528198242188,-0.024553954601287842,-0.0643879771232605
1.121906581526626,-0.0052397487581733225,-0.26461527377951755,0.2920120358467102,-0.2474445402622223,0.05766730010509491,-0.0022738613188266754,-0.9009294509887695,-0.43395984172821045,-0.01913420669734478,0.016911327838897705,-0.23429876565933228
1.1270795032471834,-0.010186098106868116,-0.262568937369995,0.7154620885848999,-0.36862316727638245,0.12125746160745621,-0.0043728104792535305,-0.9031623005867004,-0.4292771518230438,0.019280660897493362,0.015146434307098389,-0.353101909160614
1.1354633822429774,-0.01840625024064635,-0.2578548362662614,0.9336133003234863,-0.3997951149940491,0.2571503818035126,-0.00776170939207077,-0.9067296981811523,-0.42164117097854614,0.058314088732004166,0.00020486116409301758,-0.3192340135574341
1.144855588087087,-0.029591825213757594,-0.24962575105530094,0.928259015083313,-0.32734405994415283,0.37916842103004456,-0.012224899604916573,-0.9106504321098328,-0.41299688816070557,0.06314349174499512,-0.010324358940124512,-0.21774029731750488
1.153191239022003,-0.04185067893427043,-0.23878379002379993,0.7438167929649353,-0.12147726118564606,0.44491177797317505,-0.016968542709946632,-0.9140628576278687,-0.4052176773548126,0.018128223717212677,-0.018066227436065674,-0.04952472448348999
1.1585807987136,-0.05230803069821592,-0.22644146413469568,0.3452797532081604,0.30036747455596924,0.4941834807395935,-0.02094714529812336,-0.9162354469299316,-0.4000922441482544,0.029370009899139404,0.015020787715911865,0.14736104011535645
1.1589741294750877,-0.05879269621155907,-0.21381924516928608,-0.2255399376153946,0.7134156823158264,0.5006517767906189,-0.0235199723392725,-0.916392982006073,-0.3995881676673889,0.044104091823101044,0.04160654544830322,0.32585784792900085
1.1537667387053578,-0.059690403737045344,-0.20278336345109418,-0.7288483381271362,1.1150578260421753,0.43229666352272034,-0.0241630207747221,-0.9142961502075195,-0.4043249189853668,-0.023658007383346558,0.02132129669189453,0.37658458948135376
1.1449901888092684,-0.05448367999263904,-0.1948427766459036,-0.9378180503845215,1.3287144899368286,0.3196728825569153,-0.022493626922369003,-0.9107060432434082,-0.412442147731781,-0.0899788960814476,-0.027801096439361572,0.24126920104026794
1.135932021840406,-0.04705595982985031,-0.18870677577905182,-0.7923828363418579,1.218767762184143,0.2953696846961975,-0.019816763699054718,-0.906927227973938,-0.4208209812641144,-0.03216991946101189,-0.07966035604476929,0.008574366569519043
1.1299632384920226,-0.04342498188244157,-0.18164066442549917,-0.3402194082736969,0.7284484505653381,0.3685629069805145,-0.0185233224183321,-0.9043964743614197,-0.42629098892211914,0.10555946826934814,-0.0949474573135376,-0.24588912725448608
1.1290184277361714,-0.047587866330446676,-0.17142149367676737,0.17781680822372437,0.3251505196094513,0.5164825916290283,-0.020338397473096848,-0.9039929509162903,-0.42706355452537537,0.16631923615932465,-0.06385695934295654,-0.43632447719573975
1.132202933700647,-0.05838458833330212,-0.15667281788627144,0.4884999990463257,0.23074689507484436,0.7112469673156738,-0.02477988786995411,-0.9053499102592468,-0.42394280433654785,0.20394860208034515,-0.009322941303253174,-0.4151378870010376
1.136672534369138,-0.07464944679880908,-0.13558328597068975,0.48383837938308716,0.3417423963546753,1.02028226852417,-0.031369589269161224,-0.9072389602661133,-0.4194444417953491,0.2644475996494293,0.053768932819366455,-0.2508588433265686
1.1393946727098574,-0.09734250531230793,-0.10629807699834377,0.252979576587677,0.41562169790267944,1.3677492141723633,-0.0406389944255352,-0.9083805680274963,-0.4161651134490967,0.3120318353176117,0.10321992635726929,-0.06401360034942627
1.1393027352248097,-0.1264055522623475,-0.07056810491083305,0.08217482268810272,0.2203797698020935,1.561581015586853,-0.052725695073604584,-0.9083421230316162,-0.4148913621902466,0.2572087347507477,0.09509420394897461,0.06696051359176636
1.1378170728459402,-0.1589754300893879,-0.034314233567284316,0.06212858110666275,-0.15173086524009705,1.4366679191589355,-0.06642185896635056,-0.9077197313308716,-0.41428637504577637,0.03622472286224365,0.03241449594497681,0.08837395906448364
1.1362086634127089,-0.18858673053124686,-0.004338148329239736,0.04517596215009689,-0.276623010635376,1.0747836828231812,-0.07893206924200058,-0.9070437550544739,-0.4135715663433075,-0.24417278170585632,-0.0563809871673584,0.06660205125808716
1.1344099701584291,-0.20898000580825354,0.01610045714612469,-0.0682065337896347,-0.06907723844051361,0.6909676194190979,-0.08768754452466965,-0.9062849283218384,-0.41347160935401917,-0.34991928935050964,-0.11295664310455322,0.07474204897880554
1.1318878045105285,-0.21945621484342964,0.028258140311475756,-0.20057229697704315,0.16055355966091156,0.4378008544445038,-0.09251158684492111,-0.9052160382270813,-0.41475993394851685,-0.2615533471107483,-0.10647231340408325,0.09498155117034912
1.128600738488222,-0.22384270034467918,0.035327092248597605,-0.2923838198184967,0.2154957354068756,0.3011033236980438,-0.09498996287584305,-0.9038143157958984,-0.4172489643096924,-0.11521510034799576,-0.08062177896499634,0.09447988867759705
1.1250288569668883,-0.22588585564452274,0.03945436580634126,-0.31609874963760376,0.10572077333927155,0.20446917414665222,-0.09656470268964767,-0.9022800326347351,-0.42019766569137573,-0.02864890545606613,-0.05107390880584717,0.0791027843952179
1.121515222364898,-0.2273832296495224,0.041567475602527514,-0.32347631454467773,-0.011555667966604233,0.12911514937877655,-0.09790785610675812,-0.9007595777511597,-0.42313864827156067,-0.010719463229179382,-0.016797304153442383,0.06730377674102783
1.1181827912443334,-0.2280422070488755,0.041835651577412765,-0.31650975346565247,-0.06195599213242531,0.043124597519636154,-0.09886477887630463,-0.8993072509765625,-0.4259958863258362,-0.012524396181106567,-0.0066225528717041016,0.05433762073516846
1.114991281140214,-0.2282012213175142,0.0400967976556296,-0.3515782654285431,-0.3806349039077759,-0.04365461692214012,-0.09958124905824661,-0.8979069590568542,-0.4287734627723694,-0.0320105254650116,-0.027111351490020752,0.026567161083221436
1.1122278542046915,-0.2310631026755755,0.03743083597429315,-0.1616959422826767,-0.5033994913101196,-0.06685420870780945,-0.1013757735490799,-0.8966870903968811,-0.43090030550956726,-0.05369928479194641,-0.05150926113128662,-0.03949746489524841
1.1126463541187082,-0.2333621414514051,0.0343978591567556,0.1404338777065277,-0.5815497040748596,-0.21763922274112701,-0.10227943956851959,-0.8968722820281982,-0.4303012490272522,-0.04879783093929291,-0.05335360765457153,-0.14272719621658325
1.115017876717684,-0.23625781192835107,0.03015862769110362,0.2208230048418045,-0.7038521766662598,-0.23130816221237183,-0.10302689671516418,-0.8979186415672302,-0.42793428897857666,-0.03266950696706772,0.0008543729782104492,-0.10996842384338379
1.1177669870898008,-0.24014410111123724,0.026982712023465662,0.24017293751239777,-0.6351223587989807,-0.1732603907585144,-0.10410171002149582,-0.899125337600708,-0.4251314699649811,0.02406933903694153,-0.0017232894897460938,-0.04610562324523926
1.1204205307131134,-0.24381677531333454,0.024422802006658553,0.21774832904338837,-0.550516664981842,-0.17467373609542847,-0.10508600622415543,-0.9002835750579834,-0.4224293828010559,0.006956726312637329,-0.009002983570098877,-0.026713013648986816
1.1230275525671953,-0.2462859510491668,0.02160357397650446,0.234291672706604,-0.43193066120147705,-0.18735815584659576,-0.10555611550807953,-0.9014153480529785,-0.419890820980072,-0.04025685787200928,0.010561466217041016,-0.0028996169567108154
1.1258688026686814,-0.24663512285447214,0.018346214187756466,0.241840660572052,-0.21553446352481842,-0.2285788357257843,-0.10507702827453613,-0.9026418328285217,-0.41736865043640137,-0.05755114555358887,0.017815113067626953,-0.030064702033996582
1.1287034978812045,-0.24350325624818947,0.013845085862314414,0.21264544129371643,0.03708161413669586,-0.28063467144966125,-0.10315203666687012,-0.9038582444190979,-0.4152107536792755,-0.08538555353879929,0.011249542236328125,-0.019817233085632324
1.131342899944179,-0.23597333206165363,0.008004290255650059,0.17430151998996735,0.43657386302948,-0.32396402955055237,-0.09946457296609879,-0.9049843549728394,-0.4136548340320587,-0.09487135708332062,-0.004393815994262695,-0.014109969139099121
1.133602745898813,-0.2231964046061742,0.0011447945499155798,0.1430351585149765,0.8144397735595703,-0.3406883478164673,-0.09371843189001083,-0.9059434533119202,-0.41289639472961426,-0.08410748839378357,-0.007218837738037109,-0.02864706516265869
1.1362468531377365,-0.2093525970220426,-0.005990817856601751,0.26900163292884827,0.6035096645355225,-0.35662841796875,-0.08749541640281677,-0.9070597887039185,-0.4118095636367798,-0.06812895834445953,-0.02645772695541382,-0.058267802000045776
1.1407793882197894,-0.19891570289366736,-0.011854821162910404,0.5126713514328003,0.44607487320899963,-0.2999303340911865,-0.08237943053245544,-0.9089586734771729,-0.4086657762527466,-0.02673616260290146,0.009834527969360352,-0.11138412356376648
1.1471798080910913,-0.1916276923896557,-0.01504723044753664,0.6742615699768066,0.4271091818809509,-0.20453990995883942,-0.07828928530216217,-0.9116082787513733,-0.4035358130931854,0.04185129702091217,0.06566095352172852,-0.1481608748435974
1.1543786840256578,-0.18765424125018432,-0.015546286661209753,0.71697998046875,0.2541409134864807,-0.10485398024320602,-0.07545895874500275,-0.9145438075065613,-0.397385835647583,0.08287474513053894,0.06472086906433105,-0.09681570529937744
1.161481585022426,-0.18763622467488023,-0.013670315450225498,0.6957037448883057,0.10994459688663483,-0.017074860632419586,-0.07423817366361618,-0.9173937439918518,-0.3909952938556671,0.07870901376008987,0.04453003406524658,-0.005961954593658447
1.1678440300779231,-0.18955560261894952,-0.010661301503489259,0.5788413882255554,0.07188583165407181,0.002988150343298912,-0.07388725131750107,-0.9199073314666748,-0.3851121962070465,0.034122854471206665,0.028610825538635254,0.05680418014526367
1.172517072572612,-0.19052536446517673,-0.008660543057454013,0.35965496301651,0.10565444827079773,-0.029501348733901978,-0.07344575971364975,-0.9217297434806824,-0.38081496953964233,-0.029703639447689056,0.0036693811416625977,0.11445769667625427
1.1751504082186828,-0.18940507728961495,-0.008657428965882003,0.16280891001224518,0.11676019430160522,-0.06999141722917557,-0.07256186753511429,-0.922747790813446,-0.3785119354724884,-0.056420668959617615,-0.03068244457244873,0.15700018405914307
1.176233894331882,-0.1869135803809153,-0.01064604561854779,0.03476172313094139,-0.008784143254160881,-0.1211472749710083,-0.07143279910087585,-0.9231648445129395,-0.37770920991897583,-0.06322601437568665,-0.0444561243057251,0.13750547170639038
1.1768737250141519,-0.184808669418673,-0.014062886138934805,0.06227288022637367,-0.1920129954814911,-0.15480616688728333,-0.070529043674469,-0.9234105944633484,-0.37727802991867065,-0.053250253200531006,-0.03149974346160889,0.0666092038154602
1.1783824629872577,-0.18457126452300626,-0.017089470224225026,0.19692842662334442,-0.3284169137477875,-0.11901994794607162,-0.07018369436264038,-0.9239886403083801,-0.3759247660636902,0.0018243268132209778,-0.005988895893096924,-0.036703288555145264
1.181179069644121,-0.18839551038347416,-0.017556966876890928,0.34287092089653015,-0.5095010995864868,-0.01251906342804432,-0.07113654911518097,-0.9250544905662537,-0.3731136620044708,0.09159859269857407,0.007207751274108887,-0.08742699027061462
