attitudeX,attitudeY,attitudeZ,gyroX,gyroY,gyroZ,gravityX,gravityY,gravityZ,accX,accY,accZ
1.4774238317503972,-0.4131453937072211,0.04163616864813571,0.35834401845932007,-0.058538343757390976,0.15142697095870972,-0.037433624267578125,-0.9956439733505249,-0.08539161086082458,0.1363411247730255,0.024742543697357178,-0.12047986686229706
1.480282517402056,-0.44417633957705094,0.07241037528462811,0.3829154074192047,-0.012768690474331379,0.120320163667202,-0.03884245827794075,-0.995906412601471,-0.0816202238202095,0.12299469858407974,0.023387432098388672,-0.07368361949920654
1.4833802767052835,-0.47393444718045485,0.10266221929996765,0.3939882814884186,0.10051925480365753,0.08304469287395477,-0.03984540328383446,-0.9961816668510437,-0.07768263667821884,0.09190841019153595,0.006023526191711426,-0.03921478986740112
1.486385430223822,-0.5002213292689288,0.1308086847581833,0.35278409719467163,0.2415671944618225,0.06195090338587761,-0.04043707996606827,-0.996439516544342,-0.0739806517958641,0.08070504665374756,-0.02600616216659546,-0.00013118237257003784
1.488861425516795,-0.5231823992843802,0.15664051765432505,0.2901358902454376,0.3065437972545624,0.07524992525577545,-0.040892593562603,-0.9966452121734619,-0.0708962008357048,0.11611843854188919,-0.05497533082962036,0.02779024839401245
1.4908125277693702,-0.5479305260870622,0.18490704880849415,0.28621718287467957,0.37913796305656433,0.11522608995437622,-0.04162125661969185,-0.9968029856681824,-0.06820233911275864,0.17884355783462524,-0.0614856481552124,0.023845195770263672
1.4926788130630202,-0.5785501086872369,0.21969577912652166,0.3260471522808075,0.4243384599685669,0.14828070998191833,-0.04267137497663498,-0.9969503879547119,-0.06533684581518173,0.21796436607837677,-0.06397789716720581,-0.02310299128293991
1.4947148462003215,-0.6173594799399675,0.2629182806813195,0.3791181743144989,0.42271924018859863,0.17838026583194733,-0.04400068148970604,-0.997107207775116,-0.061978887766599655,0.24575240910053253,-0.08295577764511108,-0.07139807939529419
1.496641488562908,-0.6656715936569955,0.3154036342446246,0.3948419988155365,0.37335968017578125,0.22580690681934357,-0.04575584828853607,-0.9972518086433411,-0.0582704059779644,0.28707361221313477,-0.08300948143005371,-0.08420079946517944
1.4980396123107933,-0.7232069686767898,0.3764602805943092,0.3883712887763977,0.29695889353752136,0.28516045212745667,-0.04810818284749985,-0.9973543882369995,-0.054497599601745605,0.33128079771995544,-0.08521097898483276,-0.07842153310775757
1.49866857460425,-0.7893146903064204,0.4454695700958125,0.3888589143753052,0.25576460361480713,0.3557528555393219,-0.051156409084796906,-0.9973999261856079,-0.050757259130477905,0.3656248152256012,-0.09607535600662231,-0.07183175534009933
1.4984666795429962,-0.8661263394773558,0.5252823436505224,0.43415528535842896,0.3110758066177368,0.45180606842041016,-0.05505543202161789,-0.9973853230476379,-0.046813804656267166,0.400895893573761,-0.10092705488204956,-0.07037359476089478
1.497331190023161,-0.9547284665031792,0.6178286605596182,0.4858403205871582,0.43395060300827026,0.5469117760658264,-0.0599050298333168,-0.9973026514053345,-0.04241212457418442,0.4193105697631836,-0.10212361812591553,-0.08394581079483032
1.4951355879967037,-1.0496074659365107,0.7180501953819862,0.530464231967926,0.5804700255393982,0.6195171475410461,-0.06555210798978806,-0.9971390962600708,-0.03763618692755699,0.41983067989349365,-0.10066968202590942,-0.08801984786987305
1.4918012610248104,-1.1451126021736078,0.820543451031957,0.5761414766311646,0.7529072761535645,0.6943101286888123,-0.0718708485364914,-0.9968814849853516,-0.032586757093667984,0.4267140030860901,-0.09261131286621094,-0.08406656980514526
1.48712980243915,-1.2393141777808068,0.9233715613201832,0.6253960132598877,0.8884449005126953,0.78774493932724,-0.07901967316865921,-0.9965019822120667,-0.027197130024433136,0.4435674250125885,-0.08092111349105835,-0.10372316837310791
1.4807878544366369,-1.3280740788617862,1.0217935428970617,0.6459255218505859,0.957280158996582,0.9106231331825256,-0.08725308626890182,-0.9959519505500793,-0.021604204550385475,0.4711489677429199,-0.07146143913269043,-0.12794709205627441
1.47236734027553,-1.4076351017312558,1.1114102602504756,0.6591918468475342,0.9530707597732544,1.0827243328094482,-0.09696618467569351,-0.9951598048210144,-0.015963027253746986,0.5072445273399353,-0.06666898727416992,-0.14460504055023193
1.4612297692069032,-1.4765598831235531,1.189976146987498,0.6649940609931946,0.8918406963348389,1.3359427452087402,-0.10886288434267044,-0.9940035939216614,-0.01028932724148035,0.5508184432983398,-0.0646512508392334,-0.17251086235046387
1.4466493785070307,-1.5332597630600424,1.256053426037105,0.6770845055580139,0.9048569202423096,1.6711519956588745,-0.12374037504196167,-0.9923036694526672,-0.0046469708904623985,0.6223518252372742,-0.05151945352554321,-0.1800910234451294
1.4281475790624543,-1.577249290845676,1.3102386581788437,0.7059763669967651,1.0449570417404175,2.0365042686462402,-0.14216248691082,-0.9898428916931152,0.0009173821308650076,0.6682855486869812,-0.04404681921005249,-0.1770951747894287
1.4058898347970834,-1.6096675113402976,1.3547072698879044,0.7565946578979492,1.2556464672088623,2.3532373905181885,-0.1640361249446869,-0.9864336848258972,0.006379491649568081,0.6583293676376343,-0.03402835130691528,-0.192734956741333
1.380711969739503,-1.6321465093651477,1.3914940476406576,0.7804717421531677,1.4855611324310303,2.5862669944763184,-0.1885858029127121,-0.9819883108139038,0.011584310792386532,0.6182122826576233,-0.005270481109619141,-0.21550273895263672
1.3534336973827203,-1.6446132764026282,1.4205489580434034,0.7491444945335388,1.6965203285217285,2.753467082977295,-0.21506860852241516,-0.9764696359634399,0.015904607251286507,0.5884969234466553,0.05729532241821289,-0.20746326446533203
1.324711037309063,-1.6485361549513966,1.4429805632506016,0.7108772397041321,1.8756489753723145,2.8762624263763428,-0.24287401139736176,-0.9698734879493713,0.018919112160801888,0.5562132000923157,0.12087428569793701,-0.1924877166748047
1.2947456057124191,-1.6465958192997097,1.461421102501447,0.6988371014595032,2.060347557067871,3.010571241378784,-0.27177566289901733,-0.962139368057251,0.020640000700950623,0.5502638816833496,0.1679345965385437,-0.20582044124603271
1.2634326689696727,-1.6414366818664858,1.4783821740884693,0.7317897081375122,2.2003579139709473,3.1477906703948975,-0.301792711019516,-0.9531344771385193,0.021354274824261665,0.5602002739906311,0.208581805229187,-0.23889875411987305
1.2308755485346652,-1.634687206093357,1.4953174412924368,0.7755520939826965,2.3499739170074463,3.2531673908233643,-0.33273208141326904,-0.9427810907363892,0.021287519484758377,0.5526264905929565,0.25428926944732666,-0.26156747341156006
1.1977291098564764,-1.6262562126532027,1.5123580142981559,0.8011919260025024,2.510221242904663,3.265414237976074,-0.363912969827652,-0.9312137961387634,0.02020329050719738,0.5221465826034546,0.3115086555480957,-0.2663273811340332
1.1650699208728417,-1.6162297002915005,1.5295770522895822,0.8329888582229614,2.6658875942230225,3.181708812713623,-0.39427903294563293,-0.9188159108161926,0.01792576164007187,0.45101121068000793,0.3664783239364624,-0.256496787071228
1.1336801354875574,-1.605076257043258,1.5477564344004902,0.9063882231712341,2.8766603469848633,3.0232274532318115,-0.42307963967323303,-0.9059762358665466,0.014508823864161968,0.3733970522880554,0.4241647720336914,-0.251096248626709
1.1041214418117318,-1.593214276264852,1.5680648536548545,1.0359255075454712,3.1275830268859863,2.8187777996063232,-0.449806272983551,-0.8930692672729492,0.010085423476994038,0.30442050099372864,0.4782438278198242,-0.26634132862091064
1.0768308829127038,-1.58157557903352,1.5914606923086718,1.207719087600708,3.3174543380737305,2.584869146347046,-0.4740936756134033,-0.8804596662521362,0.00511057348921895,0.24136659502983093,0.516156017780304,-0.2869250774383545
1.0520438122170617,-1.5704297221060945,1.6175296488504114,1.3284672498703003,3.4400241374969482,2.3480429649353027,-0.49579745531082153,-0.8684383630752563,-0.0001817616866901517,0.16716885566711426,0.5415034890174866,-0.272324800491333
1.0296509492464458,-1.5588064622535434,1.644399092505795,1.3347065448760986,3.488485336303711,2.13704252243042,-0.5150814652442932,-0.8571192622184753,-0.0061760530807077885,0.07465165853500366,0.5430168509483337,-0.21406912803649902
1.0094972043317851,-1.5452378187405453,1.6693893292063022,1.179142951965332,3.4508655071258545,1.9295713901519775,-0.5321125388145447,-0.8465642929077148,-0.013602965511381626,-0.029731273651123047,0.5007086396217346,-0.1109086275100708
0.9916091278728837,-1.528312544498569,1.6898242842210638,0.8860865235328674,3.347806453704834,1.708022117614746,-0.5468499660491943,-0.8369078040122986,-0.023246241733431816,-0.14609742164611816,0.44689321517944336,0.0009227413684129715
0.9761594953906481,-1.507452480710365,1.7043065425247133,0.5505098700523376,3.214740514755249,1.4438657760620117,-0.5590845346450806,-0.8283519744873047,-0.03546200692653656,-0.25913751125335693,0.4109020233154297,0.0977180004119873
0.9637077624465619,-1.4829832642459406,1.7131749995965706,0.2716420292854309,3.128903388977051,1.0956162214279175,-0.568280816078186,-0.821312427520752,-0.0500311441719532,-0.40529102087020874,0.3840412497520447,0.14437633752822876
0.9548728307502323,-1.4557474686928795,1.7179292867911913,0.11123233288526535,3.0698068141937256,0.7181316614151001,-0.5738933682441711,-0.8162402510643005,-0.06631863862276077,-0.5838214159011841,0.3550434112548828,0.11475016176700592
0.9495006392311899,-1.4277841812395222,1.7207200045307869,0.08867163211107254,2.950486183166504,0.3979177176952362,-0.5761467814445496,-0.81312495470047,-0.08296235650777817,-0.7280982136726379,0.3167717456817627,0.028625905513763428
0.9469178850851062,-1.4010896573256368,1.7232182187240672,0.11346695572137833,2.7617101669311523,0.16964386403560638,-0.5757951140403748,-0.8116188049316406,-0.09866529703140259,-0.8573866486549377,0.2478829026222229,-0.08341769874095917
0.9461516176502731,-1.3766119952477671,1.7250504137004337,0.056285157799720764,2.386154890060425,0.02596473880112171,-0.573817789554596,-0.8111709356307983,-0.11284840852022171,-0.9678845405578613,0.1815934181213379,-0.15053342282772064
0.946399374384975,-1.355046953128572,1.7246709170742254,-0.09955935180187225,1.842223048210144,-0.07812460511922836,-0.5710545778274536,-0.8113158345222473,-0.1251525729894638,-1.0715845823287964,0.11554563045501709,-0.16015611588954926
0.9471932674758705,-1.3362960378645714,1.7208281888747126,-0.2959917187690735,1.2787330150604248,-0.17723120748996735,-0.5679811835289001,-0.8117796778678894,-0.13568809628486633,-1.2096067667007446,0.05730879306793213,-0.149361252784729
0.9485755868047484,-1.3200576322992281,1.713653598761816,-0.43931686878204346,0.8131429553031921,-0.28960323333740234,-0.5646155476570129,-0.8125861287117004,-0.14461438357830048,-1.3636834621429443,0.012216806411743164,-0.15752476453781128
0.9507219544507162,-1.3058390198982617,1.704057555302301,-0.5226866006851196,0.478081613779068,-0.41108572483062744,-0.5608177185058594,-0.8138352632522583,-0.15217044949531555,-1.5008583068847656,-0.010490477085113525,-0.1938987523317337
0.954005763059279,-1.293040435565814,1.6925793392543602,-0.5832082629203796,0.22503256797790527,-0.5767661333084106,-0.5562512874603271,-0.8157390356063843,-0.15860183537006378,-1.5921862125396729,-0.009730994701385498,-0.22735387086868286
0.9588886927276792,-1.2809261215769077,1.679288280849938,-0.60941082239151,0.023467492312192917,-0.7924256920814514,-0.5504652857780457,-0.8185536861419678,-0.16418808698654175,-1.659602403640747,0.023097872734069824,-0.2576562762260437
0.9661115313682891,-1.2693255234392364,1.6637893530973262,-0.6586576104164124,-0.2609017491340637,-1.1110813617706299,-0.5428639054298401,-0.8226813077926636,-0.16880272328853607,-1.6843547821044922,0.0690038800239563,-0.2987569570541382
0.9765982065625829,-1.2588073888434677,1.6457404339896287,-0.6352058053016663,-0.6283378601074219,-1.5081993341445923,-0.5328180193901062,-0.8285976648330688,-0.17184549570083618,-1.683765172958374,0.12504541873931885,-0.33924752473831177
0.9913974089488806,-1.2505665285733136,1.6256433890377637,-0.5484353303909302,-1.0602388381958008,-1.985289216041565,-0.5196866393089294,-0.8367919325828552,-0.1723511964082718,-1.6356630325317383,0.20599365234375,-0.4137845039367676
1.0108132575572413,-1.2451156495728946,1.604251457500197,-0.3968212604522705,-1.4375243186950684,-2.408447742462158,-0.5032499432563782,-0.8472641110420227,-0.1699504554271698,-1.528412103652954,0.27263331413269043,-0.46988093852996826
1.0344783148811794,-1.2428373052928734,1.5826519044515912,-0.21043559908866882,-1.7792308330535889,-2.7734038829803467,-0.48374053835868835,-0.8595958948135376,-0.16459079086780548,-1.3732236623764038,0.3248820900917053,-0.49443620443344116
1.0619390107373388,-1.2438538977062394,1.5616043836755564,-0.01599234715104103,-2.0433034896850586,-3.0734784603118896,-0.4613732397556305,-0.8733017444610596,-0.15645726025104523,-1.218497395515442,0.33970189094543457,-0.47688913345336914
1.0925443728408681,-1.2471066145757956,1.5411619847495068,0.12842699885368347,-2.1824748516082764,-3.3178458213806152,-0.4363275170326233,-0.8878007531166077,-0.14638324081897736,-1.0769171714782715,0.34536612033843994,-0.4289645552635193
1.1254124055061716,-1.2511313910950028,1.5207235615333266,0.22139103710651398,-2.262342691421509,-3.4592785835266113,-0.4089801013469696,-0.9024453163146973,-0.1353796124458313,-0.957566499710083,0.3394876718521118,-0.35488516092300415
1.1595585693021162,-1.2555808492392417,1.5003835978435875,0.2953358590602875,-2.3068830966949463,-3.533059597015381,-0.38004887104034424,-0.9166267514228821,-0.12392930686473846,-0.7895984053611755,0.3185126781463623,-0.2917352318763733
1.1945764238562806,-1.2591624664779373,1.4792916408517058,0.31705525517463684,-2.280447244644165,-3.607849597930908,-0.3497110605239868,-0.930060088634491,-0.11265240609645844,-0.654378354549408,0.3194643259048462,-0.24443364143371582
1.2304517539664943,-1.2595873664077637,1.4558068176866394,0.3090333342552185,-2.1865768432617188,-3.704906463623047,-0.3177773952484131,-0.9426397085189819,-0.10221660137176514,-0.569536566734314,0.3370029330253601,-0.1866016536951065
1.2670000658601699,-1.25482982650488,1.42808479712402,0.2716577351093292,-2.1152758598327637,-3.7573275566101074,-0.28433629870414734,-0.954207718372345,-0.09295491129159927,-0.48528653383255005,0.3357384204864502,-0.15820461511611938
1.3035777745710666,-1.2426761204983465,1.393483927214692,0.18805968761444092,-2.0918943881988525,-3.771982192993164,-0.24996264278888702,-0.9645090699195862,-0.08509375154972076,-0.41144484281539917,0.3342142701148987,-0.1478772759437561
1.3397550287391808,-1.2193034015194724,1.3475425553440001,0.0831332728266716,-2.131802797317505,-3.777730703353882,-0.21499085426330566,-0.97342848777771,-0.07884171605110168,-0.3295800983905792,0.3475434184074402,-0.13671904802322388
1.3752660924262152,-1.1786726577500692,1.2837106275340384,-0.01859263703227043,-2.212801456451416,-3.7982683181762695,-0.17954109609127045,-0.980944812297821,-0.07424735277891159,-0.23658137023448944,0.3734769821166992,-0.13827693462371826
1.4101107473239178,-1.1096393470319945,1.190523401640287,-0.10327263176441193,-2.313953161239624,-3.8918697834014893,-0.14328207075595856,-0.9871178269386292,-0.07119551301002502,-0.18418683111667633,0.4183464050292969,-0.16081422567367554
1.4439312776863749,-0.9897818448281431,1.0457164256614966,-0.12140417844057083,-2.3471975326538086,-3.9865310192108154,-0.10576345771551132,-0.9919634461402893,-0.06944633275270462,-0.16611766815185547,0.47882556915283203,-0.18105709552764893
1.4743465852444146,-0.7807727152312121,0.8123111751214492,-0.045242298394441605,-2.214134454727173,-3.933610439300537,-0.06777885556221008,-0.9953523278236389,-0.0684087872505188,-0.07304451614618301,0.5100618004798889,-0.22544485330581665
1.4969952767506767,-0.4342462825132442,0.44361436989633785,0.13817691802978516,-1.9318445920944214,-3.684905767440796,-0.031022749841213226,-0.9972779154777527,-0.06689245998859406,0.06686563044786453,0.4898315668106079,-0.2827015519142151
1.5060545111709522,0.052178512812159954,-0.062043145870710706,0.250563383102417,-1.6835874319076538,-3.4374771118164062,0.003374208230525255,-0.9979049563407898,-0.06460792571306229,0.18115031719207764,0.44800877571105957,-0.306485652923584
1.4986415681552465,0.5214617054716647,-0.5484236664749736,0.21055997908115387,-1.519271731376648,-3.2778196334838867,0.035912614315748215,-0.9973979592323303,-0.06251060217618942,0.1862553507089615,0.4192577004432678,-0.24612873792648315
1.479330869944766,0.8273618701958012,-0.8702751934250785,0.07835933566093445,-1.4680359363555908,-3.1802752017974854,0.06723997741937637,-0.9958199262619019,-0.061820920556783676,0.19330385327339172,0.45683354139328003,-0.16663354635238647
1.454274643462385,0.9991011527915904,-1.057723890605909,-0.04988953471183777,-1.46127188205719,-3.128685235977173,0.09777231514453888,-0.9932190179824829,-0.06290306895971298,0.24710683524608612,0.49292904138565063,-0.11800503730773926
1.426611847478991,1.0972081579575492,-1.1712317373383732,-0.14636173844337463,-1.4152394533157349,-3.1154723167419434,0.12787102162837982,-0.9896234273910522,-0.065532386302948,0.2750067710876465,0.49589478969573975,-0.11919038742780685
1.39787083857469,1.1578759791030582,-1.2466613339880663,-0.14915922284126282,-1.3370691537857056,-3.068026065826416,0.15760351717472076,-0.9850856065750122,-0.06904730945825577,0.30725550651550293,0.5026026964187622,-0.1400437355041504
1.3697140424643268,1.2015359551154006,-1.3039611213121756,-0.013083666563034058,-1.1685400009155273,-2.930793523788452,0.18626722693443298,-0.9798510074615479,-0.07208774238824844,0.4204069972038269,0.4937974810600281,-0.18032300472259521
1.3431521738128989,1.2397790980260655,-1.3538091227741431,0.178036630153656,-0.9090854525566101,-2.8066937923431396,0.2134314626455307,-0.9742007851600647,-0.07334824651479721,0.5368279218673706,0.4459567070007324,-0.23176634311676025
1.3176233264118502,1.2769645045323452,-1.4000556530284791,0.3367874026298523,-0.6299393177032471,-2.7349605560302734,0.23974226415157318,-0.9681225419044495,-0.07254376262426376,0.5791816711425781,0.3998240828514099,-0.23786568641662598
1.292772096983272,1.3132832045067369,-1.442731929325745,0.45750609040260315,-0.34000363945961,-2.6422736644744873,0.26540690660476685,-0.961599588394165,-0.06989768147468567,0.6429641246795654,0.3643551468849182,-0.18959319591522217
1.2687817974604498,1.3485321377826331,-1.4816004885040668,0.5527558922767639,-0.05655888095498085,-2.529845952987671,0.2901277542114258,-0.9547392129898071,-0.06556830555200577,0.7452421188354492,0.29836708307266235,-0.1553483009338379
1.2462289063138827,1.3822975505520558,-1.5163428466762896,0.6148797869682312,0.18580786883831024,-2.2947490215301514,0.3132503628730774,-0.9477887749671936,-0.059756744652986526,0.8542759418487549,0.21686220169067383,-0.14866292476654053
1.2263582834377467,1.413799415385772,-1.5467849585632776,0.6612709760665894,0.35507360100746155,-1.9417465925216675,0.33351534605026245,-0.941265344619751,-0.05279536172747612,1.0475424528121948,0.1508600115776062,-0.13171380758285522
1.2100562678282412,1.4426216054357632,-1.5730256741087565,0.6583905816078186,0.4745762348175049,-1.535581111907959,0.35007157921791077,-0.9356358647346497,-0.04511767253279686,1.1874498128890991,0.07732892036437988,-0.11126947402954102
1.19766485452009,1.4682870921009714,-1.5951279003736523,0.6167523264884949,0.5209077596664429,-1.1134754419326782,0.36262014508247375,-0.9311903715133667,-0.037302665412425995,1.2554676532745361,0.0018079280853271484,-0.09334290027618408
1.1893364354460008,1.4904970115090592,-1.6133118666114719,0.562347948551178,0.5305153727531433,-0.6560607552528381,0.3710765242576599,-0.9281221628189087,-0.02986139990389347,1.3063222169876099,-0.045602262020111084,-0.07321161031723022
1.1855916406935054,1.5098364296165843,-1.6285039439276903,0.5134235620498657,0.5087480545043945,-0.17195133864879608,0.37505143880844116,-0.9267215132713318,-0.022891459986567497,1.3779393434524536,-0.05763840675354004,-0.06385457515716553
1.1863643180735535,1.5264880048705851,-1.6412788122739297,0.44529640674591064,0.4457275867462158,0.26604753732681274,0.37466496229171753,-0.9270116090774536,-0.016611646860837936,1.3981622457504272,-0.06346696615219116,-0.05215954780578613
1.191113647275954,1.5403543580253716,-1.6517864893426446,0.3706594705581665,0.3785671889781952,0.6460270881652832,0.3704540431499481,-0.9287822842597961,-0.01128083560615778,1.363875150680542,-0.05812567472457886,-0.027400076389312744
1.1995839214516446,1.5520670098278238,-1.6603886989776073,0.2997802793979645,0.3688036799430847,1.036226749420166,0.36268186569213867,-0.931888222694397,-0.006793578155338764,1.3291668891906738,-0.04462844133377075,0.008624732494354248
1.2121379713560612,1.5622606766888665,-1.6672291449546446,0.21746543049812317,0.3895811140537262,1.4572256803512573,0.35100609064102173,-0.9363685846328735,-0.0029961380641907454,1.3214335441589355,-0.03436523675918579,0.04224193096160889
1.2287878349840418,1.5710257740885478,-1.6720347652292746,0.12749025225639343,0.4737194776535034,1.8616831302642822,0.3353802263736725,-0.942082941532135,7.695209205849096e-05,1.2810901403427124,-0.019220829010009766,0.0920100212097168
1.249562002989479,1.579544020224206,-1.6753206257066728,0.0680927038192749,0.6044641733169556,2.2788193225860596,0.3157261908054352,-0.9488463997840881,0.002761946292594075,1.2092372179031372,-0.011907994747161865,0.1099090576171875
1.2743354330249022,1.5884711594188134,-1.677842888110745,0.017126793041825294,0.6898947954177856,2.6548550128936768,0.2920915186405182,-0.9563763737678528,0.005163206253200769,1.1597212553024292,0.003449857234954834,0.09380543231964111
1.302595834947136,1.5974407775951522,-1.6796372574206657,-0.04529184475541115,0.7510207891464233,2.970548629760742,0.2649025022983551,-0.964249312877655,0.007059852592647076,1.0925803184509277,0.046936750411987305,0.08354699611663818
1.333669404275321,1.605641187993616,-1.6801947235759997,-0.1131894588470459,0.771111011505127,3.2071006298065186,0.23476874828338623,-0.9720169305801392,0.008183796890079975,1.0258971452713013,0.10473775863647461,0.07104003429412842
1.366672181208014,1.613124419444071,-1.679877989140717,-0.15187481045722961,0.7876673340797424,3.355666399002075,0.20252901315689087,-0.9792389273643494,0.00857779011130333,0.9555826187133789,0.17444443702697754,0.038526177406311035
1.4009227360240417,1.6212825981517212,-1.679696293354117,-0.1663653701543808,0.8865001201629639,3.4664692878723145,0.1688435673713684,-0.9856061339378357,0.008531531319022179,0.8681743144989014,0.22112536430358887,-0.006242512725293636
1.436549710225538,1.6349895535222934,-1.6836279431749879,-0.11296072602272034,1.0818313360214233,3.6434152126312256,0.13356885313987732,-0.9910024404525757,0.008586011826992035,0.8323735594749451,0.2561696171760559,-0.04110240936279297
1.4742230780309455,1.6672655035479933,-1.7039765043178923,-0.026172373443841934,1.321311593055725,3.8809635639190674,0.09597477316856384,-0.9953404068946838,0.009287436492741108,0.8506804704666138,0.2715092897415161,-0.08249902725219727
1.5139397712593907,1.7532030468233233,-1.7758787312079558,0.0035716730635613203,1.5081020593643188,4.098912239074707,0.055882975459098816,-0.9983841180801392,0.010308007709681988,0.84670490026474,0.29379427433013916,-0.112099289894104
1.5532854106850484,2.22838263289896,-2.2356249608115433,-0.03776061162352562,1.597926378250122,4.24091911315918,0.013859252445399761,-0.9998466968536377,0.01070273295044899,0.8004870414733887,0.3415367603302002,-0.11125802993774414
1.539991692421823,-1.8959964391521629,1.9045126535556385,-0.11684370785951614,1.5815383195877075,4.302471160888672,-0.029186910018324852,-0.9995255470275879,0.009840968064963818,0.7217375636100769,0.3913865089416504,-0.12647902965545654
1.497778149058453,-1.6725270588859062,1.6965245326963458,-0.20793668925762177,1.5601167678833008,4.329833984375,-0.07257635146379471,-0.9973353743553162,0.007408821489661932,0.6432245373725891,0.44258683919906616,-0.1346365213394165
1.4545018822943507,-1.6012659847736155,1.640929560364002,-0.2582443356513977,1.6204171180725098,4.346940517425537,-0.11597883701324463,-0.9932454228401184,0.003534929594025016,0.5902677774429321,0.4914601445198059,-0.14498376846313477
1.4109074032734488,-1.5622986667507754,1.6184761585289063,-0.24830453097820282,1.7101283073425293,4.345577716827393,-0.1592031717300415,-0.9872449636459351,-0.001352887018583715,0.5379873514175415,0.5336773991584778,-0.16678357124328613
1.3675201249725653,-1.538233704861085,1.611789682855337,-0.1586284339427948,1.7709929943084717,4.299613952636719,-0.20177185535430908,-0.9794104099273682,-0.006572543643414974,0.4564257860183716,0.5746711492538452,-0.2243538498878479
1.3246570192975782,-1.5232137567236788,1.6148782148556406,-0.04855244234204292,1.8316848278045654,4.245992660522461,-0.24338601529598236,-0.9698603749275208,-0.01158967986702919,0.3900687098503113,0.6146814823150635,-0.28972548246383667
1.2824114217477556,-1.5125906915883434,1.6236306518112524,0.060648612678050995,1.9747389554977417,4.190456390380859,-0.28392282128334045,-0.9587044715881348,-0.01654459722340107,0.32161200046539307,0.6428017020225525,-0.2930713891983032
1.241047868581476,-1.5033780876591503,1.6355369647710463,0.13110482692718506,2.1169979572296143,4.107208251953125,-0.32306969165802,-0.9461238384246826,-0.021813848987221718,0.22539812326431274,0.6459833979606628,-0.2786620855331421
1.2006671917397613,-1.493256096904232,1.6480223773767966,0.12979774177074432,2.2363457679748535,3.9999098777770996,-0.3606490194797516,-0.9322806596755981,-0.028020989149808884,0.1115034818649292,0.6487112641334534,-0.25080275535583496
1.161361755876438,-1.4815780059372958,1.6602428391144384,0.145896777510643,2.346555709838867,3.8884177207946777,-0.39650771021842957,-0.9173460602760315,-0.035469915717840195,-6.833672523498535e-05,0.6646451354026794,-0.21184444427490234
1.1233995293478722,-1.4692077950892024,1.6733202593198289,0.2106616497039795,2.5014243125915527,3.7430081367492676,-0.4303897023200989,-0.9015763401985168,-0.04387369379401207,-0.132919043302536,0.6823532581329346,-0.21055126190185547
1.0873614356918027,-1.45540136062801,1.6869422154940816,0.204054057598114,2.662602186203003,3.521543264389038,-0.46173200011253357,-0.8854035139083862,-0.053519316017627716,-0.3122090697288513,0.684338390827179,-0.22330552339553833
1.0539182928201427,-1.4395845946786128,1.699405451080636,0.19180458784103394,2.657005548477173,3.2454042434692383,-0.489920437335968,-0.8693661689758301,-0.06465478241443634,-0.500405490398407,0.6693540811538696,-0.1868404746055603
1.0240342009285786,-1.4215591012055426,1.7092112295724147,-0.12950412929058075,2.5969431400299072,2.746682643890381,-0.5141451358795166,-0.8542124629020691,-0.07730434834957123,-0.7136685848236084,0.7109324336051941,-0.1848720908164978
0.998695770529681,-1.3978471986564867,1.7096007408548055,-0.6034754514694214,2.155968427658081,2.2809197902679443,-0.5333225131034851,-0.8407655954360962,-0.0931684598326683,-0.9723995327949524,0.6195436120033264,-0.06909340620040894
0.9766558792700136,-1.374151635715492,1.7041125995457118,-0.7628243565559387,1.6783478260040283,1.9298334121704102,-0.5490082502365112,-0.8286299705505371,-0.10937299579381943,-1.0845519304275513,0.6311507225036621,-0.06898688524961472
0.9578225107497186,-1.3544366709536277,1.6984017147983301,-0.59812331199646,1.3257876634597778,1.618604063987732,-0.5618897676467896,-0.8179407715797424,-0.12350344657897949,-1.20330810546875,0.6056298613548279,-0.29559433460235596
0.9427071735077105,-1.340812049673722,1.6965845060635307,-0.2834087014198303,1.1145917177200317,1.265959620475769,-0.5721282958984375,-0.8091517686843872,-0.13395054638385773,-1.394561767578125,0.5444880723953247,-0.45336008071899414
0.9318534596148474,-1.3316742044167353,1.697864851872013,-0.08423702418804169,0.9053874015808105,0.8754374384880066,-0.5793789029121399,-0.8027266263961792,-0.14124472439289093,-1.5801517963409424,0.5269545316696167,-0.4682827591896057
0.9252356303931139,-1.3254331515831317,1.7000421888804873,0.0033034468069672585,0.6922117471694946,0.46563321352005005,-0.5836268663406372,-0.7987625598907471,-0.14614516496658325,-1.7206487655639648,0.5035811066627502,-0.3633913993835449
0.9227473110063489,-1.3202791186448222,1.7009422073787899,-0.03347187489271164,0.4736442565917969,0.03763871639966965,-0.5847895741462708,-0.797262966632843,-0.14964351058006287,-1.819293737411499,0.47031277418136597,-0.2643883228302002
0.9243043767144941,-1.315136548180262,1.6988823253759329,-0.13001063466072083,0.224596306681633,-0.39341700077056885,-0.5828104019165039,-0.7982019186019897,-0.15233469009399414,-1.8845205307006836,0.43948298692703247,-0.1823972463607788
0.9298402944278761,-1.3094345897641158,1.6930230612850237,-0.2779364287853241,-0.02394425868988037,-0.8566024899482727,-0.5776546597480774,-0.8015244603157043,-0.15451116859912872,-1.8950779438018799,0.42475444078445435,-0.14987097680568695
0.9393922486965209,-1.302562748826889,1.6824722282160476,-0.4184383749961853,-0.30079934000968933,-1.3072317838668823,-0.5691708326339722,-0.8071994781494141,-0.15644077956676483,-1.8722660541534424,0.40331459045410156,-0.1355513334274292
0.953143971242223,-1.295377147339961,1.6682535499325777,-0.42372530698776245,-0.557803213596344,-1.7816643714904785,-0.5572963953018188,-0.8152402639389038,-0.15749263763427734,-1.7841800451278687,0.4070829749107361,-0.1634300798177719
0.9716064119278298,-1.288726075263908,1.652064314867138,-0.32174938917160034,-0.7638285160064697,-2.2671074867248535,-0.5416863560676575,-0.8257927298545837,-0.15697912871837616,-1.6894843578338623,0.44015729427337646,-0.2570222020149231
0.9951141269414957,-1.2832596821589413,1.6353331049122835,-0.13004201650619507,-0.907191276550293,-2.7464797496795654,-0.5220568180084229,-0.8388211131095886,-0.1543889194726944,-1.5861737728118896,0.4607540965080261,-0.31709229946136475
1.0237344422599306,-1.2788091601322555,1.6189086707990068,0.09311432391405106,-0.9698625802993774,-3.2121217250823975,-0.49816304445266724,-0.8540565371513367,-0.14973695576190948,-1.481313943862915,0.4644385576248169,-0.36109668016433716
1.057208274313899,-1.2748578960946897,1.6028265802475972,0.28338974714279175,-1.0074824094772339,-3.639392614364624,-0.46994808316230774,-0.8709872961044312,-0.14328321814537048,-1.3731000423431396,0.4730380177497864,-0.37266212701797485
1.0950902233058937,-1.270616120920263,1.5863328087208648,0.4395134747028351,-1.0433084964752197,-4.040534496307373,-0.4374876320362091,-0.8889696002006531,-0.135417178273201,-1.2612123489379883,0.4881516695022583,-0.36027973890304565
1.1370128821405303,-1.265044650714194,1.5686406729450615,0.5680884718894958,-1.0071347951889038,-4.394612789154053,-0.40081357955932617,-0.9073820114135742,-0.12651664018630981,-1.1494336128234863,0.5101499557495117,-0.35997921228408813
1.1825449669977435,-1.2561508114068023,1.5481394534934039,0.6395353674888611,-0.969653844833374,-4.752962589263916,-0.35998475551605225,-0.9255724549293518,-0.11715969443321228,-1.0424047708511353,0.5326434969902039,-0.37481406331062317
1.2316308902667188,-1.2415347688801883,1.5219435187068184,0.6964393854141235,-1.0086952447891235,-5.119723320007324,-0.3148280382156372,-0.9430326819419861,-0.10757673531770706,-0.9538334608078003,0.5609678626060486,-0.395749568939209
1.2842174589369615,-1.2186203071114012,1.4868151935551324,0.7789057493209839,-1.0845353603363037,-5.475067615509033,-0.2653230130672455,-0.9592165350914001,-0.09750525653362274,-0.8550841212272644,0.6184115409851074,-0.4485151171684265
1.3397985499308183,-1.182616278412234,1.4381497996687307,0.919526219367981,-1.109145998954773,-5.738626956939697,-0.21191515028476715,-0.9734384417533875,-0.08665826171636581,-0.7443989515304565,0.6668283343315125,-0.5186272859573364
1.3973217121434556,-1.123790582669653,1.3667117351165852,1.1251028776168823,-1.1092650890350342,-5.887322425842285,-0.1556466966867447,-0.9849909543991089,-0.07461196184158325,-0.5845571756362915,0.6961115598678589,-0.5820804238319397
1.4553764226112846,-1.0125342419461236,1.243196564718927,1.3231494426727295,-1.0898207426071167,-5.935473442077637,-0.09767936915159225,-0.9933465123176575,-0.06100380793213844,-0.42612436413764954,0.713546097278595,-0.6276557445526123
1.5107016278616985,-0.7033023592346203,0.9215882846121555,1.5727298259735107,-1.1556836366653442,-5.951927185058594,-0.03884376958012581,-0.9981948733329773,-0.0458090640604496,-0.27156582474708557,0.710261344909668,-0.624890923500061
1.5354601537052024,0.6077598121670074,-0.4021959443760486,1.7435002326965332,-1.167876958847046,-5.914340972900391,0.02017415501177311,-0.9993757605552673,-0.0290029589086771,-0.15335288643836975,0.7590650320053101,-0.6311989426612854
1.4908825856124426,1.4274255948564962,-1.2346482512146135,1.9038279056549072,-1.1660465002059937,-5.883635520935059,0.07901258021593094,-0.9968085885047913,-0.011406351812183857,-0.05548354238271713,0.7885717153549194,-0.5871042609214783
1.4331503757913207,1.6239757065520233,-1.4437099896639793,2.0993754863739014,-1.0894105434417725,-5.77769136428833,0.13701790571212769,-0.9905417561531067,0.00729340361431241,0.03938893973827362,0.8009360432624817,-0.5624995231628418
1.3741902170280837,1.711802389557138,-1.5435045832614414,2.340209484100342,-1.0428531169891357,-5.597703456878662,0.19340409338474274,-0.980735182762146,0.027453338727355003,0.17082324624061584,0.8199378848075867,-0.5531489849090576
1.3153187430459343,1.766460432153308,-1.6107447133980901,2.5792744159698486,-1.1452678442001343,-5.484395503997803,0.2478865087032318,-0.9675427079200745,0.049131084233522415,0.2802202105522156,0.8327311277389526,-0.551297664642334
1.2558508775009158,1.8025908592080189,-1.661593309163451,2.7018442153930664,-1.4051079750061035,-5.513281345367432,0.301480770111084,-0.9508132934570312,0.07116064429283142,0.321108341217041,0.8658217191696167,-0.5228054523468018
1.1950866283480615,1.822228538123597,-1.6996366389367479,2.672863721847534,-1.8290494680404663,-5.635896682739258,0.355395644903183,-0.93024742603302,0.09128979593515396,0.328961044549942,0.9159956574440002,-0.4343224763870239
1.1333754018356206,1.8280436877336683,-1.7281703034449614,2.6043105125427246,-2.219538450241089,-5.681943416595459,0.40966564416885376,-0.9058471918106079,0.1077733039855957,0.38423389196395874,0.9570861458778381,-0.33253514766693115
1.0721737136963223,1.8261479695099554,-1.7522603448169012,2.5960075855255127,-2.414329767227173,-5.547147750854492,0.4627099633216858,-0.8782420754432678,0.12079060077667236,0.5410588979721069,0.9483562707901001,-0.247285857796669
1.0131145968475455,1.8223168898184872,-1.775681277383099,2.6406891345977783,-2.347517967224121,-5.2419753074646,0.5125688314437866,-0.8484842777252197,0.13171084225177765,0.7166792154312134,0.858188807964325,-0.17918086051940918
0.9573772008557853,1.8199575545914104,-1.7996547210221692,2.6777684688568115,-2.094756841659546,-4.889664649963379,0.557889997959137,-0.817684531211853,0.14195434749126434,0.8710498809814453,0.7494319081306458,-0.08342146873474121
0.9050908618230488,1.8204938476674681,-1.823555903468281,2.618522882461548,-1.6008408069610596,-4.489390850067139,0.5984603762626648,-0.7864812612533569,0.15261922776699066,0.927815318107605,0.6325962543487549,0.05271853506565094
0.8577597511676798,1.8231786508084489,-1.8446056242811235,2.2771778106689453,-1.1181106567382812,-3.991797924041748,0.6334109306335449,-0.7563790678977966,0.16334472596645355,1.078014850616455,0.5843666791915894,0.2395331859588623
0.8160509557796624,1.8250563383159528,-1.8596960762314014,1.7399160861968994,-0.7588635087013245,-3.5548996925354004,0.6630769968032837,-0.7284460067749023,0.172323539853096,1.1353391408920288,0.5580815672874451,0.45704054832458496
0.7800661045310116,1.824678143157201,-1.8677728941426324,1.1564310789108276,-0.48085397481918335,-3.1021621227264404,0.6880803108215332,-0.703326404094696,0.17854374647140503,1.1295008659362793,0.467043936252594,0.5546259880065918
0.7498453547978173,1.8223931150199926,-1.870052665521458,0.6848552227020264,-0.30705803632736206,-2.654038429260254,0.7087547779083252,-0.6815255880355835,0.18218080699443817,1.1596992015838623,0.3986276388168335,0.5428407192230225
0.7246710981220755,1.8188275132210288,-1.8689055952394562,0.4201948046684265,-0.26916447281837463,-2.2535600662231445,0.7258049845695496,-0.6628892421722412,0.18380706012248993,1.1783392429351807,0.389879047870636,0.4171147346496582
0.7039579534122156,1.8145803775773846,-1.8671112053064618,0.33995088934898376,-0.35268762707710266,-1.8071422576904297,0.7397467494010925,-0.6472398638725281,0.18399803340435028,1.1981346607208252,0.3884965777397156,0.24344657361507416
0.6879766650628006,1.810069087391099,-1.8665049483694014,0.3375178277492523,-0.469329833984375,-1.3035699129104614,0.7505234479904175,-0.6349753737449646,0.18308722972869873,1.2518874406814575,0.3860893249511719,0.11404727399349213
0.6771257165158179,1.8058286833332207,-1.8676424358934498,0.3426549434661865,-0.5042629241943359,-0.7519489526748657,0.7579492926597595,-0.6265554428100586,0.18149694800376892,1.2999730110168457,0.35345369577407837,0.07578156888484955
0.6719987839518139,1.8025447626643378,-1.8702731500086696,0.27433499693870544,-0.4756070673465729,-0.14984391629695892,0.7616578340530396,-0.622551441192627,0.17974242568016052,1.347747802734375,0.3065113425254822,0.10764169692993164
0.6729865579396186,1.7995855083101238,-1.8730121310810872,0.0818881094455719,-0.45296385884284973,0.42894965410232544,0.7615871429443359,-0.6233241558074951,0.17734815180301666,1.3722478151321411,0.25989019870758057,0.18532289564609528
0.6799502219871846,1.796155324153557,-1.8745389622018824,-0.16662611067295074,-0.42192816734313965,0.9692445993423462,0.757941484451294,-0.6287543177604675,0.1737605184316635,1.369652509689331,0.23974674940109253,0.26543331146240234
0.6925059761626062,1.7920013336499396,-1.8742730624557575,-0.42871978878974915,-0.36516478657722473,1.4644485712051392,0.7508950233459473,-0.6384679079055786,0.16886505484580994,1.3642630577087402,0.2383977770805359,0.3107494115829468
0.710540653435198,1.786844300161043,-1.8718497183274756,-0.7154913544654846,-0.37329089641571045,1.9589710235595703,0.7403874397277832,-0.6522436738014221,0.16249535977840424,1.3710932731628418,0.25932979583740234,0.3328965902328491
0.7336831014807772,1.7789923907607512,-1.8668111670111796,-0.9880046248435974,-0.5359324216842651,2.377863883972168,0.7266746163368225,-0.6696096658706665,0.1535152941942215,1.3594918251037598,0.317848801612854,0.3390538692474365
0.761162563526377,1.767861841317372,-1.859313775431827,-1.1724019050598145,-0.651219367980957,2.769038200378418,0.7100213170051575,-0.6897636651992798,0.14176057279109955,1.2549903392791748,0.3402915596961975,0.29972219467163086
0.7926660133184098,1.75500695656166,-1.8504873182812893,-1.2301100492477417,-0.6629915833473206,3.157076597213745,0.6900728344917297,-0.7122272253036499,0.12857641279697418,1.188451886177063,0.3359760046005249,0.23069189488887787
0.8278924171723061,1.7423919516016126,-1.8417117491591846,-1.191230297088623,-0.5732611417770386,3.5383198261260986,0.6664952039718628,-0.7365073561668396,0.11550356447696686,1.1529779434204102,0.3536490797996521,0.1645716428756714
0.8666565699264978,1.7314887450421355,-1.8337762766260843,-1.1142475605010986,-0.40479224920272827,3.908452033996582,0.6390379667282104,-0.7621687650680542,0.10358165949583054,1.116973876953125,0.382560670375824,0.11669431626796722
0.9088651307987388,1.7236388120698822,-1.8272210587629216,-1.0153831243515015,-0.13846257328987122,4.271158218383789,0.6074764132499695,-0.7888067364692688,0.0935780331492424,1.0678014755249023,0.4063297510147095,0.08099795132875443
0.9543885310604466,1.7195655367587206,-1.8221840008254162,-0.9422398209571838,0.12653040885925293,4.610618591308594,0.5717225074768066,-0.8159604072570801,0.0856877937912941,1.026116967201233,0.42602187395095825,0.044027335941791534
1.003147906329888,1.719191595083124,-1.8186824576774978,-0.8786233067512512,0.38144922256469727,4.9499969482421875,0.5317422151565552,-0.8431676626205444,0.07949239015579224,0.9895896315574646,0.46056854724884033,0.009970076382160187
1.055323009796026,1.72382869279777,-1.81785696004309,-0.7519093751907349,0.6853940486907959,5.327692985534668,0.48718586564064026,-0.8700594902038574,0.07514271140098572,0.9990659952163696,0.5235171318054199,-0.041283369064331055
1.11101238392317,1.7359651245120566,-1.8225334122060153,-0.5724658370018005,0.8784841299057007,5.696497440338135,0.4377155900001526,-0.8961483836174011,0.07296165078878403,1.0402660369873047,0.5831447839736938,-0.1469970941543579
1.1696628890963925,1.7559345884048916,-1.8348296135677722,-0.4780116379261017,0.851590633392334,5.9804582595825195,0.3837895095348358,-0.920619010925293,0.07187723368406296,1.0084528923034668,0.6196393966674805,-0.233772873878479
1.2304907253916395,1.7819782552315153,-1.8544052124861752,-0.540785014629364,0.6893367171287537,6.177490711212158,0.32636019587516785,-0.942652702331543,0.06996456533670425,0.949717104434967,0.6770886778831482,-0.21557903289794922
1.2929649530096574,1.8141179891418797,-1.8818791467361053,-0.6354224681854248,0.5062911510467529,6.336022853851318,0.26619192957878113,-0.9616525173187256,0.0660795271396637,0.9236273765563965,0.7653633952140808,-0.18181729316711426
1.3568136396709503,1.8622661445531024,-1.9268417713302088,-0.6101978421211243,0.4041216969490051,6.512414932250977,0.20339711010456085,-0.9771929383277893,0.061022017151117325,0.8938013911247253,0.834721565246582,-0.22833454608917236
1.4211284208595225,1.9563105515501371,-2.0185709808750296,-0.5249704122543335,0.35521790385246277,6.663422107696533,0.13816672563552856,-0.9888206720352173,0.05607093125581741,0.8450180888175964,0.8486380577087402,-0.3138679265975952
1.4830110505967269,2.198983144561748,-2.259132321194436,-0.4654437303543091,0.39764338731765747,6.79803466796875,0.07093725353479385,-0.9961493611335754,0.051524657756090164,0.7646645903587341,0.8519994020462036,-0.3282579183578491
1.5230254416658486,3.1038117724785996,3.1225468244108696,-0.30487143993377686,0.6112024188041687,6.968637466430664,0.0018038396956399083,-0.998859167098999,0.04772205650806427,0.7193418145179749,0.8849979639053345,-0.30130767822265625
1.4879689756353516,-2.1576391195048052,2.106961824783493,-0.02115691266953945,0.9651846885681152,7.056168079376221,-0.06889238953590393,-0.9965717792510986,0.0458129346370697,0.701201319694519,0.9168750643730164,-0.35101914405822754
1.4237762826200826,-1.8854315832860509,1.8450937305307489,0.15599344670772552,1.4110896587371826,6.946938514709473,-0.13930033147335052,-0.9892119765281677,0.04533474147319794,0.5539579391479492,0.940841555595398,-0.3934638500213623
1.3570138160831198,-1.781085246635964,1.7554975580580905,0.1848999410867691,1.7898492813110352,6.720637798309326,-0.20748496055603027,-0.9772354364395142,0.04428652301430702,0.3839986324310303,0.9718031883239746,-0.3326011896133423
1.2918059507134168,-1.720944981885538,1.7132399764375157,0.11467394977807999,2.00781512260437,6.4469194412231445,-0.2722874879837036,-0.9613339900970459,0.041193630546331406,0.29360395669937134,1.0019373893737793,-0.26461267471313477
1.2292119866617426,-1.6768934654311511,1.6886580676274998,-0.003974937833845615,2.0850613117218018,6.125749111175537,-0.3330971896648407,-0.9422250986099243,0.035473864525556564,0.2402627170085907,1.0034279823303223,-0.22716987133026123
1.1698567420244603,-1.6415213844866865,1.6730879254309934,-0.06158884987235069,2.065718412399292,5.762789726257324,-0.38930782675743103,-0.9206947088241577,0.027579817920923233,0.17959105968475342,0.99532550573349,-0.2636789083480835
1.1138840955270528,-1.6134443729827204,1.6646508228050991,0.015427637845277786,1.9934836626052856,5.427298545837402,-0.44077807664871216,-0.8974190354347229,0.0188097283244133,0.04259997606277466,0.9947853684425354,-0.3690751791000366
1.0607648506686784,-1.5926731501077667,1.6633349271195945,0.2121293693780899,1.9165505170822144,5.180022239685059,-0.4880879819393158,-0.8727291226387024,0.01067951787263155,-0.046152740716934204,0.9495418667793274,-0.45330631732940674
1.0094259450685052,-1.5780873042974395,1.6682559502360996,0.4332098066806793,1.8251057863235474,5.062829971313477,-0.5323327779769897,-0.8465263843536377,0.0038812949787825346,-0.09205693006515503,0.8950034976005554,-0.5048882961273193
0.9588377310318081,-1.5681792183554506,1.6777217851400037,0.6369494795799255,1.7378042936325073,5.026858806610107,-0.5744699239730835,-0.8185244202613831,-0.001503453473560512,-0.16213291883468628,0.8730134963989258,-0.4651559591293335
0.9087322804306288,-1.5610093505304383,1.6910230702722495,0.8757671117782593,1.8557729721069336,4.958817481994629,-0.614716649055481,-0.7887250185012817,-0.006016409490257502,-0.30944710969924927,0.8508283495903015,-0.3744613528251648
0.8602757862901754,-1.552851091148056,1.7064575946070766,0.9109877943992615,2.1504006385803223,4.6996684074401855,-0.6521235108375549,-0.7580224871635437,-0.011703766882419586,-0.5709753036499023,0.8441277742385864,-0.2950435280799866
0.8152725882396742,-1.541157833690927,1.72112908851366,0.7706743478775024,2.3261492252349854,4.299012184143066,-0.6853690147399902,-0.7279125452041626,-0.0203192550688982,-0.8766122460365295,0.8241192102432251,-0.1649070382118225
0.7750736928834627,-1.5245562768396863,1.7293699824778377,0.03234986960887909,2.0892484188079834,3.754006862640381,-0.7136059999465942,-0.6997687220573425,-0.033020712435245514,-1.0992603302001953,0.7988592982292175,-0.021727677434682846
0.7392809138187987,-1.5058979449608245,1.7279513948909386,-0.5850843191146851,1.406125783920288,3.386199474334717,-0.7373978495597839,-0.6737567186355591,-0.04792322590947151,-1.251692295074463,0.6987352967262268,0.17730259895324707
0.7063032347113423,-1.491023656080563,1.721188343105833,-0.8576629161834717,0.6790577173233032,3.092819929122925,-0.7583471536636353,-0.6490258574485779,-0.060624029487371445,-1.2890162467956543,0.7272118330001831,0.043793678283691406
0.6763400814501745,-1.4820744120363123,1.7132925188731452,-0.8362042307853699,0.1332940310239792,2.746047019958496,-0.7768014669418335,-0.6259429454803467,-0.06910072267055511,-1.452431321144104,0.7243316173553467,-0.15741586685180664
0.6503021145034124,-1.4782548088020322,1.706194029982238,-0.7412575483322144,-0.22867822647094727,2.3146603107452393,-0.7924954295158386,-0.6054269075393677,-0.0735488012433052,-1.688598871231079,0.7439156770706177,-0.24777066707611084
0.6289507677587386,-1.4786092152131365,1.7003446926521943,-0.5770089626312256,-0.5239061117172241,1.8331495523452759,-0.80521160364151,-0.58829665184021,-0.07444112747907639,-1.8547616004943848,0.7726990580558777,-0.22716397047042847
0.6129024034843108,-1.4823900206779552,1.695922844367181,-0.4396744668483734,-0.7288678288459778,1.268805980682373,-0.8147873282432556,-0.5752440094947815,-0.0722205862402916,-1.982713222503662,0.8070861101150513,-0.17556673288345337
0.6033980451390581,-1.4877137761390133,1.691548428884798,-0.45785799622535706,-0.8181058168411255,0.5354675650596619,-0.820572018623352,-0.5674437284469604,-0.06833251565694809,-2.141021728515625,0.8057554364204407,-0.052288055419921875
0.6018147666988928,-1.4925435747749174,1.6854934259348606,-0.5693269371986389,-0.8177250027656555,-0.3106839656829834,-0.8217871785163879,-0.5661393404006958,-0.06443869322538376,-2.2834835052490234,0.8206101059913635,0.09806918352842331
0.6090689590707535,-1.495744761998322,1.6767810120968243,-0.7392949461936951,-0.8113352656364441,-1.2315943241119385,-0.8178723454475403,-0.5721040964126587,-0.061498112976551056,-2.326765775680542,0.8423066735267639,0.17593914270401
0.625091611658664,-1.4975580966837796,1.6658147283823168,-0.776420533657074,-0.8093796968460083,-2.0791702270507812,-0.808735728263855,-0.5851715803146362,-0.059336502104997635,-2.2547407150268555,0.841717541217804,0.1828107237815857
0.6491326283063781,-1.498835099166358,1.654892111847254,-0.5995022058486938,-0.7251268625259399,-2.817913293838501,-0.794546902179718,-0.6044957041740417,-0.05727547034621239,-2.0769283771514893,0.8506656885147095,0.07679158449172974
0.6802170586419947,-1.5001331935010878,1.6462512985837423,-0.3070642352104187,-0.5965755581855774,-3.447516441345215,-0.7754961848258972,-0.6289618015289307,-0.054890379309654236,-1.865601897239685,0.8370916247367859,-0.06408226490020752
0.717344715324639,-1.5020806170778793,1.640622561525481,-0.04716632887721062,-0.5236943960189819,-3.9826972484588623,-0.7517755627632141,-0.657386064529419,-0.05174025520682335,-1.6499121189117432,0.8012459874153137,-0.13672089576721191
0.7593982932704141,-1.5049355446936856,1.6369541078586631,0.038828685879707336,-0.551715612411499,-4.404554843902588,-0.7236780524253845,-0.6884852051734924,-0.04773103445768356,-1.4389500617980957,0.7660761475563049,-0.1395246982574463
0.8052840568662268,-1.5080397314452776,1.6326106793068182,-0.08641499280929565,-0.6890785694122314,-4.756206512451172,-0.6915425062179565,-0.7210274934768677,-0.04345591738820076,-1.241105318069458,0.7322884798049927,-0.0762796401977539
0.854284090140391,-1.509987398998254,1.6245946087504213,-0.40328449010849,-0.8925052285194397,-5.063483715057373,-0.6555448770523071,-0.7541009187698364,-0.039912186563014984,-1.0899691581726074,0.7026786804199219,0.001093979924917221
0.9062349131445854,-1.5090924258004184,1.6100500833609586,-0.8087907433509827,-1.1762794256210327,-5.392381191253662,-0.6155405044555664,-0.7871873378753662,-0.03802952542901039,-0.9867849946022034,0.6973435282707214,0.04437732696533203
0.9613386148873438,-1.504172679562646,1.5875131701335659,-1.1317485570907593,-1.444900631904602,-5.737812519073486,-0.5711530447006226,-0.8199585676193237,-0.0381086990237236,-0.9179064035415649,0.7381867170333862,0.01935577765107155
1.0196153822984295,-1.4950669507674677,1.558263492979858,-1.1940324306488037,-1.5973058938980103,-6.074965000152588,-0.5221929550170898,-0.8519066572189331,-0.03962111473083496,-0.8488245606422424,0.8189018368721008,-0.11859714984893799
1.0808156733473269,-1.4830234480115012,1.5262232502114599,-0.9321755766868591,-1.5039056539535522,-6.32193660736084,-0.46879732608795166,-0.8823419809341431,-0.04125368595123291,-0.7693313360214233,0.8936639428138733,-0.32466721534729004
1.1438496751736156,-1.4715201041867303,1.4980268680144087,-0.3469722867012024,-1.2364763021469116,-6.406209945678711,-0.41205456852912903,-0.9102343916893005,-0.04104214534163475,-0.6354918479919434,0.9526385068893433,-0.5276222229003906
1.2079327820946772,-1.4671470011318077,1.480766953411605,0.32074227929115295,-1.0738873481750488,-6.435112953186035,-0.3530479669570923,-0.934884250164032,-0.036724790930747986,-0.453730046749115,0.9535609483718872,-0.6816283464431763
1.2729221678497218,-1.4754352227961054,1.4789587498423995,0.8120179772377014,-0.9141096472740173,-6.468683242797852,-0.29215508699417114,-0.9559625387191772,-0.02794499136507511,-0.37254825234413147,0.944701611995697,-0.6855710744857788
1.3385799644519523,-1.4981594242877134,1.493232050406345,0.9823126196861267,-0.9048851728439331,-6.517585277557373,-0.22952860593795776,-0.9731587171554565,-0.016701631247997284,-0.3238771855831146,0.9909961819648743,-0.6023473143577576
1.4046591712604017,-1.536575359184169,1.5219198437793848,0.8124111890792847,-1.1660940647125244,-6.566662311553955,-0.16527730226516724,-0.9862309098243713,-0.005658158101141453,-0.25278300046920776,1.0065860748291016,-0.4672268033027649
1.4704777062631624,-1.596453156954163,1.5687988525654661,0.48954343795776367,-1.4944043159484863,-6.533686637878418,-0.10011833906173706,-0.994972288608551,0.00256928289309144,-0.16167671978473663,1.0155868530273438,-0.3117579221725464
1.5344907576908449,-1.7664957735044737,1.7233350614286065,0.2100590467453003,-1.6195334196090698,-6.324658393859863,-0.03560421243309975,-0.9993410110473633,0.0070580593310296535,-0.019296910613775253,1.0503969192504883,-0.25237345695495605
1.5430573016836973,1.8828976728263862,-1.9417543470517717,0.08594725281000137,-1.5404493808746338,-6.01608943939209,0.02639973908662796,-0.9996153116226196,0.008517771027982235,0.13436686992645264,1.0297818183898926,-0.26237809658050537
1.4853481719908526,1.6708853265814634,-1.7440348729933495,0.0889398455619812,-1.3417792320251465,-5.68202543258667,0.0849173292517662,-0.9963515400886536,0.008527785539627075,0.2350289523601532,0.9452193379402161,-0.28309428691864014
1.4300715635223613,1.6317512910965697,-1.7169903948090632,0.2042774111032486,-1.1039543151855469,-5.372837543487549,0.14000047743320465,-0.9901146292686462,0.008544308133423328,0.31698501110076904,0.9338706731796265,-0.3005821704864502
1.3771610859736572,1.621971573630393,-1.7176580325046404,0.4171990156173706,-0.9970104098320007,-5.181358337402344,0.19217577576637268,-0.9813112020492554,0.009843236766755581,0.41185861825942993,0.9760011434555054,-0.335374116897583
1.3253074989433693,1.6238286323873334,-1.729942075391337,0.6499298810958862,-1.0334317684173584,-5.138132095336914,0.2426893264055252,-0.9700186252593994,0.012882453389465809,0.5136736035346985,1.0065176486968994,-0.3591347932815552
1.2729856914260937,1.6299862527813802,-1.7475525109899448,0.8767446875572205,-1.1204668283462524,-5.239610195159912,0.29291456937789917,-0.9559811949729919,0.01735786721110344,0.5824822187423706,1.0557125806808472,-0.3494347333908081
1.2192680150591484,1.6379858806621872,-1.768089498082963,1.1050478219985962,-1.1485925912857056,-5.349907875061035,0.3435564637184143,-0.938847541809082,0.02311820536851883,0.6672468185424805,1.0768938064575195,-0.32481491565704346
1.1651648137652801,1.6478994531666666,-1.7904520560883546,1.3082367181777954,-0.9970142841339111,-5.259242534637451,0.39342668652534485,-0.9188534021377563,0.03039468266069889,0.8381711840629578,1.012420415878296,-0.2643117904663086
1.1128316997602206,1.6598508684292772,-1.8130087485961104,1.4120088815689087,-0.6782872080802917,-4.958403587341309,0.44037169218063354,-0.8969542384147644,0.03932110220193863,1.0575989484786987,0.8558164834976196,-0.1443777084350586
1.0641369789312345,1.6734239521079446,-1.833335180115027,1.3653020858764648,-0.1896621286869049,-4.501143932342529,0.4827059805393219,-0.8743704557418823,0.0497136265039444,1.2136746644973755,0.650539219379425,0.004500985145568848
1.0210059495889254,1.6877454845811095,-1.8494744288928193,1.1636863946914673,0.2406938672065735,-3.8485512733459473,0.5189393758773804,-0.852634072303772,0.06096772849559784,1.3739134073257446,0.45097702741622925,0.1153172180056572
0.9851320079842202,1.7002627958162577,-1.860168069928012,0.8388968110084534,0.4235052466392517,-3.109510660171509,0.5481269955635071,-0.8333450555801392,0.07136322557926178,1.5731955766677856,0.3249528408050537,0.22641216218471527
0.9569256835660596,1.7085891200290644,-1.8650752289098553,0.4563746452331543,0.40755411982536316,-2.395390272140503,0.5705761313438416,-0.8174245357513428,0.07912267744541168,1.6528431177139282,0.23365360498428345,0.28020668029785156
0.9359894594867342,1.711446105802002,-1.8648306595340602,0.10473033785820007,0.16970375180244446,-1.7534042596817017,0.5871660709381104,-0.8051862716674805,0.08313369750976562,1.6686780452728271,0.1670331358909607,0.2510186433792114
0.9213523380252716,1.7083804175975048,-1.8610719399928144,-0.12205862253904343,-0.1757519543170929,-1.213515281677246,0.5990288853645325,-0.796420156955719,0.08294084668159485,1.6622015237808228,0.16224968433380127,0.1619018167257309
0.9117497262141161,1.701514355968682,-1.8562361383316404,-0.18078799545764923,-0.4019342064857483,-0.7751376628875732,0.6071391701698303,-0.7905763983726501,0.07981918007135391,1.601280689239502,0.17215293645858765,0.04440271854400635
0.9062739634228123,1.6945222456534872,-1.8526894405233862,-0.10145782679319382,-0.4038412272930145,-0.3614099621772766,0.6119690537452698,-0.7872114181518555,0.07610516995191574,1.5520782470703125,0.16732317209243774,-0.04947841912508011
0.9049548883440459,1.6904785472651538,-1.8514924656209395,-0.016957592219114304,-0.18896836042404175,0.0861198678612709,0.6133021712303162,-0.7863972783088684,0.07375384122133255,1.540445327758789,0.15317285060882568,-0.0581744983792305
0.9081841476802975,1.6906195878545696,-1.8519615691036653,-0.01289505697786808,0.1480867564678192,0.5584424734115601,0.6107673645019531,-0.7883879542350769,0.07353640347719193,1.5363731384277344,0.11593317985534668,0.013545624911785126
0.9161064088616137,1.6943413891689842,-1.852715685389661,-0.09583254903554916,0.46520665287971497,1.018722414970398,0.6042723059654236,-0.7932367920875549,0.07503702491521835,1.5147615671157837,0.07769107818603516,0.10150730609893799
0.9286107630347192,1.6998876083775787,-1.8525441949139123,-0.24291853606700897,0.640705943107605,1.4499969482421875,0.5939636826515198,-0.8007886409759521,0.07710430771112442,1.48553466796875,0.06413990259170532,0.1567826271057129
0.9455535094144283,1.7049710640085733,-1.8507755189854551,-0.4077170491218567,0.6375135779380798,1.8718584775924683,0.5800337791442871,-0.810820996761322,0.07829629629850388,1.4441819190979004,0.08434993028640747,0.17733430862426758
0.9668374236109853,1.707936543327601,-1.8473033022681153,-0.5576130747795105,0.5028242468833923,2.2776079177856445,0.5625734329223633,-0.8230937719345093,0.07763878256082535,1.4026060104370117,0.11810719966888428,0.1681652069091797
0.9923155640328423,1.707971796116729,-1.8423258002957907,-0.6800124645233154,0.33946916460990906,2.677103042602539,0.541616678237915,-0.8372942805290222,0.07476606965065002,1.3605897426605225,0.14463675022125244,0.15010285377502441
1.0218949274582965,1.7058324830441953,-1.836139301057733,-0.7665024399757385,0.2925964295864105,3.079009532928467,0.5170009732246399,-0.8530982136726379,0.0702412873506546,1.2860844135284424,0.1543217897415161,0.13245666027069092
1.0557261286593445,1.7033746171939015,-1.829505417552534,-0.787470817565918,0.3767760396003723,3.523392915725708,0.488273561000824,-0.8702581524848938,0.06511644273996353,1.2299882173538208,0.16420328617095947,0.1165243461728096
1.0940148971735018,1.7032736269521385,-1.8239540652767838,-0.7424425482749939,0.5849965810775757,3.9650349617004395,0.4549007713794708,-0.8884766101837158,0.06061906740069389,1.221048355102539,0.19226384162902832,0.09132814407348633
1.136404895704309,1.7074635678167311,-1.8206753385814434,-0.673619270324707,0.8302521109580994,4.368196487426758,0.4169340133666992,-0.9071263074874878,0.0573386549949646,1.1800203323364258,0.23174190521240234,0.04428505152463913
1.1826149445292353,1.7167154710345132,-1.8208000200558787,-0.6133118271827698,0.9823293089866638,4.753537654876709,0.3744836449623108,-0.9255989193916321,0.05503549799323082,1.132169246673584,0.2932593822479248,-0.01180720329284668
1.2326770622869077,1.7323741336342626,-1.8260368156573306,-0.5493903756141663,1.1696643829345703,5.174211502075195,0.3273930251598358,-0.9433801770210266,0.05336466059088707,1.1073908805847168,0.35095763206481934,-0.04488062858581543
1.2870156103094634,1.7578880190203126,-1.8393590003860505,-0.5447032451629639,1.3805409669876099,5.632503032684326,0.27510133385658264,-0.9600037336349487,0.052078235894441605,1.1570733785629272,0.39619147777557373,-0.06784045696258545
1.345566404271937,1.795620910175468,-1.8633651497245038,-0.6814277768135071,1.4851619005203247,6.026980876922607,0.217710480093956,-0.9747427701950073,0.049788378179073334,1.1649341583251953,0.43136197328567505,-0.07108950614929199
1.4077205335056084,1.8489750710207669,-1.9028957405675961,-0.944588840007782,1.3914165496826172,6.337953090667725,0.15611304342746735,-0.9867326021194458,0.044583309441804886,1.1027828454971313,0.510170042514801,-0.06258857250213623
1.4727850723598832,1.9391177543621643,-1.9809139902530786,-1.2514113187789917,1.147844910621643,6.594235420227051,0.0912911519408226,-0.9952007532119751,0.0352322980761528,1.043337106704712,0.6175152659416199,-0.06413233280181885
1.5383533134358611,2.3289701096154345,-2.3601210150008964,-1.438636064529419,1.1401609182357788,6.8751959800720215,0.023555727675557137,-0.9994737505912781,0.022306839004158974,1.0108833312988281,0.7273026704788208,-0.08854520320892334
1.5235429496358983,-1.7296093193374362,1.7109724069821766,-1.4739158153533936,1.516632318496704,7.064657211303711,-0.04664386063814163,-0.9988837838172913,0.007470563519746065,0.979322075843811,0.8065466284751892,-0.1328519582748413
1.452804355039461,-1.4981608023089499,1.4968964096504829,-1.4214421510696411,2.0635886192321777,7.079667568206787,-0.1174086257815361,-0.9930469989776611,-0.008543066680431366,0.8145369291305542,0.8486835360527039,-0.208940327167511
1.3811433990158863,-1.4348576469103091,1.4561218588635858,-1.2887978553771973,2.4884681701660156,6.99497127532959,-0.18677906692028046,-0.982069730758667,-0.025548063218593597,0.6852073669433594,0.9222552180290222,-0.30086785554885864
1.3104582830161533,-1.402530608306701,1.4499128734733941,-1.1114262342453003,2.7233176231384277,6.900187969207764,-0.2537716329097748,-0.9663029909133911,-0.04310868680477142,0.6362637281417847,1.0175879001617432,-0.39124786853790283
1.2409755367110908,-1.3819561748791411,1.4570156386347703,-0.9530909061431885,2.6855878829956055,6.8144121170043945,-0.31811627745628357,-0.9461004137992859,-0.060797546058893204,0.6452036499977112,1.0946292877197266,-0.46154123544692993
1.1729133316996558,-1.367964543688734,1.4694463866692693,-0.827225387096405,2.4101548194885254,6.6910858154296875,-0.3795245289802551,-0.9218833446502686,-0.07805296778678894,0.6681292057037354,1.175438642501831,-0.5099900960922241
1.1066161502400667,-1.3583314699267373,1.4844118859201656,-0.6726890802383423,2.252307653427124,6.489624500274658,-0.4376232624053955,-0.8941888809204102,-0.09440436959266663,0.5425732135772705,1.2321252822875977,-0.5373856425285339
1.0433087382324602,-1.3504332277455118,1.501260804611325,-0.46947118639945984,2.289079189300537,6.170848369598389,-0.49119213223457336,-0.8640744686126709,-0.11002738773822784,0.3169824481010437,1.1966853141784668,-0.5641515254974365
0.9839856974077763,-1.3429164597125711,1.5199372794342023,-0.23645150661468506,2.369103193283081,5.798147201538086,-0.5393936038017273,-0.832710862159729,-0.12508973479270935,0.11796098947525024,1.1552510261535645,-0.5701158046722412
0.9287810879004449,-1.3352094650617352,1.540431494320735,0.0020582336001098156,2.517838954925537,5.468291282653809,-0.5822699666023254,-0.8008906245231628,-0.13977058231830597,-0.00046318769454956055,1.1459071636199951,-0.5301663875579834
0.8771984409674743,-1.3264183867739339,1.563093814491615,0.28154340386390686,2.794461965560913,5.183398723602295,-0.6203129887580872,-0.7689508199691772,-0.15468238294124603,-0.07235980033874512,1.1163017749786377,-0.4772449731826782
0.8296772745643843,-1.315638417899993,1.5882382413455414,0.564812183380127,3.1291706562042236,4.7928009033203125,-0.6532560586929321,-0.7377135157585144,-0.17039754986763,-0.20021378993988037,1.0395781993865967,-0.44421112537384033
0.787188383270228,-1.3019999476030877,1.6150507845023756,0.8083001971244812,3.4494519233703613,4.348180770874023,-0.6804940104484558,-0.7083715200424194,-0.18745075166225433,-0.4035819172859192,1.008588194847107,-0.4187960624694824
0.7497353516441511,-1.2856090139822751,1.643167675621476,1.0271503925323486,3.698441743850708,3.9268300533294678,-0.7023082971572876,-0.6814451217651367,-0.20590205490589142,-0.5991443991661072,1.0213346481323242,-0.40185534954071045
0.7179642745318487,-1.267109341631604,1.6719235899974423,1.207490086555481,3.8103573322296143,3.3492190837860107,-0.7186829447746277,-0.657852828502655,-0.22522133588790894,-0.8341583013534546,0.99833744764328,-0.4179365038871765
0.6932479943311355,-1.2471428458022784,1.6996108853307628,1.2571990489959717,3.723590135574341,2.6145682334899902,-0.729238748550415,-0.6390388011932373,-0.24462243914604187,-1.1677186489105225,0.9515693783760071,-0.4459749460220337
0.6763253631981286,-1.226407353129626,1.7244796367358957,1.2510857582092285,3.541729688644409,1.8309568166732788,-0.734085202217102,-0.6259315013885498,-0.2633036971092224,-1.4440460205078125,0.93748539686203,-0.44053834676742554
0.6666916944015514,-1.2046291181870972,1.7445499990022642,0.9974743127822876,3.272449016571045,1.068603754043579,-0.7337737083435059,-0.6183894872665405,-0.2813730835914612,-1.6494356393814087,0.9569971561431885,-0.45370373129844666
0.6629497168731409,-1.181757775986936,1.757917120255911,0.6594880223274231,2.9306068420410156,0.4090314507484436,-0.7292829751968384,-0.6154444217681885,-0.298956036567688,-1.8246722221374512,0.877697229385376,-0.37676405906677246
0.6636813933675213,-1.1579371309063085,1.7636373332982804,0.23752988874912262,2.5029871463775635,-0.1810023933649063,-0.7215425968170166,-0.6160209774971008,-0.31606075167655945,-1.942779302597046,0.8132561445236206,-0.3497258722782135
0.6680756310118982,-1.1346358830638754,1.7625110444927128,-0.011637049727141857,2.0015313625335693,-0.6779623627662659,-0.7115225195884705,-0.6194764971733093,-0.33163952827453613,-1.9982402324676514,0.7504426836967468,-0.3812357783317566
0.6760147374724073,-1.1136419948889462,1.7568854288385416,-0.07946173846721649,1.4825950860977173,-1.1282823085784912,-0.6999685764312744,-0.6256892085075378,-0.34432125091552734,-2.003019094467163,0.7170435190200806,-0.5282982587814331
0.6877975137458341,-1.095836433427253,1.7480777601821662,-0.0767463818192482,0.959824800491333,-1.5866988897323608,-0.6871228218078613,-0.6348369717597961,-0.3533332645893097,-1.9956623315811157,0.6855266690254211,-0.6534568071365356
0.7038980854244362,-1.081322990587227,1.7364187819637005,-0.006549658253788948,0.4507785439491272,-2.0859456062316895,-0.6728135347366333,-0.6471942067146301,-0.35841572284698486,-1.9702529907226562,0.6801226139068604,-0.7068917751312256
0.7247657998382594,-1.06994103106822,1.7221903858118481,0.10181543231010437,-0.040464673191308975,-2.611387014389038,-0.6566991209983826,-0.6629601120948792,-0.35948601365089417,-1.9064723253250122,0.6814995408058167,-0.7430377006530762
0.7509380709623765,-1.061124398816574,1.70492571409013,0.19317200779914856,-0.5129994750022888,-3.185739040374756,-0.6381362080574036,-0.6823248267173767,-0.3566722273826599,-1.8121964931488037,0.6844915747642517,-0.7571734189987183
0.7823361383320794,-1.0542191562351233,1.684417255406051,0.33067286014556885,-0.9406294226646423,-3.704437494277954,-0.6167197823524475,-0.7049382925033569,-0.350312739610672,-1.6879220008850098,0.6807224750518799,-0.7483047246932983
0.8186691403051124,-1.0491496568397076,1.6618199827611437,0.5458889007568359,-1.2617846727371216,-4.124685287475586,-0.5923287272453308,-0.7302372455596924,-0.34044116735458374,-1.507692575454712,0.6730930805206299,-0.759702205657959
0.8592347743208422,-1.0454415148346858,1.63836617424907,0.7946563363075256,-1.4686118364334106,-4.432354927062988,-0.5649552941322327,-0.757343053817749,-0.32750120759010315,-1.314347743988037,0.657397985458374,-0.7694530487060547
0.9032216853576167,-1.042632625843234,1.6147710817535124,1.0188785791397095,-1.594462513923645,-4.640126705169678,-0.5347232222557068,-0.7853254675865173,-0.3119858503341675,-1.1316893100738525,0.6293347477912903,-0.7457380294799805
0.9496185017329687,-1.0402977876055755,1.5909784998944052,1.1863470077514648,-1.7422664165496826,-4.774236679077148,-0.5020014047622681,-0.8131935596466064,-0.2944674491882324,-0.9675573706626892,0.6005622744560242,-0.7032894492149353
0.997681380590997,-1.0386312868409717,1.566706670346628,1.3225047588348389,-1.9236547946929932,-4.857237339019775,-0.46726423501968384,-0.8402159810066223,-0.2751387357711792,-0.7999477386474609,0.5833037495613098,-0.6616439819335938
1.0468458475865694,-1.0378885790331063,1.5421616423519808,1.4531195163726807,-2.106189250946045,-4.874434471130371,-0.4309289753437042,-0.865849494934082,-0.25417467951774597,-0.6436102390289307,0.5752153992652893,-0.6422790288925171
1.0963912441889094,-1.038640506276239,1.517662800458767,1.544771671295166,-2.3315796852111816,-4.812737464904785,-0.3936394155025482,-0.8895646333694458,-0.23178142309188843,-0.4857856333255768,0.5611956119537354,-0.6289361715316772
1.1455268097503974,-1.0413852752637303,1.4934966225086277,1.600498914718628,-2.552762508392334,-4.690001487731934,-0.3560881018638611,-0.9109275937080383,-0.20835645496845245,-0.3278719186782837,0.5610892176628113,-0.5882895588874817
1.1936210705545858,-1.0455745256605178,1.468987383543984,1.5494697093963623,-2.784672975540161,-4.559908390045166,-0.3186544179916382,-0.9297086596488953,-0.18466544151306152,-0.2057902216911316,0.5484219193458557,-0.5383111238479614
1.2403224985547523,-1.0483656733362643,1.4401713289718343,1.383081078529358,-3.1819379329681396,-4.503386497497559,-0.28120705485343933,-0.9458886981010437,-0.1619172990322113,-0.12376120686531067,0.5306970477104187,-0.45453768968582153
1.2852252507025599,-1.045329740690747,1.401431367802755,1.0624923706054688,-3.5633764266967773,-4.426751136779785,-0.24370086193084717,-0.9595009088516235,-0.14130832254886627,-0.059231922030448914,0.5814033150672913,-0.3716004490852356
1.3278865217443725,-1.0289518605251973,1.3446407193009091,0.7000425457954407,-4.138713836669922,-4.392548561096191,-0.20607468485832214,-0.9706422090530396,-0.1240445151925087,0.046269357204437256,0.6035156846046448,-0.29375624656677246
1.3675490413340832,-0.9883270282805915,1.2584059769877025,0.32465049624443054,-4.447559833526611,-4.317813873291016,-0.1685672402381897,-0.9794162511825562,-0.11103581637144089,0.1502261608839035,0.5729373693466187,-0.19447553157806396
1.4042732913561393,-0.9119938395420217,1.136102462462076,0.3300223648548126,-4.25826358795166,-4.228298664093018,-0.13106723129749298,-0.9861670732498169,-0.10147066414356232,0.2369631975889206,0.5980290770530701,-0.23762531578540802
1.4388882657329938,-0.7923858403112005,0.9739827422523916,0.6039225459098816,-3.853827714920044,-4.111478805541992,-0.09365078061819077,-0.9913127422332764,-0.0923510417342186,0.258354127407074,0.5432383418083191,-0.43050646781921387
1.4710916331133252,-0.6045982158159233,0.7476522842369583,0.930388331413269,-3.5589537620544434,-3.984473943710327,-0.05658232048153877,-0.9950336217880249,-0.08189553022384644,0.3674801290035248,0.4780046343803406,-0.515791118144989
1.497840782744144,-0.27626815081112166,0.38295342842229824,1.1334072351455688,-3.4560563564300537,-3.913709878921509,-0.0198823194950819,-0.9973399043083191,-0.07012713700532913,0.45291149616241455,0.5293375849723816,-0.4915335178375244
1.509896268462661,0.2827094193687361,-0.2122925366868243,1.17710280418396,-3.5437498092651367,-3.93310546875,0.016978677362203598,-0.9981461763381958,-0.058448392897844315,0.5047803521156311,0.5697250962257385,-0.41074395179748535
1.4980427484094663,0.8446340116886645,-0.8119139711085215,1.1093732118606567,-3.7214202880859375,-3.940441846847534,0.05435249209403992,-0.9973546266555786,-0.04826664179563522,0.5453789234161377,0.5304051041603088,-0.32072126865386963
1.4704685536715605,1.1542651383005893,-1.1605295968209475,0.9958900213241577,-3.7729523181915283,-3.8355636596679688,0.09159645438194275,-0.9949713945388794,-0.0405239574611187,0.6214009523391724,0.4664831757545471,-0.24705827236175537
1.4383311404741674,1.3030232741587144,-1.347602073678597,0.949026882648468,-3.589258909225464,-3.62095046043396,0.1273728311061859,-0.9912393093109131,-0.03494627773761749,0.737693727016449,0.39649730920791626,-0.20550155639648438
1.406395975038159,1.3835135855512513,-1.463566999913606,0.9443807005882263,-3.21016788482666,-3.3420324325561523,0.16079923510551453,-0.9865166544914246,-0.03047202341258526,0.8253304958343506,0.33234184980392456,-0.18226587772369385
1.3762443743420667,1.4329512443845613,-1.5443816155670353,0.9143917560577393,-2.7912139892578125,-3.056835412979126,0.19149307906627655,-0.9811344146728516,-0.02656484767794609,0.8432511687278748,0.27292823791503906,-0.12863218784332275
1.3483542491381482,1.4656740776907287,-1.6043188015796168,0.8676586151123047,-2.3674559593200684,-2.7519404888153076,0.21939420700073242,-0.9753615856170654,-0.023148544132709503,0.8357815742492676,0.2210128903388977,-0.07304269075393677
1.3234457232565282,1.4903352091726025,-1.6514994811195103,0.8533554673194885,-1.8539316654205322,-2.4001574516296387,0.24404408037662506,-0.9695644974708557,-0.019678544253110886,0.8592121601104736,0.1878262162208557,-0.045796751976013184
1.301561003787064,1.5124203122533737,-1.690784311105839,0.8341016173362732,-1.3278559446334839,-2.1001486778259277,0.2655418813228607,-0.9639745950698853,-0.015518909320235252,0.8574440479278564,0.15161174535751343,-0.039305806159973145
1.282151292021349,1.5331176483302917,-1.7239576156087044,0.7926239371299744,-0.9292669296264648,-1.856621503829956,0.28445225954055786,-0.9586304426193237,-0.010722859762609005,0.8206961154937744,0.1197630763053894,-0.036457180976867676
1.264827336784949,1.551663278777479,-1.7518582442483492,0.7333638072013855,-0.7135748863220215,-1.648716688156128,0.301162451505661,-0.9535555243492126,-0.005762858781963587,0.8023684620857239,0.11297929286956787,-0.04990106821060181
1.2493389094766065,1.5670580232346694,-1.775155632000602,0.6602469682693481,-0.6486621499061584,-1.463061809539795,0.3159479796886444,-0.9487759470939636,-0.0011811149306595325,0.7782903909683228,0.12496906518936157,-0.07660806179046631
1.2354449750675989,1.5787031290247795,-1.7943705793976925,0.5784050822257996,-0.6661330461502075,-1.3105822801589966,0.32909095287323,-0.9442947506904602,0.002602111315354705,0.74152672290802,0.13509058952331543,-0.1065448522567749
1.222953761026208,1.586184588110537,-1.8098282026017347,0.48382145166397095,-0.7510861158370972,-1.167738676071167,0.34083038568496704,-0.9401103258132935,0.005245200823992491,0.6797537803649902,0.13394266366958618,-0.12430942058563232
1.2120325270467789,1.590133386435282,-1.822560685522669,0.447916716337204,-0.840005099773407,-0.9917200803756714,0.3510519564151764,-0.936331570148468,0.0067891585640609264,0.635733962059021,0.12067282199859619,-0.1404712200164795
1.2029488155589287,1.5932320133180056,-1.8350547620972457,0.48212292790412903,-0.8635271787643433,-0.8020679950714111,0.35951778292655945,-0.9331035614013672,0.00806738156825304,0.6259864568710327,0.12206822633743286,-0.17458641529083252
1.1955997508116953,1.5974740387902238,-1.8488161887369297,0.5527358651161194,-0.8427748084068298,-0.6489335298538208,0.36632558703422546,-0.9304355978965759,0.009775047190487385,0.5974959135055542,0.12802153825759888,-0.20133376121520996
1.1895277597463803,1.603785684997809,-1.8645098731501264,0.6327174305915833,-0.806182324886322,-0.5300021171569824,0.37189632654190063,-0.9281933307647705,0.012273074127733707,0.5548005104064941,0.12574869394302368,-0.20248901844024658
1.1844796291869502,1.6116139848149242,-1.8815311124737435,0.6647791862487793,-0.783109188079834,-0.4336353540420532,0.3764656186103821,-0.9263031482696533,0.015374984592199326,0.5102531909942627,0.12631529569625854,-0.1659027338027954
1.180314708429536,1.6190243502415822,-1.8981252160193058,0.616921067237854,-0.8081710934638977,-0.34039169549942017,0.38019171357154846,-0.9247258305549622,0.01835012435913086,0.4744073748588562,0.12356293201446533,-0.10048806667327881
1.1771865079891832,1.6241496446525943,-1.9127539036681678,0.5223934650421143,-0.8632863163948059,-0.2286664843559265,0.38297906517982483,-0.923530638217926,0.02045261301100254,0.45153939723968506,0.11345672607421875,-0.03494834899902344
1.1752087497150299,1.626176489754111,-1.9245844777714287,0.4051068425178528,-0.906692385673523,-0.1140904352068901,0.3847601115703583,-0.9227703213691711,0.021329889073967934,0.4206446409225464,0.09513342380523682,0.018907668069005013
1.1744988169941788,1.625264641146554,-1.9336339038677703,0.2981244921684265,-0.9342209696769714,0.007364352233707905,0.3854333758354187,-0.922496497631073,0.02101469226181507,0.4010809659957886,0.08558237552642822,0.05823957920074463
1.174889150650806,1.621613744193833,-1.9397850675738293,0.16579373180866241,-0.9155898690223694,0.09037064015865326,0.3851475119590759,-0.9226471185684204,0.01958906650543213,0.3500209450721741,0.07207643985748291,0.09993314743041992
1.1758103725226805,1.6154718978611617,-1.9423346165419522,0.028636407107114792,-0.7804866433143616,0.09049393981695175,0.3844112753868103,-0.9230019450187683,0.017185227945446968,0.2664981484413147,0.056409597396850586,0.16192257404327393
1.17657763097285,1.6074374347734086,-1.9418300070063168,-0.0699905976653099,-0.7284588813781738,0.062015239149332047,0.38382935523986816,-0.9232969284057617,0.014070230536162853,0.19498232007026672,0.05656713247299194,0.1472611427307129
1.1771474231401695,1.5982853470014473,-1.939266108883312,-0.12168069183826447,-0.6202684640884399,0.0426761656999588,0.38341623544692993,-0.9235156178474426,0.010542391799390316,0.15984246134757996,0.06220269203186035,0.15918123722076416
1.1773926795048357,1.5899092444330265,-1.936277616627707,-0.09837859123945236,-0.4955374300479889,-0.005003375932574272,0.3832647502422333,-0.9236096739768982,0.007326200138777494,0.1314600706100464,0.07226061820983887,0.13110172748565674
1.1770323031305865,1.584233055912822,-1.9347061104707324,-0.014915121719241142,-0.34890538454055786,-0.07276590913534164,0.3836328685283661,-0.9234714508056641,0.005155081395059824,0.0951879620552063,0.07196992635726929,0.09047186374664307
1.1760217979503593,1.5823301193637271,-1.9358078370046985,0.10109897702932358,-0.25000160932540894,-0.12225347757339478,0.3845748007297516,-0.9230833053588867,0.004435802809894085,0.0723954439163208,0.07190221548080444,0.04295814037322998
1.1746121852121085,1.5836714095382118,-1.9399236895195346,0.21296054124832153,-0.24480922520160675,-0.14899002015590668,0.3858692944049835,-0.9225402474403381,0.004968373570591211,0.07432061433792114,0.05861794948577881,0.00987863540649414
1.1731013847028184,1.586736298068868,-1.946085229185972,0.2547275125980377,-0.2793648838996887,-0.1406804323196411,0.3872454762458801,-0.9219561815261841,0.006173204630613327,0.08454111218452454,0.048329293727874756,0.0010596523061394691
1.1717140503256327,1.5892153880600233,-1.9520941221994905,0.2024983912706375,-0.3276064395904541,-0.12870845198631287,0.3885074853897095,-0.9214180111885071,0.00715675251558423,0.09072539210319519,0.028656601905822754,0.0350949764251709
1.1703962625262798,1.589517749642047,-1.955982352291124,0.0997983068227768,-0.31306207180023193,-0.12896862626075745,0.38971906900405884,-0.9209051132202148,0.0072969477623701096,0.08188444375991821,0.0007846951484680176,0.09512019157409668
1.1690705622555273,1.588127568485916,-1.957453125112838,0.025612492114305496,-0.24007068574428558,-0.13074415922164917,0.3909488618373871,-0.9203875660896301,0.006776307709515095,0.0626186728477478,-0.014320075511932373,0.12354910373687744
1.1678127351953882,1.5861359468095741,-1.9576406490621685,-0.003654641564935446,-0.1938306987285614,-0.11771339923143387,0.39211905002593994,-0.9198950529098511,0.006015429273247719,0.05996844172477722,-0.026592552661895752,0.10377168655395508
1.1668243506940221,1.584231877825125,-1.957498163276954,-0.0012759068049490452,-0.1615968644618988,-0.08078094571828842,0.393038809299469,-0.9195069670677185,0.005281010642647743,0.06950095295906067,-0.03599858283996582,0.07455313205718994
1.1661982995102296,1.5831963827867164,-1.95781166729295,0.02668115869164467,-0.10240913927555084,-0.045366086065769196,0.3936194181442261,-0.9192606806755066,0.004881152883172035,0.0696527361869812,-0.048650145530700684,0.05258357524871826
1.1658734397982031,1.5833536658902803,-1.9587816090525192,0.051637642085552216,-0.04451681300997734,-0.015866782516241074,0.3939167261123657,-0.9191327691078186,0.004946806002408266,0.06810414791107178,-0.05366075038909912,0.03616046905517578
1.1658110436195213,1.5846114189158929,-1.9603905336900942,0.0718608871102333,-0.0050333477556705475,0.006684455554932356,0.39396747946739197,-0.9191082119941711,0.005443043075501919,0.06600871682167053,-0.04622375965118408,0.02461695671081543
1.1660344842842874,1.5865596001292759,-1.9624565223389823,0.08742226660251617,0.014047669246792793,0.04006877541542053,0.3937513828277588,-0.9191961884498596,0.006207325030118227,0.06596550345420837,-0.04715836048126221,0.01582646369934082
1.1666163058497847,1.588939493705196,-1.9648068702208603,0.09519292414188385,0.026242468506097794,0.07767127454280853,0.39320051670074463,-0.9194251894950867,0.007134685758501291,0.05684223771095276,-0.055352091789245605,0.012549281120300293
1.1675891354441794,1.5915030193873192,-1.9673598992463703,0.09904997795820236,0.013384728692471981,0.12079104781150818,0.392286479473114,-0.9198073148727417,0.00812411680817604,0.05734431743621826,-0.0512620210647583,0.008279204368591309
1.1688474221116438,1.5941752310129447,-1.970204947657494,0.085579514503479,-0.017867248505353928,0.1495038866996765,0.3911060690879822,-0.920300304889679,0.009145298041403294,0.0652843713760376,-0.03546452522277832,0.0019174814224243164
1.1703873122070372,1.5960010847477815,-1.9726783274958413,0.08300291001796722,-0.08189310133457184,0.17645081877708435,0.3896715044975281,-0.9209016561508179,0.00982365570962429,0.0608443021774292,-0.028011977672576904,-0.00909113883972168
1.1722480320627577,1.5975418856265184,-1.9754272514962956,0.11101717501878738,-0.11041630059480667,0.21104119718074799,0.38794180750846863,-0.9216253161430359,0.010378194972872734,0.05186226963996887,-0.03134697675704956,-0.025545358657836914
1.1744817360725168,1.59956627290562,-1.9788567248449858,0.1302236169576645,-0.1184699609875679,0.2529814541339874,0.3858615458011627,-0.9224898815155029,0.01110428012907505,0.04838836193084717,-0.031199634075164795,-0.04192698001861572
1.177199533007854,1.6017086776411553,-1.982467916875191,0.12193682789802551,-0.12622153759002686,0.3091233968734741,0.38332951068878174,-0.9235356450080872,0.011853392235934734,0.05092036724090576,-0.030031859874725342,-0.03225421905517578
1.1805639307012847,1.6030003315232484,-1.9854143134097977,0.07407981902360916,-0.1661125123500824,0.37690699100494385,0.38020628690719604,-0.9248206615447998,0.012248399667441845,0.06240543723106384,-0.024184465408325195,-0.011500597931444645
1.1846241788864769,1.6023406676097873,-1.9868354964736261,0.0040386756882071495,-0.2237536609172821,0.4402369260787964,0.37645816802978516,-0.9263575673103333,0.011879065074026585,0.06775575876235962,-0.018634557723999023,0.01151275634765625
1.1892397775137062,1.599669871735873,-1.9864653397380982,-0.05481718108057976,-0.2377304583787918,0.4871636927127838,0.37221062183380127,-0.9280861616134644,0.010750027373433113,0.059079110622406006,-0.01542586088180542,0.0342024564743042
1.1943022079706231,1.5959007910908096,-1.9848416620066136,-0.089525006711483,-0.20711274445056915,0.5286821126937866,0.3675471544265747,-0.9299593567848206,0.009229013696312904,0.04662221670150757,-0.015780627727508545,0.03779876232147217
1.1997460799166464,1.591781860169477,-1.9824179357228786,-0.10679800063371658,-0.16567395627498627,0.5649250745773315,0.3625149726867676,-0.9319470524787903,0.007608686573803425,0.038669198751449585,-0.010130763053894043,0.03279674053192139
1.2056111109616836,1.5877655798356338,-1.9797113561619406,-0.10859615355730057,-0.13375891745090485,0.5991288423538208,0.3570713400840759,-0.9340576529502869,0.006059815641492605,0.03597986698150635,0.0060942769050598145,0.026639938354492188
1.2117709832152417,1.583960832814196,-1.9769373023914287,-0.10729493200778961,-0.10747750848531723,0.6243000030517578,0.3513319790363312,-0.9362397193908691,0.004625379107892513,0.025026142597198486,0.013174355030059814,0.02654850482940674
1.218218377387739,1.5804011091432446,-1.9741476681840038,-0.09905612468719482,-0.08095057308673859,0.6611692905426025,0.3453023433685303,-0.9384856224060059,0.00331665575504303,0.010578393936157227,0.010598719120025635,0.030832648277282715
1.2251326516144225,1.5772529413449001,-1.9714668406499107,-0.0967053547501564,-0.044424254447221756,0.7194757461547852,0.3388143479824066,-0.9408507943153381,0.0021876241080462933,0.013556897640228271,0.01239919662475586,0.032495737075805664
1.2326612943679562,1.573948791849256,-1.9684059988043583,-0.12153753638267517,-0.04921577870845795,0.7804813385009766,0.3317268192768097,-0.9433749914169312,0.0010457606986165047,0.025725603103637695,0.013977348804473877,0.029960274696350098
1.2407432873005664,1.5688853856538385,-1.963977980387683,-0.1688041090965271,-0.13434799015522003,0.8318017721176147,0.32409313321113586,-0.9460251331329346,-0.0006193236913532019,0.027988195419311523,0.016764819622039795,0.029489099979400635
1.2492884562435627,1.5610195361536774,-1.9576731828711622,-0.2209160327911377,-0.24306409060955048,0.8776184320449829,0.3159825801849365,-0.9487600326538086,-0.0030893939547240734,0.024044305086135864,0.02618306875228882,0.026237130165100098
1.2583320211537687,1.5503250784062903,-1.9495009391058784,-0.2563331425189972,-0.3403099477291107,0.933120846748352,0.30734047293663025,-0.9515789151191711,-0.006292522419244051,0.02319544553756714,0.024348020553588867,0.014547646045684814
1.2679177427343689,1.5372904670940397,-1.9398457105791211,-0.2722966969013214,-0.4199983775615692,0.9914196729660034,0.2981022000312805,-0.954481840133667,-0.009991909377276897,0.025246888399124146,0.019041597843170166,0.005338071845471859
1.2780105035910292,1.522550214759305,-1.929137835734435,-0.2716146409511566,-0.47028177976608276,1.0368436574935913,0.2882852852344513,-0.9574435353279114,-0.013919445686042309,0.03053191304206848,0.019928157329559326,-0.002636196091771126
1.2882818967086345,1.5066732596252908,-1.917446989449339,-0.2757674753665924,-0.44509318470954895,1.0413168668746948,0.27819859981536865,-0.9603575468063354,-0.0178634375333786,0.021728187799453735,0.028945744037628174,0.004512131214141846
1.2983451768647778,1.4899636825844826,-1.904278837853611,-0.30030423402786255,-0.35802966356277466,1.0075794458389282,0.26821500062942505,-0.9631142020225525,-0.021727871149778366,0.0022165775299072266,0.027963876724243164,0.021148143336176872
1.3078356994532838,1.4717556473200453,-1.8887626647081868,-0.3462769687175751,-0.29487448930740356,0.9487528800964355,0.2586672604084015,-0.9656246304512024,-0.02570267580449581,-0.027496546506881714,0.018389463424682617,0.04250270128250122
1.316502392041705,1.4508451253507377,-1.8700967437976173,-0.40890198945999146,-0.2791077494621277,0.870339035987854,0.24975444376468658,-0.9678411483764648,-0.030102860182523727,-0.03846597671508789,0.02110964059829712,0.05318951979279518
1.3241563534267604,1.4270498066316275,-1.8483267839925415,-0.45537689328193665,-0.26019522547721863,0.7853755950927734,0.2416294366121292,-0.969738245010376,-0.03497461602091789,-0.04691198468208313,0.0306360125541687,0.044358909130096436
1.330868774503356,1.4012896020174654,-1.8243058416098628,-0.47340649366378784,-0.22991164028644562,0.7189723253250122,0.23422694206237793,-0.9713551998138428,-0.04008771851658821,-0.05669088661670685,0.019206702709197998,0.02337944507598877
1.3369002385394677,1.374433933953301,-1.7990795205967787,-0.4662729799747467,-0.24282287061214447,0.6821810007095337,0.2273150533437729,-0.9727708101272583,-0.0452188141644001,-0.04117308557033539,0.009239375591278076,-0.005211349576711655
1.3425988345128692,1.3468245008526414,-1.7735435046946182,-0.43489110469818115,-0.3117081820964813,0.6751201748847961,0.2205716371536255,-0.9740757346153259,-0.050244804471731186,-0.020559415221214294,0.009369373321533203,-0.03190838545560837
1.348271001363663,1.31898779578123,-1.7485492898034938,-0.3778899013996124,-0.38204196095466614,0.6854117512702942,0.21373340487480164,-0.9753432273864746,-0.05498703569173813,-0.0023991763591766357,0.006501734256744385,-0.05418943613767624
1.35404583249434,1.2919651046037555,-1.7250801140864045,-0.30226224660873413,-0.4352189004421234,0.6923945546150208,0.20675170421600342,-0.9766014218330383,-0.05919080972671509,0.00833621621131897,0.008965253829956055,-0.07258397340774536
1.3599180177736399,1.2666887098213124,-1.7037477705462887,-0.2279403954744339,-0.4436850845813751,0.6851603984832764,0.19971401989459991,-0.9778474569320679,-0.06267878413200378,0.004952147603034973,0.010043501853942871,-0.07484858483076096
1.3657690658362784,1.2433376927385889,-1.684284182822309,-0.17677760124206543,-0.4158976674079895,0.6712102293968201,0.19277536869049072,-0.9790554642677307,-0.0654834434390068,-0.0029865503311157227,0.002080976963043213,-0.05286359041929245
1.3713938245890287,1.2208820569094603,-1.6653963273952108,-0.16785484552383423,-0.3762611150741577,0.6365064978599548,0.18608109652996063,-0.9801850914955139,-0.06790681928396225,-0.014068707823753357,-0.005075037479400635,-0.015970595180988312
1.3765502585446945,1.198148059506449,-1.645806229722507,-0.185879647731781,-0.3237560987472534,0.5932666063308716,0.1797790676355362,-0.981193482875824,-0.07027796655893326,-0.022094711661338806,-0.004203915596008301,0.0147208571434021
1.3810600514682436,1.1746350325573578,-1.624871605032706,-0.2178720235824585,-0.2703508734703064,0.5365018248558044,0.17399343848228455,-0.9820539951324463,-0.07277721911668777,-0.028226181864738464,-0.007402360439300537,0.03322654217481613
1.3848031370389953,1.1504093816936685,-1.6027770342840695,-0.23764413595199585,-0.231790691614151,0.4729759097099304,0.16882197558879852,-0.9827530980110168,-0.07546962052583694,-0.03187429904937744,-0.01327967643737793,0.036086857318878174
1.3877596362572189,1.1265100096593141,-1.580675346674675,-0.24915707111358643,-0.20804372429847717,0.39887940883636475,0.16434593498706818,-0.9832955002784729,-0.07823317497968674,-0.02871052920818329,-0.0058402419090271,0.02105862647294998
1.3898578191093065,1.1038457429337658,-1.5598189885547242,-0.24226081371307373,-0.21890835464000702,0.30647170543670654,0.16068902611732483,-0.9836752414703369,-0.08100905269384384,-0.03648243844509125,0.006227552890777588,0.008194200694561005
1.3910754491113793,1.0836270968648627,-1.54145247401141,-0.22533531486988068,-0.21488970518112183,0.2115364968776703,0.15795935690402985,-0.983893632888794,-0.0836801528930664,-0.050598472356796265,0.008994221687316895,-0.005598902702331543
1.391597198709341,1.0672572092646802,-1.5269881423203198,-0.17672036588191986,-0.20745842158794403,0.12762801349163055,0.15611878037452698,-0.9839867353439331,-0.08600688725709915,-0.062155112624168396,0.01076585054397583,-0.025229573249816895
1.3917489443826592,1.0556814014258868,-1.5172561670504567,-0.11044791340827942,-0.18759280443191528,0.07082925736904144,0.15498314797878265,-0.9840137958526611,-0.08773493021726608,-0.05471760034561157,0.012654364109039307,-0.044451840221881866
1.3917866156034937,1.048956860759021,-1.5121569737364928,-0.04587157815694809,-0.15061241388320923,0.026480168104171753,0.15435723960399628,-0.984020471572876,-0.08875647932291031,-0.043746232986450195,0.013302087783813477,-0.050342559814453125
1.3918062519357026,1.0464939629653591,-1.5108809027445622,0.0034272142220288515,-0.08643575757741928,-0.0003915894776582718,0.15412092208862305,-0.9840239882469177,-0.08912640064954758,-0.03914593160152435,0.0079498291015625,-0.03921514004468918
1.3917572101984466,1.0464088944595866,-1.511452661372977,0.004454661626368761,-0.04958852380514145,-0.016526617109775543,0.15415534377098083,-0.9840152859687805,-0.08916381001472473,-0.03338201344013214,0.002066373825073242,-0.02338492125272751
1.3915792342647293,1.0459671334754752,-1.511508002732539,-0.022840261459350586,-0.04954707622528076,-0.013908084481954575,0.15426701307296753,-0.98398357629776,-0.08931936323642731,-0.02862611413002014,-0.004953742027282715,0.002664811909198761
1.391290913730302,1.0437472499487903,-1.509623957921032,-0.06471767276525497,-0.022022776305675507,-0.00254996819421649,0.1543142944574356,-0.9839321374893188,-0.08980472385883331,-0.022264689207077026,-0.011322498321533203,0.02510756254196167
1.390824375262933,1.0393997756828366,-1.5053474972734018,-0.11224424839019775,-0.011278177611529827,-0.0007404498755931854,0.15431852638721466,-0.9838486909866333,-0.09070759266614914,-0.01799646019935608,-0.01174163818359375,0.031579844653606415
1.3901779130813559,1.032962098058509,-1.4990342236220582,-0.14255447685718536,-0.03607114404439926,0.008333738893270493,0.1542767584323883,-0.9837328195571899,-0.09202446043491364,-0.012675181031227112,-0.009065091609954834,0.02740360051393509
1.389553399641178,1.02546208782246,-1.491822444941036,-0.1399870365858078,-0.03832379728555679,0.020906612277030945,0.15410742163658142,-0.9836204051971436,-0.09349756687879562,-0.004281356930732727,-0.004431962966918945,0.01604408770799637
1.3891107473222797,1.0185396206484365,-1.4851333635422124,-0.10881021618843079,-0.031704243272542953,0.03128282353281975,0.15382669866085052,-0.9835405349731445,-0.0947902500629425,-0.0002775043249130249,-0.006693720817565918,-0.003277823328971863
1.389025825130083,1.0116589541605863,-1.4785184769844075,-0.07105807960033417,-0.030743546783924103,0.04842820763587952,0.1532423496246338,-0.9835251569747925,-0.09589117020368576,-0.0014784038066864014,-0.007411181926727295,-0.010859191417694092
1.3892589858406936,1.006563193547888,-1.4735239010204715,-0.0382348895072937,0.0010098554193973541,0.05312682315707207,0.15255853533744812,-0.9835672974586487,-0.09654854238033295,-0.0005809366703033447,-0.0037070512771606445,-0.0063871294260025024
1.3897540273855804,1.0038856014548938,-1.4707244869750242,-0.006947326473891735,0.015561901964247227,0.05031030625104904,0.15188878774642944,-0.9836565852165222,-0.09669523686170578,-0.006914988160133362,0.0017837882041931152,-0.002212122082710266
1.3903939861653232,1.003277700652321,-1.469772948226078,-0.00029714684933423996,0.047356583178043365,0.0510791577398777,0.15129892528057098,-0.983771562576294,-0.09644902497529984,-0.027702704071998596,-0.00273972749710083,0.004972696304321289
1.3909793750965582,1.0014899221476012,-1.4673391515232925,-0.06880475580692291,0.0669054388999939,0.07867855578660965,0.15064117312431335,-0.9838764667510986,-0.0964089035987854,-0.01698938012123108,-0.010416924953460693,0.011371776461601257
1.3910961687122905,0.9945297138029723,-1.4591488431313289,-0.18698199093341827,0.1443842649459839,0.0863410010933876,0.1498696208000183,-0.98389732837677,-0.09739209711551666,-0.010785728693008423,-0.01076209545135498,0.08071441203355789
1.3904693308649112,0.9831147596361195,-1.4461165920081,-0.2821628451347351,0.13043169677257538,0.0700637623667717,0.14926163852214813,-0.983785092830658,-0.09943855553865433,-0.01815807819366455,-0.014078736305236816,0.06539630889892578
1.389325757325893,0.967752064946655,-1.4292472822514068,-0.34010258316993713,0.11868153512477875,0.08320993185043335,0.1486424058675766,-0.9835793375968933,-0.10235743224620819,-0.010397762060165405,-0.006151437759399414,0.05209513008594513
1.388081063949149,0.9507510146933644,-1.4108186913072034,-0.33070725202560425,0.09896383434534073,0.098655104637146,0.14787700772285461,-0.9833539724349976,-0.10558083653450012,0.0021016448736190796,0.006135404109954834,0.014440260827541351
1.3872538436849806,0.9354749003266868,-1.3944662799771324,-0.24316009879112244,0.06117304414510727,0.11940991878509521,0.14690150320529938,-0.9832032918930054,-0.10831001400947571,0.011149048805236816,0.014224529266357422,-0.04488811641931534
1.3872735217454453,0.9237227534400797,-1.3820948988385608,-0.11397258937358856,0.014889213256537914,0.15248271822929382,0.14560376107692719,-0.9832069277763367,-0.11001776158809662,0.020244061946868896,0.020331501960754395,-0.10099589824676514
1.3884418105691934,0.9156866093462376,-1.374235859928877,0.019287727773189545,-0.07677412778139114,0.2015964686870575,0.14380447566509247,-0.9834194183349609,-0.110484778881073,0.030954480171203613,0.01637822389602661,-0.14470310509204865
1.3906317719958579,0.9095072152383684,-1.3689943621786853,0.08283872902393341,-0.11570875346660614,0.2567008435726166,0.14141859114170074,-0.9838142395019531,-0.1100480705499649,0.04913319647312164,0.015933871269226074,-0.14190489053726196
1.3933940049998168,0.9026363219697433,-1.3630510187686948,0.06656122207641602,-0.0845915824174881,0.2998768091201782,0.13852542638778687,-0.9843054413795471,-0.1093330830335617,0.04990538954734802,0.006857872009277344,-0.09707242250442505
1.3960223897948882,0.892855523896242,-1.3537282856993764,-0.009417341090738773,-0.037557851523160934,0.3099835216999054,0.1354343742132187,-0.984765887260437,-0.10906004905700684,0.033068493008613586,-0.012014687061309814,-0.03920949995517731
1.3981216095006255,0.8788340629012112,-1.3396260247246297,-0.11310911178588867,0.014804156497120857,0.32362449169158936,0.1322992891073227,-0.9851287007331848,-0.10962853580713272,0.024042293429374695,-0.022836387157440186,0.0056095123291015625
1.3996698585430434,0.8601758377443598,-1.3200414943299592,-0.19590416550636292,0.11463012546300888,0.34410402178764343,0.12907464802265167,-0.9853935837745667,-0.11108268797397614,0.02426096796989441,-0.025913238525390625,0.022520840167999268
1.4008359987655685,0.8392131630168037,-1.2971983586412452,-0.21928805112838745,0.18494796752929688,0.3429434299468994,0.12586282193660736,-0.985591471195221,-0.11299619823694229,0.023932740092277527,-0.021519184112548828,-0.004130125045776367
1.401927878678416,0.8183754442986871,-1.274169008657802,-0.20150212943553925,0.1779683530330658,0.34464558959007263,0.12269546091556549,-0.9857755899429321,-0.1148587316274643,0.023148074746131897,-0.016513288021087646,-0.03754591941833496
1.403146166418698,0.797717794604185,-1.2516245459567947,-0.17250216007232666,0.1307944506406784,0.3532809019088745,0.11943738162517548,-0.9859796166419983,-0.11653020232915878,0.038903117179870605,-0.003583550453186035,-0.057862356305122375
1.4047489359620782,0.777026264576144,-1.229787789265514,-0.11281618475914001,0.027427051216363907,0.3850979506969452,0.11589223891496658,-0.9862457513809204,-0.11784914880990982,0.06193371117115021,0.012521326541900635,-0.06806385517120361
1.4068643126440692,0.75519828903767,-1.2082299329620207,-0.07920709252357483,-0.1524929255247116,0.41721460223197937,0.11186214536428452,-0.9865931868553162,-0.11883117258548737,0.06826789677143097,0.014409899711608887,-0.0868571400642395
1.4092595604211577,0.7293463377886145,-1.1846267032058246,-0.08625005930662155,-0.34951379895210266,0.47462230920791626,0.10717841237783432,-0.9869812726974487,-0.11992109566926956,0.08494504541158676,0.012173354625701904,-0.08666755259037018
1.411900582158043,0.6968935324341023,-1.1558521617700923,-0.1134025827050209,-0.44301632046699524,0.5616946220397949,0.10155714303255081,-0.987402617931366,-0.12133587896823883,0.11726918816566467,0.006857514381408691,-0.05999946594238281
1.4145739573090133,0.6584037580571972,-1.1212437903195263,-0.1520611047744751,-0.40206649899482727,0.6060276031494141,0.09519752860069275,-0.9878220558166504,-0.12306571751832962,0.10524196177721024,-0.011689722537994385,-0.022075772285461426
1.4167428040252394,0.6170056803715221,-1.082955401703438,-0.19920730590820312,-0.3148391842842102,0.5970905423164368,0.08878327161073685,-0.9881572127342224,-0.12515293061733246,0.06745151430368423,-0.046510934829711914,0.02249191701412201
1.4183135046738364,0.5745523869665774,-1.0426641646849915,-0.224496990442276,-0.20819339156150818,0.5950389504432678,0.08254782110452652,-0.9883970022201538,-0.12750469148159027,0.04924238473176956,-0.04920071363449097,0.051546573638916016
1.4195369873464043,0.5324241067250892,-1.0015799492961261,-0.20949727296829224,-0.09327452629804611,0.5871256589889526,0.07649068534374237,-0.9885820746421814,-0.1298261135816574,0.051561109721660614,-0.02631056308746338,0.055973708629608154
1.420791410581496,0.49278099231481676,-0.9619962081903843,-0.1431342214345932,-0.009197181090712547,0.5659800171852112,0.07069853693246841,-0.9887703657150269,-0.13166303932666779,0.04351353645324707,-0.013594865798950195,0.04430657625198364
1.4225192474594968,0.45789042236322036,-0.9262662498058017,-0.03154057636857033,0.10239485651254654,0.5291988253593445,0.06530719995498657,-0.9890270829200745,-0.13251625001430511,0.023117512464523315,0.0016613006591796875,0.01448965072631836
1.424916902775351,0.4301738348793832,-0.8966823266013334,0.09311780333518982,0.20077140629291534,0.4538775384426117,0.06062070652842522,-0.9893784523010254,-0.1321197748184204,-0.0039800554513931274,0.004576146602630615,-0.02448105812072754
1.4279457841663796,0.4103024981550822,-0.8742053540832103,0.19115062057971954,0.27018219232559204,0.38559490442276,0.05678780749440193,-0.9898142218589783,-0.13054941594600677,-0.026544854044914246,-0.0004354715347290039,-0.04420936107635498
1.4314273735612169,0.3961598398283222,-0.8569569251756765,0.25066787004470825,0.3107454180717468,0.3362821340560913,0.053605709224939346,-0.9903038740158081,-0.1281593292951584,-0.02678072452545166,0.0005424618721008301,-0.03762727975845337
1.4349793267660913,0.3851513812199053,-0.842630918310908,0.24618923664093018,0.32308652997016907,0.30250686407089233,0.050869688391685486,-0.9907910227775574,-0.1254807710647583,-0.0278593972325325,-0.006416618824005127,-0.011268377304077148
1.4381332638517872,0.37382041386817155,-0.8279699370253448,0.18893679976463318,0.3086775541305542,0.29874613881111145,0.048303231596946716,-0.9912131428718567,-0.12313932925462723,-0.008706655353307724,-0.02917259931564331,0.02365214377641678
1.4406685064125377,0.3593462002425107,-0.8103605180221218,0.1195787712931633,0.28660234808921814,0.31402042508125305,0.045632075518369675,-0.9915453195571899,-0.12147283554077148,0.00665983185172081,-0.03444039821624756,0.05131305009126663
1.4425214777062925,0.3412323021916067,-0.7893348694270625,0.04297979921102524,0.258568674325943,0.31808188557624817,0.042809631675481796,-0.9917840361595154,-0.12054841220378876,0.00568283349275589,-0.026297688484191895,0.057697594165802
1.4436039505105385,0.32048731722126816,-0.7660709883542035,-0.02980945259332657,0.2021530568599701,0.3114895224571228,0.03996144235134125,-0.9919219613075256,-0.12039105594158173,-0.0016008131206035614,-0.02846384048461914,0.05410701781511307
1.4439302325287522,0.2968685438927435,-0.7405749029227684,-0.09924416244029999,0.12948361039161682,0.3270956575870514,0.03701268136501312,-0.991963267326355,-0.12099267542362213,0.0024313218891620636,-0.029673874378204346,0.048223599791526794
1.4437934123617535,0.2692806915025978,-0.7116567231139481,-0.12485790997743607,0.09240014851093292,0.3679056763648987,0.0336969792842865,-0.9919459819793701,-0.12209764122962952,0.020166583359241486,-0.022610962390899658,0.039913952350616455
1.4436793045716854,0.2382030614500215,-0.6793895340185435,-0.09952926635742188,0.09845633059740067,0.41236719489097595,0.0299135223031044,-0.9919314980506897,-0.12319572269916534,0.02485029213130474,-0.016674518585205078,0.022518344223499298
1.4438466984879594,0.20576982131685975,-0.6454985916365777,-0.05826730653643608,0.13820615410804749,0.4273725152015686,0.02586909756064415,-0.9919527173042297,-0.12393922358751297,0.008035961538553238,-0.01865231990814209,-0.004463329911231995
1.444296081973461,0.1737015316209733,-0.6116790574731008,-0.014975645579397678,0.15467076003551483,0.427778035402298,0.02180495299398899,-0.9920095205307007,-0.12426608800888062,-0.010025134310126305,-0.017710566520690918,-0.015611067414283752
1.4449696552326532,0.14136792041135762,-0.5774770709922945,0.015271205455064774,0.16403575241565704,0.44916480779647827,0.01768198050558567,-0.9920942783355713,-0.12424341589212418,-0.0072907209396362305,-0.011064350605010986,-0.010781466960906982
1.4455142609561764,0.10242385662713088,-0.5365747147617851,-0.03010244481265545,0.15234504640102386,0.5789512395858765,0.012775970622897148,-0.9921624660491943,-0.1242997869849205,0.018641896545886993,-0.012766122817993164,-0.009794346988201141
1.4452957851031814,0.05402479063544749,-0.4869311296329492,-0.1084877997636795,0.008693075738847256,0.6372912526130676,0.00675914017483592,-0.9921351671218872,-0.1249900832772255,0.06356865167617798,-0.045966148376464844,0.01776665449142456
1.444211051692559,0.004878576884309324,-0.4379568228968625,-0.14689910411834717,-0.10476631671190262,0.5852383375167847,0.0006159108597785234,-0.9919987916946411,-0.12624704837799072,0.029047198593616486,-0.04001432657241821,0.02375386655330658
1.4423096676469314,-0.04126860241027952,-0.39261768830339616,-0.20599783957004547,-0.1332312524318695,0.5710093379020691,-0.005286450497806072,-0.9917569160461426,-0.1280258744955063,-0.021752096712589264,-0.001575171947479248,0.0005082935094833374
1.4397784407209748,-0.0839790215047859,-0.35118751610507454,-0.22410616278648376,-0.18849681317806244,0.5230538249015808,-0.010958482511341572,-0.9914294481277466,-0.13018380105495453,-0.023450061678886414,-0.0028485655784606934,0.012828588485717773
1.4371727550513413,-0.12112262160345262,-0.3156366930953927,-0.19402922689914703,-0.1829419881105423,0.46735087037086487,-0.016097456216812134,-0.9910856485366821,-0.13225157558918,-0.049408502876758575,0.00021022558212280273,0.004016801714897156
1.4349226175767331,-0.1541978885945156,-0.28381730222183804,-0.12734642624855042,-0.11986065655946732,0.44345805048942566,-0.020804397761821747,-0.9907833337783813,-0.13384908437728882,-0.055794693529605865,0.003936409950256348,-0.019394800066947937
1.4334154471024767,-0.18553322327672633,-0.25296475160993037,-0.021076437085866928,-0.031573135405778885,0.4319228231906891,-0.02526339329779148,-0.9905780553817749,-0.1346004158258438,-0.042165178805589676,0.003181636333465576,-0.03408534824848175
1.4329218368737793,-0.21541096594585113,-0.222704651748637,0.08330275118350983,0.05261792242527008,0.3960731625556946,-0.029377179220318794,-0.9905103445053101,-0.13426141440868378,-0.04832054302096367,0.010514676570892334,-0.043518587946891785
1.4332822421182971,-0.2423616395803983,-0.19467642922022677,0.1538381725549698,0.10357404500246048,0.3309863209724426,-0.032898858189582825,-0.9905598163604736,-0.1330745816230774,-0.06277371942996979,0.017598390579223633,-0.03594689071178436
1.4341863161655468,-0.2647277150712289,-0.17091520831579907,0.1792132705450058,0.13073426485061646,0.244999960064888,-0.035632580518722534,-0.990683376789093,-0.13144177198410034,-0.07671785354614258,0.026541471481323242,-0.010708987712860107
1.435394074709406,-0.28016700384344934,-0.15400367358178965,0.17084507644176483,0.13009004294872284,0.12500032782554626,-0.03732674568891525,-0.990847110748291,-0.12972606718540192,-0.09035877883434296,0.04199451208114624,0.012431919574737549
1.4367167230488116,-0.2867500458677472,-0.14609594006897336,0.14038315415382385,0.12338009476661682,0.005649984814226627,-0.03780937194824219,-0.9910247921943665,-0.12822090089321136,-0.10827825963497162,0.04803144931793213,0.029588207602500916
