attitudeX,attitudeY,attitudeZ,gyroX,gyroY,gyroZ,gravityX,gravityY,gravityZ,accX,accY,accZ
0.725754853349373,0.4564604994983443,-2.5596712384529794,-1.7932456731796265,2.0233473777770996,-0.26991117000579834,0.3296981751918793,-0.6637002825737,-0.671417236328125,-0.10757601261138916,-0.13325107097625732,-0.0623931884765625
0.7077683466175443,0.4718716938253348,-2.552863164402106,-1.8524378538131714,1.9098643064498901,-0.4077643156051636,0.3453769385814667,-0.6501397490501404,-0.6767813563346863,-0.07389262318611145,-0.12111574411392212,-0.11188435554504395
0.6894297496943775,0.4859471710153683,-2.5469875093785332,-1.7966824769973755,1.6403230428695679,-0.4769737422466278,0.36037692427635193,-0.636097252368927,-0.682282030582428,-0.06745398044586182,-0.0610005259513855,-0.15844672918319702
0.6714548591092215,0.49783048321349005,-2.54218564951431,-1.7185816764831543,1.3234065771102905,-0.5635595321655273,0.37385907769203186,-0.6221256852149963,-0.6878873705863953,-0.07440540194511414,-0.04727745056152344,-0.15784627199172974
0.6535024916275924,0.5067281435230261,-2.538314218706771,-1.7151211500167847,0.9271388649940491,-0.6178541779518127,0.3853236436843872,-0.6079709529876709,-0.6941879987716675,-0.03946799039840698,-0.0802004337310791,-0.13312822580337524
0.6354067972009713,0.5116252355230376,-2.534269488993743,-1.752134084701538,0.515360951423645,-0.5621092319488525,0.39404091238975525,-0.5935049653053284,-0.7017717957496643,0.042940229177474976,-0.14088529348373413,-0.1183423399925232
0.6174872345263348,0.5108900242625908,-2.528840058783202,-1.7894617319107056,-0.038295309990644455,-0.4200253188610077,0.39866161346435547,-0.578988254070282,-0.7112253904342651,0.15024277567863464,-0.2289952039718628,-0.16752827167510986
0.6002721404692006,0.5049208196873323,-2.5227575824871544,-1.6675523519515991,-0.3794628083705902,-0.40657439827919006,0.39917194843292236,-0.5648670792579651,-0.7222097516059875,0.18151646852493286,-0.3488597869873047,-0.26419466733932495
0.5842865174982719,0.4989868211255539,-2.519011910069651,-1.4109821319580078,-0.3906920254230499,-0.6010797023773193,0.3991498053073883,-0.5516043901443481,-0.7324015498161316,0.1405993103981018,-0.44137656688690186,-0.3944447636604309
0.5698533000683217,0.49532375147407537,-2.5197728103426495,-1.050817847251892,-0.41690966486930847,-0.8884049654006958,0.4002070724964142,-0.5395085215568542,-0.7407866716384888,-0.027816355228424072,-0.379818320274353,-0.5306824445724487
0.5568793982539442,0.49614496281035286,-2.525653745673172,-0.7748157978057861,0.023444822058081627,-1.2069873809814453,0.4041135013103485,-0.5285396575927734,-0.7465507984161377,-0.1999356746673584,-0.30016517639160156,-0.6376502513885498
0.5447681451138251,0.503926207852096,-2.5349710644016836,-0.589036762714386,0.5545420050621033,-1.3050965070724487,0.4129711389541626,-0.5182198286056519,-0.7489346265792847,-0.25638547539711,-0.24139326810836792,-0.6216250658035278
0.5343238595959474,0.5173753655817884,-2.544900955671639,-0.4017752707004547,1.1068741083145142,-1.165951132774353,0.4256598949432373,-0.5092592835426331,-0.7479763627052307,-0.2111060917377472,-0.14908123016357422,-0.5088595151901245
0.526237700696084,0.5347662662406589,-2.5531723059958464,-0.3035760223865509,1.479480266571045,-0.856185257434845,0.4406871795654297,-0.5022836327552795,-0.7439798712730408,-0.10644340515136719,-0.06424474716186523,-0.376656174659729
0.5196838263737315,0.5514116602893228,-2.5575753499131952,-0.45191967487335205,1.3209545612335205,-0.46468695998191833,0.4547242522239685,-0.4966057240962982,-0.7393298745155334,0.040026724338531494,-0.02921217679977417,-0.22285884618759155
0.5135884687011938,0.5607450035558832,-2.556494302340874,-0.6606481075286865,0.5610880255699158,-0.020070157945156097,0.4632059931755066,-0.4913059175014496,-0.7376034259796143,0.21649670600891113,-0.0773281455039978,-0.10132479667663574
0.508734885834629,0.5595139504454449,-2.5509302109074348,-0.6522386074066162,-0.245708629488945,0.31192561984062195,0.46355780959129333,-0.48707273602485657,-0.7401853203773499,0.4033550024032593,-0.2369110882282257,-0.06825584173202515
0.5059464914414242,0.5491330623697567,-2.543166085007079,-0.5246468186378479,-1.1226400136947632,0.5365278124809265,0.4565562903881073,-0.4846355617046356,-0.7461130619049072,0.5401325225830078,-0.4025714695453644,-0.135112464427948
0.5052542109226468,0.5278255508480861,-2.534476539038016,-0.3612847924232483,-2.2981679439544678,0.6867581009864807,0.4407249391078949,-0.4840298891067505,-0.7559607028961182,0.5048927068710327,-0.3843173086643219,-0.19032835960388184
0.506834432770383,0.4951582008850666,-2.52578338539116,-0.09008016437292099,-3.3382208347320557,0.7822093367576599,0.41543498635292053,-0.485412061214447,-0.7692781686782837,0.3891914188861847,-0.28530940413475037,-0.21679049730300903
0.5115026828826973,0.45425729142166127,-2.5180782935415325,0.3202463686466217,-4.020502090454102,0.8270761966705322,0.38263362646102905,-0.4894881546497345,-0.7835769057273865,0.37935972213745117,-0.23325970768928528,-0.29552459716796875
0.520118788457938,0.4082993172031983,-2.5120674614908363,0.8087939620018005,-4.5800676345825195,0.8310397267341614,0.34454333782196045,-0.49698323011398315,-0.7964280247688293,0.47335824370384216,-0.22587141394615173,-0.39258259534835815
0.5317907264536195,0.35972126775960983,-2.507199622581876,0.9489244222640991,-4.384160041809082,0.8437344431877136,0.303400456905365,-0.5070775747299194,-0.8067344427108765,0.6264700889587402,-0.26182812452316284,-0.5213752388954163
0.545566019396429,0.31120674115940966,-2.5019265668192796,1.4266726970672607,-4.764588356018066,0.8859314918518066,0.26175662875175476,-0.5189020037651062,-0.8137716054916382,0.7762072086334229,-0.3591497540473938,-0.8007608652114868
0.5656255514240699,0.2613385082698896,-2.4980634284061307,2.2396414279937744,-4.769876480102539,0.8479756116867065,0.21813301742076874,-0.5359440445899963,-0.8155868649482727,0.6413182020187378,-0.23277854919433594,-1.07026207447052
0.5932388093102987,0.2138061054734434,-2.4971900031844703,3.076852560043335,-4.540228366851807,0.5543379187583923,0.17592644691467285,-0.5590493679046631,-0.8102553486824036,0.4303509593009949,-0.016405344009399414,-1.3498094081878662
0.6287018096108874,0.17377885791727588,-2.5019879260459463,4.007816314697266,-3.915891647338867,0.003109928220510483,0.13984453678131104,-0.5880953073501587,-0.7966099381446838,0.24049599468708038,0.1580873727798462,-1.4325617551803589
0.672404177719625,0.14756590673159853,-2.5148610899881025,4.9226861000061035,-2.8530383110046387,-0.6298761963844299,0.11502618342638016,-0.6228686571121216,-0.7738240361213684,0.12717653810977936,0.4140520691871643,-1.3955485820770264
0.7246265087241193,0.13659304369045888,-2.535817562917324,5.820671081542969,-2.1731152534484863,-1.0125008821487427,0.10195589810609818,-0.662855863571167,-0.7417729496955872,0.11357445269823074,0.6092517375946045,-1.279833436012268
0.7848325720343053,0.135069421503467,-2.5622172160840937,6.567424774169922,-1.6902788877487183,-1.1618391275405884,0.09527219831943512,-0.7067067623138428,-0.7010626196861267,0.1924169957637787,0.7639119625091553,-1.0267510414123535
0.8510810939440305,0.14572096521194894,-2.594533456409257,7.085680961608887,-0.8917154669761658,-1.3733556270599365,0.09571538120508194,-0.7519934773445129,-0.6521843075752258,0.37668144702911377,0.7770330905914307,-0.9342414140701294
0.9200385381085838,0.17218929525875692,-2.636382882981656,7.281079292297363,-0.3507589101791382,-1.6757491827011108,0.10379578173160553,-0.7956249713897705,-0.5968311429023743,0.3656255602836609,0.8796245455741882,-0.7514659762382507
0.9880653432013935,0.21384679479016297,-2.6916255192799827,7.226287364959717,-0.4338844418525696,-1.9716477394104004,0.11678636819124222,-0.8349629044532776,-0.5377714037895203,0.332462877035141,1.0353870391845703,-0.526941180229187
1.0526508185233647,0.2672183467877518,-2.7633892697625484,7.048083782196045,-1.150992512702942,-2.2136974334716797,0.13077576458454132,-0.868739128112793,-0.47769224643707275,0.3809124231338501,1.1442365646362305,-0.4279167950153351
1.1126622654577416,0.3324774824321179,-2.854173827261215,6.896279811859131,-1.8233247995376587,-2.3466203212738037,0.14435239136219025,-0.8968793153762817,-0.41805481910705566,0.5241961479187012,1.2732069492340088,-0.5316979885101318
1.1682180516575644,0.4146129553743161,-2.968813014524297,6.9052958488464355,-2.582961082458496,-2.495178461074829,0.1578277051448822,-0.9200538992881775,-0.35859614610671997,0.6183410882949829,1.3970589637756348,-0.7362982034683228
1.2191256497370346,0.5248546462637739,-3.118345951909187,7.122615337371826,-3.2387430667877197,-2.707653284072876,0.17260798811912537,-0.9387985467910767,-0.2981005907058716,0.6559900045394897,1.5219740867614746,-0.9293163418769836
1.263862968064007,0.6785680614101565,2.964127498297543,7.535933494567871,-3.9327709674835205,-2.928814172744751,0.1896446794271469,-0.953264594078064,-0.23520484566688538,0.7614966630935669,1.683565616607666,-1.171579122543335
1.2980535653187641,0.894992932150608,2.6952612379714807,8.055594444274902,-4.297265529632568,-3.0212643146514893,0.21016700565814972,-0.9630357027053833,-0.1685001105070114,0.6953352689743042,1.8521652221679688,-1.3248775005340576
1.3160615146147883,1.1713743463404345,2.363596901712517,8.49677848815918,-4.417393207550049,-2.6768181324005127,0.2321532517671585,-0.9677301645278931,-0.09799468517303467,0.6179748773574829,2.0047175884246826,-1.4636965990066528
1.3143349904595285,1.476612416547674,2.003976655754121,8.9133939743042,-4.043861389160156,-2.0512733459472656,0.2525348365306854,-0.9672936201095581,-0.023855295032262802,0.5628643035888672,2.13008975982666,-1.564081072807312
1.2914506035545905,1.7713257129656317,1.6616808015227198,9.269059181213379,-2.9611458778381348,-1.532936453819275,0.270201712846756,-0.9612360596656799,0.05492153391242027,0.29242032766342163,2.1653528213500977,-1.6018422842025757
1.2475069808319768,2.0208621529676756,1.3762889513805938,9.419177055358887,-1.6954965591430664,-1.3644912242889404,0.2860511839389801,-0.9481955766677856,0.13820169866085052,-0.019800633192062378,2.065627336502075,-1.5109891891479492
1.1866568261948272,2.207011613602027,1.1645366918593578,9.291542053222656,-0.8968656659126282,-1.4426116943359375,0.3014392852783203,-0.9271212816238403,0.2226664274930954,-0.3283253312110901,1.9614689350128174,-1.2727304697036743
1.115825862848663,2.335662510999661,1.0158767633564658,9.01673412322998,-0.6065558195114136,-1.5423860549926758,0.3170416057109833,-0.8982740044593811,0.3042828142642975,-0.5692694783210754,1.905888319015503,-0.9857861399650574
1.0406535115638949,2.42254731597127,0.9098462730326602,8.799861907958984,-0.7167176604270935,-1.548753023147583,0.3330589830875397,-0.862734854221344,0.38047346472740173,-0.7270562052726746,1.8962433338165283,-0.7287552952766418
0.9631801847958852,2.4823323041807077,0.8285684152567356,8.687356948852539,-1.039759874343872,-1.528886318206787,0.34970200061798096,-0.8210113048553467,0.45127472281455994,-0.840607762336731,1.8731811046600342,-0.4994466304779053
0.884302825703199,2.5216803520724507,0.7638819472103016,8.562095642089844,-1.3949785232543945,-1.627145528793335,0.3682316243648529,-0.7734732627868652,0.515891969203949,-0.9422367811203003,1.7902427911758423,-0.2959060072898865
0.8045333351390863,2.5453253712716024,0.7128181741415297,8.342679977416992,-1.447762370109558,-1.937358021736145,0.38941091299057007,-0.7205070853233337,0.573784589767456,-1.0980901718139648,1.663424015045166,-0.120796799659729
0.7238840086189483,2.5585293383339223,0.6751456504518647,8.019302368164062,-1.098637342453003,-2.5388317108154297,0.4125186800956726,-0.6622996926307678,0.625449538230896,-1.3504765033721924,1.5095746517181396,0.06600242853164673
0.6422107451578272,2.5636439174375325,0.6525666898556386,7.474531650543213,-0.7836703658103943,-3.513699769973755,0.4374680519104004,-0.5989671945571899,0.6707157492637634,-1.5382829904556274,1.3391406536102295,0.333556592464447
0.5598500995755022,2.5590354153517487,0.6459415478926347,6.88497257232666,-0.9634692072868347,-4.546229839324951,0.4661705791950226,-0.531059205532074,0.7075738906860352,-1.5552208423614502,1.2549514770507812,0.6251286864280701
0.47602773253482694,2.544373579659533,0.650205714173634,6.637884140014648,-1.6016523838043213,-5.337819576263428,0.49982500076293945,-0.4582521617412567,0.7349697351455688,-1.3010181188583374,1.271682858467102,0.8889166712760925
0.38908760390009367,2.5192853276731335,0.6598888536892955,6.572432041168213,-2.647702693939209,-5.9957804679870605,0.5393419861793518,-0.3793443739414215,0.751802921295166,-0.9295398592948914,1.3550066947937012,1.2606786489486694
0.29986130075229894,2.4816592171266376,0.6722675624965101,6.231266021728516,-4.000999927520752,-6.478909969329834,0.5857076644897461,-0.2953876852989197,0.7547796368598938,-0.4937736392021179,1.4505391120910645,1.7824212312698364
0.21300266994764933,2.433311096258961,0.6878466074953976,5.209061145782471,-4.7220282554626465,-6.742223262786865,0.6358281970024109,-0.21139566600322723,0.742317259311676,-0.08997541666030884,1.4948582649230957,2.270897150039673
0.13450356208973152,2.3839698227983237,0.7083877818373792,3.694106101989746,-4.276314735412598,-6.673997402191162,0.6809897422790527,-0.1340983808040619,0.719910204410553,0.41587305068969727,1.5646404027938843,2.571105480194092
0.06825276262061399,2.3440152749542884,0.7332454193422957,2.3132660388946533,-3.1536624431610107,-6.012705326080322,0.7139997482299805,-0.06819978356361389,0.6968162655830383,1.035786509513855,1.651665449142456,2.555121421813965
0.01607646633966652,2.3171043881956757,0.7571495295431473,1.4599177837371826,-2.0604519844055176,-4.7628655433654785,0.7341055870056152,-0.016075773164629936,0.6788450479507446,1.6940407752990723,1.661827802658081,2.27547025680542
-0.022153245579348602,2.2992874754882204,0.7754366122262806,1.0038329362869263,-1.6024569272994995,-3.328162670135498,0.7459967136383057,0.022151432931423187,0.665581226348877,2.1512811183929443,1.6798292398452759,2.0685648918151855
-0.04786338966568003,2.2832352495698602,0.786680258412518,0.7350441813468933,-1.693427562713623,-2.073127508163452,0.7559033036231995,0.04784511774778366,0.6529329419136047,2.2910327911376953,1.6735599040985107,2.016775608062744
-0.06448445013642641,2.2653525496986493,0.7922418973070352,0.5814116597175598,-1.937504529953003,-1.222008228302002,0.7667409777641296,0.06443976610898972,0.6387143135070801,2.1368844509124756,1.6329021453857422,1.9779391288757324
-0.07530634052307832,2.2447728649558796,0.7940108747474045,0.5221885442733765,-2.1981499195098877,-0.7014454007148743,0.7791317105293274,0.07523518055677414,0.6223292350769043,1.8650791645050049,1.6196043491363525,1.9109501838684082
-0.08260414215102338,2.2204876797601614,0.793012025781158,0.5473059415817261,-2.6740076541900635,-0.3334214389324188,0.7935553193092346,0.08251023292541504,0.6028778553009033,1.663475751876831,1.6429688930511475,1.8621184825897217
-0.08732111912136775,2.1892678300134207,0.7891075913607095,0.6378291845321655,-3.5029687881469727,0.04588644579052925,0.8116613626480103,0.08721019327640533,0.5775814652442932,1.5129693746566772,1.7167601585388184,1.850412368774414
-0.08884785256557909,2.14964116308822,0.7816778721779438,0.7665631771087646,-4.226485252380371,0.5580398440361023,0.8337932825088501,0.08873100578784943,0.5448995232582092,1.4332659244537354,1.8022602796554565,1.795539379119873
-0.08569175981806886,2.1040062911505406,0.7697107725737653,0.9224877953529358,-4.615238189697266,1.2517448663711548,0.8580199480056763,0.08558692783117294,0.506435215473175,1.4095427989959717,1.8396602869033813,1.6310007572174072
-0.07604511585357514,2.056227063750888,0.7527674244760542,1.0935002565383911,-4.581706523895264,2.079033374786377,0.8819179534912109,0.07597184181213379,0.4652409255504608,1.344095230102539,1.8649461269378662,1.4446558952331543
-0.0590711768381087,2.0101478558536354,0.7305752058567447,1.3642158508300781,-4.297928810119629,2.9100990295410156,0.9034491777420044,0.05903682857751846,0.42461079359054565,1.2222068309783936,1.8510279655456543,1.2633012533187866
-0.03504866821315881,1.9668981266640646,0.7033254803631783,1.658551573753357,-4.078268051147461,3.6563832759857178,0.9220054149627686,0.03504149243235588,0.3855879604816437,1.0058510303497314,1.82770574092865,1.1915910243988037
-0.004568920679723153,1.9264217579990175,0.6716890157525922,1.983874797821045,-3.8635528087615967,4.294247627258301,0.9374191164970398,0.004568904638290405,0.3481731116771698,0.7452895641326904,1.8109371662139893,1.2186603546142578
0.03154743637613135,1.8887525095296473,0.636405749682085,2.2699198722839355,-3.7731316089630127,4.80867862701416,0.949403703212738,-0.031542204320430756,0.31247028708457947,0.4542675018310547,1.788057804107666,1.2991324663162231
0.07255722092974741,1.8518978972649875,0.5988071419307335,2.4666292667388916,-3.9937925338745117,5.196307182312012,0.9582226276397705,-0.07249357551336288,0.2766842544078827,0.16693001985549927,1.7551870346069336,1.447192668914795
0.11773758624821702,1.8141425387453567,0.5601331226813484,2.606050968170166,-4.242773532867432,5.486630916595459,0.9638181328773499,-0.11746575683355331,0.239283487200737,-0.0999874472618103,1.7226141691207886,1.611348271369934
0.166770954650702,1.7768977503859038,0.5214175593638997,2.6517577171325684,-4.228050708770752,5.743526935577393,0.9652555584907532,-0.16599898040294647,0.20180609822273254,-0.3538818359375,1.7111955881118774,1.7260503768920898
0.21961992022970478,1.7432926681287548,0.48395039308599913,2.552394390106201,-3.8597333431243896,5.981922149658203,0.9614959955215454,-0.21785868704319,0.16751936078071594,-0.5721529126167297,1.7027373313903809,1.771888017654419
0.27614510460807346,1.716110781735973,0.44893987967824334,2.3390018939971924,-3.2675621509552,6.212306976318359,0.9519731402397156,-0.2726488411426544,0.13931746780872345,-0.7429889440536499,1.6902209520339966,1.772364616394043
0.3358972367192684,1.6953831935112151,0.4170827544632557,2.057084798812866,-2.794929027557373,6.401792526245117,0.9367971420288086,-0.32961639761924744,0.11732026189565659,-0.8805533051490784,1.6482200622558594,1.745884656906128
0.39831819032507115,1.6789168464957334,0.3887618598008719,1.7339493036270142,-2.5568602085113525,6.566040992736816,0.916332483291626,-0.387868732213974,0.09946221858263016,-0.9809381365776062,1.6010798215866089,1.7156623601913452
0.4629679593000512,1.6634945448301415,0.36400348824707024,1.4504547119140625,-2.590116024017334,6.7077741622924805,0.890889585018158,-0.4466055929660797,0.08282124251127243,-1.0901540517807007,1.6042289733886719,1.7010990381240845
0.5296148498963276,1.6473742135483036,0.34200978920551095,1.2776455879211426,-2.713900566101074,6.8597235679626465,0.8604725003242493,-0.505200982093811,0.06602226942777634,-1.188887357711792,1.6189095973968506,1.6529260873794556
0.5981354004650338,1.6298465188803948,0.3222962539228421,1.1026277542114258,-2.8827526569366455,6.990901470184326,0.8249465227127075,-0.5631025433540344,0.04876995086669922,-1.273890733718872,1.6223983764648438,1.6162996292114258
0.6679567551952201,1.6098858769800508,0.3057360345405345,0.8618944883346558,-3.0317182540893555,7.027671813964844,0.784489095211029,-0.6193831562995911,0.030680954456329346,-1.3714184761047363,1.6032546758651733,1.610966444015503
0.7378666916012917,1.5869432083368313,0.2937355824477849,0.5739244222640991,-3.067817449569702,6.94644021987915,0.7398090362548828,-0.6727110147476196,0.011946647427976131,-1.4808826446533203,1.55289888381958,1.6005563735961914
0.8069522555052587,1.5599325538984845,0.28784270231047837,0.22188274562358856,-3.131859302520752,6.8310065269470215,0.6916620135307312,-0.7221823930740356,-0.007514354772865772,-1.5511131286621094,1.5141592025756836,1.570151686668396
0.8747103087804506,1.5261508129765777,0.2900925358427076,-0.14294582605361938,-3.2728917598724365,6.666948318481445,0.6405801177024841,-0.7673577666282654,-0.028618043288588524,-1.5995492935180664,1.4785243272781372,1.5527422428131104
0.9395606115016913,1.4835641130151291,0.3014675794865357,-0.3786291778087616,-3.4137213230133057,6.309093475341797,0.5878989696502686,-0.8072988986968994,-0.05141420289874077,-1.674462080001831,1.3907339572906494,1.4832837581634521
0.9997709094285244,1.4327963294997237,0.3211409957678817,-0.4714548885822296,-3.4768362045288086,5.872618675231934,0.5353567600250244,-0.8413471579551697,-0.07435181736946106,-1.758272409439087,1.250298023223877,1.3274645805358887
1.0546875890156047,1.3731286553423536,0.34812462097806823,-0.41675060987472534,-3.879870891571045,5.377345085144043,0.48388952016830444,-0.8697460889816284,-0.0969148501753807,-1.7348814010620117,1.116847038269043,1.1861788034439087
1.1033728775757756,1.3047958617713948,0.377695281888614,-0.036131732165813446,-4.549797058105469,4.696547031402588,0.43474048376083374,-0.8927322030067444,-0.11844808608293533,-1.826128363609314,0.9313217401504517,0.9960878491401672
1.1448378608645446,1.2364566850356336,0.40017426817817264,0.555035412311554,-5.068446636199951,3.925865888595581,0.3903140127658844,-0.9106431007385254,-0.1355876326560974,-1.947656512260437,0.6698747873306274,0.7581462264060974
1.181874592025857,1.1713768142477359,0.4135604413078473,1.0636647939682007,-5.441222667694092,3.417989730834961,0.3493436872959137,-0.9253184795379639,-0.1474611610174179,-1.9209226369857788,0.47133898735046387,0.6258852481842041
1.2175898544060997,1.1080417935017548,0.421869312346444,1.334630012512207,-5.615983963012695,3.3667116165161133,0.30952775478363037,-0.9382684230804443,-0.154418483376503,-1.7771790027618408,0.38416075706481934,0.6016840934753418
1.2550773278777343,1.038355240433492,0.4358895690422593,1.4087108373641968,-5.632837295532227,3.677130699157715,0.26751744747161865,-0.9505733847618103,-0.15762150287628174,-1.6324466466903687,0.3091092109680176,0.6315442323684692
1.2954807214081727,0.9512718265785405,0.46816813394371337,1.399595856666565,-5.537844657897949,4.103224754333496,0.22132839262485504,-0.962339460849762,-0.1578495055437088,-1.6806942224502563,0.14761173725128174,0.6340610384941101
1.3372728089365957,0.8345318870909808,0.5332799986737898,1.2573238611221313,-5.122265338897705,4.417045593261719,0.17146825790405273,-0.9728570580482483,-0.1553952991962433,-1.9563040733337402,-0.09397637844085693,0.6018979549407959
1.3758696961695112,0.6684905390743192,0.6539299788734707,0.8177812695503235,-4.448176383972168,4.54871940612793,0.12005264312028885,-0.9810618758201599,-0.15200380980968475,-2.2850000858306885,-0.35649311542510986,0.6020312309265137
1.4030725444264547,0.42459116901709093,0.8599362362640207,-0.11578606069087982,-3.788973093032837,4.581442832946777,0.06876995414495468,-0.9859673380851746,-0.15211540460586548,-2.595076084136963,-0.5870001316070557,0.7099156379699707
1.4078015416141716,0.10871540587516489,1.1440364942254477,-1.4610682725906372,-3.3124029636383057,4.6373491287231445,0.01760694943368435,-0.9867457151412964,-0.16131596267223358,-2.834913492202759,-0.6899510025978088,0.82952880859375
1.3843194554386138,-0.18056909853405334,1.4064123571081197,-2.82257080078125,-2.817441701889038,4.572903156280518,-0.03329549729824066,-0.9826635122299194,-0.18238358199596405,-3.081892967224121,-0.7323480248451233,0.7009382247924805
1.3397659302049556,-0.3640349729896203,1.5677662125837215,-3.8559987545013428,-2.261523485183716,4.192355632781982,-0.081527940928936,-0.9734309911727905,-0.21397480368614197,-3.3835294246673584,-0.7921481728553772,0.24461443722248077
1.28590260996841,-0.45660112345027165,1.6432375464992446,-4.393833637237549,-1.6240606307983398,3.5988118648529053,-0.12391728907823563,-0.9596915245056152,-0.25226297974586487,-3.6378014087677,-0.8650307059288025,-0.410258412361145
1.231087391501896,-0.4960520678824909,1.6709204681616485,-4.500003814697266,-0.9978727698326111,2.911965847015381,-0.15859486162662506,-0.9428516626358032,-0.2930498421192169,-3.7166645526885986,-0.8579599261283875,-1.083338737487793
1.1805567961300756,-0.5058830163876102,1.6736545429462228,-4.2697672843933105,-0.4412832260131836,2.115112543106079,-0.18433915078639984,-0.9248179793357849,-0.33276256918907166,-3.7418386936187744,-0.7846394181251526,-1.648881196975708
1.1369209829661195,-0.4967234532935576,1.6622638569427595,-3.778996467590332,0.18406909704208374,1.2607898712158203,-0.2003360092639923,-0.9073433876037598,-0.36958569288253784,-3.7203335762023926,-0.69040447473526,-2.0849738121032715
1.102405110890483,-0.4731432921840036,1.641193197277042,-3.151583671569824,0.746587872505188,0.32545754313468933,-0.20572037994861603,-0.8922957181930542,-0.4018552303314209,-3.6950058937072754,-0.5515366792678833,-2.344665765762329
1.0778551924293789,-0.43646876618441605,1.6120521802244763,-2.4137701988220215,1.432126522064209,-0.5716785788536072,-0.20004944503307343,-0.8809448480606079,-0.4288546144962311,-3.63637638092041,-0.3911345601081848,-2.4671261310577393
1.0631185904937042,-0.3875584371429387,1.577129616423597,-1.6140594482421875,2.2194433212280273,-1.2852466106414795,-0.18372990190982819,-0.8738758563995361,-0.45009371638298035,-3.503678560256958,-0.24830126762390137,-2.4479928016662598
1.0570233550156416,-0.32727943243005886,1.538369239567466,-0.856670081615448,3.0620601177215576,-1.8059090375900269,-0.15799084305763245,-0.8708963990211487,-0.46537986397743225,-3.338026523590088,-0.09826558828353882,-2.289121627807617
1.0577794102102345,-0.25572289703428686,1.4962351263999352,-0.20338106155395508,3.8841092586517334,-2.168332815170288,-0.12414734065532684,-0.8712677359580994,-0.4748471677303314,-3.1951427459716797,0.05490732192993164,-2.0125491619110107
1.0634057487498676,-0.1729749024254024,1.4503839305184427,0.3362440764904022,4.620019912719727,-2.426969051361084,-0.08362971991300583,-0.8740153908729553,-0.4786473214626312,-3.118060827255249,0.22946888208389282,-1.6693782806396484
1.0722624767307558,-0.0783238919438105,1.3988596677225702,0.7864524126052856,5.2367963790893555,-2.7122130393981934,-0.03741137683391571,-0.8782845139503479,-0.4766724705696106,-3.1089203357696533,0.3668252229690552,-1.3293578624725342
1.0828993999982246,0.029998933709329,1.3386634594502307,1.1936726570129395,5.790072441101074,-3.0157580375671387,0.014060468412935734,-0.883320689201355,-0.46855834126472473,-3.1249613761901855,0.4855087995529175,-1.0100336074829102
1.0938860872449154,0.1538723148979919,1.2676847622804348,1.5844424962997437,6.3735575675964355,-3.326021909713745,0.07035458087921143,-0.8884174823760986,-0.453612744808197,-3.1328697204589844,0.6366932988166809,-0.7177281975746155
1.1033324345117403,0.2954691738202356,1.1837467397967532,1.942071795463562,6.93904447555542,-3.681802272796631,0.13121654093265533,-0.8927139639854431,-0.4310961961746216,-3.1492066383361816,0.7984757423400879,-0.4448345899581909
1.1086764658795134,0.4544138174585369,1.0859289261165592,2.2490549087524414,7.278666973114014,-4.064027309417725,0.1956980973482132,-0.8951093554496765,-0.4006016254425049,-3.1404306888580322,0.9645825624465942,-0.1684444546699524
1.107306329343424,0.6267243288312779,0.9760542465245816,2.559088706970215,7.460222244262695,-4.465254306793213,0.26220569014549255,-0.8944976925849915,-0.3621077239513397,-3.1182847023010254,1.1460998058319092,0.09407186508178711
1.097097216154659,0.8078309023676215,0.8579882824006007,2.908262252807617,7.650743007659912,-4.8764801025390625,0.3297230005264282,-0.8898869156837463,-0.31525203585624695,-3.0712695121765137,1.3315680027008057,0.28484126925468445
1.0766709464072473,0.992636340975925,0.7378836373679049,3.2927348613739014,8.01483154296875,-5.220897197723389,0.39717981219291687,-0.8803838491439819,-0.25917643308639526,-3.0121700763702393,1.499722957611084,0.41724222898483276
1.0451827125763715,1.1755218673226249,0.6234341983771212,3.6060407161712646,8.525613784790039,-5.539121150970459,0.46305471658706665,-0.8650162220001221,-0.1932021826505661,-2.939769744873047,1.6230729818344116,0.5563766360282898
1.0019235882461044,1.3499220482924972,0.5217805132156514,3.829566240310669,8.896100044250488,-5.880107879638672,0.5255961418151855,-0.8425087332725525,-0.11801609396934509,-2.893989086151123,1.7374672889709473,0.735432505607605
0.9486933191592865,1.5078569889281281,0.43893452647308795,4.009464740753174,8.99514389038086,-6.146585464477539,0.5815917253494263,-0.8126547336578369,-0.03665341064333916,-2.8355894088745117,1.883180856704712,0.9213579893112183
0.8858661483752022,1.6503849703727986,0.3721618501338566,4.198081016540527,8.806809425354004,-6.302568435668945,0.6306164264678955,-0.7744632363319397,0.050296150147914886,-2.733567476272583,2.0143465995788574,1.0805326700210571
0.8168721728211685,1.7746804793626594,0.321591604551419,4.3203277587890625,8.338683128356934,-6.369028091430664,0.6703269481658936,-0.7290083765983582,0.13859479129314423,-2.621330976486206,2.0872390270233154,1.2080848217010498
0.743752181943237,1.8799487778147197,0.2854922944654927,4.320423126220703,7.540276050567627,-6.435597896575928,0.701043963432312,-0.6770540475845337,0.2239087074995041,-2.4920902252197266,2.0873324871063232,1.3532397747039795
0.6681129145581732,1.966508388235981,0.26205884644353367,4.220530986785889,6.704800605773926,-6.483489513397217,0.7243297100067139,-0.619505763053894,0.30258721113204956,-2.3630473613739014,2.031599998474121,1.4851936101913452
0.5916576561658416,2.038833746918206,0.249249436076433,4.03510856628418,6.256553649902344,-6.5062575340271,0.7407535314559937,-0.5577376484870911,0.3744504451751709,-2.259582757949829,1.9943068027496338,1.5334322452545166
0.5151692829376092,2.1025196171353624,0.245720628532401,3.798753261566162,6.071414947509766,-6.606684684753418,0.7500637173652649,-0.49268215894699097,0.4412131607532501,-2.1838860511779785,1.9265964031219482,1.5426888465881348
0.4389373809135934,2.1603671650840983,0.25073574482140437,3.539271354675293,5.928719520568848,-6.741808891296387,0.7523866891860962,-0.4249778091907501,0.5032972693443298,-2.1070923805236816,1.7812248468399048,1.566404938697815
0.36301563774279344,2.2154145498310607,0.2627647256653439,3.453644275665283,5.998804092407227,-6.894888877868652,0.7472372055053711,-0.35509493947029114,0.5617333054542542,-2.0219717025756836,1.7411271333694458,1.5905189514160156
0.28560644084800807,2.270564273523592,0.2799134543216253,3.660599946975708,6.063322067260742,-7.229569435119629,0.7340025305747986,-0.28173938393592834,0.6179506778717041,-1.9485106468200684,1.7232372760772705,1.591796636581421
0.2039815584698334,2.3259169984062398,0.3015567878431811,4.053769588470459,5.957745552062988,-7.723207950592041,0.7130918502807617,-0.20256993174552917,0.6711671948432922,-1.9092893600463867,1.7349185943603516,1.668386697769165
0.11674670907172553,2.3777750520217045,0.32812838000700756,4.484367847442627,5.09616231918335,-8.314600944519043,0.6869751214981079,-0.11648168414831161,0.7172845602035522,-1.845910668373108,1.9044914245605469,1.9275060892105103
0.023751516976394788,2.4185080516421102,0.3603031100320231,4.832888603210449,3.3773865699768066,-8.91475772857666,0.6615139842033386,-0.02374928444623947,0.749556839466095,-1.7099759578704834,2.1866369247436523,2.3239142894744873
-0.0730256035413293,2.442578935494875,0.3979206149016527,4.853598594665527,1.2208422422409058,-9.316500663757324,0.6417480707168579,0.07296071946620941,0.763437032699585,-1.4194581508636475,2.4863502979278564,2.7054197788238525
-0.16891937565150603,2.45077942288255,0.4409319825141171,4.328702449798584,-0.5152121186256409,-9.401397705078125,0.6280954480171204,0.1681172102689743,0.7597584128379822,-0.9973581433296204,2.761448383331299,2.970069408416748
-0.25771013765929923,2.4512804996979822,0.48905424096926214,3.2965803146362305,-1.3070181608200073,-9.047607421875,0.6157490015029907,0.25486698746681213,0.7455843091011047,-0.445903480052948,2.950180768966675,3.018636703491211
-0.3337079748203964,2.4536279822400586,0.5417424924567619,1.9879637956619263,-1.2008999586105347,-8.28363037109375,0.599937915802002,0.32754868268966675,0.7299224138259888,0.14607959985733032,3.0473904609680176,2.922055244445801
-0.39292813798307363,2.4641822470494192,0.59721268646006,0.6541877388954163,-0.6204459071159363,-7.147313117980957,0.5790117383003235,0.3828950524330139,0.719817042350769,0.7031994462013245,3.1057982444763184,2.736374855041504
-0.4338595502090754,2.4828538808157927,0.6520996615466153,-0.4098396599292755,-0.06715504080057144,-5.7552313804626465,0.5554071664810181,0.42037588357925415,0.717500627040863,1.1598334312438965,3.106464385986328,2.489133834838867
-0.45834004799474554,2.505977787636189,0.7019405225995067,-1.0541573762893677,0.3524608910083771,-4.335971832275391,0.5323984622955322,0.4424600899219513,0.7216516733169556,1.4432485103607178,3.0884084701538086,2.1471076011657715
-0.46965871703639744,2.5288620774825947,0.7429457649115062,-1.344717264175415,0.5115049481391907,-2.926676034927368,0.5128328204154968,0.4525819718837738,0.7295012474060059,1.565978765487671,3.0696654319763184,1.8269104957580566
-0.4713678382284295,2.547161807136925,0.7730839405066687,-1.3476073741912842,0.35692068934440613,-1.7332509756088257,0.49896419048309326,0.4541053771972656,0.7381214499473572,1.5542889833450317,2.974163055419922,1.5711743831634521
-0.46789947268607934,2.5577515022819632,0.7927834939413864,-1.1475661993026733,-0.03816993534564972,-0.8329786062240601,0.4919850528240204,0.451012521982193,0.7446733713150024,1.3951609134674072,2.840582847595215,1.4029860496520996
-0.46234156096330997,2.5598396442155975,0.8034965817020875,-0.8225782513618469,-0.505424976348877,-0.17451229691505432,0.4917987883090973,0.44604504108428955,0.7477818727493286,1.1839518547058105,2.7066192626953125,1.2731379270553589
-0.45633183502341923,2.554039437208345,0.806729349524633,-0.5031000971794128,-0.9303233027458191,0.3424379229545593,0.4976048469543457,0.4406582713127136,0.7471345067024231,1.0143885612487793,2.5570530891418457,1.1827971935272217
-0.44993680094902366,2.5414491653660245,0.8038406398288788,-0.2777644395828247,-1.322527289390564,0.80668044090271,0.5085529088973999,0.4349086284637451,0.7431209087371826,0.8880993127822876,2.4322943687438965,1.1296818256378174
-0.44184592143581924,2.522924668450567,0.7951408203520293,-0.1652965098619461,-1.6014444828033447,1.430229663848877,0.524254322052002,0.427608847618103,0.7364156246185303,0.8251871466636658,2.38301420211792,1.0872385501861572
-0.42973674817377194,2.499833156325011,0.7799680818623334,-0.1766895055770874,-1.70730721950531,2.2174110412597656,0.5441779494285583,0.4166314899921417,0.728209376335144,0.8765679001808167,2.3330328464508057,1.000046968460083
-0.4120390195591339,2.473952743155414,0.7582744259955978,-0.21475648880004883,-1.667663812637329,3.068917751312256,0.5673167109489441,0.4004785120487213,0.7195616364479065,0.8820088505744934,2.270862579345703,0.8889588713645935
-0.38833544898466277,2.446960109209877,0.7300333843097178,-0.17200236022472382,-1.5185670852661133,3.930083751678467,0.5924416184425354,0.3786483407020569,0.7110827565193176,0.8195915222167969,2.239424228668213,0.7516096234321594
-0.35951270302599925,2.4192906351385006,0.6950950524596332,0.05693967640399933,-1.4791969060897827,4.722103118896484,0.6188475489616394,0.35181814432144165,0.7023188471794128,0.7109253406524658,2.1847572326660156,0.6117528676986694
-0.3272030171388861,2.389792192401857,0.6532450168372269,0.47375795245170593,-1.6154232025146484,5.407144069671631,0.6467208862304688,0.3213956952095032,0.6917058825492859,0.5207901000976562,2.1332857608795166,0.5134637951850891
-0.29285382370900076,2.3574260874871076,0.6046631473759215,1.0194768905639648,-1.8973840475082397,5.964140892028809,0.6761665344238281,0.28868570923805237,0.6778340935707092,0.2841757535934448,2.099329948425293,0.4928963780403137
-0.25753228598105127,2.321914632073688,0.5497094125074429,1.6668287515640259,-2.203338861465454,6.420899391174316,0.7068212628364563,0.25469499826431274,0.6599501967430115,0.034908413887023926,2.0724382400512695,0.5211869478225708
-0.2212836907893237,2.283923509827128,0.4887010776291485,2.2781827449798584,-2.4903411865234375,6.846590518951416,0.7378780245780945,0.2194821983575821,0.6382503509521484,-0.18113064765930176,2.0523531436920166,0.6079044342041016
-0.18298465131096842,2.2440957559780164,0.4226310300551784,2.7469770908355713,-2.813856363296509,7.272950172424316,0.7687167525291443,0.1819652020931244,0.6131581664085388,-0.37594038248062134,2.0688436031341553,0.7646340727806091
-0.14082027545308123,2.202933832792232,0.3528540695381242,3.039362668991089,-3.126030921936035,7.75130558013916,0.7987804412841797,0.14035531878471375,0.5850217342376709,-0.5563334226608276,2.1154277324676514,0.9202883839607239
-0.09293967731530305,2.1624787654868727,0.2805664515055086,3.180133819580078,-3.2258169651031494,8.2913818359375,0.8264214396476746,0.09280593693256378,0.5553511381149292,-0.6867881417274475,2.1557750701904297,1.0431900024414062
-0.03793953115872342,2.12575067737333,0.20687532648910978,3.171159029006958,-3.0941028594970703,8.874624252319336,0.8493128418922424,0.037930428981781006,0.5265253186225891,-0.8416987657546997,2.182101249694824,1.1226294040679932
0.025136111514569848,2.0959484125006638,0.13318379770800465,2.9428324699401855,-2.7223620414733887,9.456628799438477,0.8649742603302002,-0.025133464485406876,0.501186192035675,-1.0350794792175293,2.223207950592041,1.1917306184768677
0.09629492130543157,2.075350249165823,0.061406394829038605,2.4892611503601074,-2.236557722091675,9.895986557006836,0.8713346123695374,-0.09614617377519608,0.4811773896217346,-1.2277343273162842,2.2549140453338623,1.2412500381469727
0.17415569806799894,2.064377830160072,-0.006599200300246635,1.87437105178833,-1.7848485708236694,10.13060188293457,0.8673202395439148,-0.17327666282653809,0.46661606431007385,-1.450892686843872,2.262265920639038,1.279630184173584
0.25659383980502615,2.061664254274075,-0.0698667958995492,1.2298146486282349,-1.4511593580245972,10.148111343383789,0.8530498743057251,-0.25378739833831787,0.45595815777778625,-1.6633678674697876,2.2355990409851074,1.2771809101104736
0.3413392418945181,2.065493153714337,-0.12856091940611836,0.6511099338531494,-1.2499234676361084,10.01638412475586,0.8293363451957703,-0.33474937081336975,0.44737422466278076,-1.8388426303863525,2.238252878189087,1.2194957733154297
0.42674330717100295,2.074073772911097,-0.18389436472226559,0.2005697339773178,-1.1745377779006958,9.820185661315918,0.7974450588226318,-0.41390836238861084,0.43904590606689453,-1.9545037746429443,2.2336411476135254,1.144007682800293
0.5116179690176103,2.0865571032807635,-0.23737481643660602,-0.13713401556015015,-1.1678255796432495,9.589556694030762,0.758527934551239,-0.4895886778831482,0.4300447404384613,-2.004850387573242,2.2126264572143555,1.0514616966247559
0.5954627946201619,2.1024427007278232,-0.29038384023301655,-0.44022950530052185,-1.229347586631775,9.388350486755371,0.7136185765266418,-0.5608919858932495,0.4197009801864624,-2.005549669265747,2.196176528930664,0.9759899377822876
0.6787739088016054,2.121190273191551,-0.3435863429569825,-0.815048098564148,-1.34140944480896,9.248068809509277,0.6633963584899902,-0.6278391480445862,0.4070914089679718,-1.9702506065368652,2.193161964416504,0.9614694118499756
0.7625110709433628,2.1425991250183896,-0.3972094615904697,-1.2714723348617554,-1.4424062967300415,9.162522315979004,0.6080772280693054,-0.6907393932342529,0.3913067877292633,-1.8975365161895752,2.183781623840332,0.958653450012207
0.8471345186826722,2.1671895722364987,-0.45219131360720666,-1.6744112968444824,-1.5531424283981323,9.104777336120605,0.547826886177063,-0.7493861317634583,0.3718949854373932,-1.8071959018707275,2.161755084991455,0.9158704876899719
0.9324559922590054,2.197671289920915,-0.511829234955336,-1.947534203529358,-1.6058363914489746,9.133049964904785,0.4825688600540161,-0.8030858039855957,0.34954357147216797,-1.7736148834228516,2.148834705352783,0.803013801574707
1.0183755725347616,2.2389537573592326,-0.5815905742368366,-2.1613972187042236,-1.697864055633545,9.236501693725586,0.4119095504283905,-0.8512567281723022,0.3251035213470459,-1.779188632965088,2.1368861198425293,0.7217409610748291
1.1046636600967952,2.2974222806282034,-0.6684712342498624,-2.4163243770599365,-1.7514768838882446,9.375144958496094,0.3359167277812958,-0.8933130502700806,0.2985827922821045,-1.8402197360992432,2.09155535697937,0.7017223834991455
1.190929224131151,2.3858533123527197,-0.7838836484233077,-2.79267954826355,-1.6099834442138672,9.522932052612305,0.2543027997016907,-0.9287139177322388,0.2698532044887543,-1.9643094539642334,2.047122001647949,0.7364639043807983
1.2751317596714755,2.5265291711221782,-0.9499089298505299,-3.243769407272339,-1.6427167654037476,9.545829772949219,0.16812707483768463,-0.9566087126731873,0.23797765374183655,-2.267293930053711,2.0201005935668945,0.8180068731307983
1.3515435288984858,2.7596633092416654,-1.2094466455711863,-3.8583619594573975,-1.977862000465393,9.272125244140625,0.08106521517038345,-0.9760602116584778,0.2018296867609024,-2.7067365646362305,1.878281831741333,0.8808729648590088
1.411177890476755,-3.119321135063277,-1.6430499404568657,-4.716979026794434,-2.392439842224121,8.688836097717285,-0.003539553377777338,-0.9872879981994629,0.15890106558799744,-3.078217029571533,1.611586332321167,0.9222451448440552
1.4338185075558585,-2.4886209209089714,-2.305787381401442,-5.681237697601318,-2.590095281600952,7.9942097663879395,-0.08296069502830505,-0.9906331896781921,0.10845894366502762,-3.341294527053833,1.3794119358062744,0.8307501077651978
1.4053040687168612,-1.8803935874967912,-2.9457925865140324,-6.672624588012695,-2.3138620853424072,7.328948974609375,-0.1569051742553711,-0.9863373637199402,0.05019137263298035,-3.5099191665649414,1.230966329574585,0.5546822547912598
1.3422506963788627,-1.4982172156022018,2.9273555250454026,-7.652820110321045,-1.7039014101028442,6.799162864685059,-0.22596485912799835,-0.9739969372749329,-0.01642918586730957,-3.5166497230529785,1.146970510482788,0.17312169075012207
1.262098936530435,-1.2667512081371683,2.6728730754091976,-8.478979110717773,-1.1264381408691406,6.2500457763671875,-0.28988292813301086,-0.952730119228363,-0.09095773100852966,-3.4649999141693115,1.1121995449066162,-0.2522429823875427
1.1747695805583522,-1.1142205306046002,2.500399094910778,-8.911215782165527,-0.7968330383300781,5.416932582855225,-0.34624162316322327,-0.9226009845733643,-0.1700708419084549,-3.478450059890747,1.0432369709014893,-0.7456548810005188
1.0885076955895006,-1.0061547015077519,2.373110047224418,-8.827528953552246,-0.649765133857727,4.2489142417907715,-0.3918159008026123,-0.8859357833862305,-0.24818973243236542,-3.5804131031036377,0.8631848692893982,-1.3515112400054932
1.0101377868317698,-0.9242186747465718,2.271807412738182,-8.285597801208496,-0.5269404053688049,2.83781361579895,-0.42441171407699585,-0.8469051122665405,-0.3203537166118622,-3.6833763122558594,0.624019980430603,-1.958409070968628
0.9441159797478956,-0.8578844574042704,2.1855493305193354,-7.4394402503967285,-0.523284912109375,1.3409082889556885,-0.44363316893577576,-0.8099787831306458,-0.383567214012146,-3.6928870677948,0.408382773399353,-2.405968189239502
0.8925917865676511,-0.8027521389250386,2.1082221057102886,-6.404558181762695,-0.7394747734069824,-0.05414814502000809,-0.4512675702571869,-0.7787004113197327,-0.4358706474304199,-3.638698101043701,0.26977407932281494,-2.6761441230773926
0.8551666343612017,-0.7567409868811393,2.036441282396555,-5.368651390075684,-1.053436040878296,-1.2048509120941162,-0.4504441022872925,-0.7546802759170532,-0.4770301580429077,-3.4757184982299805,0.2757068872451782,-2.7801260948181152
0.8302028490676303,-0.7182471959700322,1.9687038934559418,-4.360905647277832,-1.3295971155166626,-2.065439224243164,-0.4440142512321472,-0.7380682826042175,-0.50804203748703,-3.2339184284210205,0.34968626499176025,-2.764525890350342
0.815917341369181,-0.6853186351403482,1.9052578189130889,-3.3680293560028076,-1.3126810789108276,-2.62662935256958,-0.43367695808410645,-0.7283544540405273,-0.530494213104248,-3.014519453048706,0.40582942962646484,-2.711418628692627
0.8107228949604594,-0.6542324436416238,1.8472107945681313,-2.3861982822418213,-0.8358625173568726,-2.9399359226226807,-0.41927579045295715,-0.7247854471206665,-0.5467119216918945,-2.8113150596618652,0.42935997247695923,-2.651606559753418
0.8132658174457351,-0.620545789251652,1.7948515135777188,-1.5014851093292236,0.017968755215406418,-3.1208128929138184,-0.39955154061317444,-0.7265350818634033,-0.5590218901634216,-2.5940701961517334,0.4111664295196533,-2.5452871322631836
0.8219483155238861,-0.5801226370607626,1.7471612711908728,-0.7689788937568665,1.1406922340393066,-3.207374334335327,-0.37316203117370605,-0.732473611831665,-0.5694141983985901,-2.390540361404419,0.39319443702697754,-2.3278636932373047
0.8348705216105797,-0.5295579250486685,1.7030245428107402,-0.20128938555717468,2.475104570388794,-3.195943832397461,-0.3390951454639435,-0.7412096261978149,-0.5793296098709106,-2.231614112854004,0.43055593967437744,-2.040574073791504
0.8503123397631566,-0.4667850810455527,1.6612251971399596,0.22960475087165833,3.809492588043213,-3.1449530124664307,-0.29689842462539673,-0.7514864802360535,-0.58916836977005,-2.075537919998169,0.44440340995788574,-1.7271769046783447
0.8666779894940756,-0.3916688852787207,1.620063113372838,0.47884461283683777,4.911078453063965,-3.087282180786133,-0.24711845815181732,-0.7621825933456421,-0.5983394384384155,-1.9712958335876465,0.4728606939315796,-1.339938759803772
0.8823587837065847,-0.3061492023865624,1.5781689592177666,0.6151095032691956,5.696320533752441,-3.016270160675049,-0.19148197770118713,-0.772239625453949,-0.6057892441749573,-1.9029698371887207,0.5461349487304688,-0.925506591796875
0.8965557535964627,-0.21249216887235495,1.5348087757924485,0.719597578048706,6.230082988739014,-2.9769554138183594,-0.13166366517543793,-0.781181275844574,-0.6102625727653503,-1.8476758003234863,0.6050186157226562,-0.5978825688362122
0.9090122410675113,-0.1126350571121483,1.4894515304542548,0.8256095051765442,6.556938171386719,-2.9491686820983887,-0.06907083094120026,-0.7888970971107483,-0.6106312870979309,-1.8115595579147339,0.6508813500404358,-0.3457896113395691
0.9195267410723769,-0.008547567425934915,1.4423931410967124,0.9181461930274963,6.7500200271606445,-2.8888933658599854,-0.00518144341185689,-0.7953148484230042,-0.6061744689941406,-1.7563235759735107,0.6894188523292542,-0.15417098999023438
0.9279140822255593,0.09835249153941662,1.394233638261683,1.0152698755264282,6.8945159912109375,-2.8155274391174316,0.05886777862906456,-0.8003711700439453,-0.5966076254844666,-1.7237999439239502,0.7185535430908203,0.009830832481384277
0.9341818924154944,0.20709939243164086,1.345447955200395,1.1025539636611938,6.97975492477417,-2.736680030822754,0.12223754823207855,-0.8041130304336548,-0.5817734599113464,-1.7391808032989502,0.7453514337539673,0.15149086713790894
0.9382318444210314,0.31728258320172265,1.2961611469045702,1.1915719509124756,7.078342914581299,-2.6880593299865723,0.18445076048374176,-0.8065140247344971,-0.5617055296897888,-1.7501856088638306,0.7875168323516846,0.26911818981170654
0.9401342548640477,0.42940324860763407,1.2460093986837089,1.321272850036621,7.2053680419921875,-2.6740498542785645,0.24550031125545502,-0.8076372742652893,-0.5361451506614685,-1.7606827020645142,0.8290148377418518,0.3421754837036133
0.9400241706048631,0.5438983504711575,1.194660070227043,1.4846433401107788,7.3538408279418945,-2.6788313388824463,0.30519089102745056,-0.8075723648071289,-0.5046637058258057,-1.766906499862671,0.8490610718727112,0.37519288063049316
0.937491132027239,0.6609953989052207,1.1417730385410025,1.6293308734893799,7.476870059967041,-2.7518584728240967,0.36331525444984436,-0.8060758709907532,-0.46716567873954773,-1.758365273475647,0.8781126141548157,0.3982264995574951
0.9316952433166411,0.7801017735377199,1.0870738129163269,1.7887450456619263,7.485091686248779,-2.8797903060913086,0.4195312261581421,-0.8026322722434998,-0.42399895191192627,-1.7648985385894775,0.92235267162323,0.4421568512916565
0.9224745417021217,0.8997822001644491,1.0305143003654786,2.0436952114105225,7.33016300201416,-3.008418083190918,0.47292983531951904,-0.7970983386039734,-0.3754619061946869,-1.823210597038269,0.9653722643852234,0.4751781225204468
0.9099843638200643,1.0186758825586717,0.9715694962462603,2.398874521255493,7.052225112915039,-3.140590190887451,0.5225623250007629,-0.7894941568374634,-0.3219122588634491,-1.9251197576522827,0.9936262965202332,0.5075201988220215
0.8937455422277486,1.1365026891605818,0.9099096379872766,2.792509078979492,6.791945457458496,-3.3310253620147705,0.5683377385139465,-0.7794237732887268,-0.26361098885536194,-2.0465786457061768,1.0585224628448486,0.607528805732727
0.8722142785751567,1.2524464773609634,0.8458776794234737,3.168452739715576,6.452772617340088,-3.654370069503784,0.6108171343803406,-0.7657548785209656,-0.20130030810832977,-2.1317827701568604,1.1256029605865479,0.6920687556266785
0.8435585288113226,1.3645283101868853,0.7813943942537916,3.4779162406921387,6.194842338562012,-4.047463417053223,0.6507161855697632,-0.7470135688781738,-0.13615846633911133,-2.1744132041931152,1.1267286539077759,0.7575421333312988
0.8072406571092074,1.4720544305956416,0.7192274277385009,3.756380796432495,6.183962345123291,-4.401885509490967,0.688126266002655,-0.7223818302154541,-0.06816858053207397,-2.1365513801574707,1.1027376651763916,0.8164443969726562
0.7635579382074078,1.5752796809455984,0.6613819323852115,3.9871420860290527,6.246653079986572,-4.6915106773376465,0.7223729491233826,-0.6914960145950317,0.003238675417378545,-2.075385093688965,1.1212751865386963,0.9205436706542969
0.7133501853546614,1.6726268303471845,0.610083876501185,4.090498447418213,6.270804405212402,-4.898068904876709,0.7522566914558411,-0.6543707847595215,0.07686855643987656,-1.9738752841949463,1.169187068939209,1.1382193565368652
0.6580295341690607,1.7618809900355377,0.5675927037600514,3.9739162921905518,6.1209235191345215,-5.0537004470825195,0.7767979502677917,-0.6115590333938599,0.1502675712108612,-1.842273473739624,1.200655221939087,1.4657907485961914
0.5998987513041253,1.8395531280221553,0.5367895694345373,3.4614853858947754,5.728474140167236,-5.085539817810059,0.7957626581192017,-0.5645589232444763,0.21916909515857697,-1.6799484491348267,1.2054433822631836,1.833504319190979
0.5420646123875059,1.904801014071457,0.5191728219343573,2.8080456256866455,5.399395942687988,-5.059612274169922,0.8093048334121704,-0.5159057378768921,0.28083327412605286,-1.4457335472106934,1.1655638217926025,2.098454475402832
0.48526676366452065,1.9613451789757517,0.5118997013209584,2.428231954574585,5.152373790740967,-5.092548847198486,0.8179439306259155,-0.46644434332847595,0.3367447853088379,-1.234570026397705,1.0805954933166504,2.154283046722412
0.42885002558078383,2.011952466227826,0.5109553212563519,2.2960965633392334,4.841383934020996,-5.127080917358398,0.8223729729652405,-0.4158252477645874,0.38831931352615356,-1.0507514476776123,0.9912800788879395,2.109452962875366
0.3725436493727451,2.0578743578626697,0.5136131297133029,2.3118643760681152,4.516155242919922,-5.120075702667236,0.8230860829353333,-0.3639857769012451,0.43593987822532654,-0.828701376914978,0.9368771314620972,2.1105995178222656
0.31669916422550487,2.099453914822849,0.5182717017923195,2.3312015533447266,4.057531356811523,-5.029841423034668,0.8205424547195435,-0.3114315867424011,0.47929129004478455,-0.5966198444366455,0.9449002742767334,2.1818413734436035
0.262085713766986,2.135304808971327,0.5250719997115955,2.2012064456939697,3.4852185249328613,-4.950997352600098,0.816001296043396,-0.25909560918807983,0.5167312026023865,-0.41113990545272827,0.9776473045349121,2.3284835815429688
0.20979652745866095,2.165896385288327,0.5352640166127328,1.827551007270813,3.11084246635437,-4.839901924133301,0.8099350333213806,-0.2082608938217163,0.5482996702194214,-0.2374100685119629,0.9995817542076111,2.506845474243164
0.16240757967158198,2.1928751148395107,0.54988734348507,1.1945961713790894,2.7943036556243896,-4.519582271575928,0.8019748330116272,-0.16169457137584686,0.5750576257705688,0.030178487300872803,1.0667239427566528,2.688782215118408
0.12302175926250886,2.2163216218173787,0.56891987729481,0.4302123188972473,2.422619104385376,-4.027519226074219,0.7927471399307251,-0.12271168828010559,0.5970714688301086,0.34365135431289673,1.1703801155090332,2.8088583946228027
0.09240394554864298,2.237075236210183,0.5913477608373976,-0.2125179022550583,2.2241456508636475,-3.5223116874694824,0.7827733755111694,-0.09227250516414642,0.6154283285140991,0.5611446499824524,1.2084987163543701,2.7838330268859863
0.07014589239941008,2.257147512596303,0.6158687412663493,-0.8118366599082947,2.1750879287719727,-2.99039363861084,0.771661102771759,-0.07008837908506393,0.6321603059768677,0.7219148874282837,1.2254382371902466,2.7032430171966553
0.05638143889106831,2.277041949617908,0.6422880853258667,-1.4645161628723145,2.1116933822631836,-2.5041143894195557,0.7595946192741394,-0.05635157227516174,0.6479505896568298,0.8781920075416565,1.302628517150879,2.687879800796509
0.050980099478538425,2.2959140726871192,0.6709898641949916,-2.121124744415283,1.9359866380691528,-2.077601432800293,0.7474491000175476,-0.050958018749952316,0.6623619794845581,1.0133084058761597,1.3776944875717163,2.6703102588653564
0.05345512488763374,2.3125432858088355,0.7012466994385463,-2.6633362770080566,1.6812357902526855,-1.5787742137908936,0.7362362742424011,-0.05342967063188553,0.6746118664741516,1.154236078262329,1.4453974962234497,2.5761051177978516
0.06374227015671487,2.326059521081348,0.7312870863038723,-3.099008083343506,1.3470232486724854,-0.9875333905220032,0.726612389087677,-0.06369911134243011,0.6840881109237671,1.3061480522155762,1.5127042531967163,2.442941188812256
0.08134138523202582,2.3354541232384496,0.7600411354054083,-3.452747106552124,0.9299296140670776,-0.40817415714263916,0.719233512878418,-0.08125171810388565,0.6900012493133545,1.3904469013214111,1.5514665842056274,2.306413173675537
0.10571085019079937,2.3400855505956275,0.7866887603012238,-3.7179980278015137,0.48121315240859985,0.24683021008968353,0.7143949866294861,-0.10551407933235168,0.6917416453361511,1.4096283912658691,1.5635830163955688,2.148285150527954
0.13698312952344463,2.3396542131537887,0.8102592217176754,-3.9762632846832275,-0.008419398218393326,0.9902976751327515,0.7119726538658142,-0.13655513525009155,0.6888014078140259,1.399584174156189,1.5578656196594238,2.0034594535827637
0.17540229086004908,2.3339472443994143,0.830955829000534,-4.271363735198975,-0.4767789840698242,1.688211441040039,0.7115735411643982,-0.17450426518917084,0.6805965304374695,1.313328742980957,1.5557146072387695,1.8748998641967773
0.22006648821120559,2.324002088733318,0.8496209149734403,-4.488470554351807,-0.7459366321563721,2.24900221824646,0.7119066715240479,-0.21829450130462646,0.6674853563308716,1.1273267269134521,1.5446799993515015,1.688532829284668
0.269167578157473,2.311890838758574,0.8667065500485166,-4.5751848220825195,-0.8340973854064941,2.674349546432495,0.7111664414405823,-0.26592907309532166,0.6507874131202698,0.9113921523094177,1.501677393913269,1.4578857421875
0.3211511301851966,2.298468203230736,0.8823556911892682,-4.575659275054932,-0.9467719793319702,3.001776933670044,0.7085469961166382,-0.3156590461730957,0.6311265826225281,0.7231089472770691,1.4237217903137207,1.2718579769134521
0.37471192602084435,2.2831147093601207,0.8969168307976704,-4.506890296936035,-1.1283390522003174,3.215334892272949,0.7043333649635315,-0.36600446701049805,0.6082396507263184,0.525296151638031,1.358191967010498,1.1512207984924316
0.42881685220939725,2.265546463791863,0.9107094842055774,-4.401302814483643,-1.2895183563232422,3.365044593811035,0.6986585259437561,-0.41579505801200867,0.582229495048523,0.31681394577026367,1.292412519454956,1.0572359561920166
0.4830656766330039,2.2461001882949327,0.9243218561168395,-4.337496757507324,-1.3834824562072754,3.4603960514068604,0.6912065744400024,-0.4644962549209595,0.5536036491394043,0.12574905157089233,1.224185585975647,1.0047154426574707
0.5374358794467295,2.224720215600827,0.9389218944119481,-4.360185623168945,-1.457268238067627,3.497882604598999,0.6818101406097412,-0.5119350552558899,0.5225491523742676,-0.05751204490661621,1.1753413677215576,0.9768710136413574
0.5919832532994483,2.20054545092349,0.9559503744185648,-4.455752372741699,-1.5454808473587036,3.49125075340271,0.6706527471542358,-0.5580078959465027,0.48872512578964233,-0.23176419734954834,1.1367738246917725,0.9539934396743774
0.6467109458083491,2.1724945721202857,0.9765280785114965,-4.572024345397949,-1.6750625371932983,3.490898847579956,0.6579092741012573,-0.6025647521018982,0.45174211263656616,-0.3633079528808594,1.1316633224487305,0.9158421754837036
0.7016072327456551,2.139479803165842,1.001160013082484,-4.675408363342285,-1.8365370035171509,3.5104846954345703,0.6435908675193787,-0.6454461216926575,0.4113271236419678,-0.45888328552246094,1.1553796529769897,0.8571512699127197
0.7564128851641281,2.100751560523297,1.0306928289879878,-4.773787498474121,-1.9472614526748657,3.5121474266052246,0.6275379657745361,-0.686316967010498,0.3676474392414093,-0.563893735408783,1.1695476770401,0.7764713764190674
0.8105690280044568,2.056034412668066,1.0661249447633205,-4.8434529304504395,-1.9639301300048828,3.4804937839508057,0.6095406413078308,-0.7246794104576111,0.32140278816223145,-0.6635415554046631,1.1631102561950684,0.6942222118377686
0.8631853257670298,2.0052040821590733,1.1084704815577713,-4.874810695648193,-1.8854396343231201,3.408018112182617,0.5896459817886353,-0.7599169611930847,0.27357611060142517,-0.7390448451042175,1.1263110637664795,0.602064847946167
0.9136051880234694,1.94782274110279,1.1588543637668471,-4.914050102233887,-1.7489650249481201,3.326101779937744,0.5679882764816284,-0.7917112708091736,0.22490565478801727,-0.7896068692207336,1.0774474143981934,0.5209134817123413
0.9613771362004382,1.882637961731633,1.219084275823982,-4.9944748878479,-1.5481363534927368,3.236598253250122,0.5447847843170166,-0.8199806213378906,0.17561644315719604,-0.8279116749763489,1.0550423860549927,0.47715461254119873
1.005902469832379,1.8081942274646696,1.2916866203281299,-5.134756565093994,-1.2255860567092896,3.123993158340454,0.5203120112419128,-0.8446454405784607,0.12589497864246368,-0.8643672466278076,1.040461540222168,0.4374443292617798
1.0459448029083358,1.7223341102298224,1.3795286289065545,-5.313466548919678,-0.9223197102546692,2.9387307167053223,0.49534228444099426,-0.8653983473777771,0.07564297318458557,-0.8943748474121094,1.0107994079589844,0.3976236581802368
1.0794087011601343,1.6223796737042793,1.4842079740753908,-5.448084354400635,-0.7860938310623169,2.6525726318359375,0.4712224304676056,-0.8816789388656616,0.024328812956809998,-0.9485630989074707,1.0025742053985596,0.33377981185913086
1.104089626993653,1.5090909358041307,1.6030573374330879,-5.42353630065918,-0.7690759897232056,2.3124072551727295,0.4490914046764374,-0.8930549621582031,-0.02774658426642418,-1.0198616981506348,1.0039710998535156,0.19737857580184937
1.1189744622662083,1.38887689639483,1.7288753826481833,-5.230790615081787,-0.6926327347755432,1.9853566884994507,0.429400235414505,-0.8996531367301941,-0.07898955047130585,-1.0394618511199951,0.9692791700363159,-0.0038198158144950867
1.1249956268933405,1.270656958630771,1.853306106378828,-4.9150543212890625,-0.5069968104362488,1.7591242790222168,0.41190460324287415,-0.902265727519989,-0.1274799257516861,-0.9866422414779663,0.9113752245903015,-0.19135241210460663
1.12446817037217,1.1620384930174041,1.969627959670969,-4.4942803382873535,-0.2203274369239807,1.6242420673370361,0.39609432220458984,-0.9020381569862366,-0.1715703159570694,-0.9244604110717773,0.8494868874549866,-0.3870081305503845
1.119939017945878,1.067052786828611,2.074222808033084,-4.018704891204834,0.07015126943588257,1.5587040185928345,0.3816107511520386,-0.9000738859176636,-0.21033364534378052,-0.8954199552536011,0.8190954923629761,-0.5738612413406372
1.1135871674069504,0.9860456502738485,2.1665869512329174,-3.555042266845703,0.32983478903770447,1.5421699285507202,0.3680992126464844,-0.8972880244255066,-0.2436741590499878,-0.9344139099121094,0.8157756328582764,-0.6960841417312622
1.106564395071431,0.9163412024913865,2.249136934233284,-3.2355916500091553,0.5145159363746643,1.570658564567566,0.3552248477935791,-0.8941656947135925,-0.2725491523742676,-1.0124666690826416,0.7996527552604675,-0.7586397528648376
1.0994216188036032,0.8554530851400229,2.3246900263950008,-2.951653242111206,0.7110748291015625,1.643349289894104,0.3427944779396057,-0.8909448385238647,-0.29784122109413147,-1.053182601928711,0.8005974292755127,-0.8267009258270264
1.093267185779212,0.7961465028373599,2.396437506446897,-2.7358036041259766,0.09828224033117294,1.8856972455978394,0.3284505009651184,-0.8881332278251648,-0.3214647173881531,-1.0789082050323486,0.7824661731719971,-0.9785993099212646
1.0887936345453304,0.7311531807315366,2.465974528917361,-2.3310909271240234,-0.7265096306800842,2.0787835121154785,0.30952852964401245,-0.8860683441162109,-0.3450722098350525,-1.1096842288970947,0.7186642289161682,-1.1618552207946777
1.0865376121527046,0.6662370540240282,2.5294253292841886,-1.822296142578125,-0.9783666729927063,2.1093194484710693,0.28772634267807007,-0.8850203156471252,-0.3659953773021698,-1.1694555282592773,0.5807142853736877,-1.3335895538330078
1.085468301193109,0.6049445601962512,2.585889944970394,-1.5071333646774292,-1.3148422241210938,1.9484468698501587,0.2653054893016815,-0.8845219612121582,-0.3837108612060547,-1.1663827896118164,0.3791813850402832,-1.3654956817626953
1.0823038729541112,0.5471877552941768,2.634078865534722,-1.5118430852890015,-1.6733691692352295,1.4193233251571655,0.2441685050725937,-0.8830413222312927,-0.40077391266822815,-1.1775944232940674,0.2937316298484802,-1.4388866424560547
1.0741123621185866,0.4997002937369218,2.6697532698174107,-1.581551194190979,-1.4204702377319336,0.6706907749176025,0.22832712531089783,-0.8791674971580505,-0.41824787855148315,-1.1935522556304932,0.3271503448486328,-1.414271593093872
1.0618368532286744,0.4704874462888471,2.6915579776495395,-1.5538458824157715,-0.5411568284034729,0.07028750330209732,0.22088909149169922,-0.8732519745826721,-0.43432578444480896,-1.0501432418823242,0.3642646074295044,-1.4079135656356812
1.047911715995271,0.45985396054347055,2.7035772112267904,-1.4610263109207153,0.5125135183334351,-0.23277965188026428,0.22163403034210205,-0.8663822412490845,-0.4475042223930359,-0.790176510810852,0.34494370222091675,-1.4643762111663818
1.0339681876329707,0.4642406813609445,2.7107107780274204,-1.3465057611465454,1.5890021324157715,-0.359895795583725,0.22898204624652863,-0.8593351244926453,-0.45728588104248047,-0.5095759630203247,0.31314677000045776,-1.521977424621582
1.0208587724698952,0.4814401659780275,2.714788285786643,-1.1673610210418701,2.514902114868164,-0.4587612450122833,0.24200886487960815,-0.8525571823120117,-0.4632256329059601,-0.29810017347335815,0.2997312545776367,-1.5303504467010498
1.0092243175366606,0.5087876073412119,2.716302493398941,-0.9568495750427246,3.152566432952881,-0.5166608095169067,0.2593992054462433,-0.8464190363883972,-0.46506646275520325,-0.1323392689228058,0.3016039729118347,-1.4716094732284546
0.9988263396081707,0.5420349889666505,2.7157860194569063,-0.817249596118927,3.3809261322021484,-0.6562697291374207,0.2792406380176544,-0.8408362865447998,-0.463701456785202,0.0695142149925232,0.2673041820526123,-1.3728768825531006
0.9880890695388284,0.579760861950222,2.7109604122870468,-0.6976001858711243,3.332223415374756,-0.965873658657074,0.30146002769470215,-0.8349759578704834,-0.4603661298751831,0.26491567492485046,0.1653745174407959,-1.196890950202942
0.9767106511963469,0.6214845638847345,2.7005372629219213,-0.5203632712364197,3.238953113555908,-1.2584246397018433,0.32591113448143005,-0.8286606669425964,-0.4550861716270447,0.45904675126075745,-0.0064375996589660645,-1.007789134979248
0.9650436551111937,0.6627581740341248,2.6872823312747243,-0.46433520317077637,2.777869701385498,-1.2973920106887817,0.35033637285232544,-0.822073757648468,-0.44884195923805237,0.6219383478164673,-0.10912430286407471,-0.784907341003418
0.9537113393099275,0.697056529858186,2.675937868804877,-0.4664851427078247,2.222395420074463,-1.1280509233474731,0.371478796005249,-0.815568745136261,-0.4436791241168976,0.698925256729126,-0.040495097637176514,-0.5903173685073853
0.9437195759721714,0.7242643868269077,2.6673821733279355,-0.3806144595146179,1.8303619623184204,-0.930826723575592,0.3887915313243866,-0.809746265411377,-0.43949073553085327,0.706667423248291,0.08405351638793945,-0.49385881423950195
0.935709074067488,0.7463922774038918,2.660158577760182,-0.21768321096897125,1.4030919075012207,-0.7732340097427368,0.40281203389167786,-0.8050199151039124,-0.43552884459495544,0.769719123840332,0.10744911432266235,-0.4464443027973175
0.9304658907572361,0.7640933389108632,2.652872095424129,0.06580708920955658,0.9763826727867126,-0.5617113709449768,0.4133724570274353,-0.8018983602523804,-0.4313723146915436,0.7905154228210449,0.10661643743515015,-0.44301727414131165
0.9292248010863663,0.7787043325021664,2.6447712110091173,0.4373633861541748,0.652612030506134,-0.30591893196105957,0.42032963037490845,-0.8011562824249268,-0.425994873046875,0.8025860786437988,0.16103476285934448,-0.4663085341453552
0.9324212911719431,0.7913993840558183,2.635115880630207,0.8223515748977661,0.332968533039093,-0.06040264666080475,0.4238797426223755,-0.8030651211738586,-0.41882243752479553,0.8126009106636047,0.18418395519256592,-0.4530341625213623
0.9395189910675512,0.8024833171291355,2.6238910215519,1.0881236791610718,0.10376784950494766,0.13230639696121216,0.42438632249832153,-0.807274341583252,-0.4101271629333496,0.7805086374282837,0.16211754083633423,-0.3924087584018707
0.948659626134619,0.81260143050069,2.6120962445811244,1.1468509435653687,0.027476543560624123,0.21561141312122345,0.423138827085495,-0.8126351237297058,-0.40072160959243774,0.6976497173309326,0.11414873600006104,-0.27748578786849976
0.9578223272065012,0.8226785557009525,2.6005003306380474,1.069024682044983,0.11533734202384949,0.18689922988414764,0.42167988419532776,-0.8179407119750977,-0.39135557413101196,0.5766721367835999,0.04915708303451538,-0.15963923931121826
0.9655201908349146,0.8335543472551371,2.589333299726808,0.8982202410697937,0.21781471371650696,0.07351833581924438,0.42123720049858093,-0.8223450183868408,-0.3825022280216217,0.4725768566131592,0.006152331829071045,-0.06116223335266113
0.9710109179476887,0.8441995205959313,2.579196911517322,0.6853792667388916,0.23810306191444397,-0.011714489199221134,0.4219038188457489,-0.8254567384719849,-0.374991238117218,0.4272630214691162,-0.011838793754577637,0.017676174640655518
0.9747132428539211,0.8532797157974713,2.5711869024052842,0.4825817048549652,0.2462984025478363,-0.02291441336274147,0.42298582196235657,-0.827540934085846,-0.3691328465938568,0.4133179187774658,0.00020939111709594727,0.049323976039886475
0.9775169686809191,0.8601104653872952,2.5655904530211764,0.3684670925140381,0.18158425390720367,0.050208818167448044,0.42373719811439514,-0.8291116952896118,-0.3647198975086212,0.43034300208091736,0.053125977516174316,0.051441729068756104
0.9805594561910602,0.8635594140454297,2.562720710623378,0.2667681574821472,-0.004461514763534069,0.21074336767196655,0.4230729639530182,-0.8308088779449463,-0.36161553859710693,0.47069528698921204,0.09278708696365356,0.05491390824317932
0.9845485088571942,0.8617601039105084,2.5633184616707516,0.22074313461780548,-0.20045898854732513,0.44296568632125854,0.41990283131599426,-0.83302241563797,-0.360215425491333,0.5057868361473083,0.11062562465667725,0.04885992407798767
0.9900073469807631,0.8575908193450591,2.566289841701513,0.24370437860488892,-0.1328226774930954,0.5716206431388855,0.4149520695209503,-0.8360300064086914,-0.3589824140071869,0.4484969675540924,0.12210190296173096,-0.033626168966293335
0.9961564233427126,0.8538751427174361,2.569669041258525,0.28244447708129883,-0.032163701951503754,0.5899043083190918,0.4097324013710022,-0.8393880724906921,-0.3571372330188751,0.3226741552352905,0.12520045042037964,-0.0635322630405426
1.0024389398735505,0.8517839700353281,2.5728086893844897,0.2805839776992798,0.15210573375225067,0.5714747309684753,0.4050086438655853,-0.8427862524986267,-0.3545129597187042,0.26942986249923706,0.07136285305023193,-0.07308405637741089
1.0082054104049236,0.8517896235707755,2.575851720192321,0.2312997579574585,0.3577599823474884,0.4993000626564026,0.40134692192077637,-0.8458760380744934,-0.3513038158416748,0.23705026507377625,0.04062390327453613,-0.03568953275680542
1.0129281050254233,0.8536652590310817,2.578664039803487,0.16635990142822266,0.48195382952690125,0.40949562191963196,0.39898982644081116,-0.8483855724334717,-0.3479210138320923,0.20527350902557373,0.01299738883972168,0.01135796308517456
1.016644451883138,0.8566352578097984,2.581336756579793,0.11522486805915833,0.5665930509567261,0.33257317543029785,0.3976362347602844,-0.8503470420837402,-0.34466707706451416,0.17623156309127808,-0.010736942291259766,0.034654319286346436
1.0195589903027285,0.8611014102501217,2.583526580444542,0.09570495784282684,0.6987420320510864,0.25585976243019104,0.3972899615764618,-0.8518771529197693,-0.34127140045166016,0.1575959324836731,0.009668290615081787,0.02861887216567993
1.0218816146235485,0.8678694642765272,2.584741496508805,0.1171724796295166,0.8543443083763123,0.18188044428825378,0.3980798125267029,-0.853091299533844,-0.33729463815689087,0.12941652536392212,0.026553213596343994,0.0032645463943481445
1.0239804843420817,0.8770274019182009,2.584650043414405,0.15500454604625702,0.9390290975570679,0.14254076778888702,0.399774432182312,-0.8541845083236694,-0.3324892520904541,0.1137600839138031,0.05233520269393921,-0.021636635065078735
1.0261969755758749,0.8864945044146324,2.5844930444088186,0.12772051990032196,0.9062257409095764,0.2029494047164917,0.40143629908561707,-0.8553349375724792,-0.32749220728874207,0.13477277755737305,0.09711039066314697,0.020424365997314453
1.0289249413143398,0.8931962623271283,2.586603098706987,0.04012276232242584,0.7782150506973267,0.36326053738594055,0.40180253982543945,-0.8567450046539307,-0.3233304023742676,0.19541114568710327,0.13599616289138794,0.08674296736717224
1.0324067174675555,0.8949185742469109,2.5926261409995597,-0.08895616978406906,0.5979673862457275,0.563764214515686,0.4000293016433716,-0.8585355281829834,-0.32076993584632874,0.23354613780975342,0.1593930721282959,0.12663239240646362
1.0365271552393274,0.890907737756151,2.6033775292077417,-0.2486821860074997,0.4564845561981201,0.7611039280891418,0.3959851562976837,-0.8606410026550293,-0.3201449513435364,0.241267591714859,0.1610713005065918,0.14762917160987854
1.0408743843219042,0.8817520305712081,2.6189440755709934,-0.4154461920261383,0.40601450204849243,0.8964396715164185,0.3901459574699402,-0.8628465533256531,-0.32137519121170044,0.22083118557929993,0.1521683931350708,0.14235913753509521
1.0449231158004146,0.8693893435320746,2.6381280308589568,-0.5380709171295166,0.44651293754577637,0.9475070834159851,0.3834712505340576,-0.8648859262466431,-0.32391679286956787,0.1615268886089325,0.13830816745758057,0.10367143154144287
1.0483559253943944,0.8561984095145903,2.659143012049021,-0.5986721515655518,0.5529221892356873,0.9318463802337646,0.3769203722476959,-0.8666040301322937,-0.3269992470741272,0.09425577521324158,0.1303521990776062,0.05118143558502197
1.051177565430044,0.8436930094547264,2.6804449108375623,-0.6162117123603821,0.6344018578529358,0.8846074938774109,0.37097325921058655,-0.868008553981781,-0.33006027340888977,0.05253437161445618,0.12791162729263306,0.010388702154159546
1.0534630585882159,0.8322365957461116,2.7012354262872114,-0.6023531556129456,0.6793261170387268,0.8335104584693909,0.3656999468803406,-0.869141161441803,-0.33295223116874695,0.024131566286087036,0.11332756280899048,-0.002496868371963501
1.0554824588158653,0.8218110491907443,2.721270931744424,-0.5710879564285278,0.7119056582450867,0.8021418452262878,0.36092278361320496,-0.8701381087303162,-0.3355509340763092,0.011590003967285156,0.09940141439437866,-0.0007832646369934082
1.0576287299898182,0.8124268979552515,2.740197365006951,-0.4857355058193207,0.6858251094818115,0.7814681529998779,0.3564015030860901,-0.8711937665939331,-0.33763793110847473,0.006971299648284912,0.0999993085861206,-0.00048154592514038086
1.060170990607073,0.8035257341073102,2.7575913873829165,-0.3937336504459381,0.5543329119682312,0.7607288360595703,0.351786732673645,-0.8724390864372253,-0.3392584025859833,-0.0008345842361450195,0.10248053073883057,-0.0007989406585693359
1.063111566491703,0.7945000190986202,2.7735813545934267,-0.3155553340911865,0.4402022361755371,0.743154764175415,0.3468782901763916,-0.8738723993301392,-0.34062057733535767,-0.01261928677558899,0.09668129682540894,0.010405212640762329
1.0662584003324527,0.7857253576681711,2.7885087714103225,-0.26895132660865784,0.4200977683067322,0.7169045209884644,0.34192919731140137,-0.8753979206085205,-0.3417055010795593,-0.024607449769973755,0.07875192165374756,0.02087429165840149
1.069434765715385,0.7778044385904257,2.8025682867080053,-0.23131076991558075,0.46027132868766785,0.6903166770935059,0.3372592329978943,-0.876928985118866,-0.34242063760757446,-0.03383821249008179,0.05731832981109619,0.02673161029815674
1.0726364924835015,0.7708430022950359,2.815907270415974,-0.20666001737117767,0.4775696098804474,0.66856449842453,0.33290937542915344,-0.8784632682800293,-0.3427443206310272,-0.021965771913528442,0.03671222925186157,0.03616476058959961
1.0756967577184149,0.764051475643815,2.828916100750153,-0.2172512412071228,0.4509471356868744,0.6462023854255676,0.3287123441696167,-0.8799214363098145,-0.34305450320243835,-0.008933931589126587,0.027168750762939453,0.05757787823677063
1.078347804236516,0.7570649015108892,2.842079571074804,-0.26158592104911804,0.4776882231235504,0.614637553691864,0.3247044086456299,-0.8811779022216797,-0.34364601969718933,-0.01661422848701477,0.029813766479492188,0.0737791657447815
1.0801518295075279,0.7504367847015578,2.855620005351849,-0.3519952893257141,0.588587760925293,0.5605441927909851,0.32133498787879944,-0.8820293545722961,-0.3446274399757385,-0.041946589946746826,0.017664730548858643,0.0807725191116333
1.080808354952225,0.744434530486774,2.8698228139407793,-0.455258846282959,0.7080150842666626,0.5115026235580444,0.3188682198524475,-0.8823385238647461,-0.34612396359443665,-0.052159905433654785,-0.0011301040649414062,0.10976538062095642
1.080420412245782,0.7384624991789588,2.884921214424242,-0.5539856553077698,0.7465147972106934,0.48416629433631897,0.31702589988708496,-0.8821558952331543,-0.34827521443367004,-0.039346516132354736,-0.015778064727783203,0.12363538146018982
1.0791727889982166,0.7316443797901535,2.901024820114188,-0.6404534578323364,0.7214562892913818,0.47303107380867004,0.31537917256355286,-0.8815675973892212,-0.3512474298477173,-0.02505013346672058,-0.02407217025756836,0.12814870476722717
1.0771641258443854,0.7237621235245821,2.9179784960039243,-0.7184723615646362,0.6850208640098572,0.44940871000289917,0.3137725591659546,-0.880617618560791,-0.3550483286380768,-0.01968991756439209,-0.023908138275146484,0.12917256355285645
1.0742535539655669,0.7154000383033978,2.935114350323006,-0.7838601469993591,0.6583439707756042,0.3814738690853119,0.31247246265411377,-0.879234790802002,-0.3595927655696869,-0.033618152141571045,-0.03191322088241577,0.12222710251808167
1.070204803364584,0.7075709201053401,2.951577063249804,-0.8550589680671692,0.663934588432312,0.2777591049671173,0.3119589686393738,-0.8772988319396973,-0.36473044753074646,-0.06569743156433105,-0.038838863372802734,0.11206018924713135
1.0647167787362175,0.7007703939833543,2.96714453788319,-0.9482075572013855,0.7020063400268555,0.15468300879001617,0.31257134675979614,-0.8746516704559326,-0.3705180883407593,-0.09296688437461853,-0.03132367134094238,0.11067622900009155
1.057682008437751,0.6954869786699409,2.981664831903674,-1.0277702808380127,0.7746971249580383,0.025893226265907288,0.3145442306995392,-0.8712199330329895,-0.3768789768218994,-0.10148578882217407,-0.03518271446228027,0.10052710771560669
1.0494607774943727,0.6921668619007241,2.9946951714134102,-1.039551854133606,0.8165209889411926,-0.07925982773303986,0.3178516626358032,-0.8671547770500183,-0.38342246413230896,-0.0852620005607605,-0.053591012954711914,0.057662636041641235
1.0409983762819166,0.6909077991636267,3.0058236826155684,-0.9568352103233337,0.8462066650390625,-0.13457004725933075,0.3220334053039551,-0.862909197807312,-0.3894638419151306,-0.06440404057502747,-0.05032926797866821,-0.01953265070915222
1.033188337479081,0.6917217406927322,3.0147309934023574,-0.8134791254997253,0.8310428857803345,-0.15523910522460938,0.32663917541503906,-0.858936071395874,-0.39437994360923767,-0.05713847279548645,-0.0214349627494812,-0.06484848260879517
1.026498643902275,0.6933495601150415,3.0218011386027235,-0.6821320652961731,0.687279999256134,-0.12828181684017181,0.3309459090232849,-0.8554911613464355,-0.39825835824012756,-0.024015367031097412,0.0077585577964782715,-0.04787808656692505
1.0209625051648707,0.693615298048383,3.028256189652926,-0.5944740772247314,0.4620719254016876,-0.056339461356401443,0.3340744078159332,-0.8526113629341125,-0.40180590748786926,0.029939204454421997,0.0186728835105896,0.004207730293273926
1.016583692376683,0.6914622581889323,3.0348077361776267,-0.5148190855979919,0.21930870413780212,0.025073550641536713,0.3355861008167267,-0.8503150939941406,-0.405396431684494,0.06691017746925354,0.021549224853515625,0.034668952226638794
1.013243835088079,0.6868581632782972,3.041462081220649,-0.44865891337394714,-0.008931389078497887,0.0880194902420044,0.33551502227783203,-0.8485526442527771,-0.40913084149360657,0.07190990447998047,0.0275534987449646,0.04281318187713623
1.0105409418938305,0.6802919627281201,3.0482142933176326,-0.42549002170562744,-0.13957692682743073,0.12427262216806412,0.3342628479003906,-0.8471194505691528,-0.4131065607070923,0.0546378493309021,0.019955754280090332,0.04904714226722717
1.0079439743083642,0.6728176389707398,3.0552953876618663,-0.45112162828445435,-0.13840672373771667,0.13559503853321075,0.33253565430641174,-0.845736563205719,-0.4173124134540558,0.03048613667488098,-0.004330575466156006,0.05390921235084534
1.0049963635086727,0.6656103333446284,3.062800693246463,-0.5096437931060791,-0.02840539440512657,0.1282218098640442,0.33105742931365967,-0.8441600203514099,-0.4216572642326355,0.005093634128570557,-0.017870008945465088,0.051509588956832886
1.0014438865419566,0.6591630142734445,3.070940205704821,-0.5841236114501953,0.10980413854122162,0.12898507714271545,0.3301665782928467,-0.8422502279281616,-0.4261507987976074,-0.0030334293842315674,-0.025944292545318604,0.04741242527961731
0.9973781912628471,0.6534278786215706,3.0799523216543103,-0.6458273530006409,0.25719889998435974,0.1538056880235672,0.3297960162162781,-0.840051531791687,-0.43075263500213623,0.010062932968139648,-0.029317855834960938,0.035733163356781006
0.9931915457168307,0.6481894653581942,3.089999687519864,-0.6714751720428467,0.3677901327610016,0.21148709952831268,0.32965558767318726,-0.8377729058265686,-0.43527424335479736,0.027949362993240356,-0.020121991634368896,0.016985148191452026
0.9892541826112475,0.6430601778912028,3.10083790089287,-0.6605194211006165,0.40282177925109863,0.2608269155025482,0.3293941020965576,-0.8356165289878845,-0.4395958185195923,0.03884619474411011,-0.0032506585121154785,0.0018211603164672852
0.9858412140923456,0.6375827745256345,3.111940019711404,-0.608780026435852,0.3445480763912201,0.3123215436935425,0.32867711782455444,-0.8337368965148926,-0.44368258118629456,0.04989343881607056,0.002041339874267578,-0.005719244480133057
0.9832798924482484,0.6311528556256372,3.1231213734459105,-0.531296968460083,0.22385162115097046,0.37620115280151367,0.3270764648914337,-0.8323198556900024,-0.4475092887878418,0.0735887885093689,-0.009110808372497559,-0.01422157883644104
0.9817295354820799,0.6235385942792973,3.1342832308249124,-0.44352129101753235,0.1147480383515358,0.43919795751571655,0.32441261410713196,-0.8314595222473145,-0.45103374123573303,0.08092179894447327,-0.011222362518310547,-0.030869275331497192
0.9811687897119507,0.6152726620445556,-3.137772479638871,-0.3651725649833679,0.09402135759592056,0.5031039118766785,0.3209424614906311,-0.8311478495597839,-0.45408058166503906,0.06499806046485901,0.007615804672241211,-0.05089375376701355
0.9815903829917506,0.6070290855673353,-3.1264682729774624,-0.2822616994380951,0.1365155577659607,0.5707423090934753,0.316988468170166,-0.8313822150230408,-0.4564230442047119,0.06356567144393921,0.012870252132415771,-0.06968474388122559
0.982992026233044,0.5991684848779519,-3.1150773748552356,-0.20277270674705505,0.18560929596424103,0.6203926801681519,0.3127334713935852,-0.8321602940559387,-0.45793789625167847,0.06275478005409241,0.008933305740356445,-0.08611416816711426
0.9851827095010315,0.5921475944756946,-3.103984076401303,-0.12761031091213226,0.2638196647167206,0.6334139704704285,0.30849242210388184,-0.8333730697631836,-0.4586085379123688,0.03980463743209839,0.011275291442871094,-0.09597212076187134
0.9879296594953194,0.5866936293793862,-3.0936345343850236,-0.05363583564758301,0.3683764934539795,0.6169438362121582,0.30471810698509216,-0.834888219833374,-0.4583760201931,0.01130664348602295,0.013843238353729248,-0.10485637187957764
0.9910173281566625,0.5830026370849579,-3.0842390592701716,-0.0053085144609212875,0.45349085330963135,0.5799618363380432,0.3016034960746765,-0.8365837335586548,-0.45734333992004395,-0.007505625486373901,0.014089226722717285,-0.09081336855888367
0.9940693553590979,0.5808545520992853,-3.0758213815443343,0.0033634770661592484,0.522297739982605,0.518633246421814,0.29921793937683105,-0.8382518887519836,-0.45585355162620544,-0.01857835054397583,0.017206966876983643,-0.05479702353477478
0.996568574644043,0.5798334112137552,-3.068107220544413,-0.049135949462652206,0.5614019632339478,0.46456873416900635,0.297603577375412,-0.8396120071411133,-0.45440492033958435,-0.026454925537109375,0.01742267608642578,-0.013902544975280762
0.9983343209617306,0.5786945950077361,-3.0600252287235272,-0.13282829523086548,0.5522703528404236,0.46843788027763367,0.2962745726108551,-0.8405698537826538,-0.4535016417503357,-0.01755756139755249,0.012261748313903809,0.03238958120346069
0.9994439791168681,0.575989372243089,-3.0510669174446843,-0.20410273969173431,0.39438772201538086,0.46125614643096924,0.29453837871551514,-0.8411704301834106,-0.4535188376903534,-0.027494370937347412,0.022002339363098145,0.05259424448013306
1.0001441563282434,0.5708251114246069,-3.0414955050851695,-0.23083390295505524,0.1733117699623108,0.4878845810890198,0.29187411069869995,-0.8415488600730896,-0.4545382261276245,-0.05363866686820984,0.041286349296569824,0.05373567342758179
1.0009065004219275,0.562525761334961,-3.031245602421336,-0.2294655740261078,-0.11767666786909103,0.5185266733169556,0.2877495288848877,-0.8419604301452637,-0.45640212297439575,-0.03486564755439758,0.03374814987182617,0.03702962398529053
1.0017206996464783,0.5515356380478807,-3.0214285680998665,-0.18635673820972443,-0.4189080595970154,0.45411792397499084,0.28235700726509094,-0.8423994183540344,-0.4589528441429138,-0.06650620698928833,0.019492924213409424,0.01740926504135132
1.0024557223669024,0.5397014551182915,-3.013567066874544,-0.1232006773352623,-0.5995377898216248,0.336767315864563,0.2765877842903137,-0.8427952527999878,-0.46173083782196045,-0.10715422034263611,0.028143763542175293,-0.01959240436553955
1.003023652001793,0.529181993532917,-3.0085885638765104,-0.05157528445124626,-0.6494040489196777,0.1763915866613388,0.2714737057685852,-0.8431008458137512,-0.4642014503479004,-0.1417892575263977,0.051383256912231445,-0.054459989070892334
1.0032541001430952,0.5213365061171098,-3.006902674316634,-0.0035241348668932915,-0.6129307150840759,0.01075681857764721,0.26772674918174744,-0.8432247042655945,-0.4661485552787781,-0.16862094402313232,0.07363241910934448,-0.06461316347122192
1.0026562307281683,0.5158492197005757,-3.006982497969942,-0.12683045864105225,-0.5107055306434631,-0.0771699771285057,0.2654134929180145,-0.842903196811676,-0.4680491089820862,-0.13063263893127441,0.08220672607421875,-0.020048975944519043
1.0001625712824502,0.5094607084273872,-3.0063770059748576,-0.3296964764595032,-0.6565476655960083,-0.08888895064592361,0.2634422183036804,-0.8415588140487671,-0.4715685546398163,-0.07871934771537781,0.07854306697845459,0.10105469822883606
0.9965548351563668,0.5007062428880514,-3.003610063987662,-0.43179985880851746,-0.6048468351364136,0.00397690013051033,0.2607596516609192,-0.8396045565605164,-0.4765171408653259,0.01206749677658081,0.07510864734649658,0.0381016731262207
0.9926083741229496,0.4915959180417004,-2.9994141914369066,-0.46944043040275574,-0.5178964734077454,0.012394619174301624,0.25796976685523987,-0.8374543190002441,-0.4817903935909271,0.0015059113502502441,0.09384775161743164,-0.012045025825500488
0.9886313463997182,0.4836981389929866,-2.9956558369965185,-0.4086407423019409,-0.42596590518951416,-0.020447440445423126,0.25570353865623474,-0.8352742195129395,-0.4867572784423828,-0.021282821893692017,0.08048295974731445,-0.049909502267837524
0.9854267081907677,0.47815066155166464,-2.993317252140469,-0.2701859176158905,-0.29250288009643555,-0.049625031650066376,0.25422966480255127,-0.8335079550743103,-0.4905422627925873,0.004315197467803955,0.022243916988372803,-0.12026694416999817
0.9832430603998821,0.47559624514904436,-2.9927291951673087,-0.1554354727268219,-0.09994184970855713,-0.09348833560943604,0.25380855798721313,-0.8322994709014893,-0.492807000875473,0.01634824275970459,-0.012259244918823242,-0.1576445996761322
0.9813272304480446,0.4763830104510541,-2.992957929737908,-0.1976417899131775,0.22555235028266907,-0.09477303922176361,0.25492703914642334,-0.831235945224762,-0.4940234422683716,0.03675997257232666,-0.04942512512207031,-0.11828118562698364
0.9783459808697721,0.47911378660800225,-2.991443489949763,-0.41837626695632935,0.5698055624961853,-0.018382202833890915,0.25741639733314514,-0.8295748829841614,-0.4955223500728607,0.06109553575515747,-0.0664212703704834,-0.014624714851379395
0.9735769648167736,0.4822177006531837,-2.9862988684540244,-0.7009443044662476,0.8904184699058533,0.0961904525756836,0.26078495383262634,-0.8269025087356567,-0.49822038412094116,0.07445064187049866,-0.05908393859863281,0.06133073568344116
0.9667604687472845,0.4847403136055468,-2.9770374464842715,-0.9801762104034424,1.1211788654327393,0.19489280879497528,0.2646612823009491,-0.8230500817298889,-0.5025364756584167,0.08403250575065613,-0.060723721981048584,0.1192205548286438
0.9580939792819779,0.4857934704110069,-2.9640664904613647,-1.2340095043182373,1.205045223236084,0.31832635402679443,0.2685108482837677,-0.818096935749054,-0.5085462331771851,0.07740586996078491,-0.10045164823532104,0.14315927028656006
0.9482753028164154,0.48369172246830905,-2.9463957590835372,-1.4463539123535156,1.2233332395553589,0.5960926413536072,0.27116402983665466,-0.8124110698699951,-0.5161958932876587,0.16444382071495056,-0.06617474555969238,0.15570712089538574
0.9379352404149621,0.47639734034413467,-2.92298233446776,-1.6353232860565186,1.084488868713379,0.8690842390060425,0.27122947573661804,-0.8063386082649231,-0.5255975127220154,0.25464940071105957,-0.0687834620475769,0.13100522756576538
0.9273350129391216,0.46467216219412855,-2.8959360265788465,-1.685699224472046,0.9100112915039062,1.0261317491531372,0.26886361837387085,-0.8000238537788391,-0.5363527536392212,0.16712570190429688,-0.11690729856491089,0.08721029758453369
0.917069332334636,0.4506609435082502,-2.8678257003447776,-1.6335179805755615,0.7681124806404114,1.0950136184692383,0.264885812997818,-0.7938227653503418,-0.547431230545044,0.10680299997329712,-0.10891777276992798,-0.01519078016281128
0.9075284906755975,0.4363557714992469,-2.840678637373127,-1.4963140487670898,0.6618425250053406,1.0719000101089478,0.2602171301841736,-0.7879844307899475,-0.5580032467842102,0.04981091618537903,-0.08234637975692749,-0.08887779712677002
0.8990010761727674,0.42292854967626936,-2.8158345680504557,-1.3224908113479614,0.5527306795120239,1.0055112838745117,0.2554500997066498,-0.7827056050300598,-0.567553699016571,0.002820134162902832,-0.06783461570739746,-0.13525080680847168
0.8916373022695868,0.41052169760505347,-2.7935493797811604,-1.1425293684005737,0.44513967633247375,0.941814661026001,0.250682532787323,-0.7781012654304504,-0.5759485960006714,0.00017189979553222656,-0.052251577377319336,-0.1548253297805786
0.8854830408045913,0.3989952192263925,-2.773650391165061,-0.9670696258544922,0.3375389277935028,0.8765578866004944,0.24588309228420258,-0.7742208242416382,-0.5832012891769409,0.015621989965438843,-0.04020184278488159,-0.15692627429962158
0.8805824404480314,0.3883380142615902,-2.75605742775628,-0.7909919023513794,0.2501910924911499,0.8097653388977051,0.24108773469924927,-0.7711098790168762,-0.5892931222915649,0.027649998664855957,-0.022621870040893555,-0.15188723802566528
0.8768695797587834,0.37810267030947964,-2.7401822807420206,-0.6583110690116882,0.1360996663570404,0.7969480752944946,0.23609885573387146,-0.7687405347824097,-0.5943864583969116,0.04373204708099365,-0.001736760139465332,-0.1303144097328186
0.8740187583171869,0.3670167437683229,-2.7247809052740877,-0.5903435349464417,0.01925928145647049,0.83014315366745,0.23028060793876648,-0.7669141888618469,-0.5990104079246521,0.05573010444641113,0.021064579486846924,-0.10338211059570312
0.8716586032724314,0.3551386393993616,-2.7092643403094043,-0.5500003695487976,-0.009153185412287712,0.8628382682800293,0.22377818822860718,-0.7653973698616028,-0.6033987998962402,0.055976420640945435,0.03979617357254028,-0.08710712194442749
0.869645429402429,0.3432300415381731,-2.693756645397902,-0.5028172135353088,0.0033749276772141457,0.8711864352226257,0.21709498763084412,-0.7641002535820007,-0.6074706315994263,0.046744704246520996,0.04672354459762573,-0.09316712617874146
0.8680814170018966,0.33187703506042937,-2.6785745078710903,-0.43469035625457764,0.04484780132770538,0.8725990056991577,0.21057364344596863,-0.7630903720855713,-0.6110252141952515,0.04145573079586029,0.04946732521057129,-0.10862499475479126
0.8672126635978946,0.32101067221184265,-2.663583723777213,-0.35092276334762573,0.0624522939324379,0.9070157408714294,0.20413079857826233,-0.7625285983085632,-0.6139060854911804,0.05728274583816528,0.06028860807418823,-0.1188514232635498
0.8671778690911611,0.3098129553684466,-2.6480172224675225,-0.28053486347198486,0.0761507973074913,1.0059237480163574,0.19725190103054047,-0.7625061273574829,-0.6161786317825317,0.08509667217731476,0.06754457950592041,-0.12230092287063599
0.8680081104470279,0.29792818234772256,-2.631142109209182,-0.21013128757476807,0.12370799481868744,1.118172526359558,0.18972909450531006,-0.7630429863929749,-0.6178739666938782,0.10594043135643005,0.06643342971801758,-0.12973034381866455
0.8697389948675629,0.28575580145024126,-2.6131518819875676,-0.1216253936290741,0.18664860725402832,1.1929268836975098,0.18182164430618286,-0.7641606330871582,-0.618869423866272,0.09472860395908356,0.07304435968399048,-0.13352614641189575
0.8723622914691771,0.27382466428504804,-2.5946881847747885,-0.0319339781999588,0.2472383677959442,1.2263177633285522,0.17388242483139038,-0.7658500671386719,-0.6190627217292786,0.06976990401744843,0.08150851726531982,-0.12500160932540894
0.8755691975526675,0.2622531817330106,-2.576140558701631,0.012699269689619541,0.2807004451751709,1.2292776107788086,0.16606983542442322,-0.7679082155227661,-0.6186579465866089,0.051398396492004395,0.08278858661651611,-0.10283857583999634
0.8786700351383046,0.25117529527915694,-2.557640274802347,-0.021456509828567505,0.35740989446640015,1.2028087377548218,0.15861378610134125,-0.7698907852172852,-0.6181502342224121,0.028596267104148865,0.07369327545166016,-0.06840366125106812
0.8809987705011643,0.24160381713746892,-2.5396247450837333,-0.08889466524124146,0.5048768520355225,1.1226481199264526,0.15226063132286072,-0.7713748812675476,-0.617897629737854,-0.0161370187997818,0.05434912443161011,-0.04613429307937622
0.882316604356361,0.23447773228364704,-2.522977646695782,-0.1484307199716568,0.6277580857276917,0.9863120317459106,0.14761731028556824,-0.7722128629684448,-0.6179777383804321,-0.05496600270271301,0.03884488344192505,-0.039721786975860596
0.882841279005749,0.22965916941558825,-2.5081608723376236,-0.1744527369737625,0.6827585101127625,0.874809980392456,0.1445455700159073,-0.772546112537384,-0.618287205696106,-0.05839450657367706,0.03594332933425903,-0.027754604816436768
0.8830422653400425,0.22580937645812488,-2.49439967190803,-0.17623575031757355,0.6590614318847656,0.8385936617851257,0.14212946593761444,-0.7726736664772034,-0.6186877489089966,-0.027642831206321716,0.038390278816223145,-0.014979183673858643
0.8831210858653458,0.2217552697030012,-2.4807484709192864,-0.19429226219654083,0.6529266238212585,0.8524444699287415,0.13960668444633484,-0.7727237343788147,-0.6191994547843933,-0.00659586489200592,0.0439181923866272,-0.003008127212524414
0.8830497694959755,0.21828161803542823,-2.466903848459724,-0.19637373089790344,0.8040058016777039,0.8486782312393188,0.1374668926000595,-0.7726784348487854,-0.6197344064712524,-0.03212025761604309,0.061924099922180176,-0.015366852283477783
0.8830327442991633,0.2170889108170048,-2.4536070749584034,-0.168892040848732,0.9971362948417664,0.7848265171051025,0.13673047721385956,-0.772667646408081,-0.6199108958244324,-0.07271990180015564,0.06389689445495605,-0.04227477312088013
0.883182273291957,0.21838458635483457,-2.441725279344988,-0.12834222614765167,1.0732470750808716,0.6908730268478394,0.13750852644443512,-0.7727625370025635,-0.6196203827857971,-0.0773431658744812,0.03382515907287598,-0.04190915822982788
0.8832970268206849,0.22081453681239308,-2.4311852034172663,-0.1479007452726364,1.0252773761749268,0.6193186640739441,0.13899433612823486,-0.772835373878479,-0.6191978454589844,-0.05563564598560333,0.01540440320968628,-0.00534433126449585
0.882924949806164,0.22331275157597266,-2.42145458569184,-0.19240373373031616,0.9798111915588379,0.570121705532074,0.14060446619987488,-0.7725992202758789,-0.6191290616989136,-0.054590702056884766,0.015549659729003906,0.034885287284851074
0.882226023131019,0.2260679311698027,-2.4124214364750682,-0.19455422461032867,0.9574313163757324,0.5138224959373474,0.14243076741695404,-0.7721552848815918,-0.6192654967308044,-0.08257058262825012,0.014083325862884521,0.04114055633544922
0.8814447777207987,0.22906699843960815,-2.4043487356185005,-0.18660816550254822,0.8727740049362183,0.44827035069465637,0.14442425966262817,-0.7716585993766785,-0.6194227933883667,-0.10597215592861176,0.010672271251678467,0.042884767055511475
0.8804938346377555,0.23165974671985132,-2.39733245247708,-0.20676855742931366,0.7230463027954102,0.3787091076374054,0.14619819819927216,-0.7710534334182739,-0.6197602152824402,-0.10626599192619324,-0.00711435079574585,0.07183241844177246
0.8789887897478407,0.23350201086525085,-2.391194072343263,-0.2657875418663025,0.589688241481781,0.30979254841804504,0.14760807156562805,-0.7700942158699036,-0.6206181645393372,-0.09850534796714783,-0.02670454978942871,0.11131030321121216
0.876653218296714,0.2348707848396815,-2.3859300527545324,-0.3416402339935303,0.4903208911418915,0.2365628033876419,0.14887554943561554,-0.7686021327972412,-0.622162938117981,-0.09839953482151031,-0.019560039043426514,0.14119070768356323
0.8733774361867188,0.23593592836096067,-2.3813827584871126,-0.42943811416625977,0.428855299949646,0.18561047315597534,0.1501259058713913,-0.7665024399757385,-0.6244487166404724,-0.10730980336666107,0.008644163608551025,0.1563549041748047
0.8691841674405953,0.23700070489168568,-2.3769444396390957,-0.51585453748703,0.4716016948223114,0.1809091866016388,0.15154403448104858,-0.7638025879859924,-0.6274073123931885,-0.11240528523921967,0.04004776477813721,0.15732985734939575
0.8642516656774676,0.23827682613675263,-2.3720218622044227,-0.5854710340499878,0.5228945016860962,0.2037946581840515,0.1532319337129593,-0.7606096267700195,-0.6308667659759521,-0.10058915615081787,0.05832386016845703,0.13823682069778442
0.8588015749536532,0.2393844347277547,-2.366554852337988,-0.6314811110496521,0.5134903788566589,0.22869814932346344,0.15491120517253876,-0.7570601105690002,-0.6347145438194275,-0.09053441882133484,0.059794485569000244,0.11194843053817749
