attitudeX,attitudeY,attitudeZ,gyroX,gyroY,gyroZ,gravityX,gravityY,gravityZ,accX,accY,accZ
0.4201313130729524,0.3812486287752696,-2.7346824501187728,0.10793450474739075,0.1575031876564026,-1.3649568557739258,0.3397219777107239,-0.40788033604621887,-0.8474801778793335,-0.20512419939041138,-0.11895990371704102,-0.1280752420425415
0.4151565473955105,0.3883614209030981,-2.7495079181043853,-0.022588619962334633,0.04636841267347336,-1.5107802152633667,0.34650537371635437,-0.4033331871032715,-0.8469098806381226,-0.24120450019836426,-0.1525445580482483,-0.11268484592437744
0.40827298897109365,0.3937519792559456,-2.765101319895481,-0.1512918323278427,-0.22817443311214447,-1.6454631090164185,0.3521224558353424,-0.39702486991882324,-0.8475736379623413,-0.2544052004814148,-0.17124301195144653,-0.08925497531890869
0.40013477506679823,0.39654871086629134,-2.781631295889193,-0.16053485870361328,-0.4992450773715973,-1.7780917882919312,0.3557277321815491,-0.38954246044158936,-0.8495377898216248,-0.2524104714393616,-0.21433940529823303,-0.14731889963150024
0.39194241164274807,0.3975727657294914,-2.799866387288554,-0.03910943493247032,-0.7079919576644897,-1.9531601667404175,0.35782113671302795,-0.38198426365852356,-0.8520869016647339,-0.26251477003097534,-0.2681622803211212,-0.2612706422805786
0.38442487234371464,0.39723176356062323,-2.8208350787099907,0.16773270070552826,-0.9370903968811035,-2.211393356323242,0.3586313724517822,-0.37502604722976685,-0.8548327684402466,-0.2861826419830322,-0.35319972038269043,-0.3848828077316284
0.37816603163671614,0.39609847870279774,-2.8459136821593654,0.4812569320201874,-1.1480358839035034,-2.561685562133789,0.3585609793663025,-0.3692167103290558,-0.857387363910675,-0.296564519405365,-0.3810274600982666,-0.46344393491744995
0.3734260903641795,0.3939843774647946,-2.8758940205734853,0.7703465819358826,-1.5218350887298584,-2.921414852142334,0.3574153482913971,-0.3648075461387634,-0.8597497940063477,-0.293221652507782,-0.31399497389793396,-0.47543996572494507
0.36971513281914803,0.38613306799998637,-2.909483163308223,0.8967698812484741,-2.552678108215332,-3.098090171813965,0.3511616587638855,-0.36134982109069824,-0.8637776374816895,-0.196178138256073,-0.18065768480300903,-0.41675519943237305
0.36686052841725125,0.366477185272723,-2.9438631760182576,0.922726035118103,-3.804504871368408,-3.037318706512451,0.33448487520217896,-0.358686625957489,-0.871472179889679,-0.023587048053741455,-0.13491997122764587,-0.36371153593063354
0.3650358713462096,0.3354615882780263,-2.977523381479657,0.8746840953826904,-4.731263637542725,-2.9908266067504883,0.3075140714645386,-0.3569827973842621,-0.8820421695709229,0.028408169746398926,-0.2334866225719452,-0.37949347496032715
0.36402868323696963,0.29833614865090347,-3.0109736762986845,0.917378306388855,-4.922563076019287,-2.970183849334717,0.27466902136802673,-0.3560417890548706,-0.8931915760040283,-0.02843797206878662,-0.3036719858646393,-0.4086883068084717
0.36595778993317457,0.25576919089623595,-3.043936368468669,1.120619297027588,-6.2359938621521,-2.858206033706665,0.2362370491027832,-0.357843816280365,-0.9034045934677124,-0.0969090610742569,-0.17795336246490479,-0.4127575159072876
0.36980941610430323,0.19699964681050128,-3.0768419329911114,0.9467862248420715,-7.693912029266357,-2.939580202102661,0.18249595165252686,-0.36143773794174194,-0.9143620729446411,-0.19194114208221436,-0.04026520252227783,-0.018209338188171387
0.3710415544388425,0.12678622309616916,-3.109741380068164,0.20241396129131317,-8.658811569213867,-3.0474915504455566,0.11784213781356812,-0.3625863194465637,-0.9244697690010071,0.08595424145460129,-0.07100749015808105,0.017411112785339355
0.36496717356910036,0.05217695604482552,3.1405021107660445,-0.9517239332199097,-8.198877334594727,-3.17185640335083,0.04871823266148567,-0.3569186329841614,-0.9328641891479492,0.32915040850639343,-0.1290890872478485,-0.025372445583343506
0.3508005068768179,-0.002150515023274629,3.1065800746371885,-1.5298938751220703,-4.658209323883057,-3.179014205932617,-0.0020195425022393465,-0.343649685382843,-0.9390957355499268,0.3935753405094147,-0.19544336199760437,-0.27335232496261597
0.33917710801980844,-0.018694894395843348,3.0752783665345507,-0.7000879645347595,-1.0065603256225586,-2.5922415256500244,-0.01762879639863968,-0.33271118998527527,-0.9428640007972717,0.5196276903152466,-0.19684511423110962,-0.8987345099449158
0.34006944648732057,-0.010011572882656495,3.051634859547098,0.8186564445495605,0.9767141342163086,-1.875707745552063,-0.00943806767463684,-0.3335525691509247,-0.9426842331886292,0.5362020134925842,-0.09535679221153259,-1.205325961112976
0.353962317316077,0.005604343962631221,3.033485909392028,1.844214677810669,0.4850025177001953,-1.628388524055481,0.005256884731352329,-0.346617192029953,-0.9379919767379761,0.28881052136421204,0.20646518468856812,-1.323848843574524
0.3754163972996364,0.005320173999377951,3.014152206219372,2.454523801803589,-1.9102290868759155,-1.9771329164505005,0.004949627444148064,-0.3666599690914154,-0.9303418397903442,0.08168980479240417,0.6248080730438232,-1.2808701992034912
0.40385455866080555,-0.012434169164737548,2.991066322993459,3.2211925983428955,-3.1304800510406494,-2.260741710662842,-0.011433584615588188,-0.39296573400497437,-0.9194820523262024,0.28816699981689453,0.7187560796737671,-1.3047306537628174
0.44155572893403594,-0.03450956655445918,2.9667646780778716,4.21012020111084,-3.2529029846191406,-2.3109123706817627,-0.031193489208817482,-0.42734649777412415,-0.9035496115684509,0.6573684215545654,0.8213131427764893,-1.4529414176940918
0.4901944150248343,-0.05913216437068663,2.9436045714251695,5.296027660369873,-3.807799816131592,-2.280616044998169,-0.052138444036245346,-0.47079741954803467,-0.8806993961334229,0.8123618364334106,1.0996577739715576,-1.4602429866790771
0.5509143531056452,-0.0912426185001765,2.921331812038858,6.507570266723633,-4.830799102783203,-2.523287057876587,-0.07763510197401047,-0.5234665274620056,-0.848501980304718,0.8558639287948608,1.4196456670761108,-1.4736568927764893
0.625659148147747,-0.1320841194964791,2.8973451249942785,7.870989799499512,-5.944512844085693,-3.111250162124634,-0.10675334930419922,-0.5856316685676575,-0.8035168051719666,0.9194822311401367,1.6687004566192627,-1.5484728813171387
0.7153809567625727,-0.1809152900061562,2.8721573896654236,9.156126976013184,-6.88051700592041,-3.4976611137390137,-0.1358189731836319,-0.65590500831604,-0.7425239682197571,0.990814745426178,1.7561399936676025,-1.6502983570098877
0.8173782383376791,-0.24040299711319876,2.853305674152482,10.128654479980469,-7.509476184844971,-3.352452516555786,-0.16288864612579346,-0.7293546795845032,-0.6644613742828369,1.0248576402664185,1.835586428642273,-1.6361976861953735
0.9269924948734307,-0.31162049424740074,2.850426083243599,10.765157699584961,-6.669147968292236,-2.9640305042266846,-0.18403512239456177,-0.7998183369636536,-0.5713332295417786,0.9555805921554565,2.0016157627105713,-1.5348526239395142
1.039592867914714,-0.3877480465818053,2.8710965851862156,11.052041053771973,-5.296744346618652,-2.620485305786133,-0.19153696298599243,-0.8621980547904968,-0.46896496415138245,0.7265712022781372,2.126343011856079,-1.6559739112854004
1.1509505715529575,-0.4807243337045545,2.923171659296686,11.063725471496582,-3.939142942428589,-2.4431698322296143,-0.188492089509964,-0.9131518006324768,-0.3614200949668884,0.5370944142341614,2.139225959777832,-1.2599940299987793
1.2577173414600886,-0.6104077874991678,3.0251709117858976,10.867281913757324,-2.934062957763672,-2.372465133666992,-0.17653995752334595,-0.9513897895812988,-0.25237083435058594,0.2729755640029907,2.088139057159424,-1.0552921295166016
1.3542041079857687,-0.8344819950083675,-3.0526504325126744,10.558064460754395,-2.183152198791504,-2.2540974617004395,-0.15923219919204712,-0.9766354560852051,-0.14432068169116974,0.0991431325674057,2.09354829788208,-0.8556945323944092
1.4256169115502708,-1.2980696689942126,-2.600720976448034,10.227843284606934,-1.4874954223632812,-2.1358933448791504,-0.1393233984708786,-0.9894799590110779,-0.03896817937493324,-0.06328272819519043,2.10591983795166,-0.6800564527511597
1.4364790382546344,-2.0577281962185636,-1.846420087781056,9.90212345123291,-0.9535870552062988,-2.0675930976867676,-0.11835001409053802,-0.9909929633140564,0.0626608356833458,-0.1881837248802185,2.1038317680358887,-0.5250784158706665
1.3827666870183442,-2.59787245351469,-1.3080959018329297,9.570761680603027,-0.7251525521278381,-2.1332242488861084,-0.09670037776231766,-0.9823744297027588,0.15996809303760529,-0.31559205055236816,2.080503463745117,-0.4022012948989868
1.3044734578497683,-2.857208169230592,-1.0487978115340935,9.276216506958008,-0.5454850792884827,-2.279939889907837,-0.07384124398231506,-0.9647451639175415,0.2526150643825531,-0.44890955090522766,2.0293049812316895,-0.32695579528808594
1.2200648074598965,-2.9954622856852344,-0.908016271627979,8.93333625793457,-0.245052769780159,-2.4681649208068848,-0.050029728561639786,-0.9391216039657593,0.339923232793808,-0.5372962951660156,1.9504740238189697,-0.19150099158287048
1.1357201118061566,-3.0811402355657056,-0.8165972198106386,8.491788864135742,-0.001814550720155239,-2.756465435028076,-0.025463970378041267,-0.9068379402160645,0.42071011662483215,-0.648226797580719,1.8660204410552979,-0.0058692991733551025
1.0539209135895644,3.140865665445606,-0.7468377652365825,8.01298999786377,0.1599317342042923,-3.134120464324951,0.00035925296833738685,-0.8693674802780151,0.49416613578796387,-0.7466970682144165,1.8041056394577026,0.17963159084320068
0.9750349792684491,3.0912507823896815,-0.6868801551733175,7.60872745513916,0.055791497230529785,-3.5818710327148438,0.0282368715852499,-0.8277215361595154,0.5604283809661865,-0.7356342673301697,1.7159507274627686,0.41253310441970825
0.8975603045055183,3.046440121845913,-0.632465960841941,7.340784072875977,-0.246510311961174,-3.9225151538848877,0.0592399537563324,-0.7818080186843872,0.6206987500190735,-0.5637412071228027,1.6310815811157227,0.698438823223114
0.8211706344294962,3.006757806938066,-0.5846437709950745,7.064700126647949,-0.3996324837207794,-3.9712414741516113,0.09159354865550995,-0.7319439649581909,0.6751801371574402,-0.21000172197818756,1.5909528732299805,1.0345364809036255
0.7471798654513355,2.9755250484557383,-0.5449650898675349,6.660316467285156,-0.19457732141017914,-3.7454779148101807,0.12126936763525009,-0.679572582244873,0.7235156297683716,0.2315138578414917,1.5325695276260376,1.448206901550293
0.6783578300214366,2.955790220306658,-0.5140582524748714,5.989569664001465,0.30533236265182495,-3.2056658267974854,0.14383560419082642,-0.6275152564048767,0.765203058719635,0.6654601097106934,1.483609676361084,1.8870490789413452
0.6193512399477221,2.948048366657102,-0.4927149453915866,4.866785526275635,0.7048810720443726,-2.3034474849700928,0.15661241114139557,-0.5805070400238037,0.7990521192550659,1.0382423400878906,1.4988877773284912,2.4258320331573486
0.5755888547993543,2.9500917163108187,-0.48144750430678257,3.2850844860076904,0.9485504627227783,-1.1860610246658325,0.15966472029685974,-0.5443288683891296,0.8235372304916382,1.4004244804382324,1.4049397706985474,2.9692485332489014
0.5508581661781439,2.9585803930812573,-0.4791536875834165,1.4896612167358398,0.9718757271766663,-0.12854059040546417,0.15507131814956665,-0.523418664932251,0.8378462791442871,1.5777931213378906,1.287410855293274,3.4196460247039795
0.544776074459287,2.9701308114514853,-0.4844019901151715,-0.09574820846319199,0.7492384314537048,0.772766649723053,0.14592412114143372,-0.5182265639305115,0.842702329158783,1.5430560111999512,1.1799392700195312,3.5951943397521973
0.553794034569152,2.981284934597562,-0.4964347289927707,-1.290849208831787,0.17716561257839203,1.5244654417037964,0.13576409220695496,-0.5259179472923279,0.8396296501159668,1.4471521377563477,1.0773249864578247,3.527527093887329
0.5735315783429655,2.988217642091815,-0.514777894329085,-2.0647144317626953,-0.7910599112510681,2.1249630451202393,0.12832890450954437,-0.5426019430160522,0.830129086971283,1.2824376821517944,1.0606989860534668,3.358865976333618
0.5997738177563365,2.9875898938414163,-0.5386081638951971,-2.466856002807617,-1.9753377437591553,2.5673890113830566,0.12662173807621002,-0.5644558072090149,0.8156940340995789,1.0306506156921387,1.0774867534637451,3.1514692306518555
0.6296073607747782,2.9782097232635167,-0.5668804583753868,-2.671715497970581,-3.1214611530303955,2.9062254428863525,0.13146892189979553,-0.5888274312019348,0.7974947690963745,0.7313698530197144,1.0744538307189941,2.9242305755615234
0.6621892684860701,2.961154766785975,-0.5985708604490637,-2.875378131866455,-4.061762809753418,3.1675820350646973,0.14153102040290833,-0.6148448586463928,0.7758442759513855,0.4162387549877167,1.0773541927337646,2.7284891605377197
0.6980727716880887,2.937533514819696,-0.632340652865707,-3.1551551818847656,-4.864835739135742,3.32698392868042,0.15524351596832275,-0.6427424550056458,0.7501880526542664,0.08602851629257202,1.0841944217681885,2.592219352722168
0.7377413546062309,2.9078661905722134,-0.6668316220927445,-3.4346601963043213,-5.561802387237549,3.4392383098602295,0.1713848114013672,-0.6726182699203491,0.7198696136474609,-0.24249069392681122,1.1082565784454346,2.478891372680664
0.7808183702974588,2.87248189728856,-0.7012075062300702,-3.6384518146514893,-6.197665214538574,3.506084680557251,0.18886058032512665,-0.7038609981536865,0.6847711205482483,-0.5469080209732056,1.161121129989624,2.3480963706970215
0.8264515602696723,2.831681550942937,-0.7349060469605749,-3.7331016063690186,-6.7579803466796875,3.5603153705596924,0.2066168338060379,-0.7355319857597351,0.645214855670929,-0.8425115942955017,1.2417728900909424,2.1966583728790283
0.8733503845827885,2.786393998013804,-0.7679328061683772,-3.665818691253662,-7.195737838745117,3.5923616886138916,0.2233637571334839,-0.7664850354194641,0.602170467376709,-1.1056725978851318,1.3076380491256714,2.0146965980529785
0.9199081202491178,2.737685349282864,-0.8001991292545428,-3.459254503250122,-7.53747034072876,3.5730490684509277,0.23812465369701385,-0.7955459356307983,0.5571384429931641,-1.3441121578216553,1.315077304840088,1.8384456634521484
0.9650035569439979,2.68533359573823,-0.8315670604486568,-3.173351526260376,-7.972257614135742,3.5047383308410645,0.2508796751499176,-0.822050929069519,0.5111667513847351,-1.5745490789413452,1.314467430114746,1.7237117290496826
1.007767059606218,2.6279328013068213,-0.8617151249901683,-2.821850538253784,-8.479768753051758,3.399125814437866,0.2622677981853485,-0.8456421494483948,0.46487078070640564,-1.766540288925171,1.3262484073638916,1.642703652381897
1.0479302976262914,2.5662515725197013,-0.8912020982161634,-2.4666693210601807,-8.819391250610352,3.3504669666290283,0.2717151939868927,-0.8663915395736694,0.4189709424972534,-1.8909320831298828,1.3053867816925049,1.5592241287231445
1.0862832413442307,2.5028526606757744,-0.9206472876035715,-2.219182014465332,-8.939379692077637,3.341484546661377,0.27768948674201965,-0.8849018216133118,0.3739486634731293,-1.9892067909240723,1.312178373336792,1.526106357574463
1.1241942519803543,2.438670767273528,-0.9491422224633093,-2.138643264770508,-8.910947799682617,3.361344575881958,0.27920371294021606,-0.9019199013710022,0.32952338457107544,-2.0707991123199463,1.315158486366272,1.5502830743789673
1.1630455738629353,2.3732692804817743,-0.9746739270572734,-2.2036423683166504,-8.749627113342285,3.407258987426758,0.27557140588760376,-0.9180150628089905,0.2851465046405792,-2.1269965171813965,1.3243720531463623,1.5846960544586182
1.203604374550356,2.305082701102705,-0.9947673378904225,-2.330833673477173,-8.548087120056152,3.4634087085723877,0.26648563146591187,-0.9333391189575195,0.24054765701293945,-2.167868137359619,1.3519947528839111,1.5872262716293335
1.2458358500222986,2.231642130696486,-1.0067241600650212,-2.4580283164978027,-8.323809623718262,3.5085573196411133,0.2520562410354614,-0.9476633667945862,0.19596390426158905,-2.199504852294922,1.3603525161743164,1.5304611921310425
1.2890399798290577,2.1498385021085937,-1.0070834541711786,-2.5210962295532227,-8.050683975219727,3.5097222328186035,0.23271863162517548,-0.9605686068534851,0.15215152502059937,-2.2171545028686523,1.3514988422393799,1.422753930091858
1.331804015464624,2.055198814376544,-0.9913771795847043,-2.483902931213379,-7.788374423980713,3.4253604412078857,0.20948956906795502,-0.971576988697052,0.1102374866604805,-2.2364213466644287,1.3186380863189697,1.2748180627822876
1.372376844950237,1.9418496867022639,-0.9538490514495934,-2.345517635345459,-7.497684955596924,3.2586898803710938,0.1837056428194046,-0.9803793430328369,0.07147535681724548,-2.2409565448760986,1.2635061740875244,1.1027342081069946
1.4092689694819158,1.8015882074458123,-0.8862349967334165,-2.133735418319702,-7.201248645782471,3.052882194519043,0.15656208992004395,-0.9869828224182129,0.03678877279162407,-2.201117753982544,1.2149490118026733,0.9245911836624146
1.441356128783042,1.6237645252726274,-0.7780867743945449,-1.868005394935608,-6.919337749481201,2.8405075073242188,0.12889839708805084,-0.9916343092918396,0.006833908148109913,-2.1379621028900146,1.1628683805465698,0.7694416046142578
1.46794008936275,1.3938355790991457,-0.615367877393909,-1.5681036710739136,-6.703749179840088,2.6877553462982178,0.10107076168060303,-0.9947149753570557,-0.018074622377753258,-2.021404504776001,1.1040441989898682,0.652733325958252
1.4887296608316505,1.0899115471859,-0.3768404437022002,-1.2810927629470825,-6.54252815246582,2.670125722885132,0.0726771354675293,-0.9966344237327576,-0.037918273359537125,-1.8908839225769043,1.0714178085327148,0.580276608467102
1.5027022319885879,0.6808284108389202,-0.03194969486945195,-1.0476295948028564,-6.46179723739624,2.800450563430786,0.04282708093523979,-0.997682511806488,-0.052870821207761765,-1.7640336751937866,1.0469226837158203,0.5315847396850586
1.505700229800203,0.1584367454388436,0.4267472672488948,-0.9059683680534363,-6.431200981140137,2.957596778869629,0.010263113304972649,-0.9978820085525513,-0.0642344281077385,-1.6991974115371704,0.9993011355400085,0.4857736825942993
1.4940216519255398,-0.32348388412825585,0.8455453508011592,-0.9009994268417358,-6.346874713897705,3.1006109714508057,-0.02438037469983101,-0.9970542788505554,-0.0727207213640213,-1.7126953601837158,0.9297020435333252,0.44483673572540283
1.4703660895706505,-0.6543996794685603,1.1147255599186656,-1.016120433807373,-6.148080348968506,3.2938177585601807,-0.06102723255753517,-0.994961142539978,-0.07954850792884827,-1.7390978336334229,0.850307822227478,0.4010053873062134
1.4387940865820705,-0.8610800683897544,1.2620858896172378,-1.2108901739120483,-5.8630571365356445,3.491999626159668,-0.09983916580677032,-0.9913003444671631,-0.08576538413763046,-1.7821035385131836,0.7671793103218079,0.32390928268432617
1.402380892441691,-0.9900451216210757,1.334735882927358,-1.4210424423217773,-5.519398212432861,3.609671115875244,-0.14013896882534027,-0.9858515858650208,-0.09196516126394272,-1.849866509437561,0.6689571738243103,0.16116368770599365
1.3629657593915943,-1.074338791058073,1.3661246744398978,-1.6013826131820679,-5.134719371795654,3.750309705734253,-0.18142744898796082,-0.978480875492096,-0.0982813686132431,-1.8766779899597168,0.552913248538971,-0.05160575360059738
1.3210113467954718,-1.1333639447406267,1.3757612111348438,-1.779595136642456,-4.757704734802246,3.9171619415283203,-0.22392061352729797,-0.9689655900001526,-0.10471593588590622,-1.887636423110962,0.4459705948829651,-0.25566625595092773
1.276768053683575,-1.173978893513662,1.37030527907792,-2.0871353149414062,-4.389609336853027,4.025732040405273,-0.26729053258895874,-0.9570842385292053,-0.11200723052024841,-1.9504828453063965,0.3230357766151428,-0.42955780029296875
1.2303893220208029,-1.196357187690506,1.3492743494164887,-2.6295573711395264,-4.0456132888793945,4.042610168457031,-0.3107377588748932,-0.9426188468933105,-0.12211339920759201,-2.032386541366577,0.21140247583389282,-0.5457791090011597
1.182262521486096,-1.2006100833318845,1.312767104908133,-3.278332233428955,-3.577648401260376,3.9403879642486572,-0.3531695306301117,-0.9254655241966248,-0.1370571255683899,-2.1165568828582764,0.1199999451637268,-0.6719181537628174
1.1335295071097695,-1.190176654697824,1.2652825364177185,-3.7786314487457275,-3.012019634246826,3.688246250152588,-0.39315953850746155,-0.905912458896637,-0.15731549263000488,-2.2092573642730713,0.04376041889190674,-0.9145534038543701
1.0866519840954354,-1.1726017928315,1.2145918661912056,-3.8773653507232666,-2.5512285232543945,3.2327053546905518,-0.42903536558151245,-0.8850735425949097,-0.18048086762428284,-2.3584859371185303,-0.026135504245758057,-1.338150143623352
1.0446444952870653,-1.15481412454414,1.1670487211268503,-3.617913246154785,-2.212172746658325,2.629260778427124,-0.4593808352947235,-0.8647460341453552,-0.202937051653862,-2.4741060733795166,-0.13182061910629272,-1.8345080614089966
1.0098930875586913,-1.140221259072816,1.125809495737334,-3.096090316772461,-1.8975428342819214,1.9428969621658325,-0.4833976924419403,-0.8467749953269958,-0.22203288972377777,-2.514816999435425,-0.2090720534324646,-2.238401174545288
0.9837566217438976,-1.1287767007590788,1.0919389792196237,-2.4221243858337402,-1.485262393951416,1.2366739511489868,-0.5006631016731262,-0.832584023475647,-0.23693889379501343,-2.5380024909973145,-0.24720406532287598,-2.5648951530456543
0.9666747887779377,-1.1197932834052384,1.0656990540028788,-1.6924270391464233,-1.0539413690567017,0.5739556550979614,-0.5112411379814148,-0.8230014443397522,-0.24759039282798767,-2.4480178356170654,-0.28747206926345825,-2.7721850872039795
0.9584111220249496,-1.112893854123186,1.0470618734217207,-0.9386515617370605,-0.6098288893699646,-0.01631023921072483,-0.5156038999557495,-0.8182792663574219,-0.2541097402572632,-2.3624629974365234,-0.26501840353012085,-2.873316526412964
0.9584170943457947,-1.1074704165738658,1.0360887501463396,-0.1952408254146576,-0.10174673795700073,-0.5388696193695068,-0.5142136216163635,-0.8182827234268188,-0.2569000720977783,-2.299415349960327,-0.19264250993728638,-2.884564161300659
0.9659502437919664,-1.1026518983072973,1.032217337720475,0.4612918794155121,0.4397066831588745,-0.9971017837524414,-0.5074543356895447,-0.822589635848999,-0.2565860450267792,-2.246619701385498,-0.1094781756401062,-2.8157100677490234
0.9798585583305621,-1.096482134006778,1.034174593044824,0.9713671803474426,1.1418453454971313,-1.3645693063735962,-0.49563509225845337,-0.830418586730957,-0.2544616460800171,-2.190659523010254,-0.015070855617523193,-2.67618727684021
0.9986615894862326,-1.0854264776077645,1.0403504870422253,1.3432670831680298,2.129692554473877,-1.6405962705612183,-0.4788943827152252,-0.840747058391571,-0.2525953948497772,-2.146273374557495,0.0849030613899231,-2.478071689605713
1.0211814843127682,-1.0655321018417863,1.049598394465004,1.6510052680969238,3.441606283187866,-1.8316577672958374,-0.45708826184272766,-0.8527258038520813,-0.2528418302536011,-2.1699106693267822,0.18614566326141357,-2.282390832901001
1.0465411759270231,-1.0335436543002656,1.0619507934103094,1.9582796096801758,5.086214065551758,-1.923580288887024,-0.43004703521728516,-0.8656970262527466,-0.2561795711517334,-2.2244176864624023,0.2901814579963684,-2.1183931827545166
1.0745172963433045,-0.9871975412075256,1.077365632081512,2.274766445159912,6.811428546905518,-2.0045111179351807,-0.397345632314682,-0.8793604373931885,-0.26237693428993225,-2.300835609436035,0.388286828994751,-1.9359263181686401
1.1054221299055287,-0.927485873963206,1.0950445642779312,2.609829902648926,8.149441719055176,-2.1020913124084473,-0.3590569496154785,-0.8936536908149719,-0.26918578147888184,-2.4288153648376465,0.5068740248680115,-1.6989692449569702
1.1399949082563947,-0.8581151595344422,1.1137567560831907,2.9793484210968018,8.984992980957031,-2.2605085372924805,-0.31596043705940247,-0.9086313843727112,-0.27305346727371216,-2.597827434539795,0.6478891372680664,-1.4431483745574951
1.1790237515411452,-0.7816707407726105,1.1315097978699316,3.369030475616455,9.459580421447754,-2.471113920211792,-0.268984317779541,-0.9242336750030518,-0.2709970772266388,-2.758786678314209,0.8107236623764038,-1.1925649642944336
1.223145746031149,-0.6973406217315938,1.1441416388324679,3.753182888031006,9.66714859008789,-2.8026533126831055,-0.21878476440906525,-0.9401757121086121,-0.26115682721138,-2.908595561981201,0.9756371974945068,-0.9397099614143372
1.27283993398054,-0.5996073228704659,1.1434749893677654,4.126560688018799,9.680500030517578,-3.2155964374542236,-0.1656653732061386,-0.9559383988380432,-0.2423565536737442,-3.03739857673645,1.1410123109817505,-0.7040546536445618
1.327532463281872,-0.47692780606684293,1.1167792423300522,4.5204267501831055,9.624605178833008,-3.585386276245117,-0.11057267338037491,-0.9705569744110107,-0.21399275958538055,-3.0913162231445312,1.3202731609344482,-0.5039485692977905
1.385662187481748,-0.30414608755921885,1.0374853250501292,4.922091960906982,9.324162483215332,-3.9292409420013428,-0.05512738972902298,-0.9829115867614746,-0.17562928795814514,-3.0815913677215576,1.4968582391738892,-0.32034242153167725
1.4430178836120953,-0.00618488079875483,0.828020115957318,5.32401704788208,8.781007766723633,-4.230842113494873,-0.0007881384226493537,-0.9918474555015564,-0.12742823362350464,-3.0442709922790527,1.6543688774108887,-0.09615884721279144
1.4837235293555495,0.6283844271642284,0.2753888154426867,5.686504364013672,8.126959800720215,-4.478106498718262,0.05112076923251152,-0.9962115287780762,-0.07035195082426071,-3.006824493408203,1.8060564994812012,0.10944490879774094
1.4700288305343854,1.5100024219917154,-0.5308079360226281,5.962558746337891,7.545464038848877,-4.790095329284668,0.10041210055351257,-0.9949272274971008,-0.00611197529360652,-3.000436544418335,1.907402753829956,0.28519517183303833
1.4093417390741354,1.973023906419386,-0.9234327087907821,6.064016819000244,7.131077766418457,-5.175695419311523,0.14792419970035553,-0.9869945049285889,0.06293012946844101,-3.0675714015960693,1.9520823955535889,0.4366273880004883
1.332855334705038,2.17765885394534,-1.0599488691119616,6.009282112121582,6.996741771697998,-5.531480312347412,0.19361534714698792,-0.971825361251831,0.13441918790340424,-3.1379666328430176,1.998589277267456,0.6239883899688721
1.2511958140737645,2.2893252470906877,-1.1027167809117335,5.850824356079102,7.065629959106445,-5.853999137878418,0.23651200532913208,-0.9493610262870789,0.20682230591773987,-3.1716620922088623,2.0510761737823486,0.7943220138549805
1.1682748874761304,2.3624469405226147,-1.1047074809001056,5.5823469161987305,7.120180606842041,-6.08169412612915,0.27526429295539856,-0.9200761914253235,0.2787281274795532,-3.138942241668701,2.0797746181488037,0.9203684329986572
1.0866287091902047,2.4170876909908494,-1.0863459131022823,5.250715255737305,7.057046890258789,-6.174180507659912,0.30849817395210266,-0.8850626945495605,0.3485579490661621,-3.0261495113372803,2.0944437980651855,1.0123580694198608
1.0082185327632678,2.462214054234044,-1.0578869203445003,4.9107584953308105,6.851038455963135,-6.083813190460205,0.33512037992477417,-0.8458830118179321,0.41494083404541016,-2.848365068435669,2.107541084289551,1.0849523544311523
0.9343047616407035,2.502989854128415,-1.0254024211178534,4.515733242034912,6.642980575561523,-5.8238396644592285,0.35429322719573975,-0.8041860461235046,0.4772433638572693,-2.6679985523223877,2.102632522583008,1.150533676147461
0.8666836173722337,2.542378900075261,-0.9907708200099381,3.9644851684570312,6.654623031616211,-5.507513523101807,0.36510565876960754,-0.7621862292289734,0.5345749258995056,-2.5228662490844727,2.0224857330322266,1.2028825283050537
0.8064651229973344,2.5823437963239275,-0.9530037943240753,3.324618339538574,6.930000305175781,-5.31902551651001,0.3671693503856659,-0.7218453884124756,0.5866227746009827,-2.5163543224334717,1.9073004722595215,1.2749953269958496
0.7527270795145132,2.6241366698595274,-0.9108499193822764,2.8417367935180664,7.294240474700928,-5.331578254699707,0.3610241115093231,-0.6836315989494324,0.634278416633606,-2.592820405960083,1.7959973812103271,1.387617826461792
0.7030232835863819,2.667845488740302,-0.8648884718280955,2.6640584468841553,7.473781108856201,-5.402504920959473,0.3480491638183594,-0.6465270519256592,0.6788700222969055,-2.5519676208496094,1.7114228010177612,1.4814693927764893
0.6551157032216282,2.7123925775406907,-0.8173402779872417,2.741363048553467,7.307338714599609,-5.388015270233154,0.329992413520813,-0.6092510223388672,0.721053421497345,-2.297048568725586,1.6702251434326172,1.5654454231262207
0.6078481584626353,2.755585842951928,-0.770568332931719,2.9376866817474365,6.781368732452393,-5.2507452964782715,0.3090543746948242,-0.5711023807525635,0.7604784369468689,-1.9402494430541992,1.632274866104126,1.6794018745422363
0.5607086701880301,2.7955347381547333,-0.7251967004745955,3.131727933883667,6.170490741729736,-5.175579071044922,0.2872543931007385,-0.5317865014076233,0.7966728806495667,-1.6741867065429688,1.5498836040496826,1.9198338985443115
0.513927592006645,2.8301552743335257,-0.6797483941996647,3.161341667175293,5.315913200378418,-5.208032608032227,0.2668429911136627,-0.49160125851631165,0.8289285898208618,-1.4027987718582153,1.4597868919372559,2.293950319290161
0.4687636032861009,2.8554835306056536,-0.6333336558242945,3.035221576690674,4.068583965301514,-5.235418319702148,0.2517777383327484,-0.45178359746932983,0.8558619618415833,-1.0649948120117188,1.417588710784912,2.689014196395874
0.426512302639883,2.869795786640236,-0.5862068450214507,2.715230941772461,2.878349542617798,-5.202159404754639,0.2444123774766922,-0.41369807720184326,0.8769931793212891,-0.7020844221115112,1.4154680967330933,3.0070250034332275
0.3890425582277532,2.8753130134992797,-0.5394979851206846,2.1964480876922607,1.946053147315979,-5.003005027770996,0.24347999691963196,-0.3793026804924011,0.8926629424095154,-0.3029128909111023,1.466705083847046,3.2592382431030273
0.35812441532257294,2.8748479748134272,-0.49480003853978016,1.5597031116485596,1.2396879196166992,-4.59640645980835,0.24686923623085022,-0.35051825642585754,0.9034337401390076,0.14096343517303467,1.4944239854812622,3.40322208404541
0.33515339557889906,2.871233725481039,-0.45385779688293815,0.8119396567344666,0.841055154800415,-4.004999160766602,0.252217173576355,-0.3289140462875366,0.9100562334060669,0.5488693714141846,1.5470536947250366,3.4382410049438477
0.32148411168642804,2.8666377999254657,-0.4175160333842098,-0.03082345798611641,0.5704265832901001,-3.3256900310516357,0.25759366154670715,-0.31597498059272766,0.9131293296813965,0.8900046348571777,1.6182669401168823,3.422976016998291
0.317546828609958,2.860906208018831,-0.38624405988909855,-0.8155680298805237,0.23021629452705383,-2.5689961910247803,0.26316574215888977,-0.3122369647026062,0.9128264784812927,1.1766078472137451,1.679943323135376,3.326019525527954
0.3224498915048806,2.853204899408963,-0.3610388016434266,-1.4381890296936035,-0.1946210265159607,-1.7284904718399048,0.26974916458129883,-0.3168911337852478,0.9092940092086792,1.4126391410827637,1.7428250312805176,3.132347345352173
0.334806151694231,2.843078312567633,-0.3427001306153068,-1.8984389305114746,-0.653281569480896,-0.8743171691894531,0.27777040004730225,-0.3285861015319824,0.9027042984962463,1.5401313304901123,1.802112102508545,2.8754329681396484
0.3531384810150049,2.830175443068932,-0.3312847760154617,-2.213991165161133,-1.159741759300232,-0.0839759036898613,0.2875002324581146,-0.3458443284034729,0.8931606411933899,1.539724588394165,1.8301429748535156,2.6114325523376465
0.37629641498651784,2.8140025094305914,-0.3262783697382719,-2.46093487739563,-1.7125405073165894,0.6427541375160217,0.29924914240837097,-0.36747854948043823,0.8805731534957886,1.4609894752502441,1.821122407913208,2.3762168884277344
0.40402928051159703,2.7945126099338564,-0.3270978189644426,-2.7029659748077393,-2.224031686782837,1.3233131170272827,0.31276580691337585,-0.39312639832496643,0.8646556735038757,1.3337033987045288,1.7942341566085815,2.1704397201538086
0.43624281055963127,2.772776749880033,-0.3333373117507351,-2.9078309535980225,-2.5940639972686768,1.9888620376586914,0.32674771547317505,-0.4225371479988098,0.8453981876373291,1.1578867435455322,1.7724212408065796,1.9714504480361938
0.4728031395937693,2.75068374433009,-0.34485532839495736,-3.098353862762451,-2.805117130279541,2.6235649585723877,0.3392282724380493,-0.45538368821144104,0.8231343030929565,0.9422048926353455,1.7495425939559937,1.7889416217803955
0.5137578406588792,2.7295816589605786,-0.36103768058149266,-3.312135934829712,-2.9217944145202637,3.172445058822632,0.34875592589378357,-0.4914534389972687,0.7980243563652039,0.6733235716819763,1.7161695957183838,1.6726329326629639
0.5591869849672534,2.7100892591269283,-0.38088024913579693,-3.5656423568725586,-2.9775779247283936,3.6297550201416016,0.35453373193740845,-0.5304971933364868,0.7699858546257019,0.35908931493759155,1.6688182353973389,1.6201506853103638
0.6092596559831136,2.692690872246232,-0.403512864938008,-3.8671140670776367,-2.971219062805176,4.026243686676025,0.3558918237686157,-0.5722604990005493,0.7388226389884949,0.04352223873138428,1.6069591045379639,1.5913164615631104
0.6641803061409731,2.6778841926680377,-0.4283246442511439,-4.2090020179748535,-2.9130795001983643,4.367021560668945,0.3521888256072998,-0.6164138913154602,0.7042705416679382,-0.2829291522502899,1.5581862926483154,1.586348295211792
0.723896132710695,2.6660384717787924,-0.45470610256805133,-4.579839706420898,-2.8091793060302734,4.6125407218933105,0.3430213928222656,-0.6623088121414185,0.6660957932472229,-0.6264076232910156,1.5027934312820435,1.5590782165527344
0.7878962624368299,2.6560281032168276,-0.48113226842261236,-4.953408718109131,-2.837066411972046,4.660750389099121,0.32918667793273926,-0.7088710069656372,0.6238090395927429,-0.9818661212921143,1.4476101398468018,1.5216376781463623
0.8544482783710423,2.6435606961713227,-0.5053714240639914,-5.161941051483154,-3.224435806274414,4.476376533508301,0.313672810792923,-0.7542087435722351,0.5768696665763855,-1.353666067123413,1.4073917865753174,1.4456523656845093
0.9206619536837054,2.6234640983580766,-0.5251608809032822,-5.138431549072266,-3.854990243911743,4.100074768066406,0.2997748851776123,-0.7960024476051331,0.5258474946022034,-1.7223974466323853,1.3600282669067383,1.301087498664856
0.9840188747234613,2.591936809835144,-0.5381443563352089,-4.966050624847412,-4.538267612457275,3.606062412261963,0.28923913836479187,-0.8327292799949646,0.4721255600452423,-2.0124905109405518,1.3228569030761719,1.1401333808898926
1.0427277467629419,2.5457814870041044,-0.5416877455755081,-4.6626715660095215,-5.259861946105957,3.0416300296783447,0.28275981545448303,-0.8637818694114685,0.41704681515693665,-2.192824363708496,1.2721070051193237,0.9848238825798035
1.0951533501763167,2.482043718828973,-0.5334551732066903,-4.263784408569336,-6.008090972900391,2.4493515491485596,0.2805892825126648,-0.8889985084533691,0.361872136592865,-2.3153791427612305,1.2008423805236816,0.8477073907852173
1.1402256497316048,2.398465594236062,-0.5117337378997945,-3.829158067703247,-6.750487327575684,1.9018328189849854,0.2824029326438904,-0.9087277054786682,0.30734720826148987,-2.372429847717285,1.147741436958313,0.7550764083862305
1.177406663250314,2.2954571821776306,-0.47666394026438863,-3.363737106323242,-7.354720115661621,1.4366788864135742,0.28700220584869385,-0.923615038394928,0.2540968358516693,-2.357238292694092,1.0983738899230957,0.6752398014068604
1.2069051130040895,2.177226663658139,-0.43137658570172177,-2.9103357791900635,-7.804483413696289,1.1494951248168945,0.29244980216026306,-0.9345189929008484,0.2028486430644989,-2.2855679988861084,1.055307388305664,0.6212785243988037
1.230451785978185,2.048955945911356,-0.37997680305432896,-2.5594642162323,-8.130003929138184,1.0681639909744263,0.29637274146080017,-0.9426397085189819,0.1536022573709488,-2.170182466506958,1.0477423667907715,0.6071704626083374
1.2504345631548983,1.9141362470007324,-0.32458365544347456,-2.3393445014953613,-8.274118423461914,1.1725802421569824,0.29653000831604004,-0.9491215348243713,0.10600923001766205,-2.05782151222229,1.0433294773101807,0.6230099201202393
1.2688864428083821,1.7729587835620706,-0.2633751737070423,-2.2665789127349854,-8.239827156066895,1.3721204996109009,0.29128870368003845,-0.9547703266143799,0.05970321595668793,-1.9734175205230713,1.0424473285675049,0.6676527261734009
1.2865338359656873,1.6218199133250255,-0.1911708885914473,-2.316524028778076,-8.101496696472168,1.597704529762268,0.28008460998535156,-0.9598687291145325,0.014303335919976234,-1.9240970611572266,1.0330194234848022,0.7044007778167725
1.3026573372336105,1.4561176746771942,-0.10258824983414816,-2.391531467437744,-7.950339317321777,1.75679349899292,0.26319724321365356,-0.9642656445503235,-0.030316118150949478,-1.9290144443511963,1.0429246425628662,0.7277190089225769
1.3154489185751268,1.2759854765871657,0.0017909844433857858,-2.349977970123291,-7.871351718902588,1.8283976316452026,0.2416844218969345,-0.9675756096839905,-0.07338979840278625,-2.0024266242980957,1.0484929084777832,0.6664988994598389
1.3240001995386117,1.088093257088903,0.11446196123247969,-2.172096014022827,-7.844714641571045,1.872223138809204,0.2163858711719513,-0.9697000980377197,-0.11339732259511948,-2.0440683364868164,1.0097544193267822,0.5443207621574402
1.3289151624178246,0.9031107062269501,0.2242054587799105,-1.9052399396896362,-7.858788013458252,1.957802653312683,0.1880919635295868,-0.9708890914916992,-0.1483093947172165,-2.0280425548553467,0.961367666721344,0.4182373285293579
1.3318433946170647,0.7139888024227854,0.3377083881895813,-1.610845685005188,-7.86937141418457,2.225815534591675,0.15499435365200043,-0.9715863466262817,-0.17887645959854126,-1.9939377307891846,0.9192181825637817,0.3314642906188965
1.3336281759608721,0.5181393235051294,0.45825332436476907,-1.3965249061584473,-7.818996429443359,2.6057753562927246,0.11636295169591904,-0.9720072150230408,-0.20411193370819092,-1.9711908102035522,0.8620371222496033,0.2873486280441284
1.3324700447196298,0.3133123185727121,0.5887543468981158,-1.3062108755111694,-7.7168097496032715,2.8883795738220215,0.0727616474032402,-0.9717344641685486,-0.22458435595035553,-2.0580062866210938,0.8234647512435913,0.27483150362968445
1.3257454018457946,0.10768912966325271,0.7218508361735815,-1.3516196012496948,-7.4964375495910645,3.0325827598571777,0.026075562462210655,-0.9701249599456787,-0.24120062589645386,-2.246198892593384,0.7729203104972839,0.27020755410194397
1.3115500228931063,-0.08518309988888413,0.8449592902063267,-1.5645347833633423,-7.1808061599731445,3.040078639984131,-0.021810485050082207,-0.9665834903717041,-0.25542280077934265,-2.429971694946289,0.6763002872467041,0.24707621335983276
1.2894661514049544,-0.2504124867105523,0.9435227349599391,-1.914467215538025,-6.813347339630127,2.8486249446868896,-0.06879857182502747,-0.960686981678009,-0.2689741551876068,-2.5618624687194824,0.5636686682701111,0.16468027234077454
1.2609711617505432,-0.3793985112426533,1.0088652987970244,-2.3148951530456543,-6.441650867462158,2.5108330249786377,-0.11292044818401337,-0.9523869156837463,-0.2832106351852417,-2.633402109146118,0.46596723794937134,0.013191044330596924
1.2287357594758535,-0.4737694208415316,1.042217712343461,-2.6436073780059814,-6.0541768074035645,2.0879874229431152,-0.15303736925125122,-0.9420654773712158,-0.29848307371139526,-2.653465986251831,0.3670685887336731,-0.2328890562057495
1.195743803748095,-0.5401362136603645,1.0509527140465522,-2.789767265319824,-5.524902820587158,1.6423976421356201,-0.18838180601596832,-0.9304884076118469,-0.31417137384414673,-2.620532274246216,0.2901228070259094,-0.576758861541748
1.1644149186596693,-0.5859093759592061,1.0436266201863698,-2.7816853523254395,-4.954120635986328,1.236801266670227,-0.2185775339603424,-0.9185572266578674,-0.32935798168182373,-2.4912002086639404,0.24199771881103516,-0.9645264148712158
1.1355956522882753,-0.6179871109659739,1.0272288267621867,-2.7072629928588867,-4.430768013000488,0.9375469088554382,-0.2442687451839447,-0.9067854285240173,-0.34361720085144043,-2.2842042446136475,0.19334560632705688,-1.3227646350860596
1.1091513837023466,-0.6421399782489678,1.0072016423592642,-2.565398693084717,-4.001657009124756,0.7875152230262756,-0.2667674422264099,-0.8953210115432739,-0.3567003905773163,-2.0457935333251953,0.15353041887283325,-1.6471754312515259
1.0849173719538805,-0.6631354857747032,0.9872967656138013,-2.3714632987976074,-3.7202138900756836,0.7111916542053223,-0.28747206926345825,-0.8842648267745972,-0.36801546812057495,-1.836673378944397,0.10438823699951172,-1.9448355436325073
1.0632428409138994,-0.6826311459349227,0.9685456475592757,-2.1161582469940186,-3.4438939094543457,0.5738496780395508,-0.3066122531890869,-0.8739362359046936,-0.37712642550468445,-1.720548391342163,0.06808912754058838,-2.221109628677368
1.0450984579439597,-0.699708350495728,0.9504922610382333,-1.799831748008728,-3.0712802410125732,0.35490506887435913,-0.3231672942638397,-0.8649739623069763,-0.38390490412712097,-1.6881089210510254,0.030684471130371094,-2.4936890602111816
1.0312118902117575,-0.7135474516517483,0.9335879866798004,-1.438593864440918,-2.5574111938476562,0.1342259645462036,-0.33627891540527344,-0.8579222559928894,-0.3884402811527252,-1.6708927154541016,-0.01443791389465332,-2.727114677429199
1.0215145710164901,-0.7230223381648075,0.9184723209597363,-1.043408989906311,-1.891891598701477,-0.035517796874046326,-0.3454327881336212,-0.8528997302055359,-0.39145660400390625,-1.6271014213562012,-0.06531316041946411,-2.9222335815429688
1.0159137327326524,-0.7274641382502358,0.9062649033202992,-0.6375722289085388,-1.0284048318862915,-0.17445559799671173,-0.35033920407295227,-0.8499622941017151,-0.3934799134731293,-1.5686976909637451,-0.11363017559051514,-3.0728135108947754
1.0140811228006783,-0.7244256116651985,0.8972554331612086,-0.2693580389022827,0.14200359582901,-0.29431700706481934,-0.3501737117767334,-0.8489953875541687,-0.39570850133895874,-1.5377962589263916,-0.1405065655708313,-3.1445746421813965
1.0155736500794788,-0.7107086233189648,0.8907908190156028,0.03707663714885712,1.5157768726348877,-0.41997164487838745,-0.34388598799705505,-0.8497830629348755,-0.3995136618614197,-1.528687834739685,-0.15874654054641724,-3.1146159172058105
1.0201895332359838,-0.6839528197148206,0.8855749429012856,0.31754717230796814,2.924107313156128,-0.5948593020439148,-0.3305928707122803,-0.8522071838378906,-0.40552592277526855,-1.5344126224517822,-0.16242599487304688,-3.0009377002716064
1.028149931419415,-0.643969256213003,0.88056518168541,0.6151737570762634,4.160798072814941,-0.7869740724563599,-0.3100358545780182,-0.8563450574874878,-0.41297823190689087,-1.5488966703414917,-0.12343704700469971,-2.819169044494629
1.0394752494041386,-0.5933518041014613,0.8757364583990104,0.9381006956100464,5.053696632385254,-0.9158527255058289,-0.28330251574516296,-0.8621384501457214,-0.4200677275657654,-1.5243451595306396,-0.04858231544494629,-2.5829381942749023
1.053796066570654,-0.535559548566191,0.8711153617516318,1.2226850986480713,5.651094913482666,-0.9922356605529785,-0.2522393465042114,-0.8693057894706726,-0.42506784200668335,-1.5006444454193115,0.05044299364089966,-2.2953147888183594
1.0704298613634837,-0.47239578263934645,0.8664193810918542,1.451798439025879,6.1076531410217285,-1.0017868280410767,-0.21829503774642944,-0.8774068355560303,-0.4272056221961975,-1.4792451858520508,0.13935446739196777,-1.9955849647521973
1.0884414100268407,-0.40434069104960846,0.8607674187817335,1.5569705963134766,6.456247329711914,-1.0125072002410889,-0.1824910193681717,-0.8859050273895264,-0.4264613389968872,-1.4947550296783447,0.20826226472854614,-1.7024449110031128
1.1066400640075247,-0.3298574678887237,0.851455959051136,1.5117064714431763,6.736311435699463,-1.0884181261062622,-0.145003542304039,-0.8941996097564697,-0.4235341548919678,-1.5590980052947998,0.23408907651901245,-1.3931314945220947
1.1238056616192496,-0.24713475978669755,0.8359695385350179,1.3851110935211182,6.981315612792969,-1.189125895500183,-0.10574086010456085,-0.9017519950866699,-0.41912078857421875,-1.6186853647232056,0.2569003105163574,-1.1176528930664062
1.1393528849520118,-0.1560788657433245,0.8139964164280346,1.2887115478515625,7.1973981857299805,-1.2568333148956299,-0.06500476598739624,-0.9083631038665771,-0.4130992293357849,-1.656674861907959,0.29523444175720215,-0.9313679933547974
1.1534373647745846,-0.05808324249375523,0.7864788707784465,1.2774724960327148,7.322094917297363,-1.2853964567184448,-0.02353065460920334,-0.9141626358032227,-0.4046638309955597,-1.6539137363433838,0.3218623995780945,-0.8111107349395752
1.1666889223949706,0.0444007696043732,0.7549685550227286,1.3617980480194092,7.335629463195801,-1.2308913469314575,0.017452571541070938,-0.9194537401199341,-0.39281079173088074,-1.6351282596588135,0.3515216112136841,-0.7449303865432739
1.179838770017837,0.1493285913964997,0.7207699143962173,1.511703610420227,7.299975872039795,-1.1415514945983887,0.05669397860765457,-0.9245445728302002,-0.3768330216407776,-1.6498335599899292,0.37725764513015747,-0.7004374861717224
1.19327166422919,0.25754522072569536,0.6831146165648609,1.6801490783691406,7.324656009674072,-1.0790566205978394,0.09389035403728485,-0.9295799136161804,-0.3564625084400177,-1.7377196550369263,0.39820802211761475,-0.6251201629638672
1.206525701868433,0.37196373797104426,0.6397281249052025,1.7962883710861206,7.432916641235352,-1.0947809219360352,0.1294839233160019,-0.9343838691711426,-0.33190450072288513,-1.877988576889038,0.41248762607574463,-0.5205583572387695
1.218573508755488,0.4958759757895633,0.588038660196175,1.9088209867477417,7.627476215362549,-1.1793919801712036,0.16414479911327362,-0.9386081695556641,-0.3034326136112213,-2.0478270053863525,0.4406680464744568,-0.40648266673088074
1.228865201109538,0.6322670439066446,0.5255344341869822,2.10664439201355,7.8426690101623535,-1.3110913038253784,0.1981581747531891,-0.9421089291572571,-0.2704888582229614,-2.1981122493743896,0.5010077953338623,-0.3336676359176636
1.236886603566014,0.7839829931752795,0.4490295966871796,2.4125077724456787,8.003876686096191,-1.4926719665527344,0.2314184308052063,-0.9447681903839111,-0.23207435011863708,-2.3460729122161865,0.5687764286994934,-0.2956051230430603
1.2413247148977242,0.9528962798825792,0.3557875922337891,2.7869179248809814,8.084795951843262,-1.7463228702545166,0.26371923089027405,-0.94621342420578,-0.18743674457073212,-2.4932570457458496,0.6473852396011353,-0.24734725058078766
1.240115393778015,1.137226192862938,0.2469653093827901,3.1788480281829834,8.134421348571777,-1.9775638580322266,0.29464471340179443,-0.9458214640617371,-0.13640552759170532,-2.643155336380005,0.7479607462882996,-0.18897289037704468
1.2318176474309275,1.3307456729463105,0.1287228530746042,3.593994140625,8.17818832397461,-2.132683515548706,0.32298964262008667,-0.943094789981842,-0.07905829697847366,-2.7221288681030273,0.8777718544006348,-0.1492742896080017
1.2152596187814915,1.5269008262382096,0.007774932222636233,4.074446201324463,8.258180618286133,-2.292295455932617,0.34775838255882263,-0.9374598264694214,-0.015274839475750923,-2.787562370300293,1.0150507688522339,-0.16160506010055542
1.1888590750501329,1.718894543037012,-0.10873641938999955,4.556683540344238,8.333504676818848,-2.5294265747070312,0.36863914132118225,-0.9279443025588989,0.05499747768044472,-2.8712329864501953,1.1396141052246094,-0.16490650177001953
1.1512731493291055,1.8969209188540075,-0.21152612958004421,4.970807075500488,8.25838565826416,-2.8738977909088135,0.38585561513900757,-0.9132832884788513,0.1304965615272522,-2.9703588485717773,1.262892723083496,-0.06119108200073242
1.1027392997283236,2.052989206958214,-0.29389644238298335,5.3303446769714355,8.007365226745605,-3.2334537506103516,0.3997126817703247,-0.8924465775489807,0.2092101275920868,-3.0244531631469727,1.3981229066848755,0.054232820868492126
1.0451256895580332,2.186428613323714,-0.35590824771562135,5.714706897735596,7.728464126586914,-3.458613634109497,0.4096683859825134,-0.8649876117706299,0.2897730767726898,-2.986511468887329,1.5201237201690674,0.11646178364753723
0.9815469529640112,2.2992687061824584,-0.4000729087515428,6.074422359466553,7.39238977432251,-3.5538954734802246,0.4146868586540222,-0.8313580751419067,0.36997127532958984,-2.933729648590088,1.6234264373779297,0.18067267537117004
0.9124206014206141,2.3970137485444893,-0.4321800909451732,6.240039348602295,6.874802112579346,-3.646273612976074,0.4146159291267395,-0.7909870743751526,0.4499254822731018,-2.8962900638580322,1.6801625490188599,0.31878170371055603
0.8412450887721933,2.4776167347041933,-0.45068010453163543,6.067727088928223,6.386866569519043,-3.739410877227783,0.41075432300567627,-0.7454735636711121,0.5249287486076355,-2.8743162155151367,1.6604821681976318,0.509449303150177
0.7716499943291829,2.544999478992712,-0.45658072153701645,5.599725723266602,6.2304558753967285,-3.7759554386138916,0.40269604325294495,-0.6973188519477844,0.5929438471794128,-2.829514980316162,1.6104505062103271,0.7046635150909424
0.7066796377952627,2.605149543898179,-0.4520157533891421,4.957017421722412,6.413725852966309,-3.742445945739746,0.38868919014930725,-0.6493121385574341,0.6536931395530701,-2.7442188262939453,1.5364428758621216,0.8455439209938049
0.6482611860702352,2.663941463521186,-0.439315117025658,4.266683578491211,6.934107780456543,-3.638482093811035,0.3664386570453644,-0.6038012504577637,0.7079174518585205,-2.6452929973602295,1.4686541557312012,0.9481189846992493
0.5971341635897743,2.7264547871989087,-0.42077940324020735,3.644343376159668,7.68328332901001,-3.4744319915771484,0.33352234959602356,-0.5622748732566833,0.7567097544670105,-2.4910082817077637,1.4151496887207031,1.0508005619049072
0.5528837972039798,2.7942448195570693,-0.39839325881893944,3.173820734024048,8.203441619873047,-3.297795295715332,0.2896895408630371,-0.525143563747406,0.800190269947052,-2.2898573875427246,1.3743257522583008,1.1899222135543823
0.5139342793564106,2.8642654463532136,-0.3733189317187003,2.9241671562194824,8.214727401733398,-3.2063448429107666,0.23841756582260132,-0.49160706996917725,0.8375440239906311,-2.0684802532196045,1.3509819507598877,1.3798177242279053
0.47821086030162757,2.9308554804231983,-0.34589299079903374,2.8437161445617676,7.5970330238342285,-3.1863625049591064,0.18571487069129944,-0.4601914882659912,0.8681784868240356,-1.824783444404602,1.2906205654144287,1.5874184370040894
0.4445116870744142,2.989090201193637,-0.3164087801034888,2.8204636573791504,6.588338851928711,-3.203531265258789,0.13714931905269623,-0.4300170838832855,0.8923426270484924,-1.5408968925476074,1.221032738685608,1.8498142957687378
0.41261765980606463,3.0360256096817877,-0.2852220971700808,2.755525588989258,5.336051940917969,-3.2133865356445312,0.09652775526046753,-0.401008665561676,0.9109747409820557,-1.2490698099136353,1.1489639282226562,2.129079818725586
0.38306985313035546,3.0714416594881677,-0.25364400935283066,2.588092088699341,4.2147417068481445,-3.047236919403076,0.06501320749521255,-0.3737695813179016,0.9252403378486633,-0.9038193225860596,1.0628260374069214,2.375983476638794
0.35761252974755603,3.0998755972812675,-0.22428114257665205,2.1284823417663574,3.6315598487854004,-2.6663951873779297,0.03906649723649025,-0.3500387966632843,0.9359201788902283,-0.515049159526825,0.9850486516952515,2.589348316192627
0.3395250779243515,3.1258132039569717,-0.19860183718954574,1.2980355024337769,3.2845380306243896,-2.2527787685394287,0.014878032729029655,-0.3330393135547638,0.9427957534790039,-0.18333503603935242,0.9148111343383789,2.8182213306427
0.33138186810960957,-3.1332689375784897,-0.1767401959536574,0.30954816937446594,2.966285228729248,-1.8851357698440552,-0.007870761677622795,-0.3253500163555145,0.9455608129501343,0.04911528527736664,0.8195212483406067,3.013209819793701
0.3332396636107607,-3.1110517860967057,-0.1584888257800822,-0.5926946997642517,2.627647638320923,-1.562727689743042,-0.02885626256465912,-0.32710617780685425,0.944547176361084,0.1727313995361328,0.7834964990615845,3.09582781791687
0.3436977643314393,-3.0919994338408365,-0.14404476054032567,-1.3658002614974976,2.10892915725708,-1.2356576919555664,-0.04667363315820694,-0.33697089552879333,0.9403575658798218,0.30222785472869873,0.7668262720108032,3.0697131156921387
0.36138130335886554,-3.0774967362050645,-0.13373781227533876,-2.033982753753662,1.4788299798965454,-0.8874900937080383,-0.059914883226156235,-0.35356664657592773,0.933488667011261,0.42904025316238403,0.75510174036026,3.012434244155884
0.38527375482087284,-3.0680979051760713,-0.1278890721477667,-2.637598991394043,0.8234026432037354,-0.5262173414230347,-0.06804594397544861,-0.375812828540802,0.9241937398910522,0.488334059715271,0.775394856929779,2.9196934700012207
0.41475490002826115,-3.0633631507858596,-0.12657666511609053,-3.1973769664764404,0.23053373396396637,-0.16042056679725647,-0.07152380794286728,-0.40296563506126404,0.9124159216880798,0.49658793210983276,0.8003045320510864,2.7928452491760254
0.44929435196693335,-3.0622037478195985,-0.12987390147283798,-3.7087466716766357,-0.2563017010688782,0.21111303567886353,-0.07143475860357285,-0.434330016374588,0.8979166746139526,0.46823960542678833,0.8384286165237427,2.6211414337158203
0.488396896088487,-3.06272775372602,-0.13787439096272358,-4.1697797775268555,-0.5450453758239746,0.5915648341178894,-0.0695723369717598,-0.46921080350875854,0.8803414106369019,0.3979872465133667,0.8867218494415283,2.428206443786621
0.5317027702578402,-3.0631608129621295,-0.1504538276664105,-4.605037212371826,-0.7736366987228394,0.8992456793785095,-0.06753463298082352,-0.5070017576217651,0.8592950701713562,0.2977592647075653,0.9296703338623047,2.2621495723724365
0.5789247738282771,-3.064042964109495,-0.16670956409670884,-4.986677646636963,-1.130643367767334,1.0980181694030762,-0.06484802067279816,-0.5471242070198059,0.834535539150238,0.15168581902980804,0.9565634727478027,2.174070358276367
0.6295365676782104,-3.0668837224926864,-0.1856584989555913,-5.303006172180176,-1.5923758745193481,1.2265340089797974,-0.06033112853765488,-0.5887702107429504,0.8060461282730103,-0.020967677235603333,0.9962713718414307,2.1038968563079834
0.6829872464492384,-3.072389264012517,-0.20681984465455575,-5.562218189239502,-2.076098680496216,1.3335692882537842,-0.053637608885765076,-0.6311129927635193,0.7738342881202698,-0.19019782543182373,1.044656753540039,2.0132598876953125
0.7388690650614658,-3.0802447874410364,-0.22986465103598777,-5.7784104347229,-2.472315788269043,1.4068454504013062,-0.04532178118824959,-0.6734523177146912,0.7378399968147278,-0.35743391513824463,1.0799617767333984,1.898085355758667
0.7969038295482175,-3.089426471726903,-0.25444546408502,-5.96969747543335,-2.7558915615081787,1.4530290365219116,-0.03644367679953575,-0.7151955366134644,0.6979734897613525,-0.5446414947509766,1.1177988052368164,1.79068922996521
0.8569938486518052,-3.09919125020001,-0.28039212861681034,-6.163790702819824,-2.995126485824585,1.4734382629394531,-0.02775241620838642,-0.7558777928352356,0.6541242003440857,-0.7338137030601501,1.1649508476257324,1.6918535232543945
0.9193144215152173,-3.109389698173218,-0.3073704770071318,-6.383796215057373,-3.204000234603882,1.447223424911499,-0.019523384049534798,-0.7951861023902893,0.6060510277748108,-0.8882677555084229,1.200612187385559,1.598783016204834
0.9840978063500275,-3.11995360234056,-0.33477539933956896,-6.614054203033447,-3.337322950363159,1.3671458959579468,-0.01197876874357462,-0.832772970199585,0.5534853935241699,-1.0332025289535522,1.245080590248108,1.504467487335205
1.0513119708311751,-3.1308295056548463,-0.3616846442435041,-6.823802947998047,-3.3864171504974365,1.230939507484436,-0.005343074910342693,-0.8680752515792847,0.49640387296676636,-1.1711400747299194,1.3085353374481201,1.3853099346160889
1.1202736521083085,3.140890919087389,-0.3871634937558243,-6.916927814483643,-3.388301372528076,1.0652227401733398,0.0003055603301618248,-0.9002196192741394,0.4354357123374939,-1.2710727453231812,1.3677490949630737,1.2050366401672363
1.1894214073051907,3.127372324376098,-0.40951127538674237,-6.836592674255371,-3.385868549346924,0.8321298360824585,0.00529258418828249,-0.9281537532806396,0.37215927243232727,-1.3500343561172485,1.4024274349212646,0.9717738628387451
1.2572603466727736,3.107913041136451,-0.4252007150030945,-6.650660991668701,-3.440922737121582,0.5508579611778259,0.010385661385953426,-0.9512489438056946,0.3082498013973236,-1.4350224733352661,1.4149175882339478,0.7816246151924133
1.3229050845334855,3.0753009615173132,-0.42763631278636377,-6.414618968963623,-3.5173823833465576,0.23142418265342712,0.01625339686870575,-0.96943199634552,0.2448207437992096,-1.5047177076339722,1.4184372425079346,0.6269139051437378
1.385780798732827,3.014850095151264,-0.40192879471223997,-6.1681928634643555,-3.496288537979126,-0.12434350699186325,0.023253383114933968,-0.9829334020614624,0.18248596787452698,-1.5669697523117065,1.4000630378723145,0.4839569330215454
1.4448254077461968,2.887963537079221,-0.3080795486928724,-5.9352707862854,-3.280351400375366,-0.4976400136947632,0.031524721533060074,-0.9920761585235596,0.1216178685426712,-1.6013641357421875,1.3616136312484741,0.34163904190063477
1.4960724531265337,2.558288969556136,-0.00819624748875107,-5.729362964630127,-2.910888671875,-0.8458102345466614,0.041118476539850235,-0.9972094893455505,0.0623101182281971,-1.6183888912200928,1.3376787900924683,0.2228614091873169
1.5184417096057166,1.6612605209492566,0.8635547102630459,-5.521458148956299,-2.4446845054626465,-1.1446634531021118,0.05211557447910309,-0.9986298084259033,0.004727496765553951,-1.5693122148513794,1.3207124471664429,0.08334636688232422
1.4892835932854538,0.8970500023825925,1.6068289227637655,-5.318707466125488,-2.0060653686523438,-1.23447585105896,0.06363068521022797,-0.9966796636581421,-0.05080083757638931,-1.4522720575332642,1.2860627174377441,-0.0566515289247036
1.4426071421394142,0.6204013190491159,1.867486268539653,-5.109018802642822,-1.4282292127609253,-1.1554056406021118,0.07432007044553757,-0.991795003414154,-0.10401470214128494,-1.3393347263336182,1.2639813423156738,-0.18645153939723969
1.3943392950967035,0.4969364164473991,1.9815560753025676,-4.865017414093018,-0.6894012093544006,-0.9991565346717834,0.08368752896785736,-0.9844717979431152,-0.15431073307991028,-1.2243735790252686,1.2644248008728027,-0.30726754665374756
1.3478924038588431,0.4278204807014674,2.0483662848830475,-4.601304054260254,-0.06505662947893143,-0.7417892813682556,0.09171651303768158,-0.9752596020698547,-0.20113900303840637,-1.1308399438858032,1.277292013168335,-0.39798209071159363
1.304417352665538,0.378817765108018,2.1000061863224255,-4.358231067657471,0.2404332458972931,-0.3560085892677307,0.09735206514596939,-0.964730441570282,-0.24457703530788422,-1.0321969985961914,1.2665187120437622,-0.4225219488143921
1.2639554253006515,0.33605738212020725,2.147132006137625,-4.141608715057373,0.22101743519306183,0.010261479765176773,0.09960588067770004,-0.9532925486564636,-0.28515276312828064,-0.9663050174713135,1.2546383142471313,-0.4807010889053345
1.2259099456836635,0.29668532408963716,2.190524190451116,-3.942790985107422,0.12683847546577454,0.24657148122787476,0.09884114563465118,-0.9411138892173767,-0.3233186900615692,-0.9014076590538025,1.2489142417907715,-0.6095578670501709
1.18982673618129,0.2616530523959982,2.228694883011299,-3.7424232959747314,-0.0063600181601941586,0.3431817293167114,0.09618175029754639,-0.9283045530319214,-0.35916540026664734,-0.8151147961616516,1.1964014768600464,-0.7818105220794678
1.1555816124725418,0.232646755041656,2.2597860366994262,-3.5487277507781982,-0.03473839536309242,0.28760477900505066,0.09300225973129272,-0.9150297045707703,-0.3925190269947052,-0.834640383720398,1.1129515171051025,-0.9297465682029724
1.1223537056938337,0.2127722586989326,2.282809380267715,-3.412904977798462,0.2788171172142029,0.09097491204738617,0.0915556252002716,-0.9011234045028687,-0.423785537481308,-0.9055509567260742,0.9828189611434937,-1.0145231485366821
1.0895948481370665,0.2043764693929333,2.297672357746779,-3.271177291870117,0.6767886877059937,-0.14522510766983032,0.09393738955259323,-0.8864394426345825,-0.4532117545604706,-0.9104962348937988,0.8898574709892273,-1.0256547927856445
1.0581778358959786,0.20393630349780645,2.3065293660466892,-3.0403881072998047,0.7460277080535889,-0.2927630543708801,0.09933087229728699,-0.8714632391929626,-0.48029693961143494,-0.7290152907371521,0.8886141777038574,-1.0668220520019531
1.0292439453034097,0.20612620891728595,2.3119624136596437,-2.716503381729126,0.6236975193023682,-0.34330159425735474,0.10550040006637573,-0.8569095134735107,-0.5045548677444458,-0.506226658821106,0.8898685574531555,-1.1625440120697021
1.0040393461013266,0.20835870031996626,2.315767568215932,-2.282003164291382,0.4440460205078125,-0.2948515713214874,0.11105990409851074,-0.8436465859413147,-0.5252867937088013,-0.33188503980636597,0.9017977714538574,-1.2182282209396362
0.9833300212805641,0.2078618827517397,2.319059516641861,-1.8599891662597656,-0.039716921746730804,-0.22095446288585663,0.11438042670488358,-0.8323476314544678,-0.5423232913017273,-0.2314458191394806,0.9495046138763428,-1.2301528453826904
0.965721053274877,0.20225592159976497,2.321698560111554,-1.6715717315673828,-0.6326098442077637,-0.2340639978647232,0.11426523327827454,-0.8224592804908752,-0.5572290420532227,-0.20006534457206726,0.9342146515846252,-1.1430425643920898
0.949138558473253,0.19438769484785223,2.321079829890163,-1.5543495416641235,-0.9955358505249023,-0.5300269722938538,0.11249658465385437,-0.8129141330718994,-0.5714150071144104,-0.20266073942184448,0.7554953098297119,-1.0173453092575073
0.9334319297177349,0.19003080769122546,2.313034910710044,-1.3281768560409546,-1.1468496322631836,-1.0000118017196655,0.11240403354167938,-0.8036669492721558,-0.5843669772148132,-0.2045975923538208,0.5310229063034058,-1.0731189250946045
0.9195573300303146,0.19098552960849247,2.2970978276656506,-1.031588077545166,-1.1957128047943115,-1.3842644691467285,0.11506762355566025,-0.7953333854675293,-0.5951506495475769,-0.14697369933128357,0.4570155143737793,-1.1185028553009033
0.9077766910704713,0.19531790360029472,2.2759733116373306,-0.7929421663284302,-1.2771809101104736,-1.565674066543579,0.11945516616106033,-0.7881372570991516,-0.6037964224815369,-0.036599911749362946,0.4442804455757141,-1.0854582786560059
0.8979282602600396,0.2002373781654273,2.2532910711361023,-0.5892707705497742,-1.2722688913345337,-1.550300121307373,0.12396197766065598,-0.7820374369621277,-0.6107789874076843,0.1160435676574707,0.4468933343887329,-1.013946294784546
0.8901464936521966,0.20479748803584016,2.2317036962731085,-0.39632323384284973,-1.1596360206604004,-1.3957546949386597,0.12797965109348297,-0.7771639227867126,-0.6161471605300903,0.2756916284561157,0.4409213066101074,-0.9626949429512024
0.884247901844988,0.20920640906906793,2.2123201904318877,-0.27751055359840393,-0.9563242793083191,-1.2630224227905273,0.13164472579956055,-0.7734384536743164,-0.6200504302978516,0.36380815505981445,0.3944864869117737,-0.8971461653709412
0.8788687042362961,0.2151518032041422,2.194069917902455,-0.31609466671943665,-0.6306444406509399,-1.242129921913147,0.13621510565280914,-0.7700175642967224,-0.6233123540878296,0.30728161334991455,0.3235912322998047,-0.7492461800575256
0.8717643213060421,0.22485230563188763,2.1764363859174973,-0.6116661429405212,-0.1452459990978241,-1.2696949243545532,0.1434711515903473,-0.7654654383659363,-0.627278745174408,0.2986370325088501,0.3008200526237488,-0.5453133583068848
0.8609890277928908,0.2376234194360915,2.1592393725686203,-0.9707853198051453,0.0653596967458725,-1.4115291833877563,0.15340301394462585,-0.7584874629974365,-0.6333752870559692,0.22190219163894653,0.272876501083374,-0.33235347270965576
0.8467695642873054,0.25256134495128973,2.141395385467688,-1.2120393514633179,0.2527777850627899,-1.550966739654541,0.1655254065990448,-0.749144434928894,-0.6413922309875488,0.23828323185443878,0.22019851207733154,-0.31333494186401367
0.8300901690314372,0.2692041281558326,2.123304298420183,-1.375577688217163,0.3706466257572174,-1.6401734352111816,0.17947515845298767,-0.7379922270774841,-0.650504469871521,0.2800127863883972,0.17640775442123413,-0.31144005060195923
0.811867751027578,0.28618434878569093,2.1051124448003606,-1.4396014213562012,0.3466094732284546,-1.7442364692687988,0.1942589432001114,-0.725573718547821,-0.66015625,0.2931983768939972,0.19536131620407104,-0.2837982177734375
0.7930590622331574,0.30245917098713204,2.0864860610490434,-1.400268793106079,0.2293260097503662,-1.8157579898834229,0.2090051919221878,-0.7125030755996704,-0.6698180437088013,0.3227026164531708,0.2256866693496704,-0.28454291820526123
0.7751105499994938,0.316549084166573,2.0682953110365534,-1.229474663734436,0.015180427581071854,-1.7129125595092773,0.2223672866821289,-0.6997950673103333,-0.6788516640663147,0.41277986764907837,0.22900038957595825,-0.311703085899353
0.7598167573534514,0.3258895157646649,2.0518840122682893,-0.9110009670257568,-0.4525867998600006,-1.5197601318359375,0.2320978045463562,-0.6887885928153992,-0.6868047714233398,0.4921301305294037,0.23409199714660645,-0.3447045683860779
0.7478832571378154,0.3292344823383788,2.0356914214749047,-0.6063299775123596,-1.0945225954055786,-1.5027077198028564,0.23703470826148987,-0.680088460445404,-0.6937538385391235,0.3829757273197174,0.21074330806732178,-0.35922467708587646
0.7389273049270163,0.3270569874979624,2.0186990088890737,-0.278689444065094,-1.555495262145996,-1.4165338277816772,0.23747071623802185,-0.673495352268219,-0.7000082731246948,0.36815065145492554,0.30919182300567627,-0.3652229905128479
0.7333345075030118,0.3222816958440465,2.00215830753932,-0.019437354058027267,-1.5948976278305054,-1.26160728931427,0.23531465232372284,-0.6693506836891174,-0.7046961188316345,0.43900179862976074,0.2960902452468872,-0.4205327033996582
0.7299268728537426,0.31680100439619485,1.9863488737463777,0.0995696634054184,-1.5928893089294434,-1.1958237886428833,0.2321581393480301,-0.6668151617050171,-0.7081384658813477,0.4174695909023285,0.1868041753768921,-0.35292714834213257
0.7274264008698055,0.31214297306602484,1.9704666972202365,0.15338148176670074,-1.4226605892181396,-1.2053618431091309,0.2293684333562851,-0.6649496555328369,-0.7107967734336853,0.374193012714386,0.13473725318908691,-0.3047366142272949
0.7255711621759209,0.3097623575976753,1.9544234082520189,0.22819583117961884,-1.1735197305679321,-1.1744968891143799,0.2280513048171997,-0.6635628342628479,-0.7125145196914673,0.3792485296726227,0.15361416339874268,-0.3055061101913452
0.7248166261869337,0.3094768564690626,1.9389271906728056,0.32984307408332825,-0.9430872797966003,-1.0628595352172852,0.22800031304359436,-0.6629981994628906,-0.7130563259124756,0.428585410118103,0.16389846801757812,-0.3192160129547119
0.7253316225994113,0.30997081652012104,1.9247996797233573,0.40225890278816223,-0.848822832107544,-0.9103409051895142,0.22824831306934357,-0.6633836030960083,-0.7126182913780212,0.4804461896419525,0.15209215879440308,-0.2886176109313965
0.7267779774916926,0.3094317984548257,1.9124734254231415,0.4269826114177704,-0.9052938222885132,-0.7569548487663269,0.2275717556476593,-0.6644651889801025,-0.7118266224861145,0.5043160915374756,0.14058518409729004,-0.2176777720451355
0.728664202088222,0.3067749111535599,1.901716521005822,0.4097599685192108,-1.0530846118927002,-0.6640903949737549,0.22530081868171692,-0.665873646736145,-0.711232602596283,0.48278331756591797,0.12292015552520752,-0.15674829483032227
0.7303628272050524,0.30216862487728746,1.8917348453646707,0.35084524750709534,-1.184601068496704,-0.6581792235374451,0.22168537974357605,-0.6671399474143982,-0.7111819982528687,0.4308415353298187,0.0857037901878357,-0.12097132205963135
0.7312653294357399,0.29656335153887525,1.881803013641518,0.2517072856426239,-1.234817385673523,-0.6969106197357178,0.21751950681209564,-0.6678119897842407,-0.7118372917175293,0.38619452714920044,0.04050791263580322,-0.10554546117782593
0.7308521474690266,0.29153221044188166,1.8718725369563272,0.08903636038303375,-1.0596117973327637,-0.7353277802467346,0.2140147089958191,-0.6675043702125549,-0.7131869196891785,0.3517049551010132,0.012902319431304932,-0.10906338691711426
0.7286175616849543,0.2891671862045059,1.8623193641041793,-0.10948526859283447,-0.6597383618354797,-0.7427893280982971,0.21275222301483154,-0.6658388376235962,-0.7151190042495728,0.31691092252731323,0.03464376926422119,-0.11680543422698975
0.7246880260304217,0.290884967636614,1.8536748505563612,-0.2670147120952606,-0.1436619609594345,-0.71007239818573,0.21472905576229095,-0.6629018783569336,-0.7172534465789795,0.3104022145271301,0.062270164489746094,-0.1438305377960205
0.7196525584725812,0.296657418062419,1.8461901480979668,-0.3604017198085785,0.28396207094192505,-0.6445711255073547,0.21983875334262848,-0.659123420715332,-0.7191850543022156,0.33101886510849,0.05853748321533203,-0.17217230796813965
0.7142296864231705,0.305084343156186,1.8399751557268156,-0.3896770477294922,0.5677106380462646,-0.5660603642463684,0.22696173191070557,-0.6550355553627014,-0.7207058072090149,0.3521246314048767,0.041510164737701416,-0.1772891879081726
0.7088408919810077,0.31504269113087435,1.8348986467314639,-0.40058329701423645,0.7443293929100037,-0.4905970096588135,0.23521775007247925,-0.6509543061256409,-0.7217556238174438,0.3571895360946655,0.03375154733657837,-0.15605199337005615
0.7034611038342256,0.3255397919382349,1.8308740926432547,-0.42524629831314087,0.8141353726387024,-0.42883697152137756,0.2438974678516388,-0.6468610167503357,-0.7225543856620789,0.3536977767944336,0.020808160305023193,-0.11171984672546387
0.6980103247354981,0.3358661404419824,1.8273444246450885,-0.4228891134262085,0.7785723209381104,-0.44409412145614624,0.25250402092933655,-0.6426946520805359,-0.7233154773712158,0.31194913387298584,0.007089793682098389,-0.0777556300163269
0.6926186298501043,0.3457949179310453,1.8231824772557765,-0.37110021710395813,0.6578328609466553,-0.5164332985877991,0.26084384322166443,-0.6385546326637268,-0.7240224480628967,0.25566625595092773,-0.0011243224143981934,-0.0636056661605835
0.6875311152420319,0.3549011992125937,1.8179748197463819,-0.30409497022628784,0.5009961128234863,-0.5794845819473267,0.2685515284538269,-0.6346310973167419,-0.7246540188789368,0.24167189002037048,-0.014233589172363281,-0.05621445178985596
0.682832642054039,0.3632139757813722,1.812033069253728,-0.25094467401504517,0.4248952269554138,-0.5979812741279602,0.2756223976612091,-0.6309930682182312,-0.7251758575439453,0.24403095245361328,-0.0168798565864563,-0.05178642272949219
0.6786755308943682,0.37172305495574204,1.8062576041249034,-0.1985194832086563,0.5821689963340759,-0.5164082050323486,0.2827332317829132,-0.6277626156806946,-0.725242018699646,0.2655150890350342,0.00424271821975708,-0.0758291482925415
0.6750325154554562,0.38094418403438335,1.8024103298513972,-0.28164419531822205,0.7092965841293335,-0.29427391290664673,0.2902570366859436,-0.6249226927757263,-0.7247223258018494,0.3175310790538788,0.047850608825683594,-0.04219961166381836
0.6709422410874158,0.3860821185962135,1.802664130048876,-0.4913109540939331,0.34203630685806274,0.042909543961286545,0.2949368357658386,-0.6217242479324341,-0.7255833148956299,0.45405611395835876,0.025548160076141357,0.11318713426589966
0.6667277323022909,0.38567589431347626,1.8078769529339964,-0.5730502605438232,0.25400498509407043,0.37027859687805176,0.29562515020370483,-0.6184177994728088,-0.7281244397163391,0.48071157932281494,-0.0018519759178161621,0.10220897197723389
0.6632535572921829,0.3835083624006527,1.815233932068925,-0.4759308099746704,0.21007002890110016,0.4094492197036743,0.29484838247299194,-0.615683913230896,-0.7307515144348145,0.31264984607696533,0.006781935691833496,-0.0040811896324157715
0.661355197635714,0.3817608327525248,1.8211882332931575,-0.20976226031780243,0.16743974387645721,0.31136608123779297,0.2940058410167694,-0.6141868829727173,-0.7323490381240845,0.16613823175430298,-0.031305670738220215,-0.15766561031341553
0.6616095328120668,0.3810028082393634,1.8244434827286558,0.05618271976709366,0.07965125888586044,0.1804630607366562,0.29339247941970825,-0.614387571811676,-0.7324265837669373,0.12834522128105164,-0.0814436674118042,-0.24297618865966797
0.6630568172202747,0.3807412189652048,1.825494098816871,0.117816261947155,-0.0027352264150977135,0.08507583290338516,0.2928701639175415,-0.6155288219451904,-0.7316770553588867,0.12076514959335327,-0.08782505989074707,-0.18452167510986328
0.6636642705793474,0.38019308738772156,1.8259694146367682,-0.05308733135461807,-0.035572003573179245,0.04335358738899231,0.29233023524284363,-0.6160074472427368,-0.7314901351928711,0.12336498498916626,-0.07739764451980591,-0.030610084533691406
0.662106165137256,0.3789631522009748,1.8276049127395726,-0.33973801136016846,-0.009618435055017471,0.09049713611602783,0.2917850911617279,-0.6147793531417847,-0.7327399849891663,0.15740320086479187,-0.04610931873321533,0.08813244104385376
0.6578126072667992,0.3764890479675837,1.8316967690506234,-0.7006098031997681,0.03047678992152214,0.20099757611751556,0.2909391224384308,-0.6113873720169067,-0.7359075546264648,0.199997216463089,-0.03315913677215576,0.15479189157485962
0.6504648913955726,0.3730286787490629,1.839127113775258,-1.0894315242767334,0.19146887958049774,0.36175477504730225,0.290020227432251,-0.6055564284324646,-0.7410733103752136,0.2268865704536438,-0.0318489670753479,0.1635739803314209
0.6403712892300468,0.36934943562250616,1.8499410832265095,-1.3957724571228027,0.36575281620025635,0.5076760053634644,0.28948357701301575,-0.5974932312965393,-0.7477974891662598,0.24182748794555664,-0.03487676382064819,0.11155182123184204
0.6284533576879995,0.3658493809109428,1.8630439647516015,-1.5581398010253906,0.47892704606056213,0.5928545594215393,0.28939148783683777,-0.5878943204879761,-0.7554024457931519,0.226569265127182,-0.044155240058898926,0.025177836418151855
0.6157453265549325,0.3629237999991557,1.876822548539264,-1.5842869281768799,0.5283685922622681,0.5786905884742737,0.2898092567920685,-0.5775671005249023,-0.7631689310073853,0.1742258071899414,-0.052605628967285156,-0.059050917625427246
0.6031703987131382,0.36114592165486037,1.8895512318807943,-1.4834316968917847,0.5741278529167175,0.47208136320114136,0.29099541902542114,-0.5672562718391418,-0.770416796207428,0.10100293159484863,-0.059513747692108154,-0.13392579555511475
0.5914349551938465,0.3615663051607453,1.900148979910436,-1.3213512897491455,0.7050256729125977,0.3362605571746826,0.2936539947986603,-0.5575528144836426,-0.7764677405357361,0.04547262191772461,-0.05945158004760742,-0.19321298599243164
0.580688840416247,0.3647246277098225,1.9086645662148325,-1.1936923265457153,0.8613580465316772,0.2313080132007599,0.29822486639022827,-0.5486000180244446,-0.7810890078544617,0.028313279151916504,-0.056517839431762695,-0.19919663667678833
0.5705070945925427,0.3701963206306183,1.9158977648348465,-1.144713282585144,1.00954270362854,0.1762406975030899,0.30449944734573364,-0.5400589108467102,-0.7846122980117798,0.030537843704223633,-0.048503100872039795,-0.14483100175857544
0.5602772840307939,0.37717075828397817,1.9228006386077159,-1.1863635778427124,1.1210732460021973,0.17025578022003174,0.311982661485672,-0.5314211249351501,-0.7875648736953735,0.04637002944946289,-0.029141008853912354,-0.07660132646560669
0.5495932887861816,0.38490724673958915,1.930395832156403,-1.2707322835922241,1.2035387754440308,0.24229228496551514,0.32017987966537476,-0.5223404765129089,-0.7903450131416321,0.08877098560333252,-0.01693570613861084,-0.032012104988098145
0.5387370323095623,0.3921185439744267,1.9394782054861497,-1.3073840141296387,1.1594223976135254,0.37718433141708374,0.3280186951160431,-0.5130523443222046,-0.7932093143463135,0.1340022087097168,-0.018411219120025635,-0.023959815502166748
0.5286876913712287,0.3977525879353038,1.9499974594773188,-1.220133662223816,1.0187550783157349,0.5144140124320984,0.3344627320766449,-0.5044006109237671,-0.7960619926452637,0.159906804561615,-0.030572474002838135,-0.06232112646102905
0.5204732051574096,0.4016901632302972,1.9610861392965264,-1.0210413932800293,0.8738008737564087,0.6054341793060303,0.33920323848724365,-0.4972907304763794,-0.7985256314277649,0.13902249932289124,-0.018395304679870605,-0.10918921232223511
0.5147065011103564,0.4044509985717235,1.9718739557735796,-0.7623242735862732,0.7429070472717285,0.6557921171188354,0.3425293266773224,-0.49227941036224365,-0.800209105014801,0.08587646484375,0.008911460638046265,-0.1419905424118042
0.5115460066937444,0.4067632375537911,1.981576639564523,-0.48312488198280334,0.672124445438385,0.6355488896369934,0.3449925184249878,-0.4895259439945221,-0.800839900970459,0.035653263330459595,0.002190709114074707,-0.15941095352172852
0.5106030383623276,0.40937039116211144,1.9896368691151283,-0.25528576970100403,0.6308206915855408,0.5711850523948669,0.3472628593444824,-0.4887034595012665,-0.8003608584403992,-0.0072969794273376465,-0.02274063229560852,-0.14461588859558105
0.5110706563613927,0.41235421527473026,1.9959483254206614,-0.10926651954650879,0.5751073360443115,0.47296342253685,0.3495578169822693,-0.48911136388778687,-0.7991116642951965,-0.03414332866668701,-0.051599085330963135,-0.09895956516265869
0.5121590658654511,0.41542769240189764,2.000643262158254,-0.02458716183900833,0.4888475239276886,0.36258664727211,0.3517971336841583,-0.490060418844223,-0.7975459694862366,-0.046880751848220825,-0.07230225205421448,-0.04644811153411865
0.5134443350421912,0.4182729601211278,2.003869515391363,0.031006591394543648,0.3860604465007782,0.2594493329524994,0.35380882024765015,-0.4911803603172302,-0.7959655523300171,-0.050021588802337646,-0.07862856984138489,-0.014016687870025635
0.5148916828873839,0.4205125141079411,2.0059614699397676,0.0877237543463707,0.26433777809143066,0.19308319687843323,0.3552999496459961,-0.4924405813217163,-0.7945213913917542,-0.04240316152572632,-0.07193624973297119,0.01189810037612915
0.5168215632132607,0.421962334818536,2.0073192716418022,0.16985884308815002,0.16195148229599,0.18850842118263245,0.3560616075992584,-0.4941193163394928,-0.7931369543075562,-0.018293023109436035,-0.0582793653011322,0.017792105674743652
0.5195688501993123,0.42245828896696797,2.0085369140610907,0.2436172068119049,0.05512141436338425,0.2342246174812317,0.3558970093727112,-0.4965059459209442,-0.7917191386222839,0.025816887617111206,-0.053497135639190674,0.02729964256286621
0.5231923479154597,0.42167318251202174,2.0100806930270343,0.30551227927207947,-0.054466597735881805,0.3094506561756134,0.35453662276268005,-0.49964797496795654,-0.7903515696525574,0.056382596492767334,-0.03906357288360596,0.04636359214782715
0.5276788408810598,0.4196344705348806,2.0122059100557914,0.3591611385345459,-0.13504287600517273,0.39224040508270264,0.35200774669647217,-0.5035292506217957,-0.7890176177024841,0.06577795743942261,-0.021342575550079346,0.055558204650878906
0.5328801383441083,0.4165385376031513,2.0149100884027584,0.39841294288635254,-0.21448896825313568,0.45252132415771484,0.3484989404678345,-0.5080162286758423,-0.7876978516578674,0.062099844217300415,-0.008768439292907715,0.06136429309844971
0.5385223810921002,0.4124511450627295,2.0180420621653923,0.4117926359176636,-0.27141672372817993,0.48862698674201965,0.34412193298339844,-0.5128680467605591,-0.786477267742157,0.05782514810562134,-0.006678462028503418,0.06849020719528198
0.5442674285629391,0.40793666121025746,2.021471511587006,0.4005250632762909,-0.2726915776729584,0.5007904171943665,0.33939337730407715,-0.5177915096282959,-0.7853050827980042,0.04703551530838013,-0.008468866348266602,0.06657040119171143
0.549749548697424,0.4034056145499508,2.0250613413870893,0.3583366274833679,-0.26255425810813904,0.49049392342567444,0.33471229672431946,-0.5224736928939819,-0.7842122316360474,0.02994227409362793,-0.0016657114028930664,0.07126063108444214
0.5545814013032407,0.39876546326737106,2.0287909666615325,0.2792876064777374,-0.27280235290527344,0.4670165777206421,0.33008575439453125,-0.5265874862670898,-0.7834213376045227,0.015769928693771362,0.004431784152984619,0.08256995677947998
0.5584672660305011,0.39401173645856635,2.032754285525967,0.1755395382642746,-0.2538401484489441,0.44753801822662354,0.32556986808776855,-0.5298869609832764,-0.7830862402915955,0.007514268159866333,-0.002599000930786133,0.08752965927124023
0.5613279600963058,0.38961948436087696,2.03695854968947,0.08283623307943344,-0.1654607653617859,0.42729026079177856,0.3215501308441162,-0.5323108434677124,-0.7831031680107117,0.0024550557136535645,-0.006965279579162598,0.08222126960754395
0.5634342180623539,0.38628999435625716,2.0413163746129133,0.03246746584773064,-0.03375677764415741,0.4125138223171234,0.31851792335510254,-0.5340927243232727,-0.7831291556358337,-0.008260905742645264,0.004154980182647705,0.059633731842041016
0.5652077276886603,0.38429917793436,2.0456322243664378,0.029217876493930817,0.0912964791059494,0.395843505859375,0.31660258769989014,-0.5355912446975708,-0.7828823328018188,-0.01928505301475525,0.0221024751663208,0.026977241039276123
0.5670946151072068,0.3834408427910397,2.049800952040548,0.06060905009508133,0.17209386825561523,0.39810532331466675,0.31555187702178955,-0.5371837019920349,-0.7822152376174927,-0.008758604526519775,0.03802293539047241,0.0029946565628051758
0.5693609134987752,0.3829787147261375,2.0538859861197114,0.100496806204319,0.16045904159545898,0.40974894165992737,0.3147346079349518,-0.5390939116477966,-0.7812297344207764,0.016426891088485718,0.04052823781967163,-0.00017279386520385742
0.5720105635242639,0.3820432560544121,2.0579812584812394,0.1304740458726883,0.09065704792737961,0.42777904868125916,0.3134700357913971,-0.5413236618041992,-0.7801956534385681,0.04103744029998779,0.04143047332763672,0.004652500152587891
0.5749214842264239,0.3803160610578904,2.062253458210696,0.14128248393535614,0.03559832274913788,0.45620909333229065,0.3115357458591461,-0.5437688827514648,-0.7792694568634033,0.05565178394317627,0.048666954040527344,0.00924992561340332
0.5780299639932713,0.3780060708321141,2.066961409700147,0.13768798112869263,0.015881884843111038,0.5065518617630005,0.30910947918891907,-0.546375036239624,-0.7784122824668884,0.06291508674621582,0.05562180280685425,0.008041858673095703
0.5811534589573855,0.3752156856763795,2.072289278029213,0.11163081228733063,0.012409389019012451,0.5460910201072693,0.306309312582016,-0.548988401889801,-0.7776800990104675,0.060161054134368896,0.05756378173828125,0.0030677318572998047
0.5841949796526277,0.37227116265863774,2.07811610972237,0.10083381831645966,0.04572213813662529,0.5771684646606445,0.30340930819511414,-0.5515280365943909,-0.7770196795463562,0.05488234758377075,0.05297762155532837,-0.004031956195831299
0.587327736333534,0.369694718794536,2.084193341679681,0.11962507665157318,0.11165481805801392,0.5897902250289917,0.30078059434890747,-0.5541385412216187,-0.7761839032173157,0.04934760928153992,0.05233806371688843,-0.017166197299957275
0.5908535998270522,0.3678138419769962,2.090219511141655,0.1778077483177185,0.17763085663318634,0.5930848121643066,0.2986157536506653,-0.5570701360702515,-0.7749203443527222,0.034422606229782104,0.06297528743743896,-0.04511743783950806
0.5949165800947552,0.36674572444593917,2.095927214225001,0.23693178594112396,0.24213314056396484,0.5763351321220398,0.2969738245010376,-0.5604396462440491,-0.7731196284294128,0.021492421627044678,0.06925922632217407,-0.06164288520812988
0.5993282524764131,0.3664781452744905,2.1012184240870613,0.2671027183532715,0.2993128001689911,0.5555059313774109,0.2958780825138092,-0.5640879273414612,-0.7708832621574402,0.021352171897888184,0.06776529550552368,-0.04332566261291504
0.6037513526248425,0.3670123433053547,2.1062548127604264,0.2508752644062042,0.37104159593582153,0.5393977761268616,0.29539164900779724,-0.5677345991134644,-0.7683886289596558,0.039935529232025146,0.061463236808776855,-0.010541975498199463
0.6078309772555498,0.3677569224749056,2.1114639080717565,0.1969326138496399,0.3551408648490906,0.5496726036071777,0.29512855410575867,-0.5710882544517517,-0.7660008668899536,0.05550318956375122,0.053464412689208984,0.02501887083053589
0.6114558340440113,0.36788711374636285,2.1169604024393696,0.1545073688030243,0.29899558424949646,0.5462411642074585,0.2944818139076233,-0.5740601420402527,-0.7640257477760315,0.04903930425643921,0.049935996532440186,0.048190295696258545
0.614645579072741,0.36755572792367536,2.1225238743774737,0.11690956354141235,0.2752207815647125,0.5263234376907349,0.2935691475868225,-0.5766689777374268,-0.7624106407165527,0.03811118006706238,0.05312472581863403,0.04961162805557251
0.6175033758250832,0.36721301388071376,2.1279637496962946,0.10087520629167557,0.28780555725097656,0.506289541721344,0.2927149832248688,-0.5790014266967773,-0.7609699964523315,0.028177380561828613,0.056220054626464844,0.03875625133514404
0.6203087951387511,0.3672800118128518,2.133278012863096,0.11587702482938766,0.3426962196826935,0.5012868642807007,0.2921815514564514,-0.5812864303588867,-0.7594313025474548,0.02900072932243347,0.055636465549468994,0.014634668827056885
0.6233399182871371,0.36810265962666394,2.1384227714582082,0.15114900469779968,0.4159190356731415,0.49664947390556335,0.29217082262039185,-0.5837501883506775,-0.7575433254241943,0.026142805814743042,0.055811405181884766,-0.0029699206352233887
0.6267411024640188,0.3695779334145958,2.14347273686071,0.18812443315982819,0.4653678238391876,0.5133975744247437,0.29256922006607056,-0.5865083336830139,-0.7552557587623596,0.03348061442375183,0.060644686222076416,-0.009270548820495605
0.6306238628202373,0.37149775796899165,2.148717043126081,0.2229228913784027,0.5354409217834473,0.5559560060501099,0.29318973422050476,-0.5896487236022949,-0.7525650262832642,0.04700499773025513,0.06615018844604492,-0.008894264698028564
0.6348126767559671,0.37401672434129185,2.1542913673240953,0.22403571009635925,0.6245156526565552,0.5796298980712891,0.2941794991493225,-0.5930266976356506,-0.7495183944702148,0.04184958338737488,0.06960439682006836,0.0017614364624023438
0.638821444722779,0.3773881349232933,2.1599844529404875,0.1824139654636383,0.7216635346412659,0.5619699358940125,0.29582634568214417,-0.5962496995925903,-0.7463062405586243,0.018870949745178223,0.07116425037384033,0.021254420280456543
0.6422581246659749,0.3817327089925703,2.165765508567407,0.10863182693719864,0.8253158926963806,0.5596943497657776,0.2983008027076721,-0.5990051627159119,-0.7431079745292664,0.01569455862045288,0.07102054357528687,0.04158520698547363
0.6450090683822347,0.3864513163882077,2.172152057418209,0.022026630118489265,0.8771913647651672,0.5940227508544922,0.30118170380592346,-0.6012057065963745,-0.7401630282402039,0.030834317207336426,0.07113063335418701,0.04651379585266113
0.6473204988376429,0.39122847818643136,2.1793240022568696,-0.024419955909252167,0.9367364048957825,0.6368277668952942,0.30418339371681213,-0.6030511260032654,-0.737429141998291,0.033615678548812866,0.06653684377670288,0.02870422601699829
0.6494989998744923,0.39610069668150755,2.1871848752370813,-0.05239539593458176,0.971145749092102,0.6844845414161682,0.3072650730609894,-0.6047874689102173,-0.7347245812416077,0.03643915057182312,0.05992668867111206,0.015623688697814941
0.6516203485039553,0.40082562729214827,2.195721597771668,-0.09409972280263901,1.027254343032837,0.7340114712715149,0.31023189425468445,-0.6064755320549011,-0.7320817112922668,0.02959662675857544,0.06161469221115112,0.015590071678161621
0.6528595175017525,0.4053354197677982,2.205494027220118,-0.2985990643501282,0.9681051969528198,0.7849113941192627,0.3132336735725403,-0.6074603199958801,-0.7299839854240417,0.023375242948532104,0.05701476335525513,0.11435288190841675
0.6521953804329244,0.4063406238905505,2.2168827194075638,-0.5245453119277954,0.6358348727226257,0.8238729238510132,0.3141266703605652,-0.6069326400756836,-0.730039119720459,0.035452187061309814,0.042677879333496094,0.17846447229385376
0.6501733248970095,0.4045570436017592,2.229701801632994,-0.6338304877281189,0.5753380060195923,0.8818776607513428,0.3133065104484558,-0.605324387550354,-0.7317249178886414,0.033800482749938965,0.045296311378479004,0.12991833686828613
0.6476354413674709,0.4020293969070881,2.242887441912044,-0.6441324353218079,0.4958399832248688,0.8339682221412659,0.31205612421035767,-0.6033022999763489,-0.733925998210907,-0.03039407730102539,0.04502898454666138,0.04741787910461426
0.645033255115977,0.39933887686683156,2.2550745970256743,-0.5885983109474182,0.4423365592956543,0.7504110336303711,0.31068968772888184,-0.6012250185012817,-0.7362068295478821,-0.07321709394454956,0.03249943256378174,-0.02900618314743042
0.6424779223775046,0.3971734847198094,2.266217597733744,-0.58328777551651,0.4559101462364197,0.6956692337989807,0.3096880316734314,-0.5991811156272888,-0.7382921576499939,-0.06910267472267151,0.009764611721038818,-0.05751466751098633
0.6394596692554655,0.3954097809107731,2.276946591968134,-0.6381042003631592,0.47682714462280273,0.6570504307746887,0.3090806007385254,-0.59676194190979,-0.7405027747154236,-0.0753922164440155,0.01621079444885254,-0.04123544692993164
0.6356628150792814,0.3942285619892382,2.287542852142645,-0.7167565822601318,0.5473601222038269,0.6216657757759094,0.3090737760066986,-0.5937110185623169,-0.7429540157318115,-0.08922511339187622,0.033530354499816895,-0.03213143348693848
0.6309287128749802,0.39372126292730814,2.2982035033717683,-0.8105893135070801,0.6026390790939331,0.6003112196922302,0.3097716271877289,-0.5898949503898621,-0.7456980347633362,-0.088229238986969,0.041036248207092285,-0.021361231803894043
0.6253343778147431,0.3935385863733267,2.3089748974367796,-0.8825954794883728,0.6161307096481323,0.5777361989021301,0.31089597940444946,-0.5853683948516846,-0.7487906813621521,-0.06953239440917969,0.02584385871887207,-0.016178131103515625
0.6191209369977667,0.3934056198411697,2.3197070191586526,-0.9291169047355652,0.5955559015274048,0.5551446080207825,0.3121846616268158,-0.5803194642066956,-0.7521768808364868,-0.04947406053543091,-0.0038480162620544434,-0.015111327171325684
0.6123008925836622,0.39307932830890663,2.3303486725870126,-0.9950023293495178,0.5639095902442932,0.5252998471260071,0.3134479224681854,-0.5747518539428711,-0.7559170722961426,-0.04062074422836304,-0.020783424377441406,7.301568984985352e-05
0.604630868774563,0.3925683103453048,2.340920668794704,-1.0769587755203247,0.5365221500396729,0.48245489597320557,0.31473883986473083,-0.5684584379196167,-0.7601279616355896,-0.046153634786605835,-0.0175553560256958,0.023189544677734375
0.5960408744080771,0.3919333785045455,2.3511133130859885,-1.143547534942627,0.4737420976161957,0.4080045521259308,0.3161097764968872,-0.5613704323768616,-0.7648123502731323,-0.06824594736099243,-0.03135722875595093,0.033000826835632324
0.5865722848736695,0.3907186795618535,2.3605286193802053,-1.192929983139038,0.32110196352005005,0.3142988383769989,0.3171907365322113,-0.553509533405304,-0.7700761556625366,-0.08298355340957642,-0.05014348030090332,0.043879926204681396
0.5764213243005691,0.38840505444029294,2.369051830416906,-1.214271068572998,0.15087859332561493,0.23382455110549927,0.31751975417137146,-0.5450270175933838,-0.7759682536125183,-0.08674579858779907,-0.05552840232849121,0.046888113021850586
0.5658786178259001,0.38485022508397293,2.376816124811542,-1.2180825471878052,-0.02927546203136444,0.18337494134902954,0.31689900159835815,-0.5361576676368713,-0.7823745608329773,-0.08395829796791077,-0.05951493978500366,0.04786229133605957
0.5551773652456679,0.3795779877801978,2.3839700721951256,-1.2086070775985718,-0.26786941289901733,0.1400119513273239,0.3148777186870575,-0.5270940065383911,-0.7893186211585999,-0.09000891447067261,-0.05521190166473389,0.05685102939605713
0.5444388002438465,0.3722944597990474,2.3903779472153404,-1.1777712106704712,-0.5155903100967407,0.08320911228656769,0.31116145849227905,-0.5179381370544434,-0.7968178391456604,-0.11288875341415405,-0.037375032901763916,0.062152981758117676
0.5338414909476805,0.36327202373333123,2.3957332203916195,-1.1189048290252686,-0.7278218269348145,0.011890837922692299,0.3058929145336151,-0.5088440775871277,-0.8046783804893494,-0.13630670309066772,-0.03063046932220459,0.04988718032836914
0.5236056904156673,0.3531512119331129,2.3998476751523508,-1.0417296886444092,-0.8695720434188843,-0.0662955716252327,0.2995191216468811,-0.5000059604644775,-0.8125776052474976,-0.15199711918830872,-0.04305434226989746,0.03337228298187256
0.5136994608250539,0.34259964550171185,2.4026807267681263,-0.9887440204620361,-0.9480327367782593,-0.1429492086172104,0.2925782799720764,-0.49140259623527527,-0.8203179240226746,-0.15372326970100403,-0.05831056833267212,0.038305044174194336
0.5039034207195217,0.3320098668339864,2.4044303876832394,-0.9614261388778687,-0.9950026869773865,-0.21314480900764465,0.2854304313659668,-0.4828474521636963,-0.8278815150260925,-0.1430354118347168,-0.0653550922870636,0.054901838302612305
0.4938752234595252,0.32139225852027925,2.4054357835098013,-0.9987227916717529,-1.0268737077713013,-0.25784993171691895,0.27814003825187683,-0.47404158115386963,-0.8354176878929138,-0.12452977895736694,-0.07742634415626526,0.0877676010131836
0.48307067222818784,0.3106237289751711,2.406144768323153,-1.0928524732589722,-1.0612818002700806,-0.2921237647533417,0.2706775963306427,-0.46450066566467285,-0.8431920409202576,-0.12272834777832031,-0.06497934460639954,0.13793081045150757
0.4712098818109217,0.2992039002777432,2.40667705481678,-1.1918222904205322,-1.1727111339569092,-0.32346484065055847,0.26263657212257385,-0.4539646506309509,-0.8514329791069031,-0.12858808040618896,-0.03977927565574646,0.16872429847717285
0.45840151157985637,0.2865799678136414,2.407195497363369,-1.2829647064208984,-1.2992595434188843,-0.3169555366039276,0.2534904181957245,-0.44251522421836853,-0.8601877093315125,-0.1121940016746521,-0.04544562101364136,0.18681740760803223
0.4447465075259377,0.27249963016108747,2.4080676661859273,-1.3789664506912231,-1.4344595670700073,-0.28211328387260437,0.2429576963186264,-0.4302290678024292,-0.8694104552268982,-0.08539541065692902,-0.05999007821083069,0.2108106017112732
0.430127831818649,0.25697795341553037,2.4093059596342226,-1.4964094161987305,-1.5388587713241577,-0.2669929265975952,0.23100818693637848,-0.41698700189590454,-0.879065990447998,-0.0840965211391449,-0.06488558650016785,0.24510914087295532
0.41427972447476036,0.2403946686470276,2.4107947735421003,-1.6372474431991577,-1.6502838134765625,-0.2426004260778427,0.21794544160366058,-0.402530699968338,-0.8890831470489502,-0.0789378434419632,-0.060146331787109375,0.2665550708770752
0.39685985627409737,0.22271052921837142,2.4126500335485246,-1.8294637203216553,-1.7310808897018433,-0.22721214592456818,0.2037075310945511,-0.38652417063713074,-0.8995011448860168,-0.0905635803937912,-0.07209399342536926,0.2873491048812866
0.377579177392589,0.20417410936941327,2.41451205494819,-1.9947302341461182,-1.8121793270111084,-0.2563723921775818,0.18847616016864777,-0.3686712384223938,-0.9102517366409302,-0.09205582737922668,-0.0803491473197937,0.26837557554244995
0.35687195329250415,0.18567673204971133,2.415912109764388,-2.09889817237854,-1.763936161994934,-0.28114137053489685,0.17298007011413574,-0.34934499859809875,-0.9208886623382568,-0.11981838941574097,-0.07121777534484863,0.1951196789741516
0.3353741130707368,0.16815982365801707,2.416957905370206,-2.1508967876434326,-1.657525658607483,-0.27581679821014404,0.15804386138916016,-0.3291224539279938,-0.9309675097465515,-0.11631102859973907,-0.07276356220245361,0.1293013095855713
0.31353360491191523,0.1518695479980005,2.4177270270843336,-2.1678338050842285,-1.5465214252471924,-0.2730710804462433,0.14391116797924042,-0.30842190980911255,-0.9403007626533508,-0.10518431663513184,-0.07896828651428223,0.06823045015335083
0.29179544098165705,0.1366506055317358,2.418063241499502,-2.121349811553955,-1.4826806783676147,-0.28724557161331177,0.13046731054782867,-0.287672221660614,-0.948800802230835,-0.09019933640956879,-0.07525807619094849,0.012246906757354736
0.270853426874392,0.12168708431047995,2.417643500367484,-2.0003013610839844,-1.5367604494094849,-0.3369220495223999,0.11696156859397888,-0.26755383610725403,-0.9564177393913269,-0.0716276690363884,-0.07079458236694336,-0.06834721565246582
0.251378014575711,0.1062024153801572,2.4159699696886454,-1.812656283378601,-1.6251415014266968,-0.4300011396408081,0.10267127305269241,-0.24873889982700348,-0.9631134867668152,-0.05498751997947693,-0.0655464231967926,-0.14093619585037231
0.23428174970418364,0.09088957509654777,2.4126658982637617,-1.4971399307250977,-1.5700385570526123,-0.5474175214767456,0.0882849246263504,-0.23214441537857056,-0.9686664938926697,-0.05250302702188492,-0.06552407145500183,-0.19812732934951782
0.22087061965615734,0.07725971847310437,2.4073859433093534,-1.0770227909088135,-1.372315526008606,-0.7008237838745117,0.07530788332223892,-0.2190791815519333,-0.9727964997291565,-0.057226166129112244,-0.06160628795623779,-0.267544686794281
0.21179760344809814,0.0666191319639207,2.400082628634696,-0.6237918138504028,-1.0345839262008667,-0.8388857841491699,0.06508233398199081,-0.2102176696062088,-0.9754859209060669,-0.05751392990350723,-0.04228478670120239,-0.31569749116897583
0.2073993578214155,0.060727264415779345,2.391573695371845,-0.1396317481994629,-0.4859674274921417,-0.8592107892036438,0.05938934534788132,-0.2059156894683838,-0.9767659306526184,-0.026354029774665833,-0.0518968403339386,-0.3249613642692566
0.2081054944289801,0.060435158944528666,2.3830620708924326,0.3839885890483856,0.06616020947694778,-0.7817364931106567,0.05909522622823715,-0.2066066414117813,-0.9766378402709961,0.019853800535202026,-0.07156111299991608,-0.3402719497680664
0.21410833645431623,0.06519588447695433,2.375408643411748,0.8979604840278625,0.5549946427345276,-0.6200987100601196,0.0636620968580246,-0.2124762088060379,-0.9750902652740479,0.02462530881166458,-0.044756487011909485,-0.36219000816345215
0.2250991294977714,0.07402054664222216,2.369413830557489,1.3528715372085571,0.9268465042114258,-0.3890010416507721,0.07208728790283203,-0.22320298850536346,-0.9721028208732605,0.029093794524669647,0.007809877395629883,-0.381855309009552
0.2400879970879984,0.08531950985524907,2.365449776079385,1.6645374298095703,1.0987169742584229,-0.1436917930841446,0.08277178555727005,-0.2377880960702896,-0.9677838683128357,0.005591899156570435,0.07540403306484222,-0.39639759063720703
0.25736193536969143,0.09628310358585732,2.3633896597766513,1.7752711772918701,0.959938108921051,0.05012001842260361,0.09296820312738419,-0.25453025102615356,-0.9625856876373291,-0.058193378150463104,0.14774924516677856,-0.3959042429924011
0.2749201343576673,0.10520497110348907,2.3627155669425797,1.7037849426269531,0.8010683059692383,0.1649356186389923,0.10106752067804337,-0.2714700698852539,-0.9571255445480347,-0.13214963674545288,0.18478485941886902,-0.37899500131607056
0.29132845108411853,0.11335078984605261,2.363011429829248,1.538827896118164,0.8756623864173889,0.24737989902496338,0.10834219306707382,-0.2872249484062195,-0.9517162442207336,-0.19061753153800964,0.1538478434085846,-0.32387274503707886
