attitudeX,attitudeY,attitudeZ,gyroX,gyroY,gyroZ,gravityX,gravityY,gravityZ,accX,accY,accZ
1.1936016802708982,1.074861660493501,-1.314944146801723,-0.2025938183069229,0.4973790943622589,-0.10773877054452896,0.32394111156463623,-0.929701566696167,-0.1752636581659317,0.31248778104782104,-0.01892220973968506,-0.002607882022857666
1.191759776085763,1.0768091836237366,-1.3116359146704586,-0.17858918011188507,0.5033323764801025,-0.10333502292633057,0.32578879594802856,-0.9290215969085693,-0.17544397711753845,0.40112465620040894,-0.018121957778930664,-0.033906444907188416
1.1901779433596718,1.080061895599267,-1.3093414062984352,-0.11677294969558716,0.5882355570793152,-0.08939950168132782,0.3276534080505371,-0.9284350872039795,-0.17507566511631012,0.4881577789783478,-0.017167329788208008,-0.07950179278850555
1.1892688944379204,1.0858855353585037,-1.308341280805787,-0.0343405082821846,0.769745409488678,-0.025419481098651886,0.3294140696525574,-0.9280970096588135,-0.17355795204639435,0.5979083776473999,-0.015750646591186523,-0.1251937597990036
1.1895602642840615,1.0945454168976199,-1.3081532092854429,0.04958634823560715,0.9908053874969482,0.08690360188484192,0.33066457509994507,-0.9282054305076599,-0.17057493329048157,0.7271357774734497,-0.003969311714172363,-0.162936270236969
1.1914030832934848,1.105515969372805,-1.308380079562529,0.12977351248264313,1.135975956916809,0.2408285140991211,0.33098676800727844,-0.9288895130157471,-0.1661694496870041,0.835150957107544,0.017314016819000244,-0.18546922504901886
1.195229751437295,1.1165672373471904,-1.3078231992690295,0.16750970482826233,1.1588187217712402,0.47205135226249695,0.32960620522499084,-0.9302999377250671,-0.16094067692756653,0.947356104850769,0.04715168476104736,-0.18216830492019653
1.2015538327690665,1.1252170623067717,-1.3046013351365362,0.16705529391765594,1.1704375743865967,0.7698466181755066,0.32567065954208374,-0.9326009750366211,-0.15554498136043549,1.076032280921936,0.09236043691635132,-0.16142570972442627
1.2108740042963875,1.1304158791905556,-1.2972398213337104,0.1519322693347931,1.2455822229385376,1.1401593685150146,0.31859806180000305,-0.9359241724014282,-0.15013787150382996,1.1768395900726318,0.14507633447647095,-0.1532677412033081
1.223558757924064,1.1314461512300613,-1.284268178782033,0.11091233044862747,1.3886990547180176,1.529923439025879,0.307982861995697,-0.940316379070282,-0.14474791288375854,1.2429205179214478,0.20197391510009766,-0.1537138968706131
1.2394657154211661,1.1273058370980276,-1.2641714052429127,0.034389056265354156,1.5686137676239014,1.9052106142044067,0.2938319742679596,-0.9456103444099426,-0.13958536088466644,1.2500675916671753,0.2652208209037781,-0.1493549346923828
1.2582229600459003,1.1165374434801854,-1.2349893530123932,-0.07408101111650467,1.8115044832229614,2.2611241340637207,0.27632272243499756,-0.9515454173088074,-0.13493351638317108,1.2093645334243774,0.3249432444572449,-0.14469890296459198
1.279519526750454,1.097341314277585,-1.194781555411621,-0.15428103506565094,1.9948673248291016,2.5977461338043213,0.2555862069129944,-0.9578779935836792,-0.1309419423341751,1.1419968605041504,0.3942944407463074,-0.16188938915729523
1.3030756753712258,1.0669452406973303,-1.1418486908808811,-0.21101665496826172,2.081852436065674,2.9093899726867676,0.2316601574420929,-0.9643763899803162,-0.12771736085414886,1.048689603805542,0.46410173177719116,-0.2042069286108017
1.3283386497660428,1.0214898273789075,-1.0728960478987284,-0.25345760583877563,2.1545543670654297,3.180678367614746,0.20476900041103363,-0.9707508683204651,-0.12534964084625244,0.9408608675003052,0.5324573516845703,-0.2525951862335205
1.3544938669789497,0.9562030854184905,-0.9832572373261254,-0.279595285654068,2.2428770065307617,3.396836757659912,0.17534588277339935,-0.9766976833343506,-0.12375525385141373,0.8106160163879395,0.5896585583686829,-0.29877573251724243
1.3803038629372357,0.8638001641312485,-0.8655286210659854,-0.30658483505249023,2.3155112266540527,3.55934476852417,0.14396065473556519,-0.9819111227989197,-0.12298833578824997,0.6827300190925598,0.6434405446052551,-0.3353550434112549
1.4042092481580648,0.7354280709220499,-0.7113254652778624,-0.28994429111480713,2.349825143814087,3.6417815685272217,0.11124823242425919,-0.9861564040184021,-0.12296146154403687,0.540363073348999,0.6922415494918823,-0.3809751868247986
1.4243641760656418,0.5637768416561928,-0.5134706462140777,-0.2344416230916977,2.3968918323516846,3.660900831222534,0.0779714360833168,-0.9892979860305786,-0.12332892417907715,0.3845682144165039,0.7212010025978088,-0.4362260103225708
1.4387164133801438,0.34696434497974754,-0.27013804353006476,-0.16922922432422638,2.424259662628174,3.6103827953338623,0.04478295519948006,-0.9912900924682617,-0.12384936213493347,0.23463597893714905,0.7333402037620544,-0.47302860021591187
1.4453551355096663,0.10033847184703189,0.003333489363418832,-0.09593956172466278,2.4856162071228027,3.490565776824951,0.012532640248537064,-0.9921425580978394,-0.12448418140411377,0.08513885736465454,0.7085121273994446,-0.4867980480194092
1.443991782920832,-0.14550467674579273,0.27657986155961845,-0.022459862753748894,2.5564215183258057,3.3506009578704834,-0.018336422741413116,-0.9919710755348206,-0.1251288652420044,-0.06200110912322998,0.6689271926879883,-0.49379801750183105
1.435718983190576,-0.3604521943733865,0.5200206315755749,0.02178403176367283,2.7220072746276855,3.1770684719085693,-0.04749681055545807,-0.9908909201622009,-0.12601323425769806,-0.20488357543945312,0.6426700353622437,-0.4884427785873413
1.4227526641315593,-0.5304684604655852,0.7200878398053528,0.08949901163578033,2.8507890701293945,3.007510185241699,-0.074627585709095,-0.9890615344047546,-0.12723217904567719,-0.3574250340461731,0.6115133166313171,-0.48136448860168457
1.4073665068845125,-0.6620522568374014,0.8821503038156404,0.19024613499641418,2.831275701522827,2.849006175994873,-0.10001970082521439,-0.9866750240325928,-0.128329336643219,-0.5037553310394287,0.5637013912200928,-0.47027283906936646
1.3909278801846692,-0.7618622711813645,1.0123608623416536,0.21747718751430511,2.858119487762451,2.6400136947631836,-0.12348935753107071,-0.9838672280311584,-0.1294434517621994,-0.6645660996437073,0.519252359867096,-0.43192726373672485
1.3742884407329945,-0.8334826998607627,1.1146240407324979,0.20346416532993317,2.882528781890869,2.3871681690216064,-0.14453592896461487,-0.9807543754577637,-0.13126398622989655,-0.858012318611145,0.46261167526245117,-0.3679271340370178
1.3586117121871675,-0.8827559665583526,1.1946231536015806,0.2004619985818863,2.921044111251831,2.0824177265167236,-0.16268351674079895,-0.9775731563568115,-0.13373348116874695,-1.060659408569336,0.3667944669723511,-0.3155613839626312
1.3446559993734213,-0.9119999434499,1.2549028633235664,0.09492571651935577,2.96895170211792,1.7140941619873047,-0.17729593813419342,-0.974539041519165,-0.1372586339712143,-1.2870442867279053,0.24020975828170776,-0.25414443016052246
1.3326031363006687,-0.9222203276369222,1.2956076749722876,-0.07591640204191208,2.857797861099243,1.333682894706726,-0.18803712725639343,-0.9717658758163452,-0.1425246000289917,-1.5376098155975342,0.10964423418045044,-0.16651153564453125
1.3223489215146653,-0.9193367854622633,1.320188823882647,-0.20855247974395752,2.4327235221862793,1.014121174812317,-0.19553914666175842,-0.9692953824996948,-0.14910055696964264,-1.7379478216171265,-0.016803860664367676,-0.11295376718044281
1.3139970696347314,-0.9107957310862883,1.3335839886689729,-0.2682827413082123,1.8508234024047852,0.7099481225013733,-0.20064693689346313,-0.9672078490257263,-0.15572325885295868,-1.8888764381408691,-0.13462930917739868,-0.12093371152877808
1.3080442355726705,-0.9003780936296107,1.3391715074069936,-0.22082628309726715,1.306303858757019,0.40014204382896423,-0.20352178812026978,-0.9656788110733032,-0.16137957572937012,-2.028289794921875,-0.23456233739852905,-0.18490326404571533
1.3053100390264862,-0.8918177398054873,1.340961829644847,-0.03058413602411747,0.7396367192268372,0.08430340886116028,-0.20418694615364075,-0.9649650454521179,-0.16477343440055847,-2.1313233375549316,-0.29466331005096436,-0.2966979742050171
1.3066341417686733,-0.8887759168341057,1.342414356621825,0.26412978768348694,0.14740297198295593,-0.2426970899105072,-0.20269277691841125,-0.965311586856842,-0.16458825767040253,-2.1950886249542236,-0.33377599716186523,-0.409340500831604
1.312552724025731,-0.892944402867391,1.345080126260875,0.5850082635879517,-0.45883551239967346,-0.593471109867096,-0.19892355799674988,-0.9668400287628174,-0.16015629470348358,-2.2158560752868652,-0.3428524136543274,-0.46864306926727295
1.323134548773485,-0.9031385119660972,1.3480127049140558,0.8345128893852234,-0.9943056106567383,-0.9651245474815369,-0.19250012934207916,-0.969488263130188,-0.151776522397995,-2.1990556716918945,-0.31591206789016724,-0.46075695753097534
1.337821495928229,-0.9156330704669251,1.3482513131937217,0.9612651467323303,-1.4336299896240234,-1.3399817943572998,-0.18307022750377655,-0.9729838967323303,-0.14066818356513977,-2.135746955871582,-0.2844928503036499,-0.39178717136383057
1.3560966451232834,-0.9245535340445581,1.3411344099669875,0.9808431267738342,-1.705549716949463,-1.7522974014282227,-0.17009219527244568,-0.9770404100418091,-0.1282993108034134,-2.033170223236084,-0.23549926280975342,-0.30520278215408325
1.3776350415233725,-0.9227408119197787,1.3209596537691168,0.9575158953666687,-1.8704440593719482,-2.1558454036712646,-0.15304391086101532,-0.9814022779464722,-0.11587578058242798,-1.9241350889205933,-0.16802704334259033,-0.25326472520828247
1.4017705080931895,-0.9055056604222887,1.2832501204846365,0.9039447903633118,-2.095026731491089,-2.4662959575653076,-0.13234734535217285,-0.9857491254806519,-0.10384203493595123,-1.7759778499603271,-0.09242182970046997,-0.23412473499774933
1.4273040098488692,-0.8667807418853464,1.2215924578301194,0.8274447321891785,-2.3311033248901367,-2.6756374835968018,-0.10900215804576874,-0.9897226095199585,-0.09256203472614288,-1.5883855819702148,-0.0005575418472290039,-0.22668224573135376
1.4529322504898732,-0.7930701907836366,1.1224782169769583,0.7161880135536194,-2.568770170211792,-2.8209705352783203,-0.08378484100103378,-0.9930620789527893,-0.08250900357961655,-1.425492525100708,0.09018433094024658,-0.2328595519065857
1.4770615040120931,-0.6589534812026516,0.9603389987700228,0.6078381538391113,-2.850482940673828,-2.901137113571167,-0.05730848386883736,-0.9956101179122925,-0.07400091737508774,-1.2866551876068115,0.16388410329818726,-0.2522318959236145
1.4972645771760031,-0.42295845973301593,0.6931747862123203,0.5325711369514465,-3.1857893466949463,-2.955986499786377,-0.030155129730701447,-0.9972977638244629,-0.06699268519878387,-1.166774868965149,0.22796475887298584,-0.30175113677978516
1.509374884182202,-0.04167807738584282,0.27731778239633254,0.500462532043457,-3.523439884185791,-2.979153871536255,-0.002557615749537945,-0.998114287853241,-0.06133043393492699,-1.075018048286438,0.2869173288345337,-0.36710572242736816
1.5087363024221574,0.41433659380432586,-0.21629929988759766,0.48585107922554016,-3.763277053833008,-2.948655605316162,0.024968890473246574,-0.9980748891830444,-0.056773703545331955,-0.9687555432319641,0.33686572313308716,-0.4388774037361145
1.4958250192356113,0.77126905233203,-0.6123634124242509,0.41784796118736267,-3.843721628189087,-2.916783094406128,0.0522100031375885,-0.9971909523010254,-0.05370660871267319,-0.8593846559524536,0.3917222023010254,-0.5032848119735718
1.4757167258460628,0.9863974095602025,-0.8671200465411926,0.35799768567085266,-3.8755385875701904,-2.892202854156494,0.07918255776166916,-0.9954833388328552,-0.05237719044089317,-0.7691239714622498,0.4370267391204834,-0.5414032340049744
1.452095642464423,1.1096322156453546,-1.0301350918386563,0.2939341068267822,-3.8616182804107666,-2.91078782081604,0.10605134814977646,-0.9929633140563965,-0.05269685760140419,-0.6893795728683472,0.4566168785095215,-0.5808784365653992
1.4262198246942794,1.1793263568341825,-1.1389700061839958,0.15594561398029327,-3.736381769180298,-2.963167190551758,0.1331748217344284,-0.98956698179245,-0.05497114360332489,-0.6253775954246521,0.4747048616409302,-0.6027741432189941
1.3984806729339083,1.2156789011277818,-1.2129372509405283,-0.0008821818046271801,-3.5861353874206543,-3.0358359813690186,0.16076672077178955,-0.9851903319358826,-0.059618521481752396,-0.559280514717102,0.49487948417663574,-0.6226475834846497
1.3693635928812669,1.232108907798631,-1.2661042434653724,-0.11629452556371689,-3.5678293704986572,-3.0904197692871094,0.18870732188224792,-0.979780912399292,-0.06647417694330215,-0.4835987091064453,0.5157306790351868,-0.6696707010269165
1.3394648512326806,1.2356274105039302,-1.3064573213326907,-0.22212402522563934,-3.57879638671875,-3.1060094833374023,0.21651595830917358,-0.9733619689941406,-0.07541478425264359,-0.3844084143638611,0.5374488234519958,-0.7286317348480225
1.309486048534077,1.2309368583179292,-1.3387032557881577,-0.26525789499282837,-3.6050546169281006,-3.0742039680480957,0.24356964230537415,-0.9660522937774658,-0.08612105250358582,-0.26473355293273926,0.5655853748321533,-0.7962182760238647
1.2800681077448848,1.2227608398159393,-1.3689956117706799,-0.14126700162887573,-3.859957218170166,-2.9995179176330566,0.2694634795188904,-0.958035409450531,-0.09776237607002258,-0.14927005767822266,0.5768556594848633,-0.8934789896011353
1.2522331313063617,1.2139164631302435,-1.401932632620879,0.07712364941835403,-4.151601791381836,-2.8918874263763428,0.2934679388999939,-0.9496864080429077,-0.10941800475120544,-0.035411328077316284,0.5777076482772827,-0.9909694790840149
1.2260937725876562,1.205246278445754,-1.437599247564201,0.23790743947029114,-4.274649143218994,-2.811716318130493,0.3155897855758667,-0.9411759972572327,-0.12079279124736786,0.06700912117958069,0.5781083703041077,-1.0301470756530762
1.2009644915617315,1.1963125640212564,-1.4739557904693381,0.3024273216724396,-4.290462970733643,-2.786219835281372,0.3364085555076599,-0.9323881268501282,-0.13221880793571472,0.14882096648216248,0.5766142010688782,-0.9919723272323608
1.175874568497111,1.1861638102702288,-1.5088553126917081,0.23379471898078918,-4.155206680297852,-2.831287145614624,0.3566260039806366,-0.9230266809463501,-0.14436015486717224,0.2320733666419983,0.5634532570838928,-0.9140961170196533
1.1496853029655794,1.1746414826903586,-1.539715927310504,0.02286357805132866,-3.7612478733062744,-2.9308578968048096,0.3771159052848816,-0.912635326385498,-0.15773554146289825,0.3434194326400757,0.549079418182373,-0.8129369616508484
1.1215707473382215,1.1626557159444497,-1.5655059286647353,-0.22178129851818085,-3.2930283546447754,-3.0817794799804688,0.3985975384712219,-0.9007836580276489,-0.17236249148845673,0.4937364459037781,0.5311089754104614,-0.72581547498703
1.0911987188952386,1.151507940045374,-1.5877247391579683,-0.3812950551509857,-2.893580198287964,-3.257107973098755,0.42145341634750366,-0.8871806859970093,-0.18784990906715393,0.6646062135696411,0.523395836353302,-0.6918343901634216
1.0591913503238866,1.1432877536671948,-1.6090745929666277,-0.37492799758911133,-2.4931538105010986,-3.381967067718506,0.4455161988735199,-0.8719598650932312,-0.20298118889331818,0.86312335729599,0.5457726716995239,-0.7451998591423035
1.0271884157593647,1.1399827291820985,-1.6322531623930148,-0.13423018157482147,-2.168020009994507,-3.3648126125335693,0.46996620297431946,-0.8558481335639954,-0.21599934995174408,1.104862928390503,0.5767038464546204,-0.8465616106987
0.9977455026120265,1.1425308223911985,-1.659635199259809,0.34296345710754395,-1.9628350734710693,-3.1501832008361816,0.4932308495044708,-0.8402507305145264,-0.22517140209674835,1.4347476959228516,0.5931040644645691,-0.952394962310791
0.9735013843014021,1.1507793526015966,-1.6921851463233217,0.9337138533592224,-1.801044225692749,-2.69602108001709,0.51352459192276,-0.8268600106239319,-0.2293364405632019,1.7989449501037598,0.5882887244224548,-1.0117523670196533
0.9566041549227604,1.1634823962686116,-1.7283887492910617,1.4584754705429077,-1.5848864316940308,-2.01658034324646,0.5291506052017212,-0.8172392845153809,-0.22829750180244446,2.163094997406006,0.5855955481529236,-0.9589887261390686
0.9481234882957911,1.179367420491173,-1.765611114602765,1.8211441040039062,-1.2818052768707275,-1.2031222581863403,0.5390973687171936,-0.8123225569725037,-0.22249963879585266,2.474788188934326,0.5875148773193359,-0.7862740755081177
0.9481245555360129,1.1969069986981844,-1.801046355988238,1.9784234762191772,-0.9606546759605408,-0.3457774817943573,0.5429161787033081,-0.8123231530189514,-0.21301011741161346,2.683295488357544,0.5927644371986389,-0.5418420433998108
0.9560464461533366,1.2142913137347675,-1.8324381232585416,1.9525529146194458,-0.6704246997833252,0.5188430547714233,0.5404894948005676,-0.8169177174568176,-0.20128796994686127,2.7777020931243896,0.5795671343803406,-0.27774640917778015
0.9712695249353012,1.2299529611110884,-1.8579187247716604,1.7917205095291138,-0.37050381302833557,1.3279287815093994,0.5317922830581665,-0.8256027102470398,-0.18861931562423706,2.7733073234558105,0.5719863176345825,-0.03837031126022339
0.992732453753813,1.243640681412038,-1.8768416911305814,1.591243863105774,-0.038700301200151443,2.0096511840820312,0.5174223780632019,-0.8375221490859985,-0.1755872219800949,2.67610502243042,0.6052375435829163,0.11798542737960815
1.0194839900453163,1.2556460304663635,-1.8895530767891826,1.3710730075836182,0.31752246618270874,2.6261911392211914,0.498008131980896,-0.8518378734588623,-0.16235847771167755,2.4933249950408936,0.6564947962760925,0.1767781376838684
1.051146559448107,1.2653939250214052,-1.894239337612325,0.9911304116249084,0.81340491771698,3.2236995697021484,0.47359782457351685,-0.867993175983429,-0.14930908381938934,2.284825086593628,0.6430327892303467,0.2013722062110901
1.086598036212821,1.269954957544907,-1.8876591352202816,0.5222626328468323,1.2454195022583008,3.6968743801116943,0.4445924758911133,-0.8850484490394592,-0.13793854415416718,2.1061887741088867,0.640434741973877,0.2676536440849304
1.1250326304102551,1.267541187455214,-1.868635766261723,0.15057165920734406,1.6633371114730835,4.117947578430176,0.4114737808704376,-0.902281641960144,-0.12875281274318695,1.9098610877990723,0.7078846096992493,0.2481071949005127
1.1661645696974094,1.257512694418344,-1.8370324654295165,-0.13359752297401428,2.0912599563598633,4.476967811584473,0.3745187819004059,-0.9192474484443665,-0.12132607400417328,1.734200119972229,0.7718932628631592,0.14522147178649902
1.2094309795208402,1.2385536851345378,-1.7911153455060964,-0.3647734820842743,2.6287953853607178,4.7791852951049805,0.3342173397541046,-0.9354149699211121,-0.11531586199998856,1.5672872066497803,0.8290611505508423,0.01189190149307251
1.2543646185534552,1.2076207999771371,-1.7280759043473057,-0.4941937327384949,3.0325324535369873,5.058094024658203,0.29088059067726135,-0.9503518342971802,-0.1105441153049469,1.4123512506484985,0.8660164475440979,-0.13687700033187866
1.300665916961341,1.1581076070389011,-1.6435692172268783,-0.5155395269393921,3.203385353088379,5.316340446472168,0.24445341527462006,-0.9637361168861389,-0.10702942311763763,1.2714309692382812,0.9079652428627014,-0.2668260335922241
1.3476269268426986,1.0775946967476384,-1.527171459705007,-0.48262348771095276,3.239292621612549,5.565772533416748,0.19494542479515076,-0.975200891494751,-0.10478466004133224,1.1346750259399414,0.9763603806495667,-0.3733493685722351
1.3935870429715942,0.9415151803120216,-1.355523694315245,-0.40816444158554077,3.164574384689331,5.774388313293457,0.14251708984375,-0.9843394756317139,-0.10375448316335678,0.9876404404640198,1.0380806922912598,-0.46207183599472046
1.4345793200377837,0.7026964752995554,-1.0821986215607557,-0.2833409905433655,3.060577154159546,5.924509525299072,0.08776184916496277,-0.9907367825508118,-0.10362614691257477,0.8300238251686096,1.090514063835144,-0.5438804626464844
1.4621539405448092,0.29374077796722464,-0.6399974213395287,-0.1079539880156517,2.9367356300354004,6.013476371765137,0.0313941165804863,-0.9941042065620422,-0.1037852019071579,0.6736229658126831,1.1370179653167725,-0.6280567049980164
1.4636921061692731,-0.24241379780718292,-0.07146594702363811,0.09904038906097412,2.906139850616455,6.026148319244385,-0.025660960003733635,-0.994269847869873,-0.10377432405948639,0.5316729545593262,1.1680521965026855,-0.6947332620620728
1.4384323003433754,-0.6719594173956915,0.3905988926916007,0.3097747266292572,2.9445457458496094,5.932521343231201,-0.08215880393981934,-0.9912526607513428,-0.10328614711761475,0.38103270530700684,1.1957356929779053,-0.7460179328918457
1.3986483964586385,-0.9263013507897148,0.6779037006059246,0.41522061824798584,2.9755377769470215,5.72457218170166,-0.13693685829639435,-0.9852191209793091,-0.1029154509305954,0.20772239565849304,1.2177783250808716,-0.7549945712089539
1.3537296020428597,-1.0703472336961217,0.8549122487265628,0.48125237226486206,2.9238440990448,5.4593915939331055,-0.18895497918128967,-0.9765333533287048,-0.10333678871393204,0.021581336855888367,1.202195644378662,-0.7465013861656189
1.3079446554070948,-1.1557751346594898,0.972644702315152,0.4869481921195984,2.856975793838501,5.177211284637451,-0.23777732253074646,-0.9656529426574707,-0.10476802289485931,-0.17509497702121735,1.1485905647277832,-0.7438951730728149
1.2627872213414286,-1.2086648315797164,1.0573184870397665,0.514628529548645,2.789203405380249,4.961052894592285,-0.2835002839565277,-0.9529390335083008,-0.10740076750516891,-0.3421710729598999,1.0729646682739258,-0.7422695159912109
1.2186837879734091,-1.245861287031251,1.1251255171117327,0.6685641407966614,2.563502788543701,4.779885292053223,-0.32683444023132324,-0.9386462569236755,-0.11010248959064484,-0.48030972480773926,0.9772051572799683,-0.7711229920387268
1.1767342713916364,-1.2772560326327362,1.1847470881638325,0.917553722858429,2.2531557083129883,4.484995365142822,-0.3675193786621094,-0.9233570694923401,-0.11109098047018051,-0.6692695617675781,0.8776264786720276,-0.8128132820129395
1.1384515706729608,-1.305514223485969,1.2392758283046348,1.1689631938934326,2.091935634613037,4.035853385925293,-0.40434369444847107,-0.9079858064651489,-0.1098543033003807,-0.943083643913269,0.7741204500198364,-0.829613983631134
1.1052556574483972,-1.3297227081913303,1.289758875013503,1.3986743688583374,2.1837806701660156,3.4540908336639404,-0.43592485785484314,-0.8935790061950684,-0.10717426985502243,-1.2239110469818115,0.6591581702232361,-0.8143649101257324
1.0778487971550579,-1.3487822479588905,1.3373109425634908,1.6044402122497559,2.424252510070801,2.8724944591522217,-0.4616100788116455,-0.8809418678283691,-0.10420163720846176,-1.456679105758667,0.5347197651863098,-0.776917040348053
1.0556719725151076,-1.3643043935638424,1.3835997000561224,1.8074042797088623,2.5333189964294434,2.414665460586548,-0.4821777045726776,-0.8702314496040344,-0.10100549459457397,-1.616653561592102,0.4234692454338074,-0.700065553188324
1.0374868170461993,-1.3790232946141308,1.4291657234700905,1.9109723567962646,2.3591184616088867,2.0378527641296387,-0.49906644225120544,-0.8611292839050293,-0.09689828008413315,-1.7482633590698242,0.3564600348472595,-0.5677133798599243
1.0227524043631153,-1.393710852868818,1.4718247814298,1.8299545049667358,1.989654541015625,1.6532241106033325,-0.5128706097602844,-0.8535453081130981,-0.09178335964679718,-1.9133684635162354,0.30627357959747314,-0.36413389444351196
1.0111625204887635,-1.4081924806856303,1.5094226410920353,1.666280746459961,1.4770684242248535,1.2927602529525757,-0.5238730907440186,-0.8474496006965637,-0.08594255894422531,-2.084265947341919,0.2505868673324585,-0.16112762689590454
1.0024663591914316,-1.4243448657412052,1.5424512066762317,1.5564714670181274,0.8580544590950012,0.9617631435394287,-0.5324636101722717,-0.8428009748458862,-0.07854240387678146,-2.205390453338623,0.20591449737548828,-0.033456966280937195
0.9967159769965439,-1.4440986791271815,1.572474593791875,1.497780680656433,0.2504342496395111,0.605892539024353,-0.5387097597122192,-0.8396920561790466,-0.06862083077430725,-2.2949540615081787,0.18495279550552368,0.030580833554267883
0.9944397386923074,-1.4677218976043533,1.6006239966169273,1.490175724029541,-0.24274110794067383,0.19049827754497528,-0.5420804619789124,-0.8384537696838379,-0.05607335641980171,-2.367541790008545,0.17832797765731812,0.07658129930496216
0.9960787084056073,-1.4953434592269688,1.6282521331159812,1.524381160736084,-0.6308876276016235,-0.2540474236011505,-0.5420513153076172,-0.8393458127975464,-0.0409771203994751,-2.403169631958008,0.18408751487731934,0.11696600914001465
1.00188113732786,-1.52656316915471,1.65599704449367,1.524706244468689,-0.9377639293670654,-0.7183107137680054,-0.5381914377212524,-0.8424859046936035,-0.023821445181965828,-2.398667812347412,0.21443414688110352,0.17883563041687012
1.0118651653663888,-1.5606911095134848,1.6835134767783324,1.4478141069412231,-1.230661392211914,-1.1884870529174805,-0.5302534103393555,-0.847822368144989,-0.005358508322387934,-2.3373918533325195,0.263136088848114,0.28598302602767944
1.02619431948567,-1.5961255699782368,1.7094608848137458,1.2164069414138794,-1.4090734720230103,-1.689409613609314,-0.5179117918014526,-0.8553335666656494,0.013121119700372219,-2.2439138889312744,0.30722254514694214,0.41262972354888916
1.0451106841238464,-1.6293840785000744,1.7311807201232632,0.8139750957489014,-1.4958592653274536,-2.1660714149475098,-0.500945508480072,-0.8649801015853882,0.029382895678281784,-2.1294713020324707,0.35426831245422363,0.5249233245849609
1.068616857261979,-1.6577880574233912,1.7462096182935216,0.30168700218200684,-1.5575063228607178,-2.6074349880218506,-0.47951740026474,-0.8765355944633484,0.04181959107518196,-1.9889123439788818,0.39505958557128906,0.5972949266433716
1.0966401765745546,-1.6789154321456687,1.752348529043112,-0.2762471139431,-1.5651921033859253,-2.9985098838806152,-0.45392197370529175,-0.8896783590316772,0.049269769340753555,-1.8361629247665405,0.42643672227859497,0.6155558824539185
1.1288725474411123,-1.6904626762362713,1.7480231198060712,-0.8219464421272278,-1.5108164548873901,-3.3308255672454834,-0.42462095618247986,-0.9039306044578552,0.05105678364634514,-1.6714179515838623,0.4607389569282532,0.5655052661895752
1.1646373361761446,-1.6919993819811163,1.7331812904083366,-1.2196524143218994,-1.5081870555877686,-3.5915334224700928,-0.3921857178211212,-0.9186451435089111,0.0477682426571846,-1.5028948783874512,0.5074969530105591,0.43234968185424805
1.2031013815219627,-1.6853258908326199,1.7092997265224361,-1.4490160942077637,-1.5747450590133667,-3.8075690269470215,-0.35711076855659485,-0.9331583976745605,0.04107951000332832,-1.3557493686676025,0.5578531622886658,0.23440277576446533
1.243708807279461,-1.6714234766662257,1.677258922221203,-1.5720901489257812,-1.6591852903366089,-4.000218868255615,-0.31966131925582886,-0.9469820857048035,0.032275617122650146,-1.2396801710128784,0.608099639415741,0.03045344352722168
1.2859978642132446,-1.6498489085655925,1.6368262330324357,-1.5905811786651611,-1.726195216178894,-4.175591468811035,-0.2800867557525635,-0.9597182869911194,0.022187819704413414,-1.142261266708374,0.6608443856239319,-0.1581282615661621
1.3296462322986384,-1.619464874026611,1.5871598504364233,-1.5219576358795166,-1.7715603113174438,-4.336654186248779,-0.23853717744350433,-0.9710639715194702,0.011618432588875294,-1.0322757959365845,0.7128699421882629,-0.3311067819595337
1.3742079329148154,-1.5768656736384485,1.5252203258551544,-1.397979736328125,-1.7955175638198853,-4.463930130004883,-0.19532078504562378,-0.980738639831543,0.0011854841141030192,-0.9225533604621887,0.7402144074440002,-0.4754437208175659
1.4192967572049733,-1.5130436373558251,1.4417631301121867,-1.247680425643921,-1.8784550428390503,-4.587627410888672,-0.1506688892841339,-0.9885458946228027,-0.008711220696568489,-0.8107416033744812,0.7578940987586975,-0.5777906775474548
1.4642434048418487,-1.4003888108766633,1.3086800247142654,-1.1291412115097046,-1.9816802740097046,-4.675895690917969,-0.10481251776218414,-0.9943286180496216,-0.018035758286714554,-0.7117615938186646,0.7872971892356873,-0.6484832763671875
1.5063906429167997,-1.1335408477156013,1.0202134606674285,-1.056675672531128,-2.140083074569702,-4.721767425537109,-0.05830727517604828,-0.997926652431488,-0.02725468948483467,-0.5857967138290405,0.8155230283737183,-0.6879703998565674
1.5321477790345082,-0.3042616065236546,0.1673880283917695,-1.0188854932785034,-2.3716418743133545,-4.753048896789551,-0.011576473712921143,-0.9992532134056091,-0.036866363137960434,-0.46631354093551636,0.8144692182540894,-0.7084643244743347
1.5120599775834993,0.6367894348151035,-0.7995458536494664,-0.9813712239265442,-2.6006314754486084,-4.718901634216309,0.034907251596450806,-0.9982755184173584,-0.047199685126543045,-0.3552807867527008,0.8026118874549866,-0.7394517660140991
1.4718055888667552,0.941767047103979,-1.1327966429552103,-0.8760858178138733,-2.842710256576538,-4.554486274719238,0.07991346716880798,-0.9951044321060181,-0.058147359639406204,-0.18043836951255798,0.8018670678138733,-0.7856635451316833
1.4301208201593385,1.0563895496155893,-1.2781452779719995,-0.686471164226532,-3.0749495029449463,-4.2908453941345215,0.1220676600933075,-0.9901214838027954,-0.06898759305477142,0.02617151290178299,0.7792906165122986,-0.8383609056472778
1.390656710742669,1.1122288438980283,-1.366752456116193,-0.49810367822647095,-3.2175567150115967,-4.005775451660156,0.16065753996372223,-0.9838187098503113,-0.07931114733219147,0.19133223593235016,0.751884937286377,-0.8679085373878479
1.3536001081065039,1.1435923609617384,-1.4318270669087616,-0.3625660240650177,-3.2264914512634277,-3.7816226482391357,0.19612666964530945,-0.97650545835495,-0.08928494155406952,0.2934211194515228,0.7278785705566406,-0.8515565991401672
1.318143163670511,1.1626473295016335,-1.4840145862471825,-0.29756438732147217,-3.0860209465026855,-3.676401138305664,0.22944077849388123,-0.9682525992393494,-0.09921760112047195,0.32831379771232605,0.7005064487457275,-0.7963206171989441
1.2830778327002486,1.1752848519242487,-1.5291266444890979,-0.21576084196567535,-3.071760892868042,-3.7233922481536865,0.2618590295314789,-0.9588937759399414,-0.10932937264442444,0.3183870315551758,0.6732032895088196,-0.7361447811126709
1.2471603364243224,1.1857783641030344,-1.5713700990062511,-0.18946559727191925,-2.834836959838867,-3.8477163314819336,0.2947345972061157,-0.948085367679596,-0.11943911015987396,0.24341240525245667,0.632533609867096,-0.7387303113937378
1.2100880982839135,1.1952912453047018,-1.6084899443472436,-0.24484558403491974,-2.1867659091949463,-3.9554991722106934,0.32834553718566895,-0.9356470704078674,-0.12943710386753082,0.38662031292915344,0.7091302871704102,-0.6727020740509033
1.1710813361075636,1.2095186189895613,-1.642288250278225,-0.22377438843250275,-1.17745840549469,-4.217165946960449,0.3640345633029938,-0.9211719632148743,-0.13755492866039276,0.4721013605594635,0.6274096965789795,-0.590945303440094
1.12896906571278,1.233748505290983,-1.6740178980194478,-0.2321460098028183,0.2569827437400818,-4.563051223754883,0.4035337269306183,-0.9039718508720398,-0.14140577614307404,0.5120851993560791,0.5721083879470825,-0.5349857211112976
1.083133112203308,1.2687458763562596,-1.7024364074280862,-0.233550027012825,1.5897809267044067,-4.895665645599365,0.4473503828048706,-0.8834301829338074,-0.1393873691558838,0.6004554629325867,0.6022412180900574,-0.45355379581451416
1.034653922699024,1.3082180467748443,-1.7264157170676466,-0.20474958419799805,1.9720001220703125,-4.996128082275391,0.49331459403038025,-0.8596855998039246,-0.13259515166282654,0.7240622043609619,0.6024681925773621,-0.3458287715911865
0.9866445255928114,1.3432621983730983,-1.7465047686335233,-0.02719183638691902,1.5541824102401733,-4.765069484710693,0.5372778177261353,-0.8341801762580872,-0.12440334260463715,0.998809278011322,0.6833164691925049,-0.2450423240661621
0.9425530532787455,1.3713585559978134,-1.765785299734236,0.32544466853141785,0.8940483927726746,-4.254858493804932,0.5760748982429504,-0.8090612292289734,-0.11643899977207184,1.3721520900726318,0.7733707427978516,-0.24238653481006622
0.9049412420470091,1.3944736814231071,-1.786876593421436,0.7721896171569824,0.3837406635284424,-3.569840908050537,0.6081542372703552,-0.7863888740539551,-0.10835662484169006,1.7047271728515625,0.7474789023399353,-0.2710225582122803
0.8751371070901479,1.4150652083707749,-1.8110245944119268,1.2331256866455078,-0.0027708280831575394,-2.7779126167297363,0.6331359148025513,-0.7676313519477844,-0.09940385818481445,1.9662599563598633,0.7093732953071594,-0.252433180809021
0.8537908118022629,1.434271585832868,-1.8378502192598285,1.5488948822021484,-0.21484845876693726,-1.9325538873672485,0.6510156989097595,-0.7537768483161926,-0.0894361138343811,2.172241687774658,0.7135853171348572,-0.15456706285476685
0.840781169177254,1.4520894500345265,-1.865227635346581,1.6853281259536743,-0.30827581882476807,-1.1038106679916382,0.6621877551078796,-0.7451642751693726,-0.0789775550365448,2.300534963607788,0.6930708289146423,0.039899952709674835
0.8353991926467494,1.4685148848138048,-1.891251559423748,1.6176916360855103,-0.24738717079162598,-0.3600132167339325,0.6673755049705505,-0.7415643930435181,-0.06849916279315948,2.339170455932617,0.6779962778091431,0.2613551616668701
0.8364175994909164,1.4833778880091575,-1.9136136062374496,1.3602807521820068,-0.0941992998123169,0.2591199576854706,0.6675673127174377,-0.7422472238540649,-0.0585068017244339,2.292454719543457,0.6707597970962524,0.46526050567626953
0.8423990525555657,1.4962651175198796,-1.9310881742705581,1.0546950101852417,0.07821854203939438,0.7127039432525635,0.6638267040252686,-0.7462422251701355,-0.04956762120127678,2.200782060623169,0.6831318736076355,0.6036296486854553
0.8519791111716716,1.507583271174076,-1.943704500379679,0.7144524455070496,0.36189937591552734,1.095543622970581,0.6571801900863647,-0.7525851130485535,-0.04159778729081154,2.0514838695526123,0.7310853004455566,0.6179834604263306
0.8652602980182016,1.518788725239692,-1.949239630396528,0.14787155389785767,1.0043590068817139,1.4813592433929443,0.6475652456283569,-0.7612640857696533,-0.033708713948726654,1.873888611793518,0.644366443157196,0.5946982502937317
0.881599481105576,1.5284730374262754,-1.946613000095562,-0.3100224435329437,1.3100308179855347,1.8055953979492188,0.6353481411933899,-0.7717570066452026,-0.02690608985722065,1.8086521625518799,0.5559977293014526,0.6468097567558289
0.9017822426373506,1.5361665322299745,-1.937649206411351,-0.6439573168754578,1.6098438501358032,2.2566285133361816,0.6198412179946899,-0.7844335436820984,-0.021473558619618416,1.767381191253662,0.6645756959915161,0.5506942868232727
0.926257302045787,1.5423150390368259,-1.9235988095644827,-0.9054147601127625,1.8203057050704956,2.6743857860565186,0.6005866527557373,-0.7993768453598022,-0.017110107466578484,1.7471458911895752,0.6893455982208252,0.42694610357284546
0.9549000983837579,1.546265225115709,-1.904884140506797,-1.137214183807373,1.9930484294891357,3.0905933380126953,0.5775169134140015,-0.816256046295166,-0.014169968664646149,1.666623830795288,0.6864646077156067,0.3133339285850525
0.9876182006685652,1.5484018733113214,-1.881766512322747,-1.2946439981460571,2.24064040184021,3.488132953643799,0.5505415201187134,-0.8347167372703552,-0.012331138364970684,1.6011155843734741,0.6989135146141052,0.16949677467346191
1.0242110659885308,1.5497125363276798,-1.8555552545602925,-1.330588459968567,2.4187042713165283,3.868354558944702,0.5196578502655029,-0.8543043732643127,-0.010957981459796429,1.5106003284454346,0.7269238829612732,-0.008771480061113834
1.0648480167300816,1.5500859133254257,-1.827488752043901,-1.3035277128219604,2.469104290008545,4.296347618103027,0.484533429145813,-0.874715268611908,-0.01003632228821516,1.415368914604187,0.763387143611908,-0.19102859497070312
1.109921141161134,1.5484429307373062,-1.7983922067918507,-1.1918171644210815,2.3135695457458496,4.741419315338135,0.44462156295776367,-0.8956636190414429,-0.00994045753031969,1.3194929361343384,0.8127166032791138,-0.34890037775039673
1.1591775745954804,1.543996006168521,-1.7688706818592819,-1.0529210567474365,2.154202461242676,5.1254167556762695,0.39995017647743225,-0.9164743423461914,-0.0107213594019413,1.1961956024169922,0.8604592084884644,-0.47292107343673706
1.2118252257592028,1.5376546838667258,-1.7384834225506534,-0.9132625460624695,2.2106423377990723,5.420508861541748,0.35111844539642334,-0.9362587928771973,-0.01164090447127819,1.0430160760879517,0.8888038992881775,-0.5703139305114746
1.2667621228601413,1.529072548532153,-1.7054006574464458,-0.827303409576416,2.3165102005004883,5.584006309509277,0.29911133646965027,-0.9541365504264832,-0.012487301602959633,0.8441076278686523,0.9227644801139832,-0.6475924849510193
1.3226487229141946,1.5149168482006092,-1.6660595072366708,-0.7636093497276306,2.3965048789978027,5.633528709411621,0.24522612988948822,-0.9693690538406372,-0.013717388734221458,0.6198099255561829,0.9521417021751404,-0.711410641670227
1.378450612375895,1.4894724161670339,-1.615468057977348,-0.667058527469635,2.373598098754883,5.605553150177002,0.19053100049495697,-0.9815585017204285,-0.015528975054621696,0.4155175983905792,0.9712129831314087,-0.7858166694641113
1.4335687592827338,1.4407030250870654,-1.5415887982703445,-0.5786870718002319,2.457482099533081,5.576082706451416,0.13564230501651764,-0.9905990362167358,-0.01774638332426548,0.27094340324401855,0.9860060811042786,-0.8578943610191345
1.4878715591983387,1.323318548500101,-1.397746375789741,-0.4862577021121979,2.649956226348877,5.635684013366699,0.08030884712934494,-0.996563732624054,-0.020290590822696686,0.18733033537864685,0.9626584649085999,-0.921756386756897
1.5377262242007972,0.80020717432513,-0.8472459620048995,-0.3284640610218048,2.6133434772491455,5.793184280395508,0.023725057020783424,-0.9994532465934753,-0.023032572120428085,0.11514518409967422,0.9307886362075806,-0.9784626364707947
1.5280733733378813,-0.9438826752709932,0.9217399694127499,-0.03409576416015625,2.1560957431793213,5.963996410369873,-0.03458767011761665,-0.9990875124931335,-0.02505524642765522,-0.022632785141468048,0.9350159168243408,-1.0197749137878418
1.4731863878291978,-1.3158543455599687,1.312560242884578,0.3652694821357727,1.4272515773773193,6.045347213745117,-0.09430653601884842,-0.9952399134635925,-0.024577492848038673,-0.2603229880332947,0.9636846780776978,-1.0475811958312988
1.4150983917856017,-1.4411584215564464,1.4498195362501278,0.8187784552574158,0.7683970332145691,5.933274745941162,-0.15376922488212585,-0.9879035353660583,-0.020046748220920563,-0.551568329334259,0.9804571866989136,-1.0535615682601929
1.3578791038751163,-1.520547262167352,1.5360264280539098,1.28911292552948,0.3326554596424103,5.689029216766357,-0.2110459804534912,-0.9774186015129089,-0.01061379723250866,-0.8290998935699463,0.9570633172988892,-1.0271515846252441
1.3025322602136093,-1.5832728419972188,1.6031771412888824,1.672966718673706,0.20887814462184906,5.391369819641113,-0.2650375962257385,-0.9642324447631836,0.0033069171477109194,-1.0214004516601562,0.8892202377319336,-0.9455064535140991
1.2495667160007284,-1.6331765501833428,1.6581513740415974,1.883590817451477,0.35962769389152527,5.027453422546387,-0.31511953473091125,-0.9488478899002075,0.019682763144373894,-1.1717121601104736,0.8001662492752075,-0.7733142375946045
1.1997527989970365,-1.670086777123646,1.7031108728680806,1.9318835735321045,0.7413360476493835,4.6149444580078125,-0.36080262064933777,-0.9319494962692261,0.0359424464404583,-1.3321599960327148,0.7138708233833313,-0.5386888980865479
1.154197698239361,-1.6929716044442313,1.7390044530804543,1.7707620859146118,1.3142586946487427,4.081676959991455,-0.4016362130641937,-0.9144706130027771,0.04931563511490822,-1.5255794525146484,0.6492727994918823,-0.3165884017944336
1.1151502728128333,-1.7005110653337987,1.7650078892154257,1.3684788942337036,1.8555214405059814,3.335653781890869,-0.43634575605392456,-0.8979769349098206,0.05692007765173912,-1.8210699558258057,0.5865755677223206,-0.10199451446533203
1.0851007980233531,-1.6956283700842159,1.7818522330527085,0.9095016717910767,2.068765640258789,2.3946757316589355,-0.4631911814212799,-0.8843504786491394,0.058123327791690826,-2.1963393688201904,0.5050169825553894,0.07638311386108398
1.0655907511405114,-1.683361546168613,1.791527995079392,0.46693509817123413,2.0692038536071777,1.350394368171692,-0.4809240996837616,-0.8750749826431274,0.054365139454603195,-2.521303653717041,0.447706937789917,0.17161762714385986
1.0568516497532512,-1.6657931450481132,1.79529659792038,0.11071226000785828,2.088907241821289,0.35600829124450684,-0.48939937353134155,-0.8708119988441467,0.046631742268800735,-2.696437358856201,0.4130942225456238,0.1970817893743515
1.0578645417511798,-1.6458106634532945,1.796488781220769,0.022973448038101196,2.096952199935913,-0.5608052015304565,-0.4893536865711212,-0.8713095188140869,0.0367775522172451,-2.727015972137451,0.39119184017181396,0.13474655151367188
1.067746779149818,-1.626901811390389,1.798749502572242,0.0737530067563057,2.0635128021240234,-1.4058527946472168,-0.48134109377861023,-0.8761164546012878,0.027034247294068336,-2.712125062942505,0.37230169773101807,0.04286634922027588
1.0855049880240581,-1.6100915519592103,1.8025898369664624,0.12176208198070526,1.9306466579437256,-2.131657600402832,-0.46610623598098755,-0.8845390677452087,0.018325181677937508,-2.6564066410064697,0.37526166439056396,0.031739115715026855
1.109694556344873,-1.5963645670319437,1.806949777626119,0.10964735597372055,1.5604150295257568,-2.6791176795959473,-0.44478973746299744,-0.8955628275871277,0.011374969966709614,-2.5374338626861572,0.4014984965324402,0.0999380350112915
1.1384809297082088,-1.5857464419074885,1.809721799794336,0.001686952542513609,1.0332409143447876,-3.0435826778411865,-0.41892746090888977,-0.9079980850219727,0.006263480521738529,-2.351900815963745,0.43227487802505493,0.20412492752075195
1.1701989102196133,-1.5772547604362785,1.8083846881552772,-0.18540677428245544,0.41255423426628113,-3.265345811843872,-0.38996031880378723,-0.9208281636238098,0.0025185677222907543,-2.120049476623535,0.4548553228378296,0.2994835376739502
1.2036741341793418,-1.5682629184369712,1.7998402563736997,-0.46979886293411255,-0.18949458003044128,-3.4003262519836426,-0.3589298129081726,-0.9333641529083252,-0.0009093177504837513,-1.8914059400558472,0.4568626880645752,0.3651214838027954
1.2382116548958269,-1.5547127389784183,1.7806725361366964,-0.7685351967811584,-0.688660740852356,-3.4933066368103027,-0.32644516229629517,-0.9452016353607178,-0.005250862333923578,-1.701737880706787,0.465709388256073,0.3817463517189026
1.2735199160296995,-1.5330772496743283,1.7485137275347693,-1.0145952701568604,-1.077459692955017,-3.6008310317993164,-0.29270920157432556,-0.9561378359794617,-0.011045959778130054,-1.553863763809204,0.4888068437576294,0.32139456272125244
1.3096650678769017,-1.4995396332273587,1.7010689487924846,-1.1826913356781006,-1.313948631286621,-3.737536907196045,-0.25751879811286926,-0.9660985469818115,-0.018381057307124138,-1.4329414367675781,0.5208165049552917,0.21299177408218384
1.3465258962076265,-1.4492628499864033,1.6347690591843653,-1.2550075054168701,-1.4957971572875977,-3.8794312477111816,-0.2207552194595337,-0.9749566316604614,-0.026962026953697205,-1.3372434377670288,0.5392571091651917,0.08183276653289795
1.383748313805178,-1.3753264349727665,1.5431495050705344,-1.2553478479385376,-1.6372802257537842,-4.037063121795654,-0.1824175864458084,-0.982557475566864,-0.03611832857131958,-1.244492769241333,0.5514509677886963,-0.05520540103316307
1.4208768546749946,-1.2585413397263585,1.4075184900505808,-1.2830748558044434,-1.7354187965393066,-4.25990104675293,-0.1421360820531845,-0.9887831211090088,-0.04588375613093376,-1.1845850944519043,0.5584242343902588,-0.1634209156036377
1.4559477857584653,-1.0518394703662262,1.1813287063100446,-1.3458679914474487,-1.7586783170700073,-4.4921875,-0.09950914978981018,-0.9934121370315552,-0.05683739110827446,-1.1463099718093872,0.5564766526222229,-0.22805935144424438
1.4825657944134454,-0.6697820781206159,0.7790983950772423,-1.3840383291244507,-1.8905935287475586,-4.713761806488037,-0.05470374599099159,-0.996110200881958,-0.06907915323972702,-1.0819082260131836,0.597184419631958,-0.31274139881134033
1.4878857217340629,-0.09867779918974232,0.1855996106892473,-1.4063215255737305,-2.1765806674957275,-4.902644157409668,-0.008158843033015728,-0.9965648651123047,-0.08241310715675354,-0.9872177243232727,0.6600170135498047,-0.412810742855072
1.4661818982658155,0.3864674044777753,-0.3252384621475318,-1.3760052919387817,-2.5236599445343018,-5.03042459487915,0.03935915231704712,-0.9945328831672668,-0.0967218354344368,-0.8673620820045471,0.7025712728500366,-0.5198857188224792
1.4289290609427838,0.6600990613162768,-0.6282738881071609,-1.2739149332046509,-2.8984718322753906,-5.063449859619141,0.08670112490653992,-0.9899536967277527,-0.11169030517339706,-0.7130591869354248,0.7540374994277954,-0.6459847688674927
1.386392477837783,0.8083070353977251,-0.8100742443416472,-1.032321810722351,-3.334944725036621,-4.952044486999512,0.1325918287038803,-0.983045756816864,-0.1266518086194992,-0.4883199632167816,0.794340193271637,-0.78118497133255
1.3440899502304193,0.8948410662681937,-0.9349940799396035,-0.6876323223114014,-3.7859740257263184,-4.7164740562438965,0.1753452867269516,-0.9744119644165039,-0.1406257599592209,-0.2429416924715042,0.8043373227119446,-0.9107199311256409
1.3044800795136424,0.9470294736151984,-1.0299462376811197,-0.4248219430446625,-4.145091533660889,-4.343168258666992,0.2136184573173523,-0.9647469520568848,-0.15372219681739807,0.0016067475080490112,0.8106637001037598,-0.9786171317100525
1.2685688769653163,0.974973088200246,-1.1031240668248363,-0.33759036660194397,-4.263054370880127,-3.8602278232574463,0.24635900557041168,-0.9546758532524109,-0.1670369654893875,0.271997332572937,0.8020573854446411,-0.9661110639572144
1.2364157920515308,0.9847626327909644,-1.158511655665509,-0.3676585257053375,-4.270643711090088,-3.396136522293091,0.27342358231544495,-0.9446138143539429,-0.18150578439235687,0.49540576338768005,0.7366974949836731,-0.9225895404815674
1.2074733769688497,0.9818880389525244,-1.2011330238330016,-0.41007867455482483,-4.29519510269165,-3.035008192062378,0.2955175042152405,-0.934721052646637,-0.19739849865436554,0.5856471061706543,0.6336498260498047,-0.8875318169593811
1.1809192765467822,0.9711775496146338,-1.2364398883008385,-0.3978349566459656,-4.385268211364746,-2.8147835731506348,0.3137713372707367,-0.9249557852745056,-0.2144869714975357,0.581690788269043,0.5795881748199463,-0.8937892913818359
1.1560131814693302,0.9574205601732372,-1.2691887917229834,-0.3273754119873047,-4.329463005065918,-2.7426035404205322,0.32953011989593506,-0.9152037501335144,-0.2319745570421219,0.5680071115493774,0.5536161661148071,-0.9306840300559998
1.1317524143391524,0.9465543397801014,-1.3029018636749021,-0.20138336718082428,-3.900583267211914,-2.825822591781616,0.3449079990386963,-0.9051584601402283,-0.248448446393013,0.5857560634613037,0.5257486701011658,-0.9722850918769836
1.1075778304902564,0.9443009601392538,-1.3398598722822828,-0.011000646278262138,-3.160048723220825,-2.9616987705230713,0.3619714379310608,-0.8946189880371094,-0.26198068261146545,0.648160457611084,0.49830228090286255,-1.0051548480987549
1.0839263828208672,0.9520741022848773,-1.380082728284675,0.24656759202480316,-2.4365994930267334,-2.98825740814209,0.3811296820640564,-0.8838016390800476,-0.27135738730430603,0.8184857964515686,0.4678623080253601,-0.996678352355957
1.0619960530386738,0.9673487531183836,-1.4218089642234004,0.4869791269302368,-1.8410747051239014,-2.848459482192993,0.40109512209892273,-0.8733295798301697,-0.27643877267837524,1.0724155902862549,0.4423755407333374,-0.9239548444747925
1.0425692234162862,0.9860732316081566,-1.4620624025899642,0.6258645057678223,-1.432227611541748,-2.5718891620635986,0.42027032375335693,-0.8637019991874695,-0.27819371223449707,1.3082300424575806,0.433297336101532,-0.7842146158218384
1.026096157495907,1.0035409467118952,-1.4982214244094056,0.6694207787513733,-1.3166059255599976,-2.1723217964172363,0.43700674176216125,-0.8552826642990112,-0.2784183621406555,1.5177509784698486,0.41495978832244873,-0.6093836426734924
1.0133180720328372,1.0164147166443829,-1.5289161677635927,0.6871095895767212,-1.325115442276001,-1.6839540004730225,0.4498104751110077,-0.8485919237136841,-0.2785002291202545,1.7122379541397095,0.3780260682106018,-0.4495422840118408
1.0047033141126067,1.02487447205061,-1.5542409744628451,0.7154333591461182,-1.2479552030563354,-1.1885160207748413,0.45838138461112976,-0.844002902507782,-0.27847039699554443,1.8531574010849,0.3339015245437622,-0.3518548011779785
1.0003583540547447,1.0309844141753575,-1.5754482748685719,0.7883169054985046,-1.0855969190597534,-0.7332842946052551,0.4632156193256378,-0.8416645526885986,-0.277546763420105,1.9376633167266846,0.29756659269332886,-0.30169200897216797
1.0001438464202075,1.0366607576096807,-1.593657567449539,0.871907114982605,-0.8190203309059143,-0.31399622559547424,0.46493881940841675,-0.8415486812591553,-0.27500471472740173,1.9702266454696655,0.27090054750442505,-0.25543639063835144
1.003681980512294,1.0434485446875745,-1.6092657725228372,0.9314484000205994,-0.44583919644355774,0.06608247756958008,0.46421894431114197,-0.8434546589851379,-0.27034246921539307,1.9689629077911377,0.26189637184143066,-0.18958783149719238
1.010696627959871,1.0518216094588415,-1.6224418004269614,0.9797754287719727,-0.11277494579553604,0.4405871033668518,0.46131739020347595,-0.8472021222114563,-0.2635050415992737,1.9451158046722412,0.2645909786224365,-0.10903817415237427
1.0211179055670851,1.0608556354225571,-1.6328284253208587,0.9864138960838318,0.14311164617538452,0.8316612839698792,0.4559482932090759,-0.8526925444602966,-0.2550031542778015,1.9009701013565063,0.27067655324935913,-0.025102287530899048
1.034896001605803,1.0692066553807267,-1.6396128367672271,0.9472896456718445,0.3594761788845062,1.225839376449585,0.4477175772190094,-0.8598092794418335,-0.2455141693353653,1.8581143617630005,0.2843239903450012,0.05995213985443115
1.05163974306983,1.075763021929831,-1.641993138446717,0.8469383716583252,0.5408978462219238,1.5870438814163208,0.43658700585365295,-0.8682379722595215,-0.23570062220096588,1.787518858909607,0.2964147925376892,0.13093389570713043
1.0708024730235741,1.0795047958167356,-1.6388608650613097,0.6926526427268982,0.7526369690895081,1.9191285371780396,0.4227164387702942,-0.8775855302810669,-0.22617369890213013,1.6902596950531006,0.3105230927467346,0.18195384740829468
1.0919780550201195,1.0802953605228216,-1.629711676673698,0.5443789958953857,1.0246604681015015,2.194249391555786,0.40640905499458313,-0.8875399827957153,-0.21703536808490753,1.5893642902374268,0.3213626742362976,0.19375059008598328
1.1145698052509736,1.0788927895900235,-1.6147510539348087,0.3894040882587433,1.3583604097366333,2.4034249782562256,0.38832858204841614,-0.8977213501930237,-0.20808033645153046,1.4635391235351562,0.3405160903930664,0.1688653826713562
1.1380297724889508,1.074482453032462,-1.5932959770441666,0.21403877437114716,1.6061599254608154,2.5790679454803467,0.3687826991081238,-0.9078089594841003,-0.1997053623199463,1.336875319480896,0.36691540479660034,0.13030852377414703
1.1620895801600943,1.0657537128824073,-1.5652736743919673,0.09499573707580566,1.7503865957260132,2.720149040222168,0.3478063642978668,-0.9176355600357056,-0.19229108095169067,1.2322107553482056,0.3913903832435608,0.08128350973129272
1.1867944782381326,1.052881455208166,-1.531368873681281,0.05240555480122566,1.9266763925552368,2.849139928817749,0.3255021870136261,-0.927172839641571,-0.18546998500823975,1.1488935947418213,0.42750847339630127,-0.005875110626220703
1.2123399401334636,1.0369343676929086,-1.4922590001369667,0.056523069739341736,2.163968563079834,2.9810633659362793,0.30201074481010437,-0.9364394545555115,-0.17852355539798737,1.0817630290985107,0.455985963344574,-0.11742053925991058
1.2388379451186213,1.0172826004396007,-1.4469619817991617,0.0596754364669323,2.417362689971924,3.1170973777770996,0.27723363041877747,-0.945405900478363,-0.17131657898426056,1.0102877616882324,0.4829729199409485,-0.2161954790353775
1.2661430681604573,0.992604802660934,-1.3941777668641286,0.08441220968961716,2.6536548137664795,3.2393100261688232,0.2512047290802002,-0.9539510011672974,-0.1639328896999359,0.9381263852119446,0.517549455165863,-0.29518866539001465
1.294209354831985,0.9616580694443259,-1.3330236336922687,0.15003515779972076,2.850698709487915,3.345963716506958,0.22395987808704376,-0.9619930386543274,-0.15624268352985382,0.8604670763015747,0.5489374399185181,-0.37309980392456055
1.3227924982100199,0.9209138465669101,-1.260564372031882,0.17160490155220032,2.962419033050537,3.460726261138916,0.19543197751045227,-0.9694043397903442,-0.14853200316429138,0.7756068706512451,0.568601667881012,-0.4225585460662842
1.3512884932409555,0.863087164464286,-1.1704622475432493,0.14482231438159943,2.980273962020874,3.563579797744751,0.16545788943767548,-0.9760047197341919,-0.14155802130699158,0.6957176923751831,0.6032934188842773,-0.43098217248916626
1.378509877505668,0.7792667755020048,-1.0542718244517861,0.08003931492567062,2.986741304397583,3.622065544128418,0.1342996209859848,-0.9815698266029358,-0.13595667481422424,0.6045156717300415,0.6301752328872681,-0.4322652816772461
1.4028693291205727,0.6596035731052434,-0.9022272954680314,-0.018862981349229813,2.986347198486328,3.640651226043701,0.1024235188961029,-0.9859333634376526,-0.13207930326461792,0.4945613741874695,0.6493854522705078,-0.45526188611984253
1.4222135860639893,0.4969094688239281,-0.7066932249377915,-0.1146896481513977,3.1004745960235596,3.5905215740203857,0.07057122886180878,-0.9889819025993347,-0.13013406097888947,0.3819586932659149,0.6612381339073181,-0.5020526647567749
1.4347123650318998,0.29524136167436965,-0.4703172737786151,-0.1679707169532776,3.3622374534606934,3.5205211639404297,0.03947451710700989,-0.9907548427581787,-0.1297949254512787,0.277496337890625,0.6575638651847839,-0.5961571335792542
1.4393997143298298,0.07063404227166206,-0.20843112362374014,-0.17544275522232056,3.5895791053771973,3.48897385597229,0.009246718138456345,-0.9913798570632935,-0.13069243729114532,0.18356335163116455,0.6522685289382935,-0.7101887464523315
1.4365002409292738,-0.15523497617145635,0.05623677515040891,-0.09307686239480972,3.664778470993042,3.5256528854370117,-0.02070155367255211,-0.9909958243370056,-0.1322833150625229,0.10108485817909241,0.6324142217636108,-0.8080394268035889
1.4269291901462247,-0.3643446119279987,0.30443938566303475,0.018557259812951088,3.648036479949951,3.575610876083374,-0.05108852684497833,-0.9896689653396606,-0.13396012783050537,0.012209136039018631,0.6017142534255981,-0.8760647773742676
1.4118116701262011,-0.5414593059012904,0.5202345902701824,0.1191243976354599,3.5667459964752197,3.5495920181274414,-0.0815940648317337,-0.987388551235199,-0.13567015528678894,-0.1322578638792038,0.5864638090133667,-0.9029039144515991
1.3930544794860455,-0.6810607659191605,0.6975424531639275,0.22985650599002838,3.447932481765747,3.417386293411255,-0.11132138967514038,-0.9842454791069031,-0.13736304640769958,-0.3331366181373596,0.5660325288772583,-0.9065515995025635
1.373109982363407,-0.7877819293257781,0.840888345919872,0.40480270981788635,3.3535735607147217,3.1883606910705566,-0.13920779526233673,-0.9805235862731934,-0.1385456919670105,-0.5386181473731995,0.5390409231185913,-0.919223964214325
1.353922839833455,-0.8711062706701023,0.960004133320819,0.6168414354324341,3.270796298980713,2.9305899143218994,-0.16462016105651855,-0.9765749573707581,-0.13857045769691467,-0.7229225635528564,0.5045289993286133,-0.9297888278961182
1.3360783012675403,-0.9400250978321832,1.0637997456405268,0.8323650360107422,3.1458399295806885,2.7378640174865723,-0.18781644105911255,-0.9725799560546875,-0.13716170191764832,-0.8541147708892822,0.4662169814109802,-0.8965905904769897
1.3190526395519186,-1.0013046759197595,1.1584315768461864,0.9934120178222656,2.9312798976898193,2.635942220687866,-0.2097800076007843,-0.968479573726654,-0.1343119889497757,-0.9507577419281006,0.4202922582626343,-0.8048052787780762
1.302090999753658,-1.0579601342156664,1.2457167587690317,1.0919760465621948,2.568783760070801,2.5664570331573486,-0.23133139312267303,-0.9641154408454895,-0.13025997579097748,-1.047217845916748,0.3695870041847229,-0.6604503393173218
1.2847861196545567,-1.1100085924102208,1.324288712639331,1.0709242820739746,2.1195504665374756,2.487683057785034,-0.25270169973373413,-0.959377110004425,-0.12544876337051392,-1.1820670366287231,0.30280667543411255,-0.47814303636550903
1.2670587092142858,-1.156321059415696,1.392624178221641,1.0182188749313354,1.6878960132598877,2.3886587619781494,-0.27376455068588257,-0.9542253017425537,-0.12044607847929001,-1.3343287706375122,0.25244301557540894,-0.31137752532958984
1.2494587731916016,-1.1977262762878356,1.4516263701593424,0.9758674502372742,1.2465859651565552,2.2317352294921875,-0.294111043214798,-0.948813796043396,-0.11511485278606415,-1.5015127658843994,0.22980427742004395,-0.2111179381608963
1.2329657302049084,-1.235127246914704,1.5022936170618866,0.9521058201789856,0.8743809461593628,1.9644595384597778,-0.31294339895248413,-0.9434759020805359,-0.10917701572179794,-1.6788932085037231,0.2054235339164734,-0.13812202215194702
1.219141311590991,-1.267626682402462,1.5451086607672095,0.9186522960662842,0.6985710263252258,1.5401397943496704,-0.3287436366081238,-0.9388039112091064,-0.10283515602350235,-1.875876784324646,0.18369215726852417,-0.08265060186386108
1.2094054686482332,-1.2941968576780938,1.580314725343042,0.8774683475494385,0.5756157040596008,1.0134552717208862,-0.3401359021663666,-0.935405969619751,-0.09655648469924927,-2.062741994857788,0.15882521867752075,-0.022706076502799988
1.2045856233904313,-1.3157193857229417,1.608662381815152,0.8021184802055359,0.4126129746437073,0.4407769441604614,-0.34649378061294556,-0.9336909055709839,-0.09035065770149231,-2.1933469772338867,0.14352983236312866,0.05136454850435257
1.2047952827778485,-1.3321221746891139,1.6297453150155412,0.6678771376609802,0.23404133319854736,-0.1060776486992836,-0.34773945808410645,-0.9337659478187561,-0.08460915088653564,-2.253227949142456,0.15681880712509155,0.1404259204864502
1.2095570474939543,-1.344106367467349,1.6437538629763306,0.5239852070808411,-0.02828189544379711,-0.5855568647384644,-0.34439197182655334,-0.935459554195404,-0.0794355720281601,-2.2246084213256836,0.17837929725646973,0.22178494930267334
1.2183969445307787,-1.352853656512626,1.6512211102467578,0.37168097496032715,-0.318400114774704,-1.0137147903442383,-0.33698639273643494,-0.9385472536087036,-0.07462907582521439,-2.1366465091705322,0.18540388345718384,0.28568875789642334
1.2309159675950303,-1.3577454650300713,1.6516053678574334,0.17779351770877838,-0.5843852162361145,-1.4096075296401978,-0.32583755254745483,-0.9427945613861084,-0.07048973441123962,-2.019819974899292,0.18959003686904907,0.33512306213378906
1.2466497225748554,-1.356807389675902,1.6431091768758663,-0.05980489030480385,-0.819125771522522,-1.771966576576233,-0.31123602390289307,-0.9479228854179382,-0.06763662397861481,-1.8796515464782715,0.2125406265258789,0.37656617164611816
1.2652512181099662,-1.346778026920281,1.6231874780601387,-0.3386346399784088,-0.9390921592712402,-2.115546941757202,-0.29329702258110046,-0.9536831378936768,-0.06682552397251129,-1.7298964262008667,0.24991708993911743,0.39461493492126465
1.2864163551074699,-1.3235987497767903,1.5889363812597979,-0.6059098243713379,-0.9687744975090027,-2.447469472885132,-0.2720337510108948,-0.9598357677459717,-0.06865014135837555,-1.5873870849609375,0.28030091524124146,0.3773508071899414
1.3094954776326393,-1.2833726418507394,1.536949035284478,-0.8695496916770935,-0.9948540329933167,-2.7174558639526367,-0.24773961305618286,-0.9660547375679016,-0.07323411107063293,-1.444429636001587,0.3168390989303589,0.3188702464103699
1.3333689319596942,-1.222249895066568,1.4633655900953653,-1.068730354309082,-1.0430169105529785,-2.925316333770752,-0.2210608869791031,-0.9719462990760803,-0.08032957464456558,-1.2878046035766602,0.371878981590271,0.22541028261184692
1.356812411055726,-1.1379072945425297,1.3654864028240774,-1.176177978515625,-1.17755925655365,-3.0430104732513428,-0.19276636838912964,-0.9771926403045654,-0.08908165246248245,-1.139219045639038,0.4255264401435852,0.08908183127641678
1.3784283376578774,-1.0296650125486897,1.241791527561755,-1.1932648420333862,-1.4162040948867798,-3.075502634048462,-0.16386879980564117,-0.9815542697906494,-0.0984799861907959,-0.9821730852127075,0.4552786350250244,-0.046234242618083954
1.3970159418091823,-0.8984916498979096,1.0919569137663097,-1.1528873443603516,-1.822886347770691,-3.0512137413024902,-0.1352807879447937,-0.9849381446838379,-0.1076851636171341,-0.8486365079879761,0.4735397696495056,-0.16616415977478027
1.4115947139666196,-0.7464910983370988,0.9171897672553936,-1.0981894731521606,-2.2250871658325195,-2.9968957901000977,-0.10765273869037628,-0.9873541593551636,-0.11637333035469055,-0.7379893660545349,0.4943884015083313,-0.2584892511367798
1.4215540299333191,-0.5758667915804275,0.7204486542945306,-1.0353739261627197,-2.5015506744384766,-2.9695539474487305,-0.08097105473279953,-0.9888840317726135,-0.12470957636833191,-0.6456830501556396,0.5122603178024292,-0.34165990352630615
1.4265522306430862,-0.391051483892108,0.5073118908035272,-0.9677075147628784,-2.686549663543701,-2.9895832538604736,-0.05478964373469353,-0.9896148443222046,-0.13289277255535126,-0.5768173933029175,0.5121368765830994,-0.4151875376701355
1.4263500726075822,-0.201492040596236,0.28781224244717313,-0.9072635769844055,-2.8201098442077637,-3.014993667602539,-0.028807753697037697,-0.9895857572555542,-0.14103206992149353,-0.5115517377853394,0.500694215297699,-0.4689684510231018
1.420842250120648,-0.01961082984383266,0.07508510880221174,-0.8665742874145508,-2.8622632026672363,-3.053532361984253,-0.0029295466374605894,-0.9887779355049133,-0.14936497807502747,-0.43801894783973694,0.4982687830924988,-0.5037263631820679
1.410277614698692,0.1436726767514146,-0.11937924531396314,-0.8667625188827515,-2.886228561401367,-3.0626790523529053,0.022884322330355644,-0.9871445298194885,-0.1581835001707077,-0.357753723859787,0.49181365966796875,-0.521671712398529
1.3950759010263474,0.27908644617602085,-0.2863062142444559,-0.9226686358451843,-2.935988664627075,-3.0127453804016113,0.048158444464206696,-0.984600841999054,-0.16805389523506165,-0.2333543598651886,0.4692504405975342,-0.5045381188392639
1.3762087775407192,0.3837369673373497,-0.42317073463585997,-0.9962121248245239,-3.015812873840332,-2.9633357524871826,0.07239251583814621,-0.9811275005340576,-0.17929930984973907,-0.11920647323131561,0.45469921827316284,-0.4943913221359253
1.354433137234605,0.4618475547858934,-0.5340451477700866,-1.1093007326126099,-3.048635244369507,-2.9245100021362305,0.095661960542202,-0.9766846299171448,-0.19218800961971283,-0.053898632526397705,0.44085681438446045,-0.5199853181838989
1.3306322472544336,0.5181154822392677,-0.6234739998480494,-1.1592552661895752,-3.108384847640991,-2.8613619804382324,0.11779968440532684,-0.9712989330291748,-0.20664356648921967,0.03632933646440506,0.4306800961494446,-0.5701965093612671
1.3063182049385793,0.5585141830520096,-0.6978295744425638,-1.0859668254852295,-3.185889482498169,-2.80092716217041,0.1385260373353958,-0.9652290344238281,-0.22168365120887756,0.14945310354232788,0.40166085958480835,-0.6692464351654053
1.2826655714280644,0.5898333082179213,-0.7632859471488544,-0.9316540360450745,-3.103497266769409,-2.7536606788635254,0.15805663168430328,-0.9587767124176025,-0.23614710569381714,0.2464386373758316,0.36281412839889526,-0.7786690592765808
1.2600779847111054,0.6179179542465131,-0.8240469259459774,-0.7455834150314331,-2.851682186126709,-2.748533248901367,0.17712882161140442,-0.9521141648292542,-0.2492067813873291,0.33497142791748047,0.3326377868652344,-0.8560787439346313
1.2384600501496126,0.6463748729704667,-0.8825021270452892,-0.554536759853363,-2.5375688076019287,-2.761923313140869,0.1965007483959198,-0.9452826976776123,-0.26043838262557983,0.4172840714454651,0.30285710096359253,-0.8826126456260681
1.2179826019144988,0.6749595738626422,-0.9385904257799488,-0.3634922504425049,-2.2994847297668457,-2.6975252628326416,0.21591590344905853,-0.9384042024612427,-0.2697739601135254,0.5202138423919678,0.2729378342628479,-0.8625959157943726
1.1990981609977696,0.7021033119389263,-0.991268358509866,-0.17432446777820587,-2.117626190185547,-2.5580410957336426,0.2345626950263977,-0.9317119121551514,-0.27729684114456177,0.6749832630157471,0.2626596689224243,-0.8161936402320862
1.1823408553350208,0.7266637106240367,-1.0398932374073033,-0.004290911369025707,-1.9934083223342896,-2.3427717685699463,0.25164005160331726,-0.9254951477050781,-0.28308287262916565,0.8283312320709229,0.2482948899269104,-0.7566814422607422
1.1678095418545058,0.7471864574835879,-1.0834515954876285,0.103423573076725,-1.933365821838379,-2.081843376159668,0.26650846004486084,-0.9198938012123108,-0.28769588470458984,0.9558426141738892,0.21390002965927124,-0.6589593291282654
1.1554550073508612,0.7633815120062852,-1.1218319160368784,0.18987764418125153,-1.8465592861175537,-1.825767159461975,0.2789689302444458,-0.9149786233901978,-0.2915314733982086,1.0502241849899292,0.18342643976211548,-0.5623807907104492
1.1452220007737786,0.7766615272499008,-1.1557830449987947,0.27209556102752686,-1.6729440689086914,-1.5805023908615112,0.28936320543289185,-0.9108017683029175,-0.29446402192115784,1.1082961559295654,0.17003333568572998,-0.4990386664867401
1.137274772785673,0.7884932437590807,-1.1860427688321733,0.38156411051750183,-1.4552559852600098,-1.315142035484314,0.297951877117157,-0.9074921011924744,-0.29611319303512573,1.1505802869796753,0.14922171831130981,-0.4541155695915222
1.13210656055398,0.7994905850870851,-1.213108010644643,0.5273039937019348,-1.2519259452819824,-1.017695426940918,0.3045487403869629,-0.9053089618682861,-0.29608380794525146,1.191056728363037,0.1335805058479309,-0.4158148467540741
1.1300806639173848,0.8095284160428963,-1.2374510079471897,0.6788398623466492,-1.148382306098938,-0.7117339372634888,0.3088328540325165,-0.9044466018676758,-0.2942768335342407,1.2022451162338257,0.13015449047088623,-0.3680002689361572
1.1310593685455512,0.8177383659333627,-1.2589741827565517,0.7804019451141357,-1.0936201810836792,-0.41708311438560486,0.3105921447277069,-0.9048636555671692,-0.29112568497657776,1.1750187873840332,0.12648236751556396,-0.2851070463657379
1.1345488297510684,0.8238742039924433,-1.2775365758507131,0.8371236324310303,-1.0321552753448486,-0.16258783638477325,0.3100537955760956,-0.9063436388969421,-0.28706756234169006,1.113133430480957,0.12422388792037964,-0.18256732821464539
1.1399169743937307,0.8277811682118041,-1.2931184701312983,0.8429029583930969,-1.0030421018600464,0.051635775715112686,0.30758562684059143,-0.9085988402366638,-0.2825585603713989,1.0329447984695435,0.12248122692108154,-0.08366754651069641
1.1465101027232978,0.8293840538106392,-1.30555792590357,0.7986417412757874,-0.9233887195587158,0.2120363861322403,0.3036133646965027,-0.9113327860832214,-0.2780134677886963,0.9328216314315796,0.12034767866134644,0.010313421487808228
1.153714025968002,0.829181420852776,-1.3147061733744263,0.7200047373771667,-0.771930456161499,0.33780306577682495,0.29870814085006714,-0.9142747521400452,-0.2736331522464752,0.8338297009468079,0.11511093378067017,0.09087881445884705
1.1611450397948613,0.8277146213157391,-1.3206748236398278,0.6381250619888306,-0.6166379451751709,0.424500435590744,0.2932954430580139,-0.9172597527503967,-0.2694671154022217,0.7393126487731934,0.11161088943481445,0.14613044261932373
1.1685816133571727,0.8252842323143303,-1.3240880224722409,0.5653014779090881,-0.49208375811576843,0.47883930802345276,0.2876197397708893,-0.9201962947845459,-0.26554447412490845,0.6348961591720581,0.11230438947677612,0.1764485239982605
1.1758234220606378,0.8222089244554247,-1.325434132349907,0.4914945363998413,-0.3681713938713074,0.5044485926628113,0.28191184997558594,-0.9230070114135742,-0.26188522577285767,0.5350437164306641,0.10840123891830444,0.20081967115402222
1.1825805514924033,0.8187101591967767,-1.3249775364667618,0.40201443433761597,-0.24047282338142395,0.4997614920139313,0.27643299102783203,-0.925585925579071,-0.2586032450199127,0.44529253244400024,0.10132133960723877,0.22219586372375488
1.1886921230003977,0.8153033992287497,-1.323215021411557,0.33659273386001587,-0.1127236932516098,0.47547227144241333,0.27142763137817383,-0.9278820753097534,-0.2556602358818054,0.36762580275535583,0.09577435255050659,0.23509147763252258
1.1940130643280562,0.8125092379901326,-1.3207406157210662,0.25563132762908936,0.014010551385581493,0.41588112711906433,0.2671235203742981,-0.9298529624938965,-0.25301843881607056,0.2934081256389618,0.08924639225006104,0.2391330897808075
1.1982304205821044,0.8104258048269658,-1.3176537509759416,0.15267127752304077,0.14039653539657593,0.3435831367969513,0.26375240087509155,-0.9313964247703552,-0.2508699297904968,0.2204548418521881,0.0779416561126709,0.2445986568927765
1.2010202338891003,0.8081560600357086,-1.3133672245257544,0.014503546059131622,0.2058706134557724,0.2756216824054718,0.26130256056785583,-0.9324082732200623,-0.2496718317270279,0.17229124903678894,0.06877601146697998,0.28227996826171875
1.2026668656793111,0.8060928040997408,-1.3083277184538875,-0.04121757298707962,0.3207724392414093,0.20266549289226532,0.2596784830093384,-0.9330021142959595,-0.24914702773094177,0.1311296820640564,0.05168497562408447,0.2529923915863037
1.2034540713851494,0.8056882956725985,-1.303951416669165,-0.07484584301710129,0.41532981395721436,0.13309307396411896,0.2590479254722595,-0.933285117149353,-0.24874337017536163,0.08055171370506287,0.03480178117752075,0.19524621963500977
1.2036539068413927,0.8067200054637833,-1.2999674109190322,-0.1074322760105133,0.5293461680412292,0.09643971920013428,0.25916972756385803,-0.9333568811416626,-0.24834690988063812,0.07504355907440186,0.04294544458389282,0.15539050102233887
1.2033137899982482,0.8081657550532109,-1.2955204006049017,-0.17367547750473022,0.5765352249145508,0.07572032511234283,0.25975802540779114,-0.9332347512245178,-0.2481912523508072,0.07990264892578125,0.04087018966674805,0.14885663986206055
1.2024432845470958,0.8087761505341274,-1.2900046896363482,-0.22643162310123444,0.5638662576675415,0.07017488032579422,0.26049700379371643,-0.9329216480255127,-0.24859333038330078,0.07609668374061584,0.02685469388961792,0.15940582752227783
1.2013955203326476,0.8091385532438213,-1.2844528320039987,-0.19402307271957397,0.5447964072227478,0.051068298518657684,0.2612943649291992,-0.9325438737869263,-0.2491733878850937,0.06327536702156067,0.03187847137451172,0.11294305324554443
1.2005726339485387,0.8114136551142676,-1.28101526096472,-0.08921622484922409,0.5523883104324341,1.6446691006422043e-05,0.2624170780181885,-0.9322464466094971,-0.2491065263748169,0.0286138653755188,0.036692798137664795,0.009650468826293945
1.2001670685600858,0.8172434281236942,-1.2811433391815967,0.039963334798812866,0.5864744186401367,-0.0682385042309761,0.26414060592651367,-0.9320996403694153,-0.24783119559288025,-0.010310560464859009,0.031220555305480957,-0.07483109831809998
1.2001198557615462,0.8269677872896151,-1.284923462063643,0.14354588091373444,0.6499543190002441,-0.12642744183540344,0.2665703594684601,-0.9320825338363647,-0.24528063833713531,-0.03456041216850281,0.03330928087234497,-0.11273616552352905
1.2000608335598104,0.8394093904234424,-1.290924305531293,0.15465526282787323,0.7080469131469727,-0.17282503843307495,0.26964235305786133,-0.9320611357688904,-0.24198199808597565,-0.042866140604019165,0.038109540939331055,-0.09519138932228088
1.199470980331858,0.8521293980432855,-1.2968393023103748,0.07657884806394577,0.7307602763175964,-0.1954316645860672,0.27311211824417114,-0.9318472743034363,-0.2388944774866104,-0.042597562074661255,0.023232102394104004,-0.029019221663475037
1.1981349049850696,0.8633418414705167,-1.300689255494362,-0.03697380796074867,0.7946199178695679,-0.18914847075939178,0.2767195999622345,-0.9313616156578064,-0.2366262972354889,-0.026246488094329834,0.017131149768829346,0.026024550199508667
1.1961670005356864,0.8726297221266592,-1.301990903600583,-0.14390361309051514,0.7949184775352478,-0.17507457733154297,0.28030872344970703,-0.9306433200836182,-0.23522363603115082,-0.014531105756759644,0.01731318235397339,0.03699684143066406
1.1938248710960766,0.8792352686675813,-1.3010529021727322,-0.20114187896251678,0.6911821961402893,-0.1385439932346344,0.28353455662727356,-0.9297837018966675,-0.23475638031959534,-0.014400005340576172,0.005772411823272705,0.016021788120269775
1.1916257509989598,0.8835973995575541,-1.2986668418911247,-0.21088732779026031,0.6298132538795471,-0.09253288060426712,0.28613585233688354,-0.9289719462394714,-0.23481391370296478,-0.002490133047103882,0.012178003787994385,-0.02527204155921936
1.189819285718987,0.8869680275162899,-1.2955518320586321,-0.1929490715265274,0.6164575219154358,-0.04164813086390495,0.28822600841522217,-0.9283018112182617,-0.23490789532661438,-0.004549801349639893,0.010317742824554443,-0.06567484140396118
1.188635278551325,0.8897999936000404,-1.2921880348705819,-0.14956678450107574,0.559561550617218,0.015753773972392082,0.2897437512874603,-0.9278609156608582,-0.234782412648201,-0.0037787258625030518,0.009647965431213379,-0.09242689609527588
1.18815519344092,0.8915974585861527,-1.2886612933881347,-0.11669165641069412,0.4497905969619751,0.07579580694437027,0.2905118763446808,-0.9276817440986633,-0.23454105854034424,-0.009032964706420898,0.007775068283081055,-0.09456038475036621
1.1883118170488833,0.8921583517611835,-1.2849000560820085,-0.08259453624486923,0.3582040071487427,0.12035146355628967,0.29053038358688354,-0.927740216255188,-0.23428693413734436,-0.020556598901748657,-0.004648149013519287,-0.08196663856506348
1.1889777981889693,0.8919302847338071,-1.281098962636084,-0.057348307222127914,0.3100745677947998,0.1537744104862213,0.2899959981441498,-0.927988588809967,-0.2339651882648468,-0.03792077302932739,-0.01592022180557251,-0.06783825159072876
1.189894483961131,0.891568559850918,-1.2773139200491515,-0.050303176045417786,0.32149890065193176,0.15908414125442505,0.2892494201660156,-0.9283297657966614,-0.23353563249111176,-0.05060192942619324,-0.0226438045501709,-0.049346923828125
1.1907889453379101,0.891190851688656,-1.273394472924317,-0.06654420495033264,0.3285490870475769,0.1611478179693222,0.28851503133773804,-0.9286618828773499,-0.23312276601791382,-0.06654539704322815,-0.024783551692962646,-0.03170864284038544
1.1915515541029358,0.8904755172096097,-1.2690700650307913,-0.08737203478813171,0.3251214325428009,0.15776214003562927,0.28779780864715576,-0.9289445281028748,-0.23288372159004211,-0.07472404837608337,-0.025675952434539795,-0.023707926273345947
1.192190501756466,0.8893182457124476,-1.2645611391021139,-0.09008526802062988,0.2762755751609802,0.14867889881134033,0.2870670258998871,-0.9291808605194092,-0.23284263908863068,-0.08209565281867981,-0.028659284114837646,-0.02045312523841858
1.1926584575955366,0.8879364738503467,-1.2603320825930773,-0.09233183413743973,0.23018312454223633,0.11982155591249466,0.2864074409008026,-0.9293537139892578,-0.23296447098255157,-0.09494012594223022,-0.03576469421386719,-0.0181034654378891
1.1928681243855002,0.886554938146709,-1.2566784015532089,-0.09256938844919205,0.17226283252239227,0.08017907291650772,0.2859344482421875,-0.929431140422821,-0.2332368940114975,-0.11018368601799011,-0.034420907497406006,-0.013192474842071533
1.1927251264854533,0.8853272483921953,-1.2535941743377266,-0.10492133349180222,0.1617809236049652,0.04106038436293602,0.2857508957386017,-0.92937833070755,-0.23367197811603546,-0.1175684928894043,-0.03450417518615723,-0.007447302341461182
1.1922111228661392,0.8845376313313853,-1.250867836000451,-0.11277632415294647,0.1870090514421463,0.003309277817606926,0.28593572974205017,-0.9291884899139404,-0.234200119972229,-0.11053591966629028,-0.034144699573516846,-0.004416704177856445
1.1913181474378238,0.8848035929004165,-1.248943879533758,-0.11027467250823975,0.22569063305854797,-0.054120223969221115,0.286639928817749,-0.9288580417633057,-0.23464956879615784,-0.11085861921310425,-0.04138737916946411,-0.006057679653167725
1.1899751640133873,0.8865871277960193,-1.2481530545438422,-0.10695317387580872,0.27495113015174866,-0.12032455205917358,0.28802454471588135,-0.9283597469329834,-0.23492632806301117,-0.12542682886123657,-0.04774510860443115,-0.007428884506225586
1.1879959845796102,0.8898966810601499,-1.2483613322294436,-0.13487553596496582,0.3491998612880707,-0.19493450224399567,0.290227472782135,-0.9276223182678223,-0.23512791097164154,-0.13419106602668762,-0.048467278480529785,0.004048943519592285
1.1852732142457834,0.8941454999075592,-1.2486624903110501,-0.18981681764125824,0.4378519654273987,-0.23957601189613342,0.29319170117378235,-0.9266018271446228,-0.23547311127185822,-0.13512590527534485,-0.04005765914916992,0.01962241530418396
1.1819846472349562,0.8986586515224121,-1.2485262751863069,-0.2168796956539154,0.48153385519981384,-0.267115980386734,0.2966342270374298,-0.9253602027893066,-0.23604357242584229,-0.11049222946166992,-0.03525686264038086,0.022252827882766724
1.1785613944834334,0.9037103590183062,-1.2486294749634745,-0.1992836445569992,0.5078772902488708,-0.2759004235267639,0.300309956073761,-0.9240570664405823,-0.23650069534778595,-0.08040022850036621,-0.041900634765625,0.007618963718414307
1.1751720212809278,0.9095544475400632,-1.249278711614132,-0.18116769194602966,0.529490053653717,-0.2856879234313965,0.30415716767311096,-0.9227561354637146,-0.23666371405124664,-0.06477725505828857,-0.043552517890930176,-0.0025177001953125
1.1718080052283077,0.915246064525568,-1.2500244735966224,-0.1887739598751068,0.45977890491485596,-0.2813466787338257,0.30795806646347046,-0.9214544892311096,-0.2368195652961731,-0.05252590775489807,-0.03492063283920288,0.01060815155506134
1.1683482763676019,0.919408786370288,-1.250034662415225,-0.23086176812648773,0.3692275285720825,-0.2666706442832947,0.3114747703075409,-0.9201049208641052,-0.23746715486049652,-0.04014292359352112,-0.0280458927154541,0.04479452967643738
1.16470758564062,0.921862949617493,-1.248941210966829,-0.2757386863231659,0.3321360945701599,-0.26158586144447327,0.31472331285476685,-0.9186728596687317,-0.23872478306293488,-0.03271034359931946,-0.02451866865158081,0.06688041985034943
1.1608339680833646,0.9236459997910758,-1.2470313330285372,-0.3127526044845581,0.38354793190956116,-0.26300692558288574,0.31798502802848816,-0.9171358346939087,-0.24030686914920807,-0.02588602900505066,-0.01635110378265381,0.06620422005653381
1.1566428293265743,0.925544440851368,-1.2443475327612161,-0.3638746440410614,0.4947415590286255,-0.2826993763446808,0.32150888442993164,-0.9154573082923889,-0.24201232194900513,-0.016012638807296753,-0.010217130184173584,0.06140942871570587
1.1518411644462194,0.9282161510425607,-1.2409889493319066,-0.4266871511936188,0.6537682414054871,-0.32745060324668884,0.325669527053833,-0.9135144948959351,-0.2437838315963745,-0.01558038592338562,-0.008360445499420166,0.05916789174079895
1.1461736054749105,0.9324235076226528,-1.237466656823385,-0.47720572352409363,0.8236930966377258,-0.4144693911075592,0.33084502816200256,-0.9111942052841187,-0.2454928606748581,-0.031589627265930176,-0.008590340614318848,0.05111128091812134
1.1393286252484438,0.9387626483204707,-1.2345833838394835,-0.5272751450538635,0.9613577723503113,-0.5529009103775024,0.3374190330505371,-0.9083529114723206,-0.24706973135471344,-0.06096026301383972,-0.011141717433929443,0.04713393747806549
1.1308566224788503,0.9475173331062384,-1.2326922974678773,-0.5958089828491211,1.1363085508346558,-0.7267113327980042,0.34580540657043457,-0.9047773480415344,-0.248589426279068,-0.09357759356498718,-0.009514093399047852,0.054131507873535156
1.1204084222969914,0.959323477719227,-1.2317571374719254,-0.6780096888542175,1.3988876342773438,-0.9326042532920837,0.35643723607063293,-0.9002783298492432,-0.24990293383598328,-0.11836960911750793,0.0008642077445983887,0.06333388388156891
1.107581575552157,0.9748650543913735,-1.2315986674744974,-0.7929013967514038,1.730759859085083,-1.1690667867660522,0.3698051869869232,-0.8946207165718079,-0.25079458951950073,-0.13932114839553833,0.011976063251495361,0.07714971899986267
1.0919073983560206,0.9938814276143081,-1.2314624486128347,-0.9529515504837036,2.085052013397217,-1.4322173595428467,0.38621383905410767,-0.887507438659668,-0.25133559107780457,-0.1490464210510254,0.008616387844085693,0.113106369972229
1.0729944319359241,1.0157848539182015,-1.2305955892943994,-1.1392755508422852,2.4352834224700928,-1.7113968133926392,0.40582096576690674,-0.8786342740058899,-0.2516178488731384,-0.1532268524169922,0.012316286563873291,0.1475072205066681
1.0506415234197979,1.0399597727099894,-1.2284935904078278,-1.3381452560424805,2.7431743144989014,-2.0027084350585938,0.4286175072193146,-0.8677422404289246,-0.2516161799430847,-0.1572703719139099,0.030248165130615234,0.17196539044380188
1.0248573693756264,1.0659609011850808,-1.2249573960644429,-1.5135871171951294,3.04758358001709,-2.2869083881378174,0.4544503390789032,-0.8546401262283325,-0.251128226518631,-0.15919271111488342,0.041712820529937744,0.18078529834747314
0.9959759106574583,1.0937732288594877,-1.2199396638691928,-1.6706721782684326,3.341085910797119,-2.5390841960906982,0.4829902648925781,-0.8392899632453918,-0.2496252804994583,-0.15462112426757812,0.060664474964141846,0.18080833554267883
0.9643606522903572,1.1227933745366714,-1.2130813247321628,-1.8207128047943115,3.556091785430908,-2.7592880725860596,0.5136969089508057,-0.821684718132019,-0.24687986075878143,-0.13779670000076294,0.09089553356170654,0.18804213404655457
0.9306517165169881,1.1516457077231388,-1.2042088394066204,-1.9331209659576416,3.6180455684661865,-2.885651111602783,0.5456052422523499,-0.8020094037055969,-0.24309667944908142,-0.09986543655395508,0.11461615562438965,0.19873952865600586
0.8961443554135208,1.178917365882955,-1.1931278270032473,-2.0196011066436768,3.548915386199951,-2.8954594135284424,0.577274739742279,-0.780924379825592,-0.23856055736541748,-0.03957027196884155,0.12104272842407227,0.20581531524658203
0.8617622177326913,1.2034644671724748,-1.179956489859193,-2.077434778213501,3.3571460247039795,-2.8442559242248535,0.6076653599739075,-0.7589911222457886,-0.23382768034934998,0.00848454236984253,0.1276281476020813,0.2184164673089981
0.8281205563651435,1.224734188544468,-1.1648781351593183,-2.1302490234375,3.13165283203125,-2.7417409420013428,0.636169970035553,-0.7366616725921631,-0.22938527166843414,0.0324702262878418,0.13473284244537354,0.217864990234375
0.7958475876663744,1.2429261826827231,-1.1482572554802162,-2.1470000743865967,2.8944571018218994,-2.566908597946167,0.6624079346656799,-0.7144569158554077,-0.22531597316265106,0.06357479095458984,0.12832093238830566,0.2089434266090393
0.765954316927803,1.2575913037596147,-1.1302126546885105,-2.15091872215271,2.5304622650146484,-2.272341728210449,0.6856588125228882,-0.693225085735321,-0.2220609188079834,0.10337316989898682,0.11584770679473877,0.20132434368133545
0.7395535724477686,1.2671597970299469,-1.1110405312254976,-2.093050956726074,1.9651579856872559,-1.896408200263977,0.704974889755249,-0.6739581823348999,-0.2208864390850067,0.15139412879943848,0.08969908952713013,0.18888890743255615
0.7170726446291998,1.2703209786490788,-1.0917142308755405,-1.9839271306991577,1.2072213888168335,-1.5348467826843262,0.7199624180793762,-0.6571810245513916,-0.22308552265167236,0.15021580457687378,0.1063845157623291,0.16450715065002441
0.6981796609198667,1.2657656187976671,-1.0727080203772288,-1.890035629272461,0.3383018970489502,-1.2060703039169312,0.7306526303291321,-0.6428243517875671,-0.23005107045173645,0.10798567533493042,0.16282862424850464,0.1396428644657135
0.6823692934296433,1.2529241507927282,-1.0538565291124409,-1.837355375289917,-0.4793815016746521,-0.9127922058105469,0.7372011542320251,-0.630633533000946,-0.2425609827041626,0.053341448307037354,0.20686638355255127,0.12013983726501465
0.6691449387148949,1.2332218715155627,-1.0348643158820165,-1.8112685680389404,-1.0540246963500977,-0.63636714220047,0.7400842308998108,-0.6203155517578125,-0.2597770690917969,0.017453670501708984,0.20841974020004272,0.09551632404327393
0.6581515346928406,1.2088029475637685,-1.0153569080215838,-1.8219423294067383,-1.3697582483291626,-0.37971994280815125,0.7398536801338196,-0.6116555333137512,-0.2801680564880371,0.00537031888961792,0.17784810066223145,0.07663121819496155
0.6489074440817629,1.1826725801902798,-0.995241487582234,-1.8082770109176636,-1.3816696405410767,-0.17935216426849365,0.7374833226203918,-0.6043162941932678,-0.3015298843383789,0.02733302116394043,0.11315107345581055,0.05297958850860596
0.6409241268343102,1.15693801798572,-0.9751556161147453,-1.7531647682189941,-1.3359732627868652,-0.04180468991398811,0.7338740229606628,-0.5979364514350891,-0.3223366141319275,0.05239611864089966,0.05141240358352661,0.01719149947166443
0.6340207119471808,1.1321404802805395,-0.955591947930371,-1.6712729930877686,-1.291050910949707,0.08425894379615784,0.7293757796287537,-0.5923888087272644,-0.34217897057533264,0.05951887369155884,0.037228286266326904,-0.009810656309127808
0.6281017565422036,1.1075443455291474,-0.9369098958274328,-1.526219367980957,-1.4904959201812744,0.14863793551921844,0.7238638401031494,-0.5876098871231079,-0.3615740239620209,0.07183617353439331,0.035729944705963135,-0.017133742570877075
0.6233945495459656,1.0805869695404096,-0.9203144270769299,-1.2877782583236694,-1.9552013874053955,0.27243858575820923,0.71628737449646,-0.5837945342063904,-0.3822518587112427,0.13089591264724731,0.05555039644241333,-0.02430325746536255
0.6214545114792221,1.0506691001330903,-0.9055874107106853,-0.9769467115402222,-2.2579493522644043,0.5438623428344727,0.7055138945579529,-0.58221834897995,-0.4040695130825043,0.18910902738571167,0.0956917405128479,-0.056318581104278564
0.6227535368171135,1.0200918276454718,-0.892896142529293,-0.6757899522781372,-2.3517754077911377,0.7024238705635071,0.6921854615211487,-0.5832740068435669,-0.42505377531051636,0.14820760488510132,0.10457521677017212,-0.07326766848564148
0.6255643006241483,0.9897756481842199,-0.8819355361308063,-0.5454372763633728,-2.410841226577759,0.7066425681114197,0.6776103377342224,-0.5855547785758972,-0.4449380934238434,0.07480061054229736,0.09242117404937744,-0.04482322931289673
0.6280938859265125,0.959959949473222,-0.8717628925294586,-0.5493016839027405,-2.3136637210845947,0.6288822293281555,0.662829577922821,-0.5876035094261169,-0.4640897512435913,0.02222907543182373,0.04771697521209717,0.016396939754486084
0.6294353674712191,0.9322609510450255,-0.8616060653834985,-0.6317598223686218,-1.9774713516235352,0.5397778749465942,0.6490885615348816,-0.5886884331703186,-0.48179879784584045,-0.011133730411529541,-0.016475200653076172,0.05584979057312012
0.6289759318988355,0.9085283820862918,-0.8509049796251095,-0.8127511739730835,-1.496729850769043,0.4216822385787964,0.6376857161521912,-0.5883169770240784,-0.49723246693611145,-0.03539079427719116,-0.0922708511352539,0.076090008020401
0.6255875262848428,0.8891844235992772,-0.8393846168175734,-1.0670983791351318,-1.0021014213562012,0.19365574419498444,0.629492998123169,-0.5855736136436462,-0.5107271075248718,-0.07634663581848145,-0.15023577213287354,0.0923464298248291
0.6181781807533854,0.8755265023911656,-0.8279165195091744,-1.3042800426483154,-0.36442503333091736,-0.16526617109775543,0.6257736086845398,-0.5795514583587646,-0.5220418572425842,-0.14361107349395752,-0.1460345983505249,0.08586949110031128
0.6060374356998978,0.8704085038638879,-0.8176240155365907,-1.5390222072601318,0.5672525763511658,-0.6146921515464783,0.6284273862838745,-0.5696150660514832,-0.5297338366508484,-0.20414143800735474,-0.1006121039390564,0.048670053482055664
0.5891614065946803,0.8753733678105312,-0.8085207132870177,-1.7534116506576538,1.299843668937683,-0.9443437457084656,0.6383399963378906,-0.5556640028953552,-0.5326910018920898,-0.20648568868637085,-0.04473888874053955,0.022986531257629395
0.5701958623717652,0.887119574376503,-0.7990699644891968,-1.8656929731369019,1.9952343702316284,-0.934447169303894,0.6526064276695251,-0.5397969484329224,-0.5317180752754211,0.19125038385391235,0.002077162265777588,-0.07018005847930908
0.5526251604068749,0.9042586290517891,-0.788048602485099,-1.7362176179885864,2.625166893005371,-0.6267725229263306,0.6689753532409668,-0.5249234437942505,-0.5262388586997986,0.1090855598449707,0.05983549356460571,-0.13083505630493164
0.5392873645763097,0.9279741557732334,-0.7770329404322788,-1.3521082401275635,3.2277748584747314,-0.3466375768184662,0.686809241771698,-0.5135246515274048,-0.5143787264823914,0.154682457447052,0.07765728235244751,-0.2275034785270691
0.5306539351694001,0.9575954869976067,-0.7680857540003873,-0.9033544659614563,3.5420145988464355,-0.15681396424770355,0.7053419947624207,-0.5060974359512329,-0.4963448941707611,0.08149278163909912,0.08760982751846313,-0.28257042169570923
0.5256722096749177,0.9894993486990467,-0.7619768115267294,-0.53973788022995,3.344949960708618,-0.08630970865488052,0.7229138612747192,-0.5017945766448975,-0.4749715328216553,0.002260148525238037,0.07387703657150269,-0.23900234699249268
0.5227697587143523,1.0176320992930854,-0.7587031457549784,-0.25315436720848083,2.522782564163208,-0.11648482084274292,0.7372244000434875,-0.4992818832397461,-0.4552119970321655,-0.03138327598571777,0.029463618993759155,-0.1608005166053772
0.52025428988232,1.036594309890039,-0.7586771917082936,-0.017359675839543343,1.2128232717514038,-0.3321566581726074,0.7468017935752869,-0.4971008002758026,-0.4417896568775177,-0.08235776424407959,0.03973376750946045,-0.09205424785614014
0.5164661345171007,1.0436534741038719,-0.7623220505966152,0.1738988608121872,-0.11984992772340775,-0.6386253237724304,0.7515238523483276,-0.4938102960586548,-0.4374510943889618,-0.11179912090301514,0.019582301378250122,-0.051699817180633545
0.5109937096042492,1.041099160400237,-0.7690550580652152,0.27072474360466003,-1.0157673358917236,-0.8857035636901855,0.752724826335907,-0.4890442490577698,-0.4407281279563904,-0.07831680774688721,-0.0582427978515625,-0.035147666931152344
0.503545313206368,1.030888685149179,-0.777397661034021,0.20334699749946594,-1.8229734897613525,-1.1270778179168701,0.7512891888618469,-0.4825338125228882,-0.45025068521499634,0.012596309185028076,-0.1413828730583191,0.006219983100891113
0.4936320230429432,1.0135013587628625,-0.785694136637196,-0.00870959646999836,-2.3854126930236816,-1.306626558303833,0.7473704814910889,-0.47382742166519165,-0.4657520353794098,0.07045489549636841,-0.14334487915039062,0.03365373611450195
0.48143867209039776,0.9911897511952659,-0.7925597980695995,-0.2866156995296478,-2.6816604137420654,-1.3817957639694214,0.7415727376937866,-0.4630548059940338,-0.48543819785118103,0.08972609043121338,-0.08040231466293335,0.04862493276596069
0.4671144657866087,0.9656783951698359,-0.797470511126819,-0.5859156250953674,-2.8356688022613525,-1.4894412755966187,0.7343288064002991,-0.4503117501735687,-0.5079180598258972,0.0941319465637207,-0.030431747436523438,0.027510404586791992
0.4498511691565413,0.9387014836620572,-0.8010734500014037,-0.8887600898742676,-2.849266529083252,-1.6895036697387695,0.7265254259109497,-0.43483152985572815,-0.5320550203323364,0.03262990713119507,0.000886768102645874,0.0266687273979187
0.4292293621291242,0.9105004020689889,-0.8038560487048372,-1.1796468496322632,-3.06793212890625,-1.8992526531219482,0.7181644439697266,-0.416170209646225,-0.5577115416526794,0.015005111694335938,-0.0026073157787323,0.00921928882598877
0.4051094401103194,0.8767529582873079,-0.8065507168879867,-1.4556450843811035,-3.9962809085845947,-2.1783854961395264,0.7064496278762817,-0.39411935210227966,-0.5878766775131226,0.002626359462738037,0.042266845703125,-0.04325723648071289
0.3755937345175367,0.8273094994071788,-0.8096221083854259,-2.013824701309204,-6.205079555511475,-2.621201276779175,0.6847984790802002,-0.3668249249458313,-0.6296749114990234,-0.0762321949005127,0.1357305347919464,-0.05495631694793701
0.3410960707867794,0.7561396405000158,-0.812955816241487,-2.3296868801116943,-8.109515190124512,-2.6618173122406006,0.646589994430542,-0.33452022075653076,-0.6855784058570862,-0.17989987134933472,0.274308979511261,0.05035507678985596
0.30577772818945587,0.6700621573220504,-0.8168489639949352,-2.519465446472168,-9.204336166381836,-2.5076873302459717,0.5922268629074097,-0.30103492736816406,-0.7474258542060852,-0.10988116264343262,0.1635836660861969,0.08022010326385498
0.26928974444646714,0.5776164991827386,-0.8219222363495896,-2.867361545562744,-9.179533004760742,-2.5835812091827393,0.5263498425483704,-0.2660468518733978,-0.8075734972953796,-0.07948088645935059,0.032617807388305664,0.14424347877502441
0.22926851232478704,0.4935568026476333,-0.8299443661396941,-3.137479543685913,-8.181699752807617,-2.754800796508789,0.4613642394542694,-0.22726523876190186,-0.857609212398529,-0.15327394008636475,0.04773026704788208,0.15010499954223633
0.18883357201998135,0.41749239980471786,-0.8413632535549681,-3.132570505142212,-7.243796348571777,-2.812581777572632,0.3982618451118469,-0.18771332502365112,-0.8978592753410339,-0.14493533968925476,0.07659876346588135,0.08099526166915894
0.1497776787086129,0.3543130744629335,-0.8565709701490654,-2.9070065021514893,-5.930501937866211,-2.862591028213501,0.3430618941783905,-0.14921830594539642,-0.9273847341537476,-0.11825406551361084,0.027605682611465454,-0.07380539178848267
0.11519124824870623,0.3028374366209318,-0.8750702387631099,-2.4320976734161377,-4.8082356452941895,-2.8229944705963135,0.2962532937526703,-0.11493667215108871,-0.9481685161590576,-0.10809710621833801,-0.003517366945743561,-0.2464115023612976
0.08687868840512582,0.2628616025541717,-0.8960369307212346,-1.822836995124817,-3.5454225540161133,-2.734851598739624,0.2588648796081543,-0.08676943928003311,-0.9620083570480347,-0.12649482488632202,-0.027290068566799164,-0.33558380603790283
0.06562326567889777,0.2380318822646527,-0.9177279359781347,-1.2176791429519653,-1.4633350372314453,-2.433763265609741,0.23528294265270233,-0.06557617336511612,-0.9697121977806091,-0.15027615427970886,-0.04385990649461746,-0.35754305124282837
0.05198462170689357,0.24260201262866773,-0.9361041318460459,-0.5909398198127747,1.948433518409729,-1.744649052619934,0.2399047315120697,-0.05196120962500572,-0.9694048762321472,-0.10880114138126373,0.03223154693841934,-0.4805920720100403
0.04482681956949879,0.2761039835567197,-0.9481583622827657,-0.202522873878479,4.645748138427734,-0.9247866272926331,0.272335410118103,-0.044811807572841644,-0.9611583352088928,-0.09795793890953064,0.11043980717658997,-0.4544605016708374
0.042759600507216215,0.3357902837523673,-0.9529066449234814,0.07110627740621567,7.155095100402832,-0.1155526265501976,0.3292142152786255,-0.04274656996130943,-0.943287193775177,-0.2530423104763031,0.12665459513664246,-0.08694040775299072
0.04437567845631921,0.4177714015339039,-0.9516786775741729,0.09133561700582504,9.098469734191895,0.4187282919883728,0.40532511472702026,-0.044361114501953125,-0.9130956530570984,-0.3236905336380005,0.10347361862659454,0.06485956907272339
0.0492048605454355,0.492366258986366,-0.9445761093632373,0.20568031072616577,4.514476776123047,1.437574863433838,0.47214028239250183,-0.04918500781059265,-0.8801502585411072,-0.32972991466522217,0.0016080588102340698,0.2865986227989197
0.061278222110280854,0.5199923720204563,-0.9276709068896424,0.22350816428661346,1.8499175310134888,2.586987018585205,0.4959409236907959,-0.061239879578351974,-0.8661941289901733,1.236572504043579,-0.3080991506576538,-0.4706893563270569
0.07744288415414322,0.5328956103266443,-0.9039758645412237,0.19627708196640015,1.0388725996017456,3.009948968887329,0.5065069198608398,-0.07736549526453018,-0.8587580323219299,1.0374995470046997,-0.4324917197227478,-0.023367762565612793
0.09422139615002356,0.5385783202317653,-0.8794854427168514,0.19245599210262299,0.6898139119148254,2.822094678878784,0.5106410384178162,-0.0940820500254631,-0.8546311259269714,0.3122502565383911,-0.11394108831882477,0.4935166835784912
0.10930146949731723,0.5437069909792659,-0.8583464269473854,0.23948155343532562,0.6451838612556458,2.3046791553497314,0.5142249464988708,-0.10908396542072296,-0.8506899476051331,0.06766903400421143,0.07586552202701569,0.21902191638946533
0.12273069507342504,0.5449658515924743,-0.8424670179937369,0.43749967217445374,-0.040144722908735275,1.769383430480957,0.5144895911216736,-0.12242281436920166,-0.8487126231193542,-0.1558316946029663,0.07464748620986938,0.11946463584899902
0.13521539270051455,0.5405889135020483,-0.8324980647610364,0.660028874874115,-0.5262291431427002,1.1970263719558716,0.5099435448646545,-0.13480374217033386,-0.8495796322822571,-0.18993616104125977,0.0760115534067154,-0.010024189949035645
0.14612123933885116,0.5341509168357262,-0.8282566239966102,0.7516350746154785,-0.6025854349136353,0.6438549757003784,0.5036849975585938,-0.1456018090248108,-0.8515289425849915,-0.1750105619430542,-0.029355525970458984,-0.11522209644317627
0.154493941632257,0.5283302521345887,-0.8282982000820284,0.6725772619247437,-0.5567132830619812,0.20970569550991058,0.498088002204895,-0.15388008952140808,-0.8533635139465332,-0.18166643381118774,-0.1538134515285492,-0.12388557195663452
0.1600987552921987,0.5234924765304597,-0.8307763510167016,0.5483450293540955,-0.4662095010280609,-0.038665227591991425,0.49351489543914795,-0.15941570699214935,-0.855002760887146,-0.15997296571731567,-0.19376428425312042,-0.10401207208633423
0.1638144343113712,0.5207712159802311,-0.8340895498381538,0.40401291847229004,-0.1702236384153366,-0.1643696278333664,0.4908882677555084,-0.16308274865150452,-0.8558228611946106,-0.11129531264305115,-0.15451374650001526,-0.1048094630241394
0.1653763545849582,0.5207273638229457,-0.8379339237811815,0.2416558414697647,0.012830997817218304,-0.3356514573097229,0.4907234311103821,-0.16462355852127075,-0.8556223511695862,-0.16011115908622742,-0.17706656455993652,-0.07746779918670654
0.16445641436506497,0.5219913637855481,-0.8422113161752922,0.006593002006411552,0.09378763288259506,-0.4857347011566162,0.4918798506259918,-0.16371610760688782,-0.8551323413848877,-0.15936025977134705,-0.18140725791454315,-0.0920417308807373
0.1606477270460778,0.5235403427890705,-0.846426383455957,-0.25073862075805664,0.06157515570521355,-0.5993039011955261,0.49351200461387634,-0.1599576324224472,-0.8549032211303711,-0.09209895133972168,-0.09490996599197388,0.0019521713256835938
0.15452446040431228,0.5239489074573273,-0.8499598471369979,-0.45335057377815247,-0.10236744582653046,-0.6034283638000488,0.49434199929237366,-0.15391024947166443,-0.8555335402488708,-0.03163444995880127,-0.026830196380615234,0.07199478149414062
0.14733980872307897,0.5220926647565433,-0.8523250548725312,-0.5384485721588135,-0.3351760506629944,-0.505078911781311,0.49329179525375366,-0.14680728316307068,-0.85738605260849,0.04407703876495361,-0.028653591871261597,0.059198856353759766
0.14076721792440156,0.5181665679449314,-0.8536216749679543,-0.4495548903942108,-0.4687466323375702,-0.3689951002597809,0.4903891384601593,-0.14030279219150543,-0.8601358532905579,0.11507970094680786,-0.04904359579086304,-0.007066905498504639
0.136592667563106,0.5132935456165129,-0.8549899152015552,-0.11713452637195587,-0.5380508899688721,-0.29084622859954834,0.48647525906562805,-0.13616831600666046,-0.8630179762840271,0.13730409741401672,-0.04838681221008301,-0.11476516723632812
0.13618172716396687,0.5078514052064923,-0.857942061040381,0.3352678418159485,-0.6313171982765198,-0.26450756192207336,0.48179858922958374,-0.13576118648052216,-0.8657014966011047,0.05326619744300842,-0.0008355528116226196,-0.243963360786438
0.13995138605276125,0.5013446796027281,-0.8629362744740595,0.7927727103233337,-0.8096115589141846,-0.23424962162971497,0.4759061932563782,-0.13949497044086456,-0.868363082408905,-0.0201413631439209,0.04679776728153229,-0.2926933765411377
0.14759580766622155,0.4932279225326498,-0.8694221208450974,1.1371361017227173,-0.9873203039169312,-0.15636654198169708,0.4683237075805664,-0.14706051349639893,-0.8712325096130371,-0.02511686086654663,0.06048206984996796,-0.2742142081260681
0.15817210748212293,0.48374658396515063,-0.8762325190375918,1.3333449363708496,-1.1026607751846313,-0.03699299693107605,0.4592932462692261,-0.15751339495182037,-0.8742077946662903,0.013698786497116089,0.0621459037065506,-0.20762503147125244
0.1704145716069999,0.4735050384029346,-0.8825122103496579,1.3868157863616943,-1.1297941207885742,0.06324385851621628,0.44940298795700073,-0.16959093511104584,-0.8770837187767029,0.04765212535858154,0.06038372218608856,-0.14104366302490234
0.1830960402522419,0.4633993224491297,-0.8878334504548341,1.3279122114181519,-1.0562399625778198,0.14203239977359772,0.4395199120044708,-0.18207472562789917,-0.8795857429504395,0.05236247181892395,0.06323923170566559,-0.10297340154647827
0.19513541030048984,0.45444575061152614,-0.8920245629089671,1.176450252532959,-0.8664324879646301,0.1793251782655716,0.43063345551490784,-0.19389937818050385,-0.8814521431922913,0.04350292682647705,0.06686989963054657,-0.07789838314056396
0.20569363677808306,0.4484154468090661,-0.8951098470017346,0.9779684543609619,-0.42155176401138306,0.1960083246231079,0.4243989884853363,-0.20424622297286987,-0.8821388483047485,0.01589342951774597,0.0592266321182251,-0.06662207841873169
0.21448940631935015,0.44764570928747743,-0.8970328067918857,0.7634228467941284,0.20881099998950958,0.22936654090881348,0.4229258894920349,-0.21284855902194977,-0.8808116912841797,-0.010465472936630249,0.057056277990341187,-0.07510566711425781
0.22125960621632212,0.45541507540097226,-0.8972008267412397,0.4723411500453949,1.210686445236206,0.32845672965049744,0.4291127324104309,-0.2194586992263794,-0.8761849999427795,-0.034138888120651245,0.07294373214244843,-0.12657678127288818
0.2267474664374029,0.4671530561013728,-0.895461003567746,0.3763115704059601,1.212195873260498,0.4654470682144165,0.4388185739517212,-0.2248094379901886,-0.8699994087219238,-0.07010513544082642,0.10215923190116882,-0.2257494330406189
0.23244752939230018,0.4803891217598916,-0.8921779928948858,0.3370094299316406,1.61626136302948,0.6235048174858093,0.4496956765651703,-0.23035991191864014,-0.8629646897315979,-0.06174090504646301,0.10464268922805786,-0.16596591472625732
0.23833388338099015,0.4966234915857224,-0.8872819638970288,0.2741684019565582,1.7381563186645508,0.7501479983329773,0.4629914164543152,-0.23608393967151642,-0.854343831539154,-0.05016478896141052,0.09426869451999664,-0.19648313522338867
0.24456416655400334,0.5122095465243031,-0.8820687392639597,0.3413011431694031,1.6324440240859985,0.7211397290229797,0.47552037239074707,-0.2421334832906723,-0.8457255959510803,-0.011485248804092407,0.08075647056102753,-0.1928943395614624
0.25141738193881213,0.5275628046524933,-0.8779668843062138,0.44486427307128906,1.6184996366500854,0.6357566714286804,0.4876016080379486,-0.24877703189849854,-0.8368719816207886,0.03682777285575867,0.043057993054389954,-0.13969045877456665
0.258359950210421,0.5425488856660816,-0.8755327709625587,0.4825681447982788,1.5067963600158691,0.4751635491847992,0.4991840124130249,-0.2554952800273895,-0.8279719352722168,0.04480713605880737,-0.009900927543640137,-0.07412761449813843
0.2644456122008632,0.5548258082795833,-0.8740217635393605,0.3989163935184479,0.9113004803657532,0.42770254611968994,0.5084825754165649,-0.26137420535087585,-0.8204444646835327,0.07492202520370483,-0.07395303249359131,0.07140576839447021
0.2699616034110758,0.5599971829436569,-0.8720420362294049,0.3425692915916443,0.3076346218585968,0.4756084978580475,0.5119449496269226,-0.26669442653656006,-0.816569983959198,0.11191070079803467,-0.10989254713058472,0.11530661582946777
0.27533731957385327,0.5618069847192002,-0.8698828218948406,0.3497435748577118,0.19440419971942902,0.42641139030456543,0.5126507878303528,-0.27187156677246094,-0.8144170641899109,0.04487490653991699,-0.10402879118919373,0.041834115982055664
0.280410768174321,0.5633479376941319,-0.8688687820576444,0.41141754388809204,0.18135730922222137,0.27145615220069885,0.5131619572639465,-0.276750385761261,-0.8124494552612305,-0.06975674629211426,-0.06889176368713379,-0.0028886795043945312
0.2853192309462301,0.5657892204322176,-0.86983836585444,0.5131652355194092,0.2537803649902344,0.09713814407587051,0.5144094228744507,-0.2814638018608093,-0.8100377321243286,-0.1293080449104309,-0.04614245891571045,-0.07649791240692139
0.2900269585413369,0.5693962863700349,-0.8726753791043718,0.5572946071624756,0.2885299324989319,-0.04556691274046898,0.5166078209877014,-0.2859780490398407,-0.8070520162582397,-0.13344430923461914,-0.06054911017417908,-0.08621275424957275
0.2940806025487881,0.5727890633203386,-0.8764945955527452,0.5065203905105591,0.14570540189743042,-0.12249498069286346,0.5187104344367981,-0.2898600399494171,-0.8043137788772583,-0.09976506233215332,-0.07020166516304016,-0.023383915424346924
0.2971760002278865,0.5744596913776533,-0.8802515468690979,0.39567896723747253,-0.018614497035741806,-0.13603273034095764,0.5195633769035339,-0.29282116889953613,-0.8026890158653259,-0.04593050479888916,-0.05469784140586853,0.0480504035949707
0.2992823490836141,0.5744222670398861,-0.8832335867388379,0.26604509353637695,-0.1730080544948578,-0.11243391782045364,0.5191971063613892,-0.29483452439308167,-0.8021889328956604,0.005964756011962891,-0.02984204888343811,0.10194790363311768
0.3004732653814867,0.5722309566430199,-0.8851947363852669,0.14061224460601807,-0.38819772005081177,-0.07711824774742126,0.5172474384307861,-0.2959722876548767,-0.80302894115448,0.03707391023635864,-0.017824769020080566,0.12364667654037476
0.30088976289302793,0.5673928528417956,-0.8862384739871588,0.03946937993168831,-0.6404563188552856,-0.04798086732625961,0.5132899880409241,-0.29637011885643005,-0.8054180145263672,0.0623021125793457,-0.01934954524040222,0.11973387002944946
0.30077586998742595,0.5599952720130735,-0.8865955284019454,-0.016757458448410034,-0.8368256092071533,-0.025920119136571884,0.5073357820510864,-0.29626134037971497,-0.809221625328064,0.05937570333480835,-0.01481965184211731,0.10899585485458374
0.3003975582106036,0.5512574136921331,-0.8867200339408136,-0.03500170633196831,-0.8953080773353577,-0.03803776577115059,0.5003043413162231,-0.29589998722076416,-0.8137191534042358,0.02679532766342163,-0.010099828243255615,0.07226413488388062
0.2998775715926377,0.542488243699419,-0.8870154227983981,-0.020079031586647034,-0.8665758371353149,-0.0661909356713295,0.4932289123535156,-0.29540324211120605,-0.8182067275047302,-0.009509950876235962,-0.01248866319656372,0.03753662109375
0.2995012856632342,0.5343401979492428,-0.8878540581107158,0.0437108650803566,-0.8004425764083862,-0.10919619351625443,0.48660239577293396,-0.2950437366962433,-0.8222939372062683,-0.022155284881591797,-0.0026552975177764893,0.013089895248413086
0.29958755054331404,0.5273333758793376,-0.8894261745208092,0.11812367290258408,-0.6845548152923584,-0.13675116002559662,0.4808160066604614,-0.29512614011764526,-0.825661301612854,-0.021846860647201538,0.022497326135635376,-0.01277858018875122
0.3000924150688257,0.5215577874555352,-0.8913866726203787,0.14603200554847717,-0.5901249647140503,-0.1334669440984726,0.47596505284309387,-0.2956084907054901,-0.8282951712608337,-0.011792600154876709,0.03932181000709534,-0.0020270347595214844
0.30044385369996357,0.5160699325657572,-0.8932000800102147,0.07786098122596741,-0.6250552535057068,-0.1311708241701126,0.47136104106903076,-0.2959442138671875,-0.8308042883872986,0.012022197246551514,0.049163758754730225,0.04070425033569336
0.3000157718033954,0.5096610750736962,-0.8944516004893855,-0.03654203191399574,-0.7287723422050476,-0.11491462588310242,0.4660886526107788,-0.29553526639938354,-0.8339186310768127,0.012045562267303467,0.04884636402130127,0.09080040454864502
0.2987789742912357,0.5019476029179726,-0.8948835234948143,-0.13253912329673767,-0.8329786062240601,-0.07392071932554245,0.45981794595718384,-0.2943534851074219,-0.8378087282180786,0.011938095092773438,0.0382193922996521,0.11774653196334839
0.2972557739721128,0.49290824669687644,-0.894550936633365,-0.15174929797649384,-0.973905086517334,-0.014118365943431854,0.4524376690387726,-0.29289743304252625,-0.8423249125480652,0.01516801118850708,0.03114810585975647,0.11637282371520996
0.2963741747389546,0.4824206114904086,-0.8937749933120565,-0.06046261265873909,-1.0554296970367432,0.06258571892976761,0.44369858503341675,-0.2920543849468231,-0.8472519516944885,0.010067343711853027,0.045121341943740845,0.0876084566116333
0.29694569546438776,0.4713082123169841,-0.8928868511986581,0.08873245865106583,-1.117972731590271,0.13687700033187866,0.43418049812316895,-0.29260092973709106,-0.8519812226295471,0.02741318941116333,0.05859211087226868,0.014594197273254395
0.29925263390725765,0.4595791838933422,-0.8921253899499788,0.25852489471435547,-1.1660562753677368,0.19704382121562958,0.4238574206829071,-0.2948061525821686,-0.8564077615737915,0.03213632106781006,0.060659945011138916,-0.01937037706375122
0.30326322209412165,0.4477895253619176,-0.8915730152991238,0.41287583112716675,-1.1390317678451538,0.2425077110528946,0.41321617364883423,-0.2986361086368561,-0.8602725863456726,0.026145458221435547,0.057226717472076416,-0.03523516654968262
0.30865745200554756,0.43711065330284,-0.8913286965875215,0.531095027923584,-0.9400683045387268,0.2559477388858795,0.40331822633743286,-0.30377981066703796,-0.8631640672683716,0.017000436782836914,0.04624190926551819,-0.03695183992385864
0.3148554989362961,0.42946476096578345,-0.8913366002012539,0.5814202427864075,-0.579992949962616,0.26019707322120667,0.3959152400493622,-0.3096790909767151,-0.8644940853118896,0.005253642797470093,0.03341865539550781,-0.012703180313110352
0.3212250939023585,0.4254284601145352,-0.8912348983032835,0.5546712279319763,-0.21512028574943542,0.2881484627723694,0.391600638628006,-0.3157292306423187,-0.864270806312561,-0.0032796859741210938,0.01368144154548645,0.03165978193283081
0.3272172379009267,0.42490115738523787,-0.8904680148605274,0.46560871601104736,0.1831304132938385,0.3463534712791443,0.39035794138908386,-0.3214091658592224,-0.8627380132675171,-0.001319795846939087,-0.0017872750759124756,0.07059329748153687
0.3322495308809041,0.4293286017730383,-0.888282359355562,0.2671271562576294,0.8367726802825928,0.4418104887008667,0.3934955596923828,-0.3261703550815582,-0.8595197200775146,-0.011552780866622925,-0.00224459171295166,0.08245068788528442
0.33561336284972093,0.4384868771456929,-0.8844304807222454,0.01900445483624935,1.254347324371338,0.5027614831924438,0.4008825719356537,-0.3293483853340149,-0.854881763458252,-0.07472589612007141,0.002123594284057617,0.07640892267227173
0.3364095520173899,0.45151721382970067,-0.8790837090365253,-0.292033851146698,1.6536121368408203,0.4337637722492218,0.41187307238578796,-0.33010002970695496,-0.8493494987487793,-0.1537553369998932,-0.01848703622817993,0.08517414331436157
0.33447438030288423,0.4674362377826466,-0.8740896606652017,-0.4508810341358185,1.8073992729187012,0.24440155923366547,0.4256281852722168,-0.3282727301120758,-0.8432542085647583,-0.18492072820663452,-0.04575076699256897,0.04346489906311035
0.3308558323021836,0.48438132418159235,-0.8704142514029152,-0.49544110894203186,1.8166301250457764,0.02901945263147354,0.4404056668281555,-0.3248525559902191,-0.8369669318199158,-0.13410067558288574,-0.06909891963005066,-0.020897388458251953
0.3265651652931538,0.5024638403964556,-0.8687126196067089,-0.3922500014305115,1.9093104600906372,-0.1349567025899887,0.4561343789100647,-0.320791631937027,-0.8300808668136597,-0.07281830906867981,-0.1197144091129303,-0.09113794565200806
0.32311643179823185,0.5221081746048101,-0.86873904957678,-0.2005484402179718,1.9882152080535889,-0.19431929290294647,0.4729006290435791,-0.3175232410430908,-0.8219148516654968,-0.019684016704559326,-0.16042786836624146,-0.1505734920501709
0.32117317011247964,0.5423816958650284,-0.870107823863905,-0.0036457651294767857,1.968719244003296,-0.22307050228118896,0.48978298902511597,-0.31567996740341187,-0.8126862049102783,-8.26120376586914e-05,-0.1470581591129303,-0.1693541407585144
0.3206686113187,0.5631846309571273,-0.8727732826887769,0.1801290214061737,2.0175838470458984,-0.26117169857025146,0.5066670179367065,-0.31520116329193115,-0.8024567365646362,-0.022139430046081543,-0.10508695244789124,-0.159213125705719
0.32132537112772247,0.5847706114647876,-0.8768235119663855,0.33497345447540283,2.009136199951172,-0.3113483190536499,0.5237550735473633,-0.31582435965538025,-0.7911609411239624,-0.053372323513031006,-0.06036585569381714,-0.16014820337295532
0.3226165020031127,0.6056661662320711,-0.8818912448544645,0.40794962644577026,1.8130385875701904,-0.3324667513370514,0.5399386882781982,-0.31704914569854736,-0.779708981513977,-0.06114834547042847,-0.04009813070297241,-0.11018353700637817
0.3239701217478006,0.624098748788977,-0.8868945922564843,0.30252358317375183,1.5658999681472778,-0.2650160789489746,0.5539669394493103,-0.31833264231681824,-0.7692756652832031,-0.013729393482208252,-0.05735406279563904,-0.0307273268699646
0.32441063158637884,0.6370614062720857,-0.8895433275922993,0.07436827570199966,0.775343656539917,-0.07758808881044388,0.5638084411621094,-0.31875020265579224,-0.7619175314903259,0.0920296311378479,-0.07916855812072754,0.1905369758605957
0.3246601609135584,0.6416372891031261,-0.8894006808516797,-0.02807740308344364,0.23438751697540283,0.11761655658483505,0.567241370677948,-0.318986713886261,-0.7592658996582031,0.18660390377044678,-0.07630753517150879,0.17122280597686768
0.3254041407204902,0.6424571288373983,-0.8878977657063901,-0.011570721864700317,0.01670747995376587,0.17579734325408936,0.5677213072776794,-0.3196917474269867,-0.7586104273796082,0.12646210193634033,-0.04816722869873047,0.06590723991394043
0.32682260288043036,0.6415497736407758,-0.8870098880514711,0.15903696417808533,-0.10684934258460999,0.11784456670284271,0.566760778427124,-0.3210354447364807,-0.7587611675262451,0.014644861221313477,-0.032022446393966675,-0.04096716642379761
0.3294279908925452,0.6412733459772584,-0.8883041792123673,0.39925163984298706,-0.02185150422155857,-0.013256227597594261,0.5660487413406372,-0.3235018253326416,-0.7582449316978455,-0.04316049814224243,-0.052810490131378174,-0.19483423233032227
0.33256465903844146,0.6425976177372675,-0.8920996449420776,0.5103781223297119,0.016171777620911598,-0.1862354576587677,0.5664414763450623,-0.32646822929382324,-0.7566786408424377,-0.08705604076385498,-0.09014254808425903,-0.22250831127166748
0.33498083820880753,0.6440864006698294,-0.8975925395676388,0.4833728075027466,-0.0860796719789505,-0.35110238194465637,0.5670920610427856,-0.3287510871887207,-0.755201518535614,-0.11167818307876587,-0.09246787428855896,-0.12376570701599121
0.33615744790702135,0.6446740393755712,-0.9039682721763055,0.43011197447776794,-0.22167052328586578,-0.45777663588523865,0.567302942276001,-0.3298620581626892,-0.7545584440231323,-0.1096612811088562,-0.08394110202789307,-0.0592690110206604
0.33671351249124704,0.6438388522033155,-0.9108666880242655,0.44878244400024414,-0.40397000312805176,-0.5106059908866882,0.5665623545646667,-0.3303869366645813,-0.754885196685791,-0.07329148054122925,-0.07154485583305359,-0.04517883062362671
0.337447511003348,0.641215064800709,-0.9184659787934677,0.5390737056732178,-0.6256003975868225,-0.5485605597496033,0.5644345283508301,-0.3310796320438385,-0.7561745643615723,-0.0472530722618103,-0.06259718537330627,-0.07608550786972046
0.3390677948554646,0.6363751086119871,-0.9273801237072291,0.7295922636985779,-0.9371907711029053,-0.6069366931915283,0.5604485869407654,-0.33260810375213623,-0.7584651112556458,-0.03460007905960083,-0.06274718046188354,-0.12497293949127197
0.3421426307176518,0.6290594318848024,-0.9382641566364951,0.9781493544578552,-1.2339212894439697,-0.686231255531311,0.5542805194854736,-0.33550629019737244,-0.7617142796516418,-0.027028262615203857,-0.07878515124320984,-0.17822706699371338
0.3467662447778356,0.620030424543342,-0.9515379702732296,1.217771053314209,-1.4505245685577393,-0.7997838854789734,0.5464732646942139,-0.3398583233356476,-0.7654170393943787,-0.027567625045776367,-0.10057142376899719,-0.20348548889160156
0.35242920588471227,0.6101809130642312,-0.967209824614578,1.3841181993484497,-1.5719149112701416,-0.9483281373977661,0.5377964377403259,-0.3451787233352661,-0.7691726684570312,-0.04101598262786865,-0.11646074056625366,-0.21634668111801147
0.3583118700620247,0.600363525605056,-0.9849646649839997,1.4521455764770508,-1.6128097772598267,-1.112245798110962,0.5290630459785461,-0.35069382190704346,-0.7727264165878296,-0.04499316215515137,-0.12072652578353882,-0.19550472497940063
0.3634473913304886,0.5907701116421988,-1.004068209924317,1.3751983642578125,-1.6455093622207642,-1.2664345502853394,0.5206156969070435,-0.3554985225200653,-0.7762603163719177,-0.04559427499771118,-0.09664994478225708,-0.1483612060546875
0.3666583842884148,0.5811981528929432,-1.0236891767295087,1.1695587635040283,-1.6456958055496216,-1.4205127954483032,0.5125322937965393,-0.3584979474544525,-0.7802498936653137,-0.06485462188720703,-0.07698798179626465,-0.088387131690979
0.36730735033684897,0.5724639665934811,-1.0431705101407374,0.9175691604614258,-1.4568712711334229,-1.5376743078231812,0.5055718421936035,-0.3591036796569824,-0.7845008969306946,-0.04440540075302124,-0.09071022272109985,-0.059996724128723145
0.36570318220592746,0.5664059934694877,-1.0618703086654873,0.703330934047699,-1.0796360969543457,-1.549163579940796,0.5011186003684998,-0.35760605335235596,-0.7880343198776245,-0.01584327220916748,-0.10259908437728882,-0.06024748086929321
0.3632695604281354,0.5626834797975911,-1.0792009492784387,0.6281528472900391,-0.9165483713150024,-1.4294483661651611,0.4986444413661957,-0.35533231496810913,-0.7906280755996704,-0.0035424530506134033,-0.06222447752952576,-0.08893424272537231
0.36128189824605944,0.5595069160281734,-1.095268204183622,0.6365662813186646,-0.8631048798561096,-1.3214390277862549,0.4965043365955353,-0.3534736633300781,-0.792805016040802,0.001100093126296997,0.005039185285568237,-0.15186649560928345
0.36012850650690675,0.5560207822710056,-1.110785976309004,0.7102525234222412,-0.9339218139648438,-1.2534810304641724,0.49395236372947693,-0.3523944914340973,-0.7948768734931946,-0.014353275299072266,0.014885276556015015,-0.23728859424591064
0.36034692596337303,0.5518412544480855,-1.1262548253640197,0.8500264883041382,-0.9623252153396606,-1.1781502962112427,0.4905855059623718,-0.3525989055633545,-0.7968688607215881,-0.05201733112335205,0.029921233654022217,-0.2577728033065796
0.3621637441319772,0.5483105172502847,-1.141951694651801,0.9816218018531799,-0.8318750858306885,-1.134265661239624,0.48743417859077454,-0.3542984426021576,-0.7980479598045349,-0.05686160922050476,0.06125333905220032,-0.2404193878173828
0.36487298620509334,0.5465348812895817,-1.1578818903479067,1.0127108097076416,-0.6503236293792725,-1.123916745185852,0.48551568388938904,-0.3568306565284729,-0.7980892062187195,-0.03860095143318176,0.08681106567382812,-0.19983547925949097
0.3677613770272307,0.5470124426205706,-1.173684328274577,1.009694218635559,-0.36069875955581665,-1.0836042165756226,0.48535868525505066,-0.3595274090766907,-0.796973705291748,-0.025733381509780884,0.11363199353218079,-0.11293834447860718
0.3712088102824514,0.5507682854672868,-1.1888231810785295,1.0455244779586792,0.01505445595830679,-0.9482787251472473,0.4876970052719116,-0.36274218559265137,-0.7940842509269714,0.006123274564743042,0.12267559766769409,-0.03286576271057129
