attitudeX,attitudeY,attitudeZ,gyroX,gyroY,gyroZ,gravityX,gravityY,gravityZ,accX,accY,accZ
1.4418698732856479,-1.7453232028235537,1.2252955084231996,0.09152597934007645,0.08795992285013199,-0.11340057849884033,-0.12661603093147278,-0.9917004704475403,0.02232503332197666,0.00926065444946289,0.004945158958435059,0.06077432632446289
1.442923801533266,-1.7510295687791027,1.2314819894048847,0.033389974385499954,-0.003811003640294075,-0.12243002653121948,-0.1254575401544571,-0.9918354153633118,0.022859681397676468,0.003280431032180786,0.005690634250640869,0.05795085057616234
1.4440925787775245,-1.7545869718862304,1.234617448695521,0.009086468257009983,-0.08056046068668365,-0.11950097233057022,-0.12423604726791382,-0.9919838309288025,0.023094041272997856,0.007719911634922028,0.007517397403717041,0.0319596529006958
1.4451436639470876,-1.7580261694520332,1.2369611208930404,0.009495795704424381,-0.1396016776561737,-0.09765053540468216,-0.12313227355480194,-0.9921160936355591,0.023327253758907318,0.03421926498413086,0.001652836799621582,0.009906291961669922
1.4459136799812637,-1.7613669351390482,1.238791981684595,0.016990624368190765,-0.16382353007793427,-0.06362761557102203,-0.12230277061462402,-0.9922122955322266,0.02359362505376339,0.054233260452747345,-0.0014857649803161621,0.0010645370930433273
1.4463259906996875,-1.7639964787744613,1.239718441984577,0.009136696346104145,-0.17852097749710083,-0.022160861641168594,-0.12183874845504761,-0.9922635555267334,0.023836582899093628,0.07134739309549332,-0.0030671358108520508,0.009076593443751335
1.4463977478286572,-1.7644198360167702,1.2384015299800888,-0.03187995404005051,-0.1646021604537964,0.008467650040984154,-0.12175802141427994,-0.9922724962234497,0.02387431263923645,0.06845902651548386,-0.008566558361053467,0.020940657705068588
1.4463538173531194,-1.7620344872211595,1.2344566971890378,-0.06593433022499084,-0.1395849585533142,0.014862965792417526,-0.12185803055763245,-0.9922670125961304,0.023592215031385422,0.03598151355981827,-0.011684894561767578,0.021589038893580437
1.446497195236876,-1.7577380725021934,1.2289702832051645,-0.0800887867808342,-0.08472923934459686,-0.023025058209896088,-0.12181928008794785,-0.9922847747802734,0.02304215542972088,-0.005118638277053833,-0.012109756469726562,0.01220560073852539
1.4470959677464454,-1.7531530134258282,1.223664205114521,-0.07860114425420761,-0.05446614325046539,-0.06383667141199112,-0.12133946269750595,-0.9923588633537292,0.022375639528036118,-0.03126373887062073,-0.0028040409088134766,-0.006613373756408691
1.447870237031182,-1.7492869785077785,1.2193977398058244,-0.06037738174200058,-0.013551647774875164,-0.0673966184258461,-0.1206691563129425,-0.9924541115760803,0.021769998595118523,0.00801345705986023,0.0022044777870178223,-0.023250102996826172
1.4487095998545296,-1.7460214656909527,1.2162752806576491,-0.04417257755994797,0.03982369229197502,-0.07968097925186157,-0.11991878598928452,-0.9925566911697388,0.021230516955256462,0.024673372507095337,0.0013610124588012695,-0.029073596000671387
1.449551750696698,-1.744748739273051,1.215407474448245,-0.007244407199323177,0.03486346825957298,-0.06650596112012863,-0.11912229657173157,-0.9926588535308838,0.020933181047439575,0.03376457840204239,0.0032179951667785645,-0.03527641296386719
1.4501425169110809,-1.7462111345578084,1.2170702308393588,0.018357092514634132,0.0082808593288064,-0.03637681528925896,-0.11851508170366287,-0.9927301406860352,0.021005189046263695,0.0655670017004013,0.00025260448455810547,-0.03542482852935791
1.4504615328466324,-1.7497263471132847,1.2205813075788567,0.04264111444354057,-0.011064700782299042,-0.017080115154385567,-0.11812945455312729,-0.9927685260772705,0.02136540412902832,0.06798900663852692,-0.004668116569519043,-0.03590703010559082
1.4504407353556716,-1.7550619801946876,1.2257275887671943,0.069379523396492,-0.03321554511785507,0.008699283935129642,-0.11803308874368668,-0.9927660226821899,0.021998994052410126,0.06987634301185608,-0.005174040794372559,-0.03744089603424072
1.4500756338125844,-1.7620408187071857,1.232349720814005,0.09509585797786713,-0.040493980050086975,0.030198676511645317,-0.11823179572820663,-0.9927220940589905,0.022890938445925713,0.07959651947021484,-0.014571547508239746,-0.03679168224334717
1.449392926500032,-1.770096602377761,1.2402062302079926,0.11746161431074142,-0.005141047760844231,0.05577514320611954,-0.11870713531970978,-0.9926396608352661,0.02397666499018669,0.08690781891345978,-0.023793935775756836,-0.03363550081849098
1.4484541124623336,-1.778168955727772,1.2485430074434702,0.12483362853527069,0.038211096078157425,0.09221399575471878,-0.11942221969366074,-0.9925255179405212,0.025126107037067413,0.09491658210754395,-0.029294490814208984,-0.025614500045776367
1.4470752640563547,-1.7845225013226476,1.25530564462413,0.10119860619306564,0.027251653373241425,0.14454777538776398,-0.12059801816940308,-0.9923563003540039,0.026174716651439667,0.1021958589553833,-0.031371116638183594,-0.012518167495727539
1.4455467667453048,-1.787410524948654,1.2584836010813907,0.04999000206589699,0.022253965958952904,0.13379858434200287,-0.12200208753347397,-0.9921665191650391,0.026848630979657173,0.06694836914539337,-0.03221690654754639,-0.001335982233285904
1.44437922402586,-1.7869799648588378,1.2580234715187362,0.004997494630515575,-0.032562680542469025,0.12083538621664047,-0.12314669042825699,-0.9920200109481812,0.027044937014579773,0.02043972909450531,-0.0265958309173584,-0.004233118146657944
1.4432894866667496,-1.7846240162863334,1.2552482513536305,-0.010482098907232285,-0.03463123366236687,0.12173466384410858,-0.12426543980836868,-0.9918820261955261,0.02698390744626522,0.0470559298992157,-0.030258476734161377,-0.024863004684448242
1.4423522264116981,-1.7825332653345296,1.2532472006665512,0.01914397068321705,0.06284338980913162,0.08714046329259872,-0.12523114681243896,-0.9917623996734619,0.02691955864429474,0.04905924201011658,-0.033658742904663086,-0.05911564826965332
1.4416440308519385,-1.7841143020887902,1.2560203557748515,0.09726053476333618,0.16649512946605682,0.06297775357961655,-0.12587375938892365,-0.9916714429855347,0.027265971526503563,0.050205424427986145,-0.04182153940200806,-0.08485269546508789
1.4410062301120299,-1.7912581650518535,1.2652993033797255,0.17837350070476532,0.23741137981414795,0.054346714168787,-0.1262930929660797,-0.9915890693664551,0.028302837163209915,0.07624422013759613,-0.04973161220550537,-0.09100127220153809
1.4401876428371814,-1.803129073737666,1.2798174828955315,0.22995537519454956,0.2596237063407898,0.06983340531587601,-0.12673921883106232,-0.9914827942848206,0.02998717874288559,0.10110439360141754,-0.05594158172607422,-0.06866824626922607
1.4389620216020775,-1.8162653119667334,1.2955442260500722,0.22150622308254242,0.22219695150852203,0.11327089369297028,-0.12751169502735138,-0.9913224577903748,0.031944360584020615,0.13411873579025269,-0.0706281065940857,-0.029686100780963898
1.4371674562876997,-1.826035429581534,1.3072200720311542,0.16189508140087128,0.13210976123809814,0.17723822593688965,-0.1289144903421402,-0.9910849332809448,0.033637676388025284,0.1666189581155777,-0.08520889282226562,0.003975149244070053
1.4348030520496824,-1.8304225109970071,1.3124393802660095,0.10021413117647171,0.023212309926748276,0.24906180799007416,-0.1310305893421173,-0.9907671809196472,0.03480451926589012,0.1955447643995285,-0.10069394111633301,0.009827371686697006
1.4317694710890985,-1.8307398067418454,1.3124435667748682,0.06127602607011795,-0.08205826580524445,0.3427680432796478,-0.1339230090379715,-0.9903513193130493,0.03561830148100853,0.2281765192747116,-0.11179089546203613,-0.016316059976816177
1.4278857343993538,-1.8278958531105816,1.3082810543164265,0.03077298030257225,-0.16639313101768494,0.43808603286743164,-0.13774214684963226,-0.9898056387901306,0.0362149141728878,0.26013287901878357,-0.11859261989593506,-0.051107533276081085
1.4232198978471315,-1.8228766877196958,1.3012881216743217,0.01676967553794384,-0.20712007582187653,0.5156618356704712,-0.14239488542079926,-0.9891303181648254,0.0366750992834568,0.2727506756782532,-0.12544798851013184,-0.08673930168151855
1.4178847033515622,-1.817406468943109,1.2935468850733423,0.026914190500974655,-0.22576886415481567,0.5670478343963623,-0.1477089375257492,-0.9883317947387695,0.03718338534235954,0.2751960754394531,-0.12392723560333252,-0.12902605533599854
1.4121147497056452,-1.8135834386906897,1.2874588121419062,0.07108818739652634,-0.20402944087982178,0.5916560292243958,-0.15338300168514252,-0.9874364733695984,0.03798878937959671,0.27113497257232666,-0.12178605794906616,-0.1699162721633911
1.4060798190452737,-1.812472119200095,1.284597256931134,0.1319371461868286,-0.12564168870449066,0.598886251449585,-0.15920788049697876,-0.9864648580551147,0.03924372047185898,0.27241280674934387,-0.13519346714019775,-0.2020092010498047
1.3997221904070294,-1.8142063190936186,1.2856629238125108,0.20784473419189453,-0.012256906367838383,0.6240155100822449,-0.16522321105003357,-0.9854024648666382,0.041030529886484146,0.3004313111305237,-0.14667773246765137,-0.2348325252532959
1.3929535881881596,-1.8185919585150065,1.2905398744627692,0.2845778465270996,0.09376859664916992,0.6448802947998047,-0.17150291800498962,-0.9842275977134705,0.04338940605521202,0.34053975343704224,-0.14698266983032227,-0.2668238878250122
1.3856364072044798,-1.8255975582364146,1.2991603256303648,0.3866531252861023,0.19456486403942108,0.6961402297019958,-0.17815925180912018,-0.9829068183898926,0.046403806656599045,0.3728461265563965,-0.15413230657577515,-0.2971057891845703
1.3772187858071498,-1.8364528437850354,1.3124004117613537,0.5312920808792114,0.22091418504714966,0.8025617599487305,-0.18562279641628265,-0.9813222885131836,0.05050564929842949,0.3982539772987366,-0.1476602554321289,-0.33079445362091064
1.3671152749210227,-1.8521262042113933,1.3302046917540817,0.6892240047454834,0.12414991855621338,0.9494852423667908,-0.19432364404201508,-0.9793286323547363,0.056158509105443954,0.4166441857814789,-0.11852598190307617,-0.35051584243774414
1.355069199428097,-1.8723054273114912,1.3513580283434505,0.8380406498908997,-0.020484765991568565,1.0980992317199707,-0.20440205931663513,-0.9768210053443909,0.06356710195541382,0.42313677072525024,-0.08725076913833618,-0.3397054672241211
1.341064936637648,-1.895538028537401,1.3742810833984558,0.9836312532424927,-0.15298019349575043,1.2425991296768188,-0.21581393480300903,-0.9737275838851929,0.07265595346689224,0.40586215257644653,-0.07815223932266235,-0.31157803535461426
1.3251107252494136,-1.920924582830655,1.3983017088698804,1.1405963897705078,-0.24830512702465057,1.3854577541351318,-0.22846463322639465,-0.9699708223342896,0.08342930674552917,0.37313324213027954,-0.050536930561065674,-0.27756690979003906
1.3070315526355303,-1.9488156619305173,1.4241127932472066,1.359873652458191,-0.33060434460639954,1.5135002136230469,-0.24230928719043732,-0.9654152989387512,0.09622535109519958,0.3425290584564209,0.0014871954917907715,-0.24045147001743317
1.2870193318666916,-1.9795018776787423,1.452193448694678,1.5596762895584106,-0.4011504352092743,1.588303804397583,-0.2569224536418915,-0.9600048065185547,0.11127133667469025,0.29285693168640137,0.044447124004364014,-0.19141057133674622
1.2655825212517178,-2.011303101829701,1.480545083343997,1.68632173538208,-0.5389789342880249,1.6222319602966309,-0.2718103528022766,-0.9537827372550964,0.12813134491443634,0.2365625500679016,0.06381392478942871,-0.11931180953979492
1.243416011310737,-2.0436869066255507,1.507856922957859,1.7848563194274902,-0.7554848790168762,1.589213490486145,-0.2862735688686371,-0.9468879699707031,0.14645975828170776,0.1797519326210022,0.06666958332061768,-0.05408312380313873
1.2209984694923748,-2.078240281494326,1.5347806126398746,1.8931987285614014,-1.0833334922790527,1.513602375984192,-0.29952308535575867,-0.939441978931427,0.16653713583946228,0.11690589785575867,0.07339894771575928,-0.03160369396209717
1.198401541271371,-2.1162680384751256,1.562016345069388,2.0319952964782715,-1.4044766426086426,1.4177783727645874,-0.3110467493534088,-0.9314586520195007,0.18877176940441132,0.08344659209251404,0.07734787464141846,-0.0491538941860199
1.1757238285816114,-2.156707609334642,1.589768965453466,2.127634048461914,-1.498669981956482,1.2857803106307983,-0.32068106532096863,-0.9229686856269836,0.21282000839710236,0.07290884852409363,0.06025207042694092,-0.07797816395759583
1.1536326109004187,-2.196953378576481,1.6176163938491352,2.1823832988739014,-1.4049538373947144,1.061484456062317,-0.32830238342285156,-0.9142417907714844,0.23744313418865204,0.08150669932365417,0.043834805488586426,-0.0754254162311554
1.132530301143241,-2.235346836967776,1.6460832481293743,2.2259950637817383,-1.0577043294906616,0.9033499956130981,-0.3340613842010498,-0.9054888486862183,0.26171112060546875,0.0908820629119873,0.06514173746109009,-0.08869177103042603
1.111627667047909,-2.2680118986190037,1.6732192055284918,2.210397481918335,-0.5607931017875671,0.8648699522018433,-0.3397740125656128,-0.8964212536811829,0.2845742106437683,0.1821202039718628,-0.007753491401672363,-0.08201387524604797
1.0910648474881497,-2.292086737471042,1.6971526978399063,2.0804362297058105,0.015305798500776291,0.8332412838935852,-0.34659621119499207,-0.8871188759803772,0.30478060245513916,0.2271350920200348,-0.0651211142539978,-0.04652559757232666
1.0720053206319633,-2.3075553154809247,1.7173572767795706,1.8524669408798218,0.4265982508659363,0.7329003214836121,-0.35430023074150085,-0.8781615495681763,0.32140836119651794,0.19374722242355347,-0.05833125114440918,-0.0041325390338897705
1.0553965284702238,-2.317068003955941,1.7342948637624012,1.5947307348251343,0.6077354550361633,0.5981471538543701,-0.3618868589401245,-0.8700957298278809,0.33462101221084595,0.156793475151062,-0.038092076778411865,0.01338610053062439
1.0412837986294479,-2.322886557415829,1.7485391108491144,1.363917589187622,0.6794602274894714,0.5101829767227173,-0.36886489391326904,-0.8630533814430237,0.34507617354393005,0.14114266633987427,-0.03591811656951904,0.0008405447006225586
1.0287629322737817,-2.3252302133391405,1.759408599602361,1.1513324975967407,0.7361085414886475,0.5752972364425659,-0.3759003281593323,-0.8566614389419556,0.35331350564956665,0.1746368110179901,-0.08123534917831421,-0.029110044240951538
1.0165824549169065,-2.3223392065324844,1.7654315275536907,0.9698737263679504,0.854932427406311,0.7768052816390991,-0.38451582193374634,-0.8503144383430481,0.35932332277297974,0.2275180220603943,-0.07662659883499146,-0.058297961950302124
1.0038786769938837,-2.3146210117098485,1.7665064112583597,0.8458444476127625,0.8448441624641418,1.0069791078567505,-0.39519548416137695,-0.8435602784156799,0.3636302649974823,0.254021018743515,-0.04860597848892212,-0.09454146027565002
0.9900775243656105,-2.3021757200633863,1.76280594674867,0.6624600291252136,1.1188219785690308,1.332494854927063,-0.40831640362739563,-0.8360685110092163,0.3664250671863556,0.28443029522895813,-0.03244650363922119,-0.1103978157043457
0.9756707773034868,-2.283980058814869,1.7522837943039684,0.39883556962013245,0.7131862640380859,1.5652549266815186,-0.4239816665649414,-0.8280780911445618,0.3667779564857483,0.4316416084766388,-0.02719217538833618,0.0479864776134491
0.9607540700593262,-2.26495433301556,1.7370796423069135,0.22035664319992065,0.5931024551391602,1.8156665563583374,-0.4403281509876251,-0.8196238279342651,0.3665073812007904,0.34579998254776,0.05201530456542969,-0.06220152974128723
0.9444878679992738,-2.2445275870394057,1.7187722867263266,0.20376995205879211,0.505312979221344,2.027304172515869,-0.4580816328525543,-0.8101968765258789,0.3657073974609375,0.3402075469493866,0.10397446155548096,-0.10855120420455933
0.9264172419647545,-2.2241489723910606,1.6993211228850995,0.19874855875968933,0.449349582195282,2.230822801589966,-0.47698774933815,-0.7994729280471802,0.3651379942893982,0.31106364727020264,0.14184963703155518,-0.17330455780029297
0.9066690343464915,-2.203531865973582,1.6790009413549607,0.1905418485403061,0.44178760051727295,2.3878462314605713,-0.49705031514167786,-0.7874550223350525,0.36449339985847473,0.30901631712913513,0.19410181045532227,-0.21564394235610962
0.8857118018543829,-2.1839359332954804,1.6589687816179348,0.22830361127853394,0.34310975670814514,2.4479784965515137,-0.5174822807312012,-0.7743655443191528,0.3641017973423004,0.28562498092651367,0.2040073275566101,-0.22991597652435303
0.8640236408884581,-2.1669440975949583,1.6407800348490538,0.3221178650856018,0.26173368096351624,2.419658660888672,-0.5373674631118774,-0.7604615688323975,0.36460188031196594,0.22276169061660767,0.18445754051208496,-0.2656487226486206
0.8420385534179781,-2.1532805571700284,1.625562421054747,0.4633197486400604,0.17647019028663635,2.325775384902954,-0.5561284422874451,-0.7460022568702698,0.36633560061454773,0.1886509656906128,0.17282110452651978,-0.29901397228240967
0.8198560136655482,-2.1438426604070493,1.6143033876610011,0.6990349888801575,0.0370665080845356,2.2064156532287598,-0.5733269453048706,-0.7310475707054138,0.3699534833431244,0.1915215253829956,0.1814565658569336,-0.35617494583129883
0.7967700047880697,-2.139503127663199,1.6079175025047336,1.0650004148483276,-0.08559203147888184,2.1549458503723145,-0.5889928936958313,-0.7151020169258118,0.3764522075653076,0.2186620831489563,0.19775283336639404,-0.4499233365058899
0.7715142512222707,-2.1396360028814483,1.6065539165997798,1.4796011447906494,-0.11631713062524796,2.2112371921539307,-0.6039701104164124,-0.6972215175628662,0.38613787293434143,0.2441830039024353,0.22464150190353394,-0.5443257689476013
0.7432583659098773,-2.1416730587821418,1.6085709817284375,1.7887033224105835,-0.014507675543427467,2.3859364986419678,-0.6195160150527954,-0.6766905188560486,0.39785701036453247,0.27808523178100586,0.25153475999832153,-0.5724480152130127
0.7120351566818411,-2.1437751963749405,1.6117913866529654,1.971903681755066,0.0016111712902784348,2.5819644927978516,-0.6361274719238281,-0.6533758044242859,0.41041627526283264,0.3119851350784302,0.30256110429763794,-0.5085456967353821
0.6787256970030194,-2.1464375555340145,1.615156608669997,2.0585601329803467,-0.10740559548139572,2.7075347900390625,-0.6529333591461182,-0.6278016567230225,0.42372527718544006,0.2983648180961609,0.36417555809020996,-0.4185678958892822
0.6443079226589973,-2.1498255268040807,1.6182035164014215,2.0951156616210938,-0.1869354397058487,2.783031702041626,-0.6691899299621582,-0.6006452441215515,0.43750420212745667,0.254761278629303,0.40641623735427856,-0.3274579346179962
0.6092064256334229,-2.1533527860723614,1.6210434922115224,2.1331214904785156,-0.18579614162445068,2.8147807121276855,-0.6848336458206177,-0.572216808795929,0.4511878490447998,0.21614474058151245,0.4344300627708435,-0.2889259457588196
0.5738339380028254,-2.1566505580072746,1.6240592146704975,2.1810083389282227,-0.1316632628440857,2.7852108478546143,-0.6997764706611633,-0.5428558588027954,0.4643492102622986,0.1769798994064331,0.4598175883293152,-0.28711846470832825
0.5385458406987675,-2.15946739396745,1.6279728413440357,2.275050163269043,-0.019649913534522057,2.7016079425811768,-0.7139596939086914,-0.5128881931304932,0.476662814617157,0.13217252492904663,0.4825841784477234,-0.303048312664032
0.5033997121947806,-2.161866219862648,1.6334227231347094,2.412712335586548,0.07238650321960449,2.596006393432617,-0.7273385524749756,-0.48240628838539124,0.48812150955200195,0.07537633180618286,0.5123441219329834,-0.31496483087539673
0.4681559176117644,-2.1645742839713824,1.6408162248055242,2.599634885787964,0.06179777532815933,2.509134531021118,-0.7396518588066101,-0.4512414038181305,0.4992954730987549,0.020993530750274658,0.5326623916625977,-0.31782281398773193
0.4322777418223829,-2.1683306982454633,1.6503772126982477,2.8401594161987305,0.024249017238616943,2.4535815715789795,-0.7506781220436096,-0.41894009709358215,0.5108538866043091,-0.03719419240951538,0.548166811466217,-0.3022967576980591
0.39533192727879723,-2.1727190878862905,1.6619490755869906,3.0544393062591553,0.02945549786090851,2.4421093463897705,-0.7606731057167053,-0.38511452078819275,0.5225544571876526,-0.10952037572860718,0.5912913084030151,-0.24702656269073486
0.3572214094104804,-2.176975167747405,1.6746729969912644,3.1905646324157715,0.05596787855029106,2.4810047149658203,-0.7699503898620605,-0.34967240691185,0.5337652564048767,-0.19365733861923218,0.6397114992141724,-0.15708690881729126
0.31806999438449357,-2.1806396870391795,1.687429714331627,3.2277774810791016,0.04224860668182373,2.558582305908203,-0.7786202430725098,-0.3127339482307434,0.5440108180046082,-0.28517669439315796,0.6694234609603882,-0.062214672565460205
0.27840598002419764,-2.184886618699051,1.6995395896476373,3.1968653202056885,-0.21102026104927063,2.5700430870056152,-0.7858276963233948,-0.2748233675956726,0.5540279150009155,-0.4147033095359802,0.6719028353691101,0.04439115524291992
0.2394731940310563,-2.192292759420897,1.7115384277931094,3.1852052211761475,-0.6640987992286682,2.3899526596069336,-0.7898073792457581,-0.23719088733196259,0.5656367540359497,-0.6207609176635742,0.6260458827018738,0.1379765272140503
0.20264784728956042,-2.2042259405191467,1.7248261954614823,3.218273162841797,-1.1194467544555664,2.0152816772460938,-0.7895090579986572,-0.2012636959552765,0.5798002481460571,-0.8255117535591125,0.5924074649810791,0.17236638069152832
0.1691401096865809,-2.219598389715674,1.740363601751593,3.2134807109832764,-1.381663203239441,1.5009795427322388,-0.785437822341919,-0.16833479702472687,0.5956099629402161,-0.9503106474876404,0.6098936200141907,0.16491860151290894
0.13972610570283944,-2.2376531142215907,1.7589786488325947,3.28766131401062,-1.619607925415039,0.8981424570083618,-0.7781118154525757,-0.13927190005779266,0.6124913096427917,-1.0137126445770264,0.6329089403152466,0.14014846086502075
0.1138214691296946,-2.2552504650499694,1.7813855113610535,3.4006052017211914,-1.3169057369232178,0.367709219455719,-0.7697511315345764,-0.11357586085796356,0.62815922498703,-1.0058226585388184,0.6044358015060425,0.08621150255203247
0.09075774593165842,-2.271029678967699,1.807517352284385,3.527886152267456,-1.359656810760498,-0.11601724475622177,-0.7615445852279663,-0.09063320606946945,0.6417440176010132,-0.9461427330970764,0.5425985455513,0.16871124505996704
0.06980290126472212,-2.287617925857749,1.8370642234264964,3.6503560543060303,-1.4437029361724854,-0.5086531639099121,-0.7520618438720703,-0.069746233522892,0.6553919315338135,-0.962751567363739,0.4883711040019989,0.17825669050216675
0.05025898906541795,-2.3017120200952585,1.8688727149818058,3.6193716526031494,-0.9086913466453552,-0.7503761649131775,-0.7436232566833496,-0.050237834453582764,0.666708767414093,-0.9432358741760254,0.5195524096488953,0.1866542100906372
0.033444756019147724,-2.309792600697682,1.8999521462488684,3.167121648788452,-0.5367044806480408,-0.907400906085968,-0.7387315630912781,-0.03343852236866951,0.6731696128845215,-0.8177564144134521,0.4927738308906555,0.44175952672958374
0.021358080317197523,-2.31479335106184,1.9269007463574714,2.4053537845611572,-0.2583616077899933,-0.9260759949684143,-0.7355995774269104,-0.021356455981731415,0.6770796179771423,-0.7611197233200073,0.4119662046432495,0.7131942510604858
0.014790801643703349,-2.3163633388624807,1.947601434636532,1.4973801374435425,-0.05048616603016853,-0.9172250032424927,-0.7346231341362,-0.014790262095630169,0.6783144474029541,-0.7385215163230896,0.39947956800460815,0.9068296551704407
0.014770037061681712,-2.3173591396773094,1.9615664181959818,0.5555047988891602,-0.10733811557292938,-0.9726609587669373,-0.7339475154876709,-0.014769500121474266,0.6790458559989929,-0.7226260900497437,0.45707598328590393,1.0523536205291748
0.021335771342607533,-2.3184786321862045,1.9695697512973465,-0.2494630217552185,-0.07902738451957703,-1.0836329460144043,-0.7330996990203857,-0.021334152668714523,0.6797862648963928,-0.7457210421562195,0.5047783255577087,1.0458452701568604
0.03363362474002035,-2.318814354758157,1.9734505772738011,-0.8176850080490112,0.044745199382305145,-1.2440906763076782,-0.7326239347457886,-0.033627282828092575,0.679802656173706,-0.730724573135376,0.5379455089569092,0.9162209630012512
0.05024506253682141,-2.3174756501585456,1.9752597764346251,-1.143601655960083,0.2400214970111847,-1.4321106672286987,-0.7330219745635986,-0.05022392421960831,0.6783480048179626,-0.6908671259880066,0.5756298303604126,0.7441829442977905
0.07007058638862886,-2.31419751782362,1.9763384820413867,-1.3704547882080078,0.4255669414997101,-1.618788719177246,-0.7343645095825195,-0.07001326233148575,0.6751349568367004,-0.6537123918533325,0.5957548022270203,0.6101891398429871
0.09268269782063149,-2.308978833670501,1.9769392187603914,-1.5835896730422974,0.6235598921775818,-1.7891942262649536,-0.7365180850028992,-0.09255006164312363,0.6700563430786133,-0.6057060360908508,0.6036431789398193,0.5554074048995972
0.11809711422572758,-2.301882883929906,1.976806217670006,-1.8358535766601562,0.775243878364563,-1.9537489414215088,-0.7392640113830566,-0.1178227886557579,0.6630282998085022,-0.5633940696716309,0.6000920534133911,0.549923300743103
0.1463838905295282,-2.2935636843267955,1.9754771195774463,-2.1064555644989014,0.8332076072692871,-2.0754477977752686,-0.7419571876525879,-0.1458616554737091,0.654388427734375,-0.5381789803504944,0.6028318405151367,0.5583801865577698
0.17693319818003614,-2.285218842434738,1.972565477863427,-2.3263750076293945,0.7178658843040466,-2.126024007797241,-0.7436772584915161,-0.17601148784160614,0.6449525356292725,-0.5107477903366089,0.6109021902084351,0.5374659895896912
0.20881411032346195,-2.278154547204318,1.9680578099365604,-2.4814586639404297,0.5098384022712708,-2.1059505939483643,-0.7435701489448547,-0.20729991793632507,0.6357120275497437,-0.48250389099121094,0.6185243129730225,0.4686121344566345
0.2409640139998051,-2.2729344317729345,1.9620532156148316,-2.5462732315063477,0.25686562061309814,-2.0147268772125244,-0.7414054870605469,-0.23863889276981354,0.6271919012069702,-0.4529153108596802,0.6165227890014648,0.36234050989151
0.2724077848285272,-2.26999723489412,1.9549824123215838,-2.530275344848633,-0.02382117137312889,-1.8982973098754883,-0.7371350526809692,-0.2690512239933014,0.6198740005493164,-0.42375385761260986,0.5958638787269592,0.2571096420288086
0.3028317906134418,-2.2692554546682926,1.9472929480144474,-2.4934699535369873,-0.2656930387020111,-1.8041179180145264,-0.730985164642334,-0.2982243299484253,0.6137773394584656,-0.42929309606552124,0.5756139159202576,0.1692425012588501
0.3322094446911403,-2.270621471720131,1.9393667165312234,-2.4158003330230713,-0.5001079440116882,-1.7076199054718018,-0.7231301069259644,-0.32613247632980347,0.6088679432868958,-0.44196999073028564,0.553900420665741,0.09797996282577515
0.36002571132375405,-2.274155948953949,1.9316190667885689,-2.2627875804901123,-0.7304047346115112,-1.5933406352996826,-0.7137768268585205,-0.3522982895374298,0.6053168773651123,-0.430708646774292,0.5290713310241699,0.019042134284973145
0.38602332719300503,-2.280029669434271,1.9246744837914902,-2.080064296722412,-0.9373515248298645,-1.5176663398742676,-0.7030194401741028,-0.37650737166404724,0.6033288240432739,-0.4356982111930847,0.5094572305679321,-0.05634719133377075
0.41045629777463283,-2.2877933273925537,1.918787246071038,-1.9345580339431763,-1.053672194480896,-1.4660365581512451,-0.6911723017692566,-0.3990277647972107,0.6025424003601074,-0.45152783393859863,0.5001020431518555,-0.10181021690368652
0.43415192952784887,-2.296313159284715,1.9135672458355235,-1.8997907638549805,-1.0599939823150635,-1.4548611640930176,-0.6787480711936951,-0.420641154050827,0.6019654870033264,-0.4627772569656372,0.5018483400344849,-0.11923831701278687
0.4577360729814591,-2.3051068936582837,1.9089910929279963,-1.8430927991867065,-1.0916190147399902,-1.5125391483306885,-0.665877640247345,-0.44191837310791016,0.6010947227478027,-0.46975767612457275,0.49274545907974243,-0.12930828332901
0.4815923473495603,-2.3150216178709138,1.9059633257085131,-1.7572194337844849,-1.155134677886963,-1.6396523714065552,-0.6519433259963989,-0.4631910026073456,0.6003535389900208,-0.48778146505355835,0.4634808301925659,-0.18142348527908325
0.5057899128757652,-2.3264473434702566,1.9049431192589334,-1.6637330055236816,-1.2242968082427979,-1.7706760168075562,-0.636695921421051,-0.4844985902309418,0.5998998284339905,-0.502540647983551,0.4728103280067444,-0.22920280694961548
0.5304544572828751,-2.3397154814383248,1.9060231361463744,-1.5994828939437866,-1.3147659301757812,-1.9156334400177002,-0.6199020147323608,-0.5059254169464111,0.599800705909729,-0.49215853214263916,0.48900341987609863,-0.24713969230651855
0.5557883793310124,-2.355025686089607,1.9090855607195552,-1.5701642036437988,-1.4179017543792725,-2.0514960289001465,-0.6013780832290649,-0.5276131629943848,0.5999739766120911,-0.4550946354866028,0.47855621576309204,-0.24525290727615356
0.5818599422529229,-2.37226558358104,1.9138680228461435,-1.5676219463348389,-1.5049442052841187,-2.1622142791748047,-0.5811769366264343,-0.5495787858963013,0.6001640558242798,-0.4097442030906677,0.4622831344604492,-0.2528129816055298
0.6083363137830167,-2.3913139443684117,1.9202101870167823,-1.5324751138687134,-1.582473635673523,-2.2293312549591064,-0.5595199465751648,-0.5715030431747437,0.6002678275108337,-0.3683212399482727,0.4605259299278259,-0.2667565941810608
0.6348987456632462,-2.4123561986843876,1.9283573963374396,-1.4924092292785645,-1.6641772985458374,-2.3225584030151367,-0.5364596843719482,-0.5930960178375244,0.600373387336731,-0.36963778734207153,0.4709799289703369,-0.29737961292266846
0.6619708449405477,-2.435661607824265,1.9385663799508996,-1.5140494108200073,-1.7455964088439941,-2.4561283588409424,-0.5117168426513672,-0.6146726012229919,0.6002696752548218,-0.3669148087501526,0.49511998891830444,-0.3066753149032593
0.6902827655816636,-2.460983193694819,1.950823800934701,-1.6202094554901123,-1.772298812866211,-2.618795394897461,-0.4852063059806824,-0.6367552280426025,0.59926438331604,-0.3362354338169098,0.49332255125045776,-0.2977202534675598
0.7205383047879612,-2.4879754514657098,1.964862027347179,-1.8077735900878906,-1.7950618267059326,-2.7849931716918945,-0.45692867040634155,-0.6597892642021179,0.5965688824653625,-0.3046985864639282,0.4736472964286804,-0.2772024869918823
0.7530257994237088,-2.516358899561064,1.980287788940836,-2.0301311016082764,-1.7896015644073486,-2.9031319618225098,-0.4270387589931488,-0.683849573135376,0.5915975570678711,-0.2578367590904236,0.453289270401001,-0.27845680713653564
0.7874906334611025,-2.5458253462495155,1.9968836310388214,-2.23115873336792,-1.7813591957092285,-2.976396083831787,-0.3959575593471527,-0.7085848450660706,0.5840590596199036,-0.2077106237411499,0.44060999155044556,-0.3177627921104431
0.8232387522850142,-2.576823563100039,2.015000615931467,-2.3434395790100098,-1.793135643005371,-3.017073631286621,-0.36386966705322266,-0.7333515286445618,0.5742772817611694,-0.18746089935302734,0.42820626497268677,-0.39556634426116943
0.8589925031020528,-2.610226375481515,2.035343357765585,-2.3115901947021484,-1.8492672443389893,-3.001506805419922,-0.33098459243774414,-0.7571848630905151,0.5631347298622131,-0.18505248427391052,0.4136177897453308,-0.49978017807006836
0.8931395825565597,-2.6475397400042464,2.058994747494874,-2.1191184520721436,-1.974827766418457,-2.973048448562622,-0.29730746150016785,-0.7790440320968628,0.5519949197769165,-0.20794153213500977,0.41963857412338257,-0.6059653759002686
0.9243266557468386,-2.690727427705643,2.087604100170152,-1.8075865507125854,-2.1300809383392334,-2.982663869857788,-0.26248034834861755,-0.7982153296470642,0.5421773791313171,-0.23976272344589233,0.4363836646080017,-0.6819937229156494
0.9517073197697233,-2.7406686769267754,2.122318629479843,-1.4765491485595703,-2.2367258071899414,-3.003814458847046,-0.22647082805633545,-0.8144074082374573,0.5342770218849182,-0.23713698983192444,0.4687348008155823,-0.7070823907852173
0.9753319807057218,-2.796937480242921,2.16315732262802,-1.2355458736419678,-2.2876875400543213,-3.0421130657196045,-0.18951007723808289,-0.8278881311416626,0.5279078483581543,-0.1844523549079895,0.5016248226165771,-0.6665189266204834
0.9959979295034659,-2.858471696190688,2.209309079535251,-1.133018970489502,-2.302027702331543,-3.060640335083008,-0.15187489986419678,-0.8393019437789917,0.5220209956169128,-0.11292612552642822,0.5068435668945312,-0.5783261060714722
1.0146459855758088,-2.9237824408299136,2.2593302818754255,-1.1608505249023438,-2.289064407348633,-3.034180164337158,-0.1140795573592186,-0.8492937088012695,0.5154478549957275,-0.05005931854248047,0.4813278317451477,-0.5027066469192505
1.0321863179143873,-2.9915437854131595,2.3123243580168853,-1.2790604829788208,-2.189762592315674,-3.0176758766174316,-0.07667805999517441,-0.8584225177764893,0.5071796774864197,-0.015744470059871674,0.44806790351867676,-0.45774132013320923
1.0490764804309507,-3.0616841053558277,2.36912926947509,-1.3997384309768677,-2.016521453857422,-3.0644078254699707,-0.039781827479600906,-0.8669633269309998,0.4967818558216095,-0.023847375065088272,0.4098862409591675,-0.42379897832870483
1.064867578719756,-3.135267913359244,2.4313219566761464,-1.4749845266342163,-1.8609204292297363,-3.1675848960876465,-0.0030650764238089323,-0.8747247457504272,0.48461052775382996,-0.06472977995872498,0.3906090259552002,-0.40837758779525757
1.0787792810385721,3.0695655787429157,2.500052823164372,-1.4983546733856201,-1.7294508218765259,-3.2973556518554688,0.03399651497602463,-0.8813818097114563,0.4711798131465912,-0.10694882273674011,0.4025914669036865,-0.4179877042770386
1.0897851148139284,2.9858007747719006,2.575220307027521,-1.4777253866195679,-1.7381525039672852,-3.4085445404052734,0.07178990542888641,-0.8865275382995605,0.45707234740257263,-0.1322300136089325,0.43512678146362305,-0.4313918650150299
1.0971911528172356,2.8967873369357804,2.655193023966587,-1.426222324371338,-1.8544145822525024,-3.4680540561676025,0.11054320633411407,-0.8899297714233398,0.4424988031387329,-0.10750675946474075,0.46263790130615234,-0.4326111376285553
1.1006204237912054,2.8043659343468548,2.737283984372949,-1.3621351718902588,-1.9834822416305542,-3.4568932056427,0.14989900588989258,-0.8914886116981506,0.42752599716186523,-0.041058123111724854,0.47228389978408813,-0.43213415145874023
1.1002068556886455,2.711592020109558,2.818684979589956,-1.3198736906051636,-2.0315327644348145,-3.39194393157959,0.1890144795179367,-0.891301155090332,0.4121358394622803,0.0518302321434021,0.4597824811935425,-0.4380452036857605
1.0965985702840715,2.6210787475789665,2.8976758463475303,-1.326365351676941,-1.9788250923156738,-3.305655002593994,0.22709152102470398,-0.8896593451499939,0.3961513042449951,0.14531444013118744,0.4331926107406616,-0.4353663921356201
1.090697543320458,2.5344124266767407,2.9735503638321426,-1.399182677268982,-1.8557989597320557,-3.195003032684326,0.26351991295814514,-0.8869493007659912,0.37931275367736816,0.21498039364814758,0.3916490077972412,-0.43488526344299316
1.0833164106222712,2.452166510729203,3.0462420206863876,-1.494200348854065,-1.709546446800232,-3.0652570724487305,0.2979472577571869,-0.8835160732269287,0.3614233732223511,0.2667042016983032,0.3187272548675537,-0.4548224210739136
1.0745976698314654,2.374828673242741,3.1152535854216636,-1.5192797183990479,-1.5835390090942383,-2.9463231563568115,0.330312579870224,-0.8793987035751343,0.3428580164909363,0.2838383913040161,0.2315714955329895,-0.49407267570495605
1.0638628420763605,2.3029337510321435,-3.103563545985665,-1.414366364479065,-1.5022172927856445,-2.88663387298584,0.36108824610710144,-0.8742374181747437,0.3245367705821991,0.2552294433116913,0.17530864477157593,-0.569028377532959
1.050241115009584,2.237638479414901,-3.0456362027194275,-1.1688284873962402,-1.4615697860717773,-2.8532402515411377,0.39081618189811707,-0.8675431609153748,0.3076219856739044,0.23220005631446838,0.1635485291481018,-0.6560260653495789
1.03338990449764,2.1801179492878977,-2.995861210707939,-0.846135675907135,-1.4402456283569336,-2.832718849182129,0.4197843670845032,-0.8590392470359802,0.29297155141830444,0.23786932229995728,0.17192083597183228,-0.7087583541870117
1.0135562906567221,2.130717006234269,-2.9548917777491317,-0.5188639163970947,-1.4393192529678345,-2.8171870708465576,0.44808968901634216,-0.8487179279327393,0.2808801233768463,0.26095572113990784,0.1776362657546997,-0.6986048221588135
0.9914213740667691,2.0885587138280295,-2.9220862583272287,-0.24303343892097473,-1.452885389328003,-2.789306640625,0.47573938965797424,-0.8368050456047058,0.27097851037979126,0.308440238237381,0.19041216373443604,-0.638379693031311
0.967876206314644,2.0524452531561272,-2.896124559767762,-0.04982978105545044,-1.4534075260162354,-2.732283353805542,0.5025381445884705,-0.8236832618713379,0.26268094778060913,0.38137298822402954,0.2100205421447754,-0.5506753921508789
0.9438922258673436,2.020980799255405,-2.8752566971508604,0.04542003944516182,-1.4240384101867676,-2.638296365737915,0.5281916856765747,-0.8098475933074951,0.25526586174964905,0.4692906141281128,0.2193780541419983,-0.4473434388637543
0.9202689324432032,1.9928803742455232,-2.857808666271982,0.055698394775390625,-1.3870651721954346,-2.530299425125122,0.5524563789367676,-0.7957645058631897,0.2480940818786621,0.5551790595054626,0.21551859378814697,-0.3509688377380371
0.8972683944076449,1.967057886926772,-2.842184223277296,0.006853359751403332,-1.2980104684829712,-2.4745500087738037,0.5754134654998779,-0.7816259860992432,0.24074921011924744,0.6018021106719971,0.21431946754455566,-0.2780264616012573
0.8743062269221815,1.9428123912707211,-2.8268113554556678,-0.08895032107830048,-1.1589901447296143,-2.532158136367798,0.5976465344429016,-0.767098605632782,0.2331923097372055,0.5916540026664734,0.21654605865478516,-0.2443464696407318
0.8505397356616269,1.9197176429374512,-2.8106211584965064,-0.20352990925312042,-0.9991048574447632,-2.668975353240967,0.6198326945304871,-0.7516365051269531,0.2254991978406906,0.5801031589508057,0.22488784790039062,-0.24275696277618408
0.8255191393560158,1.8976203937984912,-2.7932988137727124,-0.31673112511634827,-0.8364197015762329,-2.814157485961914,0.6422774195671082,-0.7348999381065369,0.21771931648254395,0.6229813098907471,0.25200504064559937,-0.25490498542785645
0.7992373855234157,1.8771147505528332,-2.775201248750929,-0.4038098156452179,-0.6309800148010254,-2.9356298446655273,0.6647965908050537,-0.7168245911598206,0.2102571576833725,0.710188090801239,0.2942323684692383,-0.2710024118423462
0.7722084608575284,1.8588288524166356,-2.7569415197617393,-0.47842562198638916,-0.43668538331985474,-2.9650051593780518,0.6868604421615601,-0.6977190375328064,0.20349706709384918,0.8566423654556274,0.3240159749984741,-0.25592637062072754
0.7450811512838449,1.8435587102462836,-2.738858429032067,-0.5344263315200806,-0.10382034629583359,-2.962902784347534,0.7078590393066406,-0.6780314445495605,0.19801251590251923,1.0490531921386719,0.34040021896362305,-0.2257072925567627
0.7179332801671646,1.833162424165399,-2.7211933218488324,-0.5663714408874512,0.4063647985458374,-2.946830987930298,0.7273927927017212,-0.6578294634819031,0.1953461915254593,1.2115415334701538,0.3340837359428406,-0.22964799404144287
0.6913355452497644,1.8289589035955667,-2.7037911728415653,-0.6323270201683044,1.0013937950134277,-2.8467729091644287,0.7448650002479553,-0.6375666260719299,0.19668535888195038,1.357292652130127,0.32822513580322266,-0.23725852370262146
0.6664499909897342,1.830510001459856,-2.686159536203188,-0.7466011643409729,1.4982832670211792,-2.6344804763793945,0.7596607804298401,-0.6181995272636414,0.20185326039791107,1.4682443141937256,0.33514899015426636,-0.23305751383304596
0.6447222987082163,1.8363831727878168,-2.668523059123813,-0.812935471534729,1.7837575674057007,-2.2432479858398438,0.7712432742118835,-0.6009765267372131,0.209787979722023,1.5566222667694092,0.33794546127319336,-0.25275683403015137
0.6280086002026958,1.845103367361553,-2.6525476867820172,-0.7526707649230957,1.8125346899032593,-1.6272308826446533,0.7789456844329834,-0.587534487247467,0.21919581294059753,1.671692132949829,0.33223968744277954,-0.3076815605163574
0.617860849729363,1.8552319858861424,-2.6404110946708035,-0.5664249658584595,1.5883002281188965,-0.8422392010688782,0.7823680639266968,-0.5792928338050842,0.22873541712760925,1.7491564750671387,0.33989769220352173,-0.37743234634399414
0.6151470030927686,1.8655376090891487,-2.633846487712807,-0.293962687253952,1.2143996953964233,0.023418636992573738,0.7814708948135376,-0.5770785808563232,0.23724177479743958,1.7648546695709229,0.35928988456726074,-0.4418315887451172
0.6198874429887561,1.8758363808270282,-2.633887847854666,0.025641396641731262,0.8450967669487,0.872138261795044,0.7763681411743164,-0.5809435248374939,0.24445289373397827,1.724501609802246,0.3865770101547241,-0.49410197138786316
0.6313158736301405,1.887122748315561,-2.6408830532541083,0.35282841324806213,0.6066576838493347,1.6280136108398438,0.7671996355056763,-0.5902075171470642,0.2511177361011505,1.6228914260864258,0.41961413621902466,-0.5212135314941406
0.6482710977352684,1.9008265725371212,-2.6544923869532884,0.6261829733848572,0.5267974734306335,2.2475152015686035,0.7541099786758423,-0.6038091778755188,0.2583268880844116,1.4913430213928223,0.44049423933029175,-0.5091509819030762
0.6693489253194014,1.9180100065519479,-2.6735327054365854,0.7926024794578552,0.5868062376976013,2.691274642944336,0.7374265193939209,-0.6204755306243896,0.2668555676937103,1.330474853515625,0.4520948529243469,-0.4554848074913025
0.6931080001746487,1.9388388360663946,-2.696207284421719,0.82234787940979,0.7269237041473389,2.9538888931274414,0.7177488803863525,-0.638931155204773,0.27677321434020996,1.150994896888733,0.46495044231414795,-0.38520219922065735
0.7183733678404555,1.9628924262199872,-2.7205336110059135,0.7297623753547668,0.9301621913909912,3.078261613845825,0.6957415342330933,-0.6581608653068542,0.28769421577453613,0.9880048036575317,0.49347275495529175,-0.31941723823547363
0.7442965358141278,1.9900566154839263,-2.745396960581928,0.6222007870674133,1.1792616844177246,3.117558240890503,0.6718575954437256,-0.6774545311927795,0.2994372546672821,0.8539296984672546,0.5130563378334045,-0.2838428318500519
0.7702189464617207,2.020508334984985,-2.770661942267375,0.5279331803321838,1.4300265312194824,3.105748176574707,0.6463930010795593,-0.6962924003601074,0.3120138645172119,0.7514187097549438,0.4999423623085022,-0.2853873372077942
0.7957893698887638,2.0542657458762643,-2.796484889279458,0.44079747796058655,1.6641411781311035,3.0893585681915283,0.6195240616798401,-0.7144161462783813,0.32526785135269165,0.6679361462593079,0.4938352108001709,-0.3050042986869812
0.8210265088105236,2.091185593889139,-2.8231982727682055,0.359900563955307,1.8390278816223145,3.093323230743408,0.5912611484527588,-0.7318457365036011,0.33883926272392273,0.6049057841300964,0.4977301359176636,-0.3271358013153076
0.8461208591019342,2.1309519362502827,-2.8510737969979583,0.27214914560317993,1.9701204299926758,3.120105266571045,0.5615845322608948,-0.7487145662307739,0.35220691561698914,0.553863525390625,0.4907188415527344,-0.34675952792167664
0.8711807130333187,2.173647898879717,-2.880626551622045,0.20609688758850098,2.076780080795288,3.171152114868164,0.5304142236709595,-0.765089750289917,0.3651006817817688,0.5102656483650208,0.485640287399292,-0.3697699308395386
0.8961701065317111,2.2196095031761804,-2.9127047104692774,0.1652306765317917,2.1371707916259766,3.243116617202759,0.49768680334091187,-0.7809404730796814,0.3774125277996063,0.4796081483364105,0.48833775520324707,-0.39981240034103394
0.9208653238275577,2.269271942464319,-2.948163966488467,0.16635067760944366,2.189371347427368,3.3169240951538086,0.46342363953590393,-0.7961255311965942,0.38913026452064514,0.4505777359008789,0.4972517490386963,-0.4322670102119446
0.944834078771765,2.323561842838066,-2.9879631501058603,0.2006165087223053,2.2613308429718018,3.3899893760681152,0.4275737404823303,-0.8103997111320496,0.4005405902862549,0.4182360768318176,0.5087488293647766,-0.47598010301589966
0.9676266574328628,2.383117718869855,-3.032625644403459,0.23690472543239594,2.3372082710266113,3.447816848754883,0.3901669979095459,-0.8235417604446411,0.4117627739906311,0.3912965655326843,0.5246831178665161,-0.5101972818374634
0.9888468695235585,2.448301159663481,-3.08225291228926,0.2668178975582123,2.455552339553833,3.4863150119781494,0.3512681722640991,-0.8353927135467529,0.42276400327682495,0.3498120605945587,0.52953040599823,-0.5365946888923645
1.0082344131124343,2.519419279813992,-3.136646963708513,0.25860050320625305,2.6083357334136963,3.5252063274383545,0.3108406364917755,-0.8458914756774902,0.43341150879859924,0.29964813590049744,0.5225730538368225,-0.5571298599243164
1.0260283002468633,2.5963596959499915,3.087809590185645,0.16484925150871277,2.7650063037872314,3.5654006004333496,0.2687576115131378,-0.8552474975585938,0.4430810511112213,0.2464095652103424,0.517860472202301,-0.547191858291626
1.0426446926331359,2.6780691898051527,3.02552311049732,-0.0054187350906431675,2.8372597694396973,3.5851502418518066,0.22531181573867798,-0.8637400269508362,0.4507635235786438,0.17056217789649963,0.5271006226539612,-0.5170630216598511
1.0584332414513977,2.76267779002905,2.960654967464491,-0.24801433086395264,2.7976293563842773,3.5604782104492188,0.1813451051712036,-0.8715884685516357,0.45546358823776245,0.08174684643745422,0.5669010877609253,-0.4894450604915619
1.0737955825691394,2.8486081292315966,2.894261765115808,-0.5302878022193909,2.763582706451416,3.487264633178711,0.13770242035388947,-0.8790165185928345,0.45647311210632324,-0.007102519273757935,0.6324346661567688,-0.4762333333492279
1.0888146748978227,2.9363609719315096,2.826512278670336,-0.8028852343559265,2.8079633712768555,3.4003477096557617,0.09446590393781662,-0.8860781192779541,0.45380839705467224,-0.06507749855518341,0.6239777207374573,-0.46177345514297485
1.103361243884714,3.026256089742697,2.7572347871007814,-1.04237961769104,2.8286635875701904,3.295609951019287,0.051855314522981644,-0.8927269577980042,0.44760459661483765,-0.09352710098028183,0.5550040006637573,-0.45218223333358765
1.1167502443442132,3.1186448967234313,2.685740304088404,-1.159226655960083,2.8244409561157227,3.218665361404419,0.010064122267067432,-0.8986798524856567,0.43848973512649536,-0.11156561970710754,0.5203534364700317,-0.4892558157444
1.127377578539172,-3.068967912275338,2.61067104947698,-1.0958791971206665,2.7231554985046387,3.226816415786743,-0.031130800023674965,-0.9032902121543884,0.42789891362190247,-0.11747458577156067,0.5346837043762207,-0.5649839639663696
1.1333333114178026,-2.9716523854900516,2.5321217097488096,-0.8758239150047302,2.503195285797119,3.2557973861694336,-0.07164786010980606,-0.9058293700218201,0.41753965616226196,-0.13072948157787323,0.5522223711013794,-0.6403334140777588
1.1332842218553432,-2.8761695036094164,2.45321491880575,-0.5439480543136597,2.2886710166931152,3.251143217086792,-0.11114057898521423,-0.9058085680007935,0.40885019302368164,-0.18990010023117065,0.5459758043289185,-0.6949068307876587
1.1268129701633027,-2.7866337116084376,2.378621296627493,-0.1623610109090805,2.115440607070923,3.1759557723999023,-0.14928756654262543,-0.9030478000640869,0.4027631878852844,-0.24763934314250946,0.49678242206573486,-0.7177961468696594
1.114535629794967,-2.7067624034685376,2.312763878092155,0.22717468440532684,1.9922823905944824,3.0403425693511963,-0.18560326099395752,-0.8977062702178955,0.39959344267845154,-0.29503336548805237,0.450730562210083,-0.7122765779495239
1.0973470636048377,-2.6382602055903193,2.2578936187736605,0.6202202439308167,1.8878161907196045,2.904054880142212,-0.21993036568164825,-0.8900008797645569,0.39941051602363586,-0.30263736844062805,0.4353806972503662,-0.688167929649353
1.0760023632792783,-2.580574860261555,2.2136042534242435,0.9516527652740479,1.7988276481628418,2.8058595657348633,-0.25264325737953186,-0.8800665736198425,0.40206238627433777,-0.27578383684158325,0.4144294261932373,-0.6218194961547852
1.0516590912895665,-2.5317114251848594,2.1779616408020877,1.173745036125183,1.7310744524002075,2.7576982975006104,-0.2841692864894867,-0.8682475686073303,0.406686931848526,-0.22375008463859558,0.39865821599960327,-0.5113927721977234
1.025363181782586,-2.4891599641102338,2.1483823090523066,1.2798645496368408,1.6740750074386597,2.760911703109741,-0.31496766209602356,-0.8549026846885681,0.4122343063354492,-0.1630139946937561,0.3863356113433838,-0.38048070669174194
0.997847615684434,-2.4504929186028264,2.122228814579343,1.2818782329559326,1.6157469749450684,2.831012010574341,-0.34553414583206177,-0.8403061032295227,0.41772210597991943,-0.10102957487106323,0.38396155834198,-0.2646764814853668
0.9693737530370636,-2.4136875056564007,2.096933773576902,1.191157579421997,1.5127273797988892,2.9969589710235596,-0.37644127011299133,-0.8245315551757812,0.4224209189414978,-0.03495094180107117,0.4194108247756958,-0.18909889459609985
0.9400429201018322,-2.3774404245285314,2.0702680606872406,1.0067698955535889,1.3835265636444092,3.2311019897460938,-0.40806517004966736,-0.8075833916664124,0.4257837235927582,0.009291917085647583,0.46737349033355713,-0.12872576713562012
0.9101175845739073,-2.341087079114728,2.041375130684718,0.7841283679008484,1.2543751001358032,3.414876699447632,-0.44042402505874634,-0.7895758748054504,0.42731377482414246,-0.014471113681793213,0.4970647692680359,-0.08936205506324768
0.8801414984151585,-2.3061168920900044,2.01155310145558,0.5949810743331909,1.0784310102462769,3.474102735519409,-0.47244033217430115,-0.7708290219306946,0.42734360694885254,-0.09939801692962646,0.49374479055404663,-0.08559256792068481
0.850567366681027,-2.2743233123243427,1.9825712611111046,0.48425793647766113,0.8585445284843445,3.411656618118286,-0.5029550194740295,-0.7516547441482544,0.42667460441589355,-0.19035857915878296,0.47934645414352417,-0.1151207983493805
0.8218024232551345,-2.247278739441037,1.9566054853776058,0.5102487802505493,0.7109566330909729,3.2031466960906982,-0.5309537053108215,-0.7323743104934692,0.42628148198127747,-0.27986782789230347,0.401502788066864,-0.18247666954994202
0.7940250335132792,-2.2252184079041095,1.9361428799993052,0.7133074402809143,0.7571813464164734,2.887962579727173,-0.5561575889587402,-0.7131804823875427,0.42668724060058594,-0.3473915457725525,0.31079113483428955,-0.3070279061794281
0.7669151091177099,-2.207688592279746,1.9228977145441495,1.0479222536087036,0.8857124447822571,2.564643383026123,-0.5788862109184265,-0.6939172744750977,0.4282163083553314,-0.3525865077972412,0.28164011240005493,-0.43035274744033813
0.7397720311151096,-2.193251420478804,1.9162754853681927,1.3448694944381714,1.09376060962677,2.40535044670105,-0.6000930666923523,-0.6741195321083069,0.4306398928165436,-0.26518702507019043,0.2889420986175537,-0.4653995931148529
0.7116958430062358,-2.1792325901475187,1.913078697735254,1.472005009651184,1.2656644582748413,2.465005397796631,-0.6213602423667908,-0.653118908405304,0.4328356981277466,-0.1462634801864624,0.3394593596458435,-0.38713571429252625
0.6823514753992088,-2.164378623850962,1.9099064925839893,1.4192049503326416,1.2597308158874512,2.6419785022735596,-0.6433354020118713,-0.6306197047233582,0.43409469723701477,-0.11369884014129639,0.4013260006904602,-0.24099472165107727
0.6521456342618218,-2.149751817819435,1.9049864662697769,1.2635245323181152,1.0214756727218628,2.7875304222106934,-0.6652612090110779,-0.6068931221961975,0.43486568331718445,-0.20697695016860962,0.4433494806289673,-0.09566289186477661
0.6221647640233255,-2.137636961030003,1.8984357048459235,1.0964057445526123,0.6025146842002869,2.7820379734039307,-0.6855267286300659,-0.5827956795692444,0.43635159730911255,-0.38171881437301636,0.40409988164901733,0.02823275327682495
0.5936001599606907,-2.1294310879269642,1.891374280854911,0.9696725010871887,0.2509057819843292,2.6385343074798584,-0.7029175758361816,-0.5593489408493042,0.4393581449985504,-0.5277952551841736,0.2842787504196167,0.09988749027252197
0.5669550943882655,-2.124050741186799,1.8848058741108904,0.9172894954681396,0.13439007103443146,2.452087879180908,-0.7176998853683472,-0.5370660424232483,0.44324564933776855,-0.5815249085426331,0.19116461277008057,0.082923024892807
0.5416539345045817,-2.11956353816864,1.879526700632705,0.9756385087966919,0.2173430174589157,2.3315541744232178,-0.7310432195663452,-0.515553891658783,0.44696736335754395,-0.5609641671180725,0.18027257919311523,-0.006232649087905884
0.5163492570359183,-2.114853857093627,1.8758448511075525,1.1076385974884033,0.35141491889953613,2.3211352825164795,-0.7440667748451233,-0.49370864033699036,0.45012956857681274,-0.5228400230407715,0.22083568572998047,-0.08790117502212524
0.4902551326061558,-2.109714588005866,1.8734152288679067,1.2008239030838013,0.4232105314731598,2.351717472076416,-0.7571718692779541,-0.47085097432136536,0.4527586102485657,-0.556350588798523,0.27064037322998047,-0.09063702821731567
0.4639562886150568,-2.1048390770694674,1.871582727672932,1.183749794960022,0.3651807904243469,2.309908151626587,-0.7697651386260986,-0.4474896788597107,0.45520874857902527,-0.6813153624534607,0.31270867586135864,-0.0053795576095581055
0.4387837717734041,-2.100896396691292,1.8697128429186223,1.0666698217391968,0.25852227210998535,2.1703073978424072,-0.7810266017913818,-0.42483875155448914,0.4577217400074005,-0.8343603014945984,0.3309057652950287,0.10157373547554016
0.41598857006137724,-2.097855828362698,1.8677448863901982,0.918706476688385,0.1971430480480194,1.9233249425888062,-0.7905810475349426,-0.404094398021698,0.4600974917411804,-0.9587477445602417,0.3199726343154907,0.17666703462600708
0.39623612548051973,-2.0950746438904195,1.8661033189908862,0.8046699166297913,0.24322424829006195,1.63544762134552,-0.7986122369766235,-0.3859488368034363,0.4618028700351715,-1.0312063694000244,0.28659889101982117,0.20160335302352905
0.3793273502519143,-2.0915909001046225,1.8653072853530925,0.7654432058334351,0.4000389873981476,1.3635843992233276,-0.8057622909545898,-0.3702957332134247,0.46219924092292786,-1.0569849014282227,0.2849685847759247,0.17764747142791748
0.36471614399190466,-2.0869119925192203,1.8660963123296137,0.8158847689628601,0.5904816389083862,1.0904921293258667,-0.8125353455543518,-0.3566841185092926,0.46104517579078674,-1.085719108581543,0.3162788450717926,0.1356496810913086
0.352398425259426,-2.0812367467361583,1.8690982044349407,0.8750106692314148,0.7406222224235535,0.7721158266067505,-0.8189104795455933,-0.34514984488487244,0.45853832364082336,-1.1639386415481567,0.34843045473098755,0.12553763389587402
0.3428012283042772,-2.075112627036156,1.8741831970533678,0.8854897022247314,0.8075557351112366,0.4395972490310669,-0.824565589427948,-0.3361266553401947,0.45509442687034607,-1.2585339546203613,0.38100266456604004,0.1696767807006836
0.33617617861818844,-2.0693968951085893,1.8807799516727657,0.8277810215950012,0.7580363154411316,0.12664979696273804,-0.8290907740592957,-0.3298797309398651,0.45142894983291626,-1.3165544271469116,0.4060210883617401,0.24223554134368896
0.3327123051295591,-2.064902434756194,1.8881094247298853,0.7104682326316833,0.6181434392929077,-0.17635002732276917,-0.8321123123168945,-0.3266077935695648,0.4482372999191284,-1.3384811878204346,0.41698557138442993,0.3138628602027893
0.33251530314735434,-2.0617708945058504,1.895696850071057,0.5672513842582703,0.5045267939567566,-0.4580255448818207,-0.8335684537887573,-0.3264215886592865,0.4456595778465271,-1.3415565490722656,0.4221857786178589,0.36691662669181824
0.33521854587896927,-2.0596525024519314,1.9030907791804128,0.4052552580833435,0.4035484492778778,-0.6661689281463623,-0.833728551864624,-0.3289755582809448,0.44347673654556274,-1.309063196182251,0.4412497580051422,0.3983047902584076
0.34046039160456193,-2.058470698315028,1.909796392264642,0.2182425558567047,0.2638408839702606,-0.8479698896408081,-0.8327173590660095,-0.3339211046695709,0.4416770935058594,-1.2835853099822998,0.46473464369773865,0.42769235372543335
0.34820094067203394,-2.0588785273965007,1.9155994931716172,0.02152123861014843,0.03548520803451538,-1.0206745862960815,-0.8302290439605713,-0.34120726585388184,0.44079121947288513,-1.2851272821426392,0.4801385998725891,0.44430986046791077
0.3582520840038539,-2.061620451044331,1.9204748485621628,-0.1550435572862625,-0.24605995416641235,-1.1751548051834106,-0.8259509801864624,-0.350637823343277,0.44142720103263855,-1.281074047088623,0.49867862462997437,0.4279727637767792
0.37050451265571094,-2.066779895549525,1.9247170836921481,-0.30535128712654114,-0.47592511773109436,-1.3574756383895874,-0.8198224306106567,-0.36208575963974,0.44360488653182983,-1.2729053497314453,0.5259956121444702,0.37490707635879517
0.38530204966635967,-2.0739193298904968,1.9287437523998394,-0.4576717019081116,-0.6418644189834595,-1.596411108970642,-0.811850905418396,-0.3758390545845032,0.4468139111995697,-1.2578206062316895,0.5423887968063354,0.3211912214756012
0.40316664450087386,-2.0822007869799144,1.9326904659050201,-0.637565016746521,-0.6914495825767517,-1.8708401918411255,-0.8021391034126282,-0.392333060503006,0.45016372203826904,-1.2123565673828125,0.5454245209693909,0.2817697823047638
0.4243487392663857,-2.0905131462145072,1.936651370883817,-0.8133527040481567,-0.6385716795921326,-2.1594841480255127,-0.790977954864502,-0.4117273688316345,0.45258641242980957,-1.137427806854248,0.547149121761322,0.23802626132965088
0.4487172424100071,-2.098210369351539,1.9408553148364514,-0.953208863735199,-0.5455466508865356,-2.420442819595337,-0.7785683870315552,-0.43381011486053467,0.4534760117530823,-1.0504112243652344,0.5526301860809326,0.1833343505859375
0.4755558025610732,-2.105429394314696,1.9454626759973717,-1.0467398166656494,-0.4938518702983856,-2.5978033542633057,-0.7649779915809631,-0.4578326344490051,0.45298752188682556,-0.9644072651863098,0.5599597692489624,0.12676995992660522
0.5039913006591247,-2.112731791451271,1.9502789299858412,-1.12796950340271,-0.520330548286438,-2.696502447128296,-0.750190019607544,-0.4829244017601013,0.4516620934009552,-0.8872763514518738,0.5765829086303711,0.08628633618354797
0.5333072621666333,-2.1208690553745555,1.9549682950660359,-1.2149395942687988,-0.6490816473960876,-2.7084176540374756,-0.7341018915176392,-0.508384108543396,0.4501551687717438,-0.8171370029449463,0.587958812713623,0.0656985342502594
0.5627878836167067,-2.130474001921579,1.9589031120224474,-1.3108824491500854,-0.8635731935501099,-2.627936601638794,-0.7167285084724426,-0.5335461497306824,0.4490308165550232,-0.7437359690666199,0.5985487103462219,0.045750588178634644
0.5917672208349092,-2.141861439461393,1.9614789308207357,-1.4197720289230347,-1.1329140663146973,-2.4779717922210693,-0.6982632875442505,-0.5578286051750183,0.44861480593681335,-0.6760042309761047,0.6039712429046631,0.014611303806304932
0.6198777969354338,-2.1552024981869256,1.9623007565976456,-1.5271525382995605,-1.4369221925735474,-2.2931411266326904,-0.6788661479949951,-0.5809357166290283,0.44905921816825867,-0.6290714740753174,0.5962097644805908,-0.02564328908920288
0.6470802439686786,-2.1705081597385902,1.9614554880346253,-1.6086981296539307,-1.7098547220230103,-2.1399924755096436,-0.6586215496063232,-0.6028594374656677,0.4503086805343628,-0.610879123210907,0.590179443359375,-0.08167174458503723
0.6738103284674681,-2.187625369017946,1.9597062802464484,-1.656584620475769,-1.905875563621521,-2.090261936187744,-0.6374416947364807,-0.6239680647850037,0.452030748128891,-0.632806658744812,0.5748959183692932,-0.14694657921791077
0.7007375388976417,-2.2062695019699974,1.9582048523692612,-1.6704281568527222,-1.9842581748962402,-2.1373701095581055,-0.6151552796363831,-0.6447815895080566,0.45369622111320496,-0.6660793423652649,0.5474000573158264,-0.22023719549179077
0.7283301506182951,-2.2261239705808196,1.9582024896210002,-1.6287238597869873,-1.9639183282852173,-2.2628417015075684,-0.5916923880577087,-0.6656243801116943,0.4548015296459198,-0.6840491890907288,0.5274102687835693,-0.3066234588623047
0.756698521477734,-2.2473032503728203,1.9608677783909378,-1.5545375347137451,-1.898134708404541,-2.4241318702697754,-0.5669718384742737,-0.6865246891975403,0.45522186160087585,-0.6865530014038086,0.509476900100708,-0.38133883476257324
0.7856857379733452,-2.2702207102576453,1.9666443251258527,-1.4788020849227905,-1.8718106746673584,-2.5600051879882812,-0.5409318208694458,-0.7073100805282593,0.4550885558128357,-0.6586380004882812,0.5014688372612,-0.4173382520675659
0.8150167028449374,-2.2954238806330896,1.975382483141798,-1.4296315908432007,-1.9078419208526611,-2.6569764614105225,-0.5135324001312256,-0.7277370691299438,0.45462435483932495,-0.6131766438484192,0.49520838260650635,-0.4247324466705322
0.8446883735613003,-2.3233073587955424,1.986780316280616,-1.4222798347473145,-1.9754739999771118,-2.756126642227173,-0.48467737436294556,-0.7477642297744751,0.45380234718322754,-0.5737485885620117,0.4941173195838928,-0.4267333149909973
0.8749711402960085,-2.354215365840024,2.001071533558164,-1.4346688985824585,-2.024658203125,-2.8787755966186523,-0.45416513085365295,-0.7675250172615051,0.4523709714412689,-0.5373052954673767,0.5015642642974854,-0.43242788314819336
0.90578650395953,-2.3885520154516833,2.0188557058938574,-1.417080283164978,-2.0616416931152344,-3.0010805130004883,-0.4219875633716583,-0.7869107127189636,0.45021989941596985,-0.4872684180736542,0.5002896785736084,-0.4571932554244995
0.9367414370768837,-2.4269049918446894,2.0410499550769394,-1.3691236972808838,-2.0547678470611572,-3.119744062423706,-0.38825899362564087,-0.8056319355964661,0.4474511444568634,-0.42625531554222107,0.4974347949028015,-0.500063419342041
0.9674334243181222,-2.469726075403805,2.068592541695746,-1.2987676858901978,-2.003598690032959,-3.2409348487854004,-0.3531865179538727,-0.8234320878982544,0.4440939426422119,-0.37108731269836426,0.5093144774436951,-0.5369740724563599
0.9974856232946961,-2.5173895872742627,2.1021560541670885,-1.237961769104004,-1.9324125051498413,-3.331834316253662,-0.3170156478881836,-0.8401098251342773,0.44013240933418274,-0.3135690987110138,0.5202855467796326,-0.5528339147567749
1.026601309165992,-2.57013147587372,2.141774948978598,-1.2079969644546509,-1.8888425827026367,-3.3889448642730713,-0.2800200879573822,-0.8555443286895752,0.4354683756828308,-0.2605683505535126,0.5225212574005127,-0.5395944118499756
1.0546829115809064,-2.628581529378977,2.1874576537075656,-1.215236783027649,-1.9134440422058105,-3.4466464519500732,-0.2422132045030594,-0.8697437644004822,0.4299754500389099,-0.22911563515663147,0.5220568776130676,-0.5089091062545776
1.081824078606925,-2.6941888753878978,2.2403490405710276,-1.2364933490753174,-1.9165273904800415,-3.570359945297241,-0.2032128870487213,-0.8828160762786865,0.42348629236221313,-0.22920596599578857,0.5142093896865845,-0.47667843103408813
1.1079743695069635,-2.769006916192339,2.303287175933158,-1.2507606744766235,-1.825498104095459,-3.787167549133301,-0.162527933716774,-0.8947961330413818,0.4158416986465454,-0.2559138536453247,0.5156916379928589,-0.4748780131340027
1.132615929773702,-2.854816745451283,2.3794698969683634,-1.2491942644119263,-1.5947420597076416,-4.062143325805664,-0.12001581490039825,-0.9055252075195312,0.40696439146995544,-0.26833564043045044,0.5426866412162781,-0.4976169466972351
1.1545810836835857,-2.953646859243482,2.471755171066885,-1.2110010385513306,-1.36737060546875,-4.376260280609131,-0.07554025948047638,-0.9146256446838379,0.3971821069717407,-0.2626555860042572,0.5826249122619629,-0.5277822017669678
1.1722155890475892,-3.06713047580513,2.581263667401014,-1.1345105171203613,-1.21822190284729,-4.642332077026367,-0.02887287735939026,-0.9216127395629883,0.3870353400707245,-0.22889387607574463,0.6037874221801758,-0.5452537536621094
1.183630376962299,3.090100199635111,2.704493190477889,-1.0259497165679932,-1.2165766954421997,-4.761543273925781,0.019433215260505676,-0.9259828329086304,0.37706565856933594,-0.13446927070617676,0.6277496218681335,-0.5574550032615662
1.1876527465902884,2.957792500460828,2.8332725130294083,-0.8978634476661682,-1.3769479990005493,-4.696907043457031,0.06832525134086609,-0.9274940490722656,0.3675411343574524,0.006763190031051636,0.6475563049316406,-0.5598934888839722
1.1842978358335534,2.82743700759011,2.957755740525729,-0.7486270070075989,-1.6125156879425049,-4.476396083831787,0.11648184061050415,-0.9262346029281616,0.35849863290786743,0.13844671845436096,0.6609758734703064,-0.5596400499343872
1.1746770262546653,2.7060157368256736,3.0701149152756613,-0.5947415828704834,-1.8793776035308838,-4.167362213134766,0.16279929876327515,-0.9225652813911438,0.34981387853622437,0.25269749760627747,0.6595799922943115,-0.5515961647033691
1.1604064737682847,2.597200626991798,-3.116331444373443,-0.45799657702445984,-2.054600477218628,-3.857044219970703,0.20662397146224976,-0.9169653654098511,0.3412927985191345,0.31881237030029297,0.6467018127441406,-0.5411677360534668
1.142795567724875,2.501109636974711,-3.0338911973545573,-0.3774354159832001,-2.0672059059143066,-3.678152322769165,0.24802851676940918,-0.9097973704338074,0.3327924609184265,0.29355165362358093,0.6428446769714355,-0.5131666660308838
1.1223798734474257,2.4146869635339354,-2.960583306544028,-0.4000829756259918,-1.9168397188186646,-3.7310502529144287,0.2881130278110504,-0.9011347889900208,0.3239552974700928,0.1792941391468048,0.6515009999275208,-0.45789697766304016
1.0989944266491216,2.3335869484070106,-2.8913615575180702,-0.5033827424049377,-1.9238156080245972,-3.913160562515259,0.3285572826862335,-0.8907507658004761,0.3140275478363037,0.048472076654434204,0.6652716398239136,-0.4077012538909912
1.0727845871427704,2.255855481899907,-2.8264426001052225,-0.5361669063568115,-2.132627487182617,-3.974802017211914,0.36990663409233093,-0.8785340785980225,0.3022371232509613,0.06164243817329407,0.6600280404090881,-0.40225860476493835
1.0444685661204078,2.1839050660072714,-2.7697015836463783,-0.45295804738998413,-2.343820571899414,-3.869671583175659,0.4108628034591675,-0.8646577000617981,0.2890651226043701,0.18613722920417786,0.6512178182601929,-0.4540126621723175
1.0149186803848365,2.119668675380393,-2.7230567750515853,-0.3142406642436981,-2.4818718433380127,-3.6896121501922607,0.45017868280410767,-0.8494376540184021,0.27530890703201294,0.29768508672714233,0.66521817445755,-0.5156501531600952
0.9852211069188226,2.0634501473848337,-2.6860294501801745,-0.2119380086660385,-2.4944417476654053,-3.4242608547210693,0.4869547486305237,-0.8333942890167236,0.26139819622039795,0.4092549681663513,0.6507465839385986,-0.5276031494140625
0.9568534493198001,2.014580444705109,-2.6564630513545637,-0.21634989976882935,-2.3691399097442627,-3.1289989948272705,0.5202902555465698,-0.8173829317092896,0.2473520189523697,0.4840279221534729,0.6105501055717468,-0.49866440892219543
0.9302998529034733,1.9716487286502622,-2.631389486598118,-0.29741331934928894,-2.126507043838501,-2.922797679901123,0.5502216219902039,-0.8017991781234741,0.23318302631378174,0.48470568656921387,0.5819352865219116,-0.46809208393096924
0.9046800441805247,1.9336214287179485,-2.608327596741802,-0.39405953884124756,-1.7958136796951294,-2.8834311962127686,0.5777080655097961,-0.7862274646759033,0.2193162739276886,0.4129992127418518,0.5501435399055481,-0.4643723964691162
0.8782891589532273,1.9000883814017666,-2.5858417691280167,-0.4636250436306,-1.3937889337539673,-3.051978826522827,0.6041648387908936,-0.7696476578712463,0.20646369457244873,0.28633803129196167,0.5232487320899963,-0.4765596389770508
0.8489219038049008,1.8715545046394155,-2.563535964023186,-0.4611685872077942,-0.8953319191932678,-3.4362332820892334,0.6311310529708862,-0.7505684494972229,0.19575613737106323,0.14548015594482422,0.5163155794143677,-0.5000927448272705
0.8147029424238875,1.8494422116747378,-2.5418009097974608,-0.3795376420021057,-0.30573758482933044,-3.9403746128082275,0.6596214771270752,-0.7275218367576599,0.18871033191680908,0.048996686935424805,0.5216807126998901,-0.5228168964385986
0.7751597338633086,1.8343867508475686,-2.5215979894611533,-0.22093889117240906,0.1411047726869583,-4.3873186111450195,0.6896376609802246,-0.699830174446106,0.18611234426498413,0.03948831558227539,0.5311288833618164,-0.5250253677368164
0.7317782421361824,1.8249182390917897,-2.504269662682293,0.006345666479319334,0.2983514070510864,-4.578655242919922,0.720093846321106,-0.6681936979293823,0.1870351880788803,0.15621840953826904,0.5358083248138428,-0.4965444803237915
0.6872879960540422,1.8188129951349048,-2.491137955799301,0.27770283818244934,0.1644514799118042,-4.4727301597595215,0.7493173480033875,-0.6344432234764099,0.18974989652633667,0.3649861216545105,0.5323162078857422,-0.45441368222236633
0.6442247575767465,1.8141069944001107,-2.482887518810993,0.5573909878730774,-0.08997999876737595,-4.149899005889893,0.776015043258667,-0.600578784942627,0.19262905418872833,0.580582857131958,0.5227741599082947,-0.4097006320953369
0.604034523716813,1.8097565940443228,-2.479347720896408,0.8002678751945496,-0.35613375902175903,-3.7673990726470947,0.7996636033058167,-0.5679677128791809,0.19481003284454346,0.7224770188331604,0.5253956317901611,-0.3775951564311981
0.5668175843787585,1.8055693254138034,-2.479827935368939,1.0132194757461548,-0.5098674297332764,-3.4344630241394043,0.8204713463783264,-0.5369500517845154,0.19624337553977966,0.7812589406967163,0.5273064374923706,-0.35679638385772705
0.5320427529778416,1.8021537956368234,-2.4834450051260313,1.1819912195205688,-0.5293867588043213,-3.18210506439209,0.8388115167617798,-0.507294774055481,0.19760361313819885,0.8085120916366577,0.516419529914856,-0.3277764320373535
0.4989248662439972,1.800294625808333,-2.489243876184581,1.297472357749939,-0.3863159418106079,-3.0288219451904297,0.8550741672515869,-0.4784817397594452,0.19975748658180237,0.8157783150672913,0.5056271553039551,-0.2729997932910919
0.4668616811040158,1.800916163121442,-2.4960500378339416,1.3145875930786133,-0.11488106101751328,-2.92647385597229,0.869445264339447,-0.4500860273838043,0.2036847472190857,0.8060612678527832,0.5017217397689819,-0.19126415252685547
0.4360153207030426,1.8037537419609813,-2.5026957019788543,1.2516142129898071,0.08281204104423523,-2.770550489425659,0.8819567561149597,-0.42233094573020935,0.20925754308700562,0.8187114596366882,0.5142499208450317,-0.08772137761116028
0.40752793080476984,1.8074390098046988,-2.5090205136658668,1.1961169242858887,0.11461590975522995,-2.468414068222046,0.8925162553787231,-0.396340936422348,0.21524032950401306,0.9071052074432373,0.5363402366638184,0.001251325011253357
0.38262677309417265,1.8107102411086384,-2.5157225462442154,1.1774446964263916,0.01295079942792654,-2.0585601329803467,0.9011168479919434,-0.3733585774898529,0.22043612599372864,1.0307832956314087,0.5509555339813232,0.06327059864997864
0.36195509746976795,1.8127960653621007,-2.5231691697598086,1.1464382410049438,-0.135276660323143,-1.6181354522705078,0.9079551696777344,-0.35410332679748535,0.22411714494228363,1.1158181428909302,0.5608292818069458,0.12378326058387756
0.3455993080749054,1.81343501975252,-2.5310158281289556,1.054213523864746,-0.26756465435028076,-1.2168010473251343,0.9133121371269226,-0.3387606143951416,0.22605866193771362,1.1514463424682617,0.566299557685852,0.182205468416214
0.3329256198637826,1.8128098333206328,-2.538347325145033,0.8813070058822632,-0.32900306582450867,-0.9205578565597534,0.9175479412078857,-0.3268094062805176,0.22649839520454407,1.1395962238311768,0.5774349570274353,0.23929131031036377
0.3231029366203744,1.8115984188393515,-2.5440086921642067,0.6183781623840332,-0.2563056945800781,-0.7405869960784912,0.9208949208259583,-0.3175104558467865,0.22614140808582306,1.093372106552124,0.6029107570648193,0.27109673619270325
0.3151678271687959,1.8109857923206216,-2.5470673636557293,0.3158336281776428,-0.041053976863622665,-0.664840042591095,0.92345130443573,-0.3099760413169861,0.2261693924665451,1.0457717180252075,0.6139463186264038,0.2707177400588989
0.30851793174045045,1.8120277420207045,-2.547097253300449,0.0029015615582466125,0.2511656582355499,-0.6224840879440308,0.9251963496208191,-0.30364689230918884,0.22761888802051544,1.0296070575714111,0.5979430675506592,0.2597925662994385
0.3031001481108573,1.8151849558546962,-2.5441227261699964,-0.29269152879714966,0.5498231649398804,-0.553818941116333,0.9260556697845459,-0.29848048090934753,0.23093344271183014,1.0465242862701416,0.5632967948913574,0.24308083951473236
0.29951903994542656,1.820104745412492,-2.538514706728708,-0.5656551122665405,0.7477874159812927,-0.3812357187271118,0.9259383082389832,-0.2950606942176819,0.23574887216091156,1.0958969593048096,0.5390181541442871,0.21569764614105225
0.29895537442513603,1.825881992938096,-2.530912790263876,-0.8069736957550049,0.8351942300796509,-0.07509446889162064,0.9247217178344727,-0.29452207684516907,0.24113622307777405,1.166007161140442,0.5225951075553894,0.18319538235664368
0.3024489599141748,1.8316847216300747,-2.5219328134918015,-1.0214321613311768,0.8433045744895935,0.31979480385780334,0.9223070740699768,-0.2978588938713074,0.2462311089038849,1.203089714050293,0.5192333459854126,0.13723742961883545
0.31058751349480884,1.8370663663307352,-2.5121313118539517,-1.1941261291503906,0.8200891017913818,0.7682153582572937,0.9185994863510132,-0.3056181073188782,0.25054487586021423,1.1981151103973389,0.5337369441986084,0.06403031945228577
0.32358755984463367,1.8421283904614942,-2.502266943701141,-1.2809419631958008,0.8034986853599548,1.2320644855499268,0.9134142398834229,-0.3179699778556824,0.25410521030426025,1.1697461605072021,0.5508953332901001,-0.03057923913002014
0.3410120164019096,1.8472057662067938,-2.4933129181970544,-1.271621584892273,0.7948158979415894,1.6464855670928955,0.9066438674926758,-0.33444100618362427,0.25718843936920166,1.1103237867355347,0.5530688762664795,-0.1322648823261261
0.3620540025624716,1.8528473618999215,-2.4860485452385817,-1.1846113204956055,0.8342801928520203,2.0045275688171387,0.8982195258140564,-0.35419583320617676,0.2602826952934265,1.0205731391906738,0.541299045085907,-0.2230665683746338
0.38603898217980065,1.8596365863477113,-2.48103111201121,-1.0547949075698853,0.8867931365966797,2.316007614135742,0.8880310654640198,-0.37652185559272766,0.26387861371040344,0.9346769452095032,0.5151784420013428,-0.2828759253025055
0.41238527293904337,1.8677588805166143,-2.4784303180710134,-0.9203310608863831,0.9338461756706238,2.5696322917938232,0.876066267490387,-0.4007957875728607,0.26808613538742065,0.8491684794425964,0.4960259199142456,-0.3137558102607727
0.44066456606781795,1.8772843868174067,-2.4781780692186652,-0.8014377951622009,0.987760603427887,2.79972505569458,0.8623192310333252,-0.42654064297676086,0.2728891670703888,0.7679601907730103,0.493633508682251,-0.3280344307422638
0.47076352354750656,1.8883499329193156,-2.480176558954796,-0.7022408843040466,1.0401419401168823,3.0232222080230713,0.8466628789901733,-0.45356687903404236,0.2782782316207886,0.7019209265708923,0.49127137660980225,-0.32667917013168335
0.5026586007820767,1.9010207763404667,-2.4844213334253737,-0.6162799000740051,1.0864382982254028,3.2425622940063477,0.8289577960968018,-0.4817569851875305,0.2841465473175049,0.6500003337860107,0.490988552570343,-0.31783798336982727
0.5363216360000029,1.9153159583687855,-2.4908304803766157,-0.5609383583068848,1.1289719343185425,3.4570302963256836,0.8090825080871582,-0.510977566242218,0.29032325744628906,0.6011958122253418,0.5043399333953857,-0.30581092834472656
0.5717659386617373,1.931193268472196,-2.4992717942432834,-0.535825252532959,1.1450591087341309,3.666541814804077,0.7869217991828918,-0.5411179661750793,0.2965562641620636,0.5485733151435852,0.5282546877861023,-0.2876604497432709
0.6088358276522686,1.94841563889822,-2.5096077240874988,-0.5359341502189636,1.142824649810791,3.837601900100708,0.762519121170044,-0.5719128847122192,0.30245691537857056,0.4934317469596863,0.5380383133888245,-0.26699554920196533
0.6472736959563612,1.9670720433197595,-2.521465504307133,-0.5949230790138245,1.1971795558929443,3.975857973098755,0.7359105944633484,-0.603013813495636,0.3079124093055725,0.43474364280700684,0.5362718105316162,-0.24887621402740479
0.6870815310190743,1.9876724144312414,-2.534204870790737,-0.7204216122627258,1.3430733680725098,4.1013503074646,0.7068907618522644,-0.6342836022377014,0.3130330443382263,0.3780395984649658,0.5431275963783264,-0.2378072738647461
0.7283919356256963,2.0105750232313824,-2.5473880866156984,-0.8854448199272156,1.5160657167434692,4.217228889465332,0.6752374172210693,-0.6656705141067505,0.3177061080932617,0.3321477174758911,0.555608868598938,-0.2390470802783966
0.7711513772163188,2.035830072244248,-2.56090712933169,-1.066894292831421,1.6771725416183472,4.30731201171875,0.640956461429596,-0.6969613432884216,0.32158955931663513,0.27327394485473633,0.5590523481369019,-0.2545578181743622
0.8151250355812567,2.063168669799533,-2.5748541672309324,-1.2358713150024414,1.7813315391540527,4.371084213256836,0.6043167114257812,-0.727811336517334,0.3241792321205139,0.19863128662109375,0.5538610816001892,-0.2807680368423462
0.8600060906469743,2.0923654609609903,-2.5899693728548123,-1.3326780796051025,1.7886499166488647,4.432102680206299,0.56568443775177,-0.7578465342521667,0.32506901025772095,0.1434677243232727,0.553348183631897,-0.3155018091201782
0.9053414193379775,2.1238061677426594,-2.607907793519974,-1.3296061754226685,1.706571340560913,4.495133876800537,0.5253893733024597,-0.7866359949111938,0.3242987394332886,0.10791134834289551,0.5624081492424011,-0.3672676384449005
0.9504953368897063,2.1585512484108857,-2.6306925004444786,-1.2290356159210205,1.5764657258987427,4.549953937530518,0.4837341010570526,-0.8137035369873047,0.32231637835502625,0.0723114013671875,0.5828686356544495,-0.425130158662796
0.9947542071185608,2.198129511933493,-2.6603867484532144,-1.0634217262268066,1.418634295463562,4.593662738800049,0.44099438190460205,-0.8386251330375671,0.3197377324104309,0.04211413860321045,0.5977191925048828,-0.4708913266658783
1.0374488544314062,2.2444414054422532,-2.6988969774775526,-0.8701396584510803,1.2890357971191406,4.629864692687988,0.3973560929298401,-0.8611099720001221,0.3171713650226593,0.027692705392837524,0.5960190296173096,-0.49511945247650146
1.0781369906277538,2.299826537657735,-2.7480864952326125,-0.6887232065200806,1.2130706310272217,4.671076774597168,0.35275137424468994,-0.8810781836509705,0.315067857503891,0.03148016333580017,0.6034902930259705,-0.4979902505874634
1.1164969580073805,2.3667068858004825,-2.80971022466585,-0.5493285655975342,1.188025951385498,4.730236053466797,0.3070223331451416,-0.8985686898231506,0.31354624032974243,0.05209320783615112,0.6128175258636475,-0.4719478487968445
1.152602041337463,2.4476741966093063,-2.885829969559237,-0.5077768564224243,1.1923344135284424,4.8559699058532715,0.25972986221313477,-0.9138237237930298,0.31219589710235596,0.08315029740333557,0.6060845851898193,-0.4228070080280304
1.1866152136003965,2.5454829339118863,-2.9792413129762942,-0.5380668640136719,1.1459178924560547,5.027100563049316,0.21042317152023315,-0.9271056652069092,0.31015700101852417,0.08988505601882935,0.6078306436538696,-0.38080522418022156
1.217565438421,2.663036596973463,-3.0936538653260985,-0.5401772260665894,0.99741530418396,5.179630756378174,0.1593005359172821,-0.9382599592208862,0.30706945061683655,0.04998898506164551,0.6245392560958862,-0.3908860683441162
1.2431371085945484,2.802256298868618,3.051403785944519,-0.4573254883289337,0.7901932001113892,5.262983798980713,0.10712398588657379,-0.9467982649803162,0.30347567796707153,-0.027000129222869873,0.6305598616600037,-0.43435025215148926
1.2603046376216422,2.960797131224955,2.8918615626307544,-0.26319536566734314,0.6099293231964111,5.235321044921875,0.05493740737438202,-0.9521834850311279,0.3005468249320984,-0.1188717782497406,0.6319777965545654,-0.49729374051094055
1.2667035172397,3.1285501126896222,2.721494327338971,-0.0018434049561619759,0.4597501754760742,5.088738918304443,0.003905183169990778,-0.9541189670562744,0.2994019389152527,-0.20504659414291382,0.612566351890564,-0.5403993129730225
1.261933024422559,-2.993198332129995,2.55669468301994,0.2787403464317322,0.40592002868652344,4.8459858894348145,-0.044943004846572876,-0.9526796936988831,0.3006356656551361,-0.2688997983932495,0.5625428557395935,-0.541159987449646
1.2475520035853946,-2.8508574572606866,2.4113501260898187,0.5500783920288086,0.4266631305217743,4.559471130371094,-0.09105498343706131,-0.9482098817825317,0.3043142855167389,-0.3052157759666443,0.5219707489013672,-0.507591962814331
1.226054386054962,-2.732511589496212,2.2909465525969797,0.7616031765937805,0.4848003089427948,4.305940628051758,-0.13442683219909668,-0.9411627054214478,0.3100685179233551,-0.2896912693977356,0.5075535774230957,-0.4487251937389374
1.2000236144282326,-2.6347832590003626,2.1922836279137936,0.8228822350502014,0.5746857523918152,4.184598445892334,-0.17587412893772125,-0.9320476651191711,0.3167891204357147,-0.22459281980991364,0.5302227735519409,-0.363618403673172
1.171428365310314,-2.5502707570565994,2.107878673272669,0.7280488610267639,0.6756837368011475,4.19126558303833,-0.21676015853881836,-0.9213069081306458,0.322813481092453,-0.14415600895881653,0.5612605810165405,-0.2564530372619629
1.1414334386551046,-2.474449268757278,2.0328954945173514,0.5658879280090332,0.7492753863334656,4.1904096603393555,-0.2575779855251312,-0.9092311859130859,0.3270353674888611,-0.13216200470924377,0.5664120316505432,-0.15691521763801575
1.110939445310098,-2.4067243889305443,1.9662115231182145,0.409982830286026,0.7442556619644165,4.103710174560547,-0.29757627844810486,-0.8961160182952881,0.3292781412601471,-0.20593324303627014,0.5392740964889526,-0.09543731808662415
1.0804126750142267,-2.3476903808896785,1.907904878147808,0.3130056858062744,0.6842578649520874,3.936763048171997,-0.3358418643474579,-0.882152259349823,0.33017781376838684,-0.3013651669025421,0.515041172504425,-0.08112397789955139
1.0505339287001876,-2.2979281107751213,1.8585709589770736,0.28731420636177063,0.6320597529411316,3.652029514312744,-0.3713812232017517,-0.867688775062561,0.3304421603679657,-0.4026666283607483,0.5164772868156433,-0.09715071320533752
1.022217314400944,-2.2576671396529466,1.8189625726740601,0.3306933641433716,0.5996307134628296,3.2422735691070557,-0.40322256088256836,-0.8532664179801941,0.3306783437728882,-0.48641064763069153,0.5095926523208618,-0.11893224716186523
0.9963190183216633,-2.2264163051962447,1.7892305266567974,0.41259121894836426,0.6249363422393799,2.7626116275787354,-0.4307340085506439,-0.839476466178894,0.33128198981285095,-0.5147006511688232,0.487105131149292,-0.13334497809410095
0.9731052992088882,-2.201844568636075,1.7681150698176447,0.49387437105178833,0.7866626381874084,2.3564655780792236,-0.45435798168182373,-0.8266371488571167,0.33200913667678833,-0.45451658964157104,0.47238898277282715,-0.14077076315879822
0.9517931557847134,-2.1794414734927288,1.7521543335093357,0.4792340099811554,1.0733896493911743,2.198603391647339,-0.4760291874408722,-0.8144572377204895,0.3317466676235199,-0.29762202501296997,0.4718973636627197,-0.1281333863735199
0.9309273456379745,-2.1548436817959526,1.7366958866613438,0.34418565034866333,1.3177162408828735,2.279531717300415,-0.4981153607368469,-0.8021739721298218,0.3292385935783386,-0.12374132871627808,0.4721111059188843,-0.0711362361907959
0.9097330231853934,-2.127465385676174,1.7192356434560625,0.16380994021892548,1.3397164344787598,2.410107135772705,-0.5212612748146057,-0.7893398404121399,0.32439079880714417,-0.07203096151351929,0.4749630093574524,0.00017893314361572266
0.8882585190396579,-2.099696978450629,1.699930724136281,0.0015307473950088024,1.1717013120651245,2.486279010772705,-0.5445781350135803,-0.775974452495575,0.3182739019393921,-0.13718456029891968,0.46098726987838745,0.03626394271850586
0.8667595049483284,-2.073491920789257,1.6797765619486842,-0.11212688684463501,0.9673130512237549,2.4949491024017334,-0.5672203898429871,-0.7622353434562683,0.31186217069625854,-0.21361762285232544,0.42776286602020264,0.024944990873336792
0.8457718835029857,-2.0497603117658563,1.6604430779768393,-0.1262139528989792,0.8720158338546753,2.36857533454895,-0.5885308384895325,-0.7484832406044006,0.3056209683418274,-0.29492253065109253,0.4009338617324829,-0.038378626108169556
0.8258151602254695,-2.0285727697070546,1.6439084056997435,-0.041845254600048065,0.9191365242004395,2.181628465652466,-0.6081536412239075,-0.7351006865501404,0.2996266186237335,-0.36831730604171753,0.3630914092063904,-0.13264977931976318
0.8067856152863152,-2.0092069674637525,1.6308361574501677,0.07496444880962372,1.0457074642181396,2.020642042160034,-0.626395583152771,-0.72206711769104,0.29367953538894653,-0.376686692237854,0.31084275245666504,-0.1930478811264038
0.7882199616919574,-1.9908328848024905,1.620534925562276,0.15657225251197815,1.1360864639282227,1.955747365951538,-0.6438164710998535,-0.709099292755127,0.287539005279541,-0.36254650354385376,0.27472734451293945,-0.20476019382476807
0.7695033234088173,-1.9733310112184412,1.6119044587012032,0.21225574612617493,1.128511905670166,1.9568536281585693,-0.6608466506004333,-0.6957786083221436,0.2813780605792999,-0.36687856912612915,0.25603562593460083,-0.17919006943702698
0.7505537546148472,-1.957419095980544,1.604509706282363,0.2572402060031891,1.016875982284546,1.9324405193328857,-0.6773314476013184,-0.6820438504219055,0.2757501006126404,-0.42297977209091187,0.23932534456253052,-0.14725592732429504
0.7319206747944245,-1.9438898876337447,1.5986771799873756,0.3289569914340973,0.8996331691741943,1.8248735666275024,-0.6927157640457153,-0.6682996153831482,0.271147221326828,-0.5028714537620544,0.2293347716331482,-0.135282963514328
0.7142907145004787,-1.9327130822076384,1.5949849628237334,0.4285508692264557,0.8546972870826721,1.6456401348114014,-0.706612765789032,-0.6550816893577576,0.2675184905529022,-0.5563571453094482,0.22263240814208984,-0.1434493362903595
0.6981019950225733,-1.9232933143246085,1.593987112501394,0.5621656775474548,0.8996032476425171,1.430540919303894,-0.7189609408378601,-0.6427648663520813,0.26447752118110657,-0.5674465298652649,0.21049869060516357,-0.15102854371070862
0.6833595432219588,-1.9152392930209423,1.5957052932391442,0.6887816190719604,0.916416347026825,1.2523592710494995,-0.7299087047576904,-0.631401777267456,0.26185014843940735,-0.5386155843734741,0.20346897840499878,-0.13297435641288757
0.669425703040245,-1.9084230016950061,1.5992164426245712,0.7408586740493774,0.8733940720558167,1.2016016244888306,-0.7399062514305115,-0.6205357313156128,0.25975799560546875,-0.4676133394241333,0.2022312879562378,-0.06468963623046875
0.6553481692724215,-1.902174295374042,1.6025695984684807,0.665118932723999,0.7813862562179565,1.2878974676132202,-0.7497013807296753,-0.6094353199005127,0.2579461634159088,-0.37607675790786743,0.19491511583328247,0.030551642179489136
0.6405598271660466,-1.8958354458470241,1.6041508522822339,0.5211582779884338,0.6702030301094055,1.4237762689590454,-0.7597798109054565,-0.5976443886756897,0.25603920221328735,-0.3289806842803955,0.17616605758666992,0.10559406876564026
0.6250034627510362,-1.889500800154497,1.6037331675333124,0.40233418345451355,0.5400407314300537,1.5344860553741455,-0.7701231241226196,-0.5851000547409058,0.2541038393974304,-0.3534732460975647,0.1547715663909912,0.11949235200881958
0.6089258526002574,-1.8838094005400232,1.6021749371523406,0.3624618649482727,0.42291468381881714,1.584517478942871,-0.7804063558578491,-0.571986734867096,0.252580851316452,-0.4127546548843384,0.14309269189834595,0.07554411888122559
0.5926406165350115,-1.8789011190126044,1.600582051465423,0.3912941515445709,0.3814258575439453,1.5775290727615356,-0.7904091477394104,-0.5585532784461975,0.25153908133506775,-0.4801902770996094,0.1436057686805725,0.019579052925109863
0.576604309979915,-1.8749238091216054,1.599909239461023,0.47014743089675903,0.32768726348876953,1.4936182498931885,-0.799846887588501,-0.5451804399490356,0.25104352831840515,-0.569278359413147,0.1416161060333252,-0.0075286030769348145
0.5615055441499444,-1.8725090473373693,1.6006332462432293,0.5411253571510315,0.22133423388004303,1.3408182859420776,-0.8082191944122314,-0.5324611663818359,0.2515290081501007,-0.6802756190299988,0.1348782181739807,0.008084028959274292
0.5477137341232899,-1.8719266446514162,1.602468884267283,0.5667441487312317,0.08700332045555115,1.201155424118042,-0.815301775932312,-0.5207367539405823,0.25321248173713684,-0.7627928853034973,0.13433843851089478,0.051047831773757935
0.5350495140620739,-1.872740025205855,1.6047016111972587,0.5484349131584167,-0.019799642264842987,1.1009355783462524,-0.821325957775116,-0.5098836421966553,0.25581613183021545,-0.7920772433280945,0.13239657878875732,0.09925574064254761
0.5234970074939526,-1.8744167659179671,1.606912960957189,0.5000830888748169,-0.08755125850439072,0.9789524078369141,-0.8264623284339905,-0.4999118745326996,0.25893691182136536,-0.8235316872596741,0.1290316879749298,0.13757792115211487
0.5134733449122514,-1.8763122230250806,1.6089379179081404,0.43310147523880005,-0.08351197838783264,0.8175733685493469,-0.8307074904441833,-0.491205632686615,0.2619971036911011,-0.8826258182525635,0.12790906429290771,0.1610986292362213
0.5053655319564367,-1.8777851779239882,1.6107677067231574,0.3656156361103058,-0.030405353754758835,0.6168602705001831,-0.8340895175933838,-0.48412731289863586,0.2644152045249939,-0.9488389492034912,0.14130812883377075,0.16927003860473633
0.4996529383604593,-1.8788415805370215,1.6129444759191365,0.34952113032341003,0.024729084223508835,0.341200590133667,-0.8364315032958984,-0.4791209399700165,0.26613035798072815,-1.0360965728759766,0.15433764457702637,0.1680583655834198
0.4968658889889503,-1.8801501733110888,1.6162075003159837,0.36466944217681885,0.014633840881288052,0.014435804449021816,-0.8373514413833618,-0.4766727387905121,0.2676302492618561,-1.1313681602478027,0.1660953164100647,0.16777923703193665
0.49719272278003895,-1.8825370627793945,1.620669536973559,0.3552783727645874,-0.07530839741230011,-0.31301161646842957,-0.8365617394447327,-0.47696003317832947,0.26958027482032776,-1.1856093406677246,0.20262226462364197,0.18763399124145508
0.5006926422362468,-1.8864468657690536,1.6258181791693809,0.27777957916259766,-0.22290931642055511,-0.6233607530593872,-0.8339095711708069,-0.480033278465271,0.272329181432724,-1.1990647315979004,0.23946315050125122,0.231577068567276
0.5071813077993779,-1.8920249974854177,1.6308699093372183,0.14728404581546783,-0.3995053470134735,-0.8748708963394165,-0.829404354095459,-0.4857152998447418,0.27598726749420166,-1.1655755043029785,0.2615332007408142,0.2715437412261963
0.5163000919617178,-1.8989064416416017,1.6351815560236078,-0.019038883969187737,-0.5486258864402771,-1.0810447931289673,-0.8232585191726685,-0.4936659038066864,0.2802492380142212,-1.1033315658569336,0.27827274799346924,0.2846311628818512
0.5277036646164465,-1.9066800041141958,1.6385432950736225,-0.1658707708120346,-0.6636125445365906,-1.257503628730774,-0.8156867623329163,-0.5035507082939148,0.28476619720458984,-1.0384087562561035,0.2879592776298523,0.25299930572509766
0.5412697593701814,-1.9150850799352557,1.6413051343629828,-0.28495293855667114,-0.7231051325798035,-1.4555834531784058,-0.8067596554756165,-0.5152246356010437,0.2892795205116272,-0.9938233494758606,0.3007317781448364,0.19718590378761292
0.5572593618536091,-1.9237925427865261,1.6438534480071119,-0.3972141444683075,-0.7409859299659729,-1.6922377347946167,-0.796377420425415,-0.5288621783256531,0.29340746998786926,-0.9738709926605225,0.3202592730522156,0.14114761352539062
0.5759441950672253,-1.9325555888676471,1.6464159082065053,-0.49784940481185913,-0.733355700969696,-1.9484710693359375,-0.7843955755233765,-0.5446268916130066,0.29682525992393494,-0.951795220375061,0.3372141718864441,0.07849514484405518
0.5973019105693416,-1.9415309863670835,1.6494862925852807,-0.5458644032478333,-0.7194594144821167,-2.2114384174346924,-0.7706806659698486,-0.5624135732650757,0.2995701730251312,-0.9205424785614014,0.35391753911972046,0.001531451940536499
0.6212473834798315,-1.951104693901767,1.653768508938624,-0.5478945374488831,-0.6996281743049622,-2.487741470336914,-0.7550536394119263,-0.5820499062538147,0.30184802412986755,-0.8839388489723206,0.3817020058631897,-0.07604846358299255
0.6476661480326719,-1.9616345790009138,1.659898201367962,-0.5169098377227783,-0.6721529364585876,-2.761244058609009,-0.7373552918434143,-0.6033267974853516,0.3038162887096405,-0.837000846862793,0.4046267867088318,-0.1382889449596405
0.6762909220979706,-1.9735190814289856,1.6683728938241298,-0.46097230911254883,-0.6621066927909851,-3.010683536529541,-0.7175056338310242,-0.6259046196937561,0.30566197633743286,-0.7710961103439331,0.4197736382484436,-0.18183696269989014
0.7066477943148294,-1.987316790209717,1.679357231624993,-0.4088197350502014,-0.6965010762214661,-3.2012956142425537,-0.6955179572105408,-0.6492879390716553,0.3077009916305542,-0.6811299920082092,0.45008450746536255,-0.2020796835422516
0.7379520608178766,-2.003144804097363,1.692358156931962,-0.3932466208934784,-0.7494103312492371,-3.271967649459839,-0.6717705130577087,-0.6727741360664368,0.30999958515167236,-0.5711342692375183,0.49020272493362427,-0.20622453093528748
0.769313482322863,-2.020730567461415,1.7064347019839645,-0.4271594285964966,-0.8392260670661926,-3.248042345046997,-0.6468914151191711,-0.6956422328948975,0.3124317228794098,-0.46172070503234863,0.5119721293449402,-0.19895216822624207
0.8002883045627283,-2.039991710115721,1.7209819964713444,-0.4696134030818939,-0.9538668394088745,-3.1941356658935547,-0.6212306618690491,-0.7175569534301758,0.31493544578552246,-0.39686620235443115,0.49848657846450806,-0.19236162304878235
0.830639793232513,-2.061270751803438,1.736074306846028,-0.4852409362792969,-1.0973843336105347,-3.1278042793273926,-0.5948975086212158,-0.7383630275726318,0.317673921585083,-0.3626524806022644,0.4785211682319641,-0.21333447098731995
0.8601759559811554,-2.085296769368986,1.7525299683059548,-0.43682733178138733,-1.2346580028533936,-3.0884666442871094,-0.567855954170227,-0.7579573392868042,0.320998877286911,-0.3639371991157532,0.456932008266449,-0.2611081898212433
0.8889551970019857,-2.112969592928361,1.771500357363473,-0.35976994037628174,-1.3819618225097656,-3.093975067138672,-0.5398429036140442,-0.7764137387275696,0.32519471645355225,-0.3992440104484558,0.4390723705291748,-0.30558717250823975
0.9171438028408047,-2.145141897925199,1.7938348603892618,-0.2767687737941742,-1.530401349067688,-3.1368863582611084,-0.5105210542678833,-0.7938680648803711,0.33036667108535767,-0.429130494594574,0.42799270153045654,-0.33315905928611755
0.9449248713298704,-2.1825480113175906,1.8205381239345497,-0.18234539031982422,-1.6501933336257935,-3.239795207977295,-0.4795645773410797,-0.810452938079834,0.3364286720752716,-0.46381014585494995,0.42777764797210693,-0.35710427165031433
0.9725755449185898,-2.226211055136578,1.8530724596663213,-0.07844961434602737,-1.738480567932129,-3.415964126586914,-0.44648119807243347,-0.8263389468193054,0.34324750304222107,-0.4945741891860962,0.42414766550064087,-0.36493024230003357
1.0001803789900774,-2.2770415440984086,1.8929135588780452,0.01930205710232258,-1.7549911737442017,-3.6161949634552,-0.41094881296157837,-0.8415684103965759,0.3505479097366333,-0.4867715835571289,0.42297399044036865,-0.36302968859672546
1.0273851118787478,-2.334998181475209,1.9409477359895428,0.09689618647098541,-1.6621028184890747,-3.7973721027374268,-0.37328287959098816,-0.855949878692627,0.357784628868103,-0.4267354905605316,0.4487231969833374,-0.3628811538219452
1.0536520925561033,-2.399809651224422,1.9974725415161398,0.13962702453136444,-1.5333985090255737,-3.9315552711486816,-0.3340185284614563,-0.8692346215248108,0.36450403928756714,-0.32844188809394836,0.48474353551864624,-0.355150431394577
1.078396921945615,-2.470932195077992,2.0619399391069133,0.1356421411037445,-1.395369052886963,-3.9875049591064453,-0.29381063580513,-0.8812010884284973,0.37035122513771057,-0.225568026304245,0.49924302101135254,-0.32480382919311523
1.1011388188552438,-2.547291906681066,2.1328752398333592,0.0690133273601532,-1.2996093034744263,-3.961378574371338,-0.2534134089946747,-0.8917233347892761,0.37498149275779724,-0.14035490155220032,0.4947965145111084,-0.28843367099761963
1.1217562973364827,-2.6285814346799734,2.2091134389220883,-0.017554055899381638,-1.290587306022644,-3.9375550746917725,-0.21305803954601288,-0.9008642435073853,0.3782193064689636,-0.10299733281135559,0.48068296909332275,-0.2625577449798584
1.1401634579532034,-2.716741064609983,2.2918079936243627,-0.07643724232912064,-1.3785390853881836,-3.9896578788757324,-0.17206504940986633,-0.9087017178535461,0.38033464550971985,-0.12714456021785736,0.46175676584243774,-0.2740572392940521
1.1557815016988924,-2.814316742727717,2.382781224791548,-0.07652992010116577,-1.5337222814559937,-4.073401927947998,-0.12961570918560028,-0.9151103496551514,0.38180211186408997,-0.1365891396999359,0.45467638969421387,-0.32198774814605713
1.1673898892905104,-2.9212871401627654,2.481945820301997,-0.011715290136635303,-1.6371219158172607,-4.113051414489746,-0.08578378707170486,-0.9197291135787964,0.38306552171707153,-0.08195611089468002,0.46037864685058594,-0.4016508460044861
1.1736306856897558,-3.0338147424660242,2.586268035700546,0.11379336565732956,-1.6226985454559326,-4.073134899139404,-0.041608523577451706,-0.9221610426902771,0.38456201553344727,0.023816760629415512,0.47262173891067505,-0.4784035086631775
1.1738406272256887,3.1374553231454065,2.6907150872978933,0.26391124725341797,-1.46773099899292,-3.9641740322113037,0.0015995405847206712,-0.9222422242164612,0.3866095542907715,0.14564776420593262,0.49311918020248413,-0.5221533179283142
1.1680976254662754,3.031450717387411,2.790973839656622,0.4324653744697571,-1.2536797523498535,-3.8736190795898438,0.04307768866419792,-0.9200066924095154,0.3895278573036194,0.2462136447429657,0.5028466582298279,-0.5139175653457642
1.1569332051009393,2.9336980197594436,2.8846543876466244,0.5833366513252258,-1.0962238311767578,-3.791071653366089,0.08300372958183289,-0.9155741333961487,0.3934899866580963,0.3120005130767822,0.4725046157836914,-0.452984094619751
1.141520636525793,2.8462549624989344,2.968951164719463,0.6702694296836853,-1.011250615119934,-3.6226205825805664,0.12114401161670685,-0.9092674255371094,0.39819204807281494,0.38532570004463196,0.4482994079589844,-0.3648669719696045
1.123507398014632,2.769803093053492,3.0420942321654647,0.6886070966720581,-1.0365996360778809,-3.392242908477783,0.15712827444076538,-0.901623010635376,0.40297216176986694,0.4480505585670471,0.45315200090408325,-0.2747831642627716
1.104460298078594,2.703123814724114,3.1042869719096324,0.6366493701934814,-1.1356014013290405,-3.127436876296997,0.19088639318943024,-0.8932216763496399,0.407084196805954,0.4823465943336487,0.4600551128387451,-0.18934130668640137
1.085738557523393,2.64411437324201,-3.126092591662319,0.5121437907218933,-1.2740682363510132,-2.8611316680908203,0.22250410914421082,-0.8846480250358582,0.4097435176372528,0.5085596442222595,0.43396443128585815,-0.11248710751533508
1.0681701757630258,2.5905147941971105,-3.0803533607198883,0.3564434051513672,-1.3734643459320068,-2.6426804065704346,0.2522357702255249,-0.876320481300354,0.41041362285614014,0.505378246307373,0.3868643641471863,-0.060941725969314575
1.051961318827752,2.5409712981134582,-3.0395244208699737,0.1857556253671646,-1.3959317207336426,-2.456545114517212,0.28024283051490784,-0.8683974742889404,0.40908411145210266,0.4835968315601349,0.33964991569519043,-0.048366427421569824
1.037206230696066,2.494871651449014,-3.002264990151418,0.029780134558677673,-1.367110252380371,-2.292938470840454,0.3064853250980377,-0.860986590385437,0.40591755509376526,0.4659756124019623,0.30286574363708496,-0.057498395442962646
1.0236306959602148,2.452036544453159,-2.9678483932954327,-0.0867946445941925,-1.288245439529419,-2.1597445011138916,0.33099204301834106,-0.8540025949478149,0.40140190720558167,0.4277969300746918,0.2775866985321045,-0.0903211236000061
1.0107918600898418,2.4121450355767804,-2.935796660831794,-0.14992673695087433,-1.2290891408920288,-2.0677123069763184,0.3540155589580536,-0.8472527265548706,0.39602455496788025,0.38051193952560425,0.24381357431411743,-0.12278550863265991
0.9979946317036457,2.374818489470463,-2.905872840426277,-0.14999723434448242,-1.1785614490509033,-2.021653652191162,0.376039981842041,-0.8403857946395874,0.3903142213821411,0.32560479640960693,0.20893150568008423,-0.15520697832107544
0.9846204639137719,2.34002301154902,-2.8782365305508764,-0.08665446937084198,-1.1490764617919922,-2.003218412399292,0.3974311947822571,-0.8330621719360352,0.3847805857658386,0.2774040400981903,0.1810387372970581,-0.18884247541427612
0.9703502902621974,2.3079992646627443,-2.8532643378120746,0.006579418666660786,-1.105168342590332,-1.9775340557098389,0.41830649971961975,-0.8250836730003357,0.37981122732162476,0.24659520387649536,0.1659497618675232,-0.21698474884033203
0.9550581077458108,2.27898704816918,-2.831256313651745,0.13475097715854645,-1.085958480834961,-1.9696319103240967,0.43868109583854675,-0.8163473010063171,0.3756810426712036,0.21723327040672302,0.1623554825782776,-0.2436010241508484
0.9385218522923132,2.25264935752202,-2.8124178453908755,0.29318633675575256,-1.1219615936279297,-1.9743030071258545,0.4588415324687958,-0.8066854476928711,0.37245577573776245,0.1830194592475891,0.17059212923049927,-0.25838109850883484
0.9207251897700468,2.228762178018154,-2.796753809569073,0.4430410861968994,-1.1331697702407837,-1.9710854291915894,0.4788908362388611,-0.7960407733917236,0.3701110780239105,0.17534485459327698,0.18144738674163818,-0.2544039189815521
0.9019739197732175,2.2072199388819667,-2.7838316413192503,0.5483302474021912,-1.1244356632232666,-1.971981167793274,0.4986707270145416,-0.7845523953437805,0.3685174882411957,0.17942985892295837,0.19646328687667847,-0.22680923342704773
0.8824992788111286,2.1875787900290775,-2.772863626893544,0.6164592504501343,-1.086238980293274,-1.985390543937683,0.5181792974472046,-0.7723289132118225,0.36742162704467773,0.1893554925918579,0.21893823146820068,-0.18562838435173035
0.8625532345831948,2.1694662812924825,-2.7632614917406633,0.6481679081916809,-1.061219573020935,-1.9951610565185547,0.5373691916465759,-0.7595059275627136,0.36658573150634766,0.2180476188659668,0.24253815412521362,-0.14316657185554504
0.8422830128392841,2.152407637513008,-2.7545170254145956,0.6543285846710205,-1.0229965448379517,-2.0192153453826904,0.5562957525253296,-0.7461649775505066,0.36574992537498474,0.24558418989181519,0.2698465585708618,-0.10476359724998474
0.821748276485747,2.1363087989471854,-2.74622917710487,0.6349023580551147,-0.9652083516120911,-2.0401957035064697,0.5749289989471436,-0.7323374152183533,0.36488184332847595,0.2719185948371887,0.2991860508918762,-0.086760014295578
0.8011159945886526,2.1210514023086517,-2.7381022376176065,0.6044057011604309,-0.9059620499610901,-2.0594310760498047,0.5931840538978577,-0.7181331515312195,0.36389243602752686,0.2980208396911621,0.32166385650634766,-0.07145777344703674
0.7802681656479556,2.106389868853627,-2.729944453434949,0.5703492164611816,-0.8623620867729187,-2.107698917388916,0.611199140548706,-0.7034700512886047,0.3627195656299591,0.31430739164352417,0.33034688234329224,-0.062350302934646606
0.7588884246709248,2.0923143438460565,-2.721587332558138,0.5495172142982483,-0.7734553813934326,-2.1876609325408936,0.6291425824165344,-0.6881152987480164,0.3614922761917114,0.3263168931007385,0.3308308720588684,-0.0666162371635437
0.7368219074519734,2.079543535197456,-2.7130343191268396,0.5362556576728821,-0.6069706082344055,-2.2604477405548096,0.6468139290809631,-0.6719375848770142,0.3607378900051117,0.37680667638778687,0.3390974998474121,-0.08136484026908875
0.7142934691222631,2.0690022726579755,-2.7045835331786257,0.5348742604255676,-0.3714621961116791,-2.2823774814605713,0.6637117862701416,-0.6550837755203247,0.3610427975654602,0.4617459177970886,0.36040598154067993,-0.09055030345916748
0.6917013422423126,2.061334471848159,-2.696773347725747,0.5596362948417664,-0.1633053570985794,-2.242074489593506,0.6793441772460938,-0.637848436832428,0.36282384395599365,0.572334349155426,0.3890079855918884,-0.09318587183952332
0.6696924391147002,2.056321560886617,-2.6901450480326266,0.5945301055908203,-0.00827396847307682,-2.1118180751800537,0.6934044361114502,-0.6207448840141296,0.36587759852409363,0.6971291303634644,0.4103718400001526,-0.07821884751319885
0.6490548263892495,2.053754285711628,-2.684986064363594,0.6010873317718506,0.12816625833511353,-1.911246657371521,0.7055380940437317,-0.6044337153434753,0.3699674606323242,0.810559868812561,0.42805731296539307,-0.04358196258544922
0.6304533630875572,2.0532220672057098,-2.681105784954205,0.5683501362800598,0.22370396554470062,-1.660455346107483,0.7155723571777344,-0.5895110368728638,0.374743789434433,0.8880957961082458,0.43609917163848877,0.004543900489807129
0.6144691458025021,2.054057152744324,-2.6782517070963956,0.500373125076294,0.2693866491317749,-1.376356601715088,0.7235113382339478,-0.5765248537063599,0.3796716332435608,0.9482873678207397,0.4316273331642151,0.056760191917419434
0.6014115008303995,2.055667894941285,-2.676266164778678,0.42158403992652893,0.2751225531101227,-1.0781399011611938,0.7294972538948059,-0.5658068656921387,0.3843126893043518,0.991129457950592,0.42328977584838867,0.09675106406211853
0.5915787645954786,2.0578273532099547,-2.6751069108613974,0.3252282738685608,0.28722429275512695,-0.7369869351387024,0.7335468530654907,-0.5576722025871277,0.3884721100330353,1.0313761234283447,0.4163758158683777,0.12138494849205017
0.5855765023084799,2.060739774198809,-2.674959703075715,0.21079625189304352,0.3097439706325531,-0.3241780996322632,0.735352635383606,-0.5526799559593201,0.39217495918273926,1.0911242961883545,0.41876882314682007,0.14247769117355347
0.5840397122041289,2.0644300422575985,-2.6759233525973185,0.07185115665197372,0.31484267115592957,0.13506022095680237,0.7346476316452026,-0.551398515701294,0.39528799057006836,1.1415882110595703,0.42880934476852417,0.16577768325805664
0.5873225281308087,2.068531803061392,-2.6780035767533152,-0.08133919537067413,0.2699228525161743,0.6052224040031433,0.7314257025718689,-0.55413419008255,0.3974316716194153,1.1574902534484863,0.4261891841888428,0.19422781467437744
0.5954543263539798,2.072631478514947,-2.6810641880740924,-0.2522052228450775,0.20466940104961395,1.054269552230835,0.7258156538009644,-0.560884952545166,0.3982461392879486,1.1391899585723877,0.41090619564056396,0.22126072645187378
0.6081515129636617,2.0765080670121425,-2.684743430108732,-0.43936553597450256,0.16123723983764648,1.4443351030349731,0.7179778218269348,-0.5713513493537903,0.39757460355758667,1.0861756801605225,0.3988812565803528,0.23218607902526855
0.6249890104055075,2.0806188935206453,-2.6887003637814617,-0.6266159415245056,0.21493209898471832,1.7967113256454468,0.7078394889831543,-0.5850883722305298,0.3957712948322296,1.0269627571105957,0.40146404504776,0.21477854251861572
0.6455433345477216,2.0858836839404034,-2.6929714362271255,-0.7808132171630859,0.3318789303302765,2.104933023452759,0.6951318979263306,-0.6016325354576111,0.3934842348098755,0.9772465229034424,0.4123472571372986,0.16462120413780212
0.6692228644031274,2.0929885856946115,-2.6978634949083116,-0.8839835524559021,0.4930455684661865,2.3775479793548584,0.6797782182693481,-0.6203766465187073,0.3911963403224945,0.9378823637962341,0.414886474609375,0.10855954885482788
0.6956244959631549,2.1025884360843716,-2.703820363821928,-0.9672355651855469,0.6682602763175964,2.6356306076049805,0.6616403460502625,-0.6408649682998657,0.38926079869270325,0.908366858959198,0.4139362573623657,0.057485997676849365
0.7245882512470502,2.1148253709097538,-2.7111698659636416,-1.0367637872695923,0.8085910081863403,2.8917574882507324,0.6406723856925964,-0.66282719373703,0.3875553011894226,0.8675215840339661,0.42187559604644775,0.022295713424682617
0.7560135642707991,2.129597094751437,-2.7202738549373158,-1.1025720834732056,0.907247006893158,3.1495871543884277,0.6169059872627258,-0.6860264539718628,0.3857390880584717,0.8139868378639221,0.4417637586593628,-0.008358746767044067
0.7898708073422931,2.1468988336587675,-2.7315931654836842,-1.1625182628631592,0.9613056182861328,3.4112026691436768,0.590316116809845,-0.7102623581886292,0.38347652554512024,0.7549291849136353,0.4698905944824219,-0.03885674476623535
0.8261533427896807,2.1668035247986577,-2.7456762188630552,-1.2207343578338623,0.9759402275085449,3.693265676498413,0.5608611702919006,-0.7353299260139465,0.38042715191841125,0.6961578726768494,0.49938321113586426,-0.06223559379577637
0.8649474469123093,2.1898621566184246,-2.7633588096876354,-1.27422034740448,0.985722005367279,3.996518850326538,0.5282986760139465,-0.7610611915588379,0.37641263008117676,0.6456209421157837,0.5405869483947754,-0.08849453926086426
0.9063069536924995,2.2170751194948393,-2.785569809157757,-1.3431360721588135,1.008643388748169,4.304134368896484,0.49229609966278076,-0.7872317433357239,0.37136316299438477,0.599149763584137,0.5934451818466187,-0.10502102971076965
0.9499387025363049,2.2493114025445307,-2.813005935490464,-1.4225221872329712,1.0436091423034668,4.568721294403076,0.4528823792934418,-0.8133798241615295,0.36511754989624023,0.5444015264511108,0.6306405663490295,-0.11028051376342773
0.9954974694647686,2.2882631577298995,-2.8467391050416255,-1.5102035999298096,1.1770353317260742,4.824627876281738,0.4099541902542114,-0.8390297293663025,0.3577243983745575,0.5027959942817688,0.6486152410507202,-0.12789654731750488
1.042602437826514,2.3366678650081534,-2.88874193628097,-1.5920801162719727,1.3336247205734253,5.059103965759277,0.3632538914680481,-0.8637186884880066,0.3493376076221466,0.47254621982574463,0.6811167597770691,-0.16333293914794922
1.09058909134221,2.3969440186215496,-2.941323835227938,-1.6919260025024414,1.4848164319992065,5.255395412445068,0.3130783140659332,-0.8868992328643799,0.33969318866729736,0.4201979637145996,0.7553990483283997,-0.1835806667804718
1.1386249816825225,2.471436145309247,-3.008378595380838,-1.7518633604049683,1.3188397884368896,5.4289679527282715,0.2601471543312073,-0.9080584645271301,0.3282577097415924,0.35700973868370056,0.7903064489364624,-0.19063881039619446
1.1850997552116695,2.5631525229162353,-3.0951699095996994,-1.7246214151382446,1.0970032215118408,5.55931282043457,0.2056778520345688,-0.9265366196632385,0.31500205397605896,0.29941850900650024,0.7714616656303406,-0.24618497490882874
1.2277010700616147,2.6797032541481047,3.0740691376841216,-1.5997127294540405,0.9044919013977051,5.677976131439209,0.1499146819114685,-0.9417179226875305,0.30115193128585815,0.2367429882287979,0.8074102997779846,-0.3254440724849701
1.2635350685248008,2.8295276452886675,2.9246435650028095,-1.4076993465423584,0.7305435538291931,5.820952415466309,0.09285918623209,-0.9531654715538025,0.28784093260765076,0.20297817885875702,0.8310648202896118,-0.4067222476005554
1.2892518640607489,3.017847152278056,2.73497147051753,-1.2121574878692627,0.6283609867095947,5.986155986785889,0.03429366275668144,-0.9606274962425232,0.27571457624435425,0.20287367701530457,0.8435011506080627,-0.4407384991645813
1.3014880133540774,-3.043618708517977,2.5110152921130613,-1.063570499420166,0.5983160138130188,6.16453218460083,-0.026025669649243355,-0.9639551639556885,0.2647881805896759,0.210290789604187,0.8792080283164978,-0.42367810010910034
1.298104293673064,-2.80971253408964,2.2744652025590457,-0.9720687866210938,0.5762578248977661,6.273505687713623,-0.08775178343057632,-0.9630493521690369,0.25462836027145386,0.18859708309173584,0.9088348746299744,-0.3740284740924835
1.2797907615857753,-2.5930982046797206,2.054843704165049,-0.9267638921737671,0.5374308228492737,6.271183490753174,-0.14959876239299774,-0.9579558372497559,0.2448282092809677,0.10586705803871155,0.9045653343200684,-0.3258218765258789
1.2498637624277624,-2.4114776160261857,1.8699576035916536,-0.9235910773277283,0.5197480916976929,6.165658950805664,-0.21039211750030518,-0.9489416480064392,0.2350422441959381,0.014820188283920288,0.8858770728111267,-0.2938802242279053
1.212498541034856,-2.2656385973453315,1.7217593127807274,-1.025164008140564,0.7794017195701599,6.010521411895752,-0.2693770229816437,-0.9364951252937317,0.22452831268310547,-0.0735338032245636,0.8409903645515442,-0.27392101287841797
1.1718278185786564,-2.1458240115320946,1.6015600852696366,-1.292909860610962,0.8100078701972961,5.744234561920166,-0.3259933888912201,-0.9214621782302856,0.21127136051654816,-0.10515895485877991,0.7656548023223877,-0.14706245064735413
1.1298360684752682,-2.0479186375099685,1.5033095188465437,-1.389066457748413,0.8243556618690491,5.508005619049072,-0.37914228439331055,-0.9043422341346741,0.196000874042511,-0.13156947493553162,0.7596735954284668,-0.17396721243858337
1.0863753982644453,-1.968450732146293,1.4240248271355533,-1.3225401639938354,0.8660433292388916,5.324769496917725,-0.4293583929538727,-0.8849447965621948,0.1803438663482666,-0.15117746591567993,0.7757530212402344,-0.2996828556060791
1.0420209345457292,-1.9044322798147306,1.3608987230777052,-1.2209988832473755,0.894783079624176,5.103227615356445,-0.4766586124897003,-0.8634254932403564,0.16520629823207855,-0.19373637437820435,0.7789527177810669,-0.3629908561706543
0.9980909295446168,-1.8515718519113926,1.310322850635835,-1.165238380432129,1.0681074857711792,4.831252098083496,-0.5206873416900635,-0.8404379487037659,0.1501631885766983,-0.2657507061958313,0.7481069564819336,-0.37213289737701416
0.9558311663566595,-1.8052158983454347,1.2689213308235794,-1.1509937047958374,1.3370758295059204,4.476465225219727,-0.5611509084701538,-0.8167935609817505,0.1340084969997406,-0.34026211500167847,0.6823024749755859,-0.350256085395813
0.916627414362201,-1.7630505583930636,1.2348812194205518,-1.1169095039367676,1.6014971733093262,3.9990224838256836,-0.5972888469696045,-0.7935539484024048,0.11626733839511871,-0.41607779264450073,0.5708824992179871,-0.3173171281814575
0.8815713893456364,-1.724049315018865,1.2072881037287642,-1.0487821102142334,1.8640393018722534,3.479992389678955,-0.6284856796264648,-0.77173912525177,0.09707851707935333,-0.4742822051048279,0.46557164192199707,-0.2951529026031494
0.8501971558123025,-1.6873808289142207,1.1849430158333312,-0.9617241621017456,2.0295052528381348,3.145501136779785,-0.6553561091423035,-0.7514104843139648,0.07675241678953171,-0.4371427893638611,0.4209812879562378,-0.3052680492401123
0.8199761804213825,-1.6538805684174211,1.1669864730838795,-0.8217100501060486,1.9647163152694702,3.1200597286224365,-0.6798853874206543,-0.7311295866966248,0.0566180981695652,-0.31196653842926025,0.43404096364974976,-0.3299335241317749
0.7887738641277404,-1.6251376631769021,1.153067381598628,-0.6727146506309509,1.753287672996521,3.2174763679504395,-0.7036755681037903,-0.7094897031784058,0.03827635571360588,-0.2714220881462097,0.43887507915496826,-0.33728766441345215
0.756641131759721,-1.6013353788309599,1.142467877873485,-0.5739614367485046,1.5272923707962036,3.227003335952759,-0.7268068194389343,-0.6864829063415527,0.02220289409160614,-0.3784024715423584,0.4018150568008423,-0.3144545555114746
0.7250806136302779,-1.581171962040313,1.1342382017692956,-0.515602171421051,1.3997957706451416,3.0662715435028076,-0.7484058141708374,-0.663195788860321,0.00776546448469162,-0.5676953196525574,0.32792961597442627,-0.2603747844696045
0.6958399643039819,-1.5628097276528186,1.1274764970898195,-0.5080446600914001,1.3984698057174683,2.751034736633301,-0.7674910426139832,-0.6410303711891174,-0.006129773799329996,-0.7550309300422668,0.23175913095474243,-0.2044416069984436
0.6701400405463314,-1.5442109534176613,1.12094802209121,-0.6026347875595093,1.490085244178772,2.3470468521118164,-0.7834578156471252,-0.6210957765579224,-0.02083342708647251,-0.8919572830200195,0.14692890644073486,-0.14710485935211182
0.6485787648112474,-1.524185435425295,1.1133885949951534,-0.7432129383087158,1.5719059705734253,1.9041780233383179,-0.7960776686668396,-0.6040543913841248,-0.037132784724235535,-0.9786264300346375,0.07043921947479248,-0.09238392114639282
0.6310829216578029,-1.5029835147010144,1.1047918771206227,-0.8149468302726746,1.6183881759643555,1.5129417181015015,-0.8055333495140076,-0.5900194644927979,-0.05470936745405197,-1.0202722549438477,0.02185845375061035,-0.09317886829376221
0.6169690571336938,-1.4820981659462933,1.0964391077405993,-0.7273176908493042,1.5657896995544434,1.1883383989334106,-0.8124293088912964,-0.5785656571388245,-0.07225055992603302,-0.9985141754150391,0.037717998027801514,-0.16842633485794067
0.6062631284213394,-1.463173847426616,1.090219434055867,-0.4776194393634796,1.4916515350341797,0.8268440365791321,-0.8170284032821655,-0.5698005557060242,-0.08827169239521027,-0.9800297021865845,0.06897658109664917,-0.2560887336730957
0.5997497395246466,-1.446787790228737,1.0871017915189671,-0.17923326790332794,1.4368276596069336,0.4034775495529175,-0.8191378712654114,-0.5644358992576599,-0.10210401564836502,-0.9895016551017761,0.07151603698730469,-0.30110955238342285
0.5978931532881282,-1.432204403536105,1.0871234474045748,0.13301585614681244,1.4797033071517944,-0.033889833837747574,-0.8185982704162598,-0.5629023909568787,-0.11418311297893524,-0.9705710411071777,0.05849260091781616,-0.32111966609954834
0.6005821500446894,-1.4185767935713849,1.0900447015400643,0.4134107530117035,1.5738904476165771,-0.41311386227607727,-0.8154672980308533,-0.5651228427886963,-0.12509775161743164,-0.899727463722229,0.050169289112091064,-0.31446224451065063
0.606856777213487,-1.4047772587902911,1.0950407917643676,0.566274881362915,1.7343050241470337,-0.6777023077011108,-0.810150146484375,-0.5702883005142212,-0.13574986159801483,-0.766326904296875,0.03908413648605347,-0.23528295755386353
0.6152314572066608,-1.3897704989533441,1.100051869881195,0.5136932134628296,1.7995538711547852,-0.8106297254562378,-0.8032954335212708,-0.5771475434303284,-0.14702677726745605,-0.6176944375038147,-0.00952225923538208,-0.10637597739696503
0.6241636224567696,-1.3742678265626251,1.1035813780744297,0.3851573169231415,1.6849344968795776,-0.8215804100036621,-0.7958320379257202,-0.584418773651123,-0.15844890475273132,-0.4676414132118225,-0.021141469478607178,0.0065476298332214355
0.6328321815563354,-1.359349581162063,1.1057169908963627,0.3145023286342621,1.530631184577942,-0.8025995492935181,-0.7883968353271484,-0.5914308428764343,-0.16923363506793976,-0.37226295471191406,0.0060732364654541016,0.02929520606994629
0.6413763321308884,-1.345775680613163,1.1071876246145778,0.2852659821510315,1.3499480485916138,-0.801210343837738,-0.7810726761817932,-0.5982988476753235,-0.1787852793931961,-0.31373023986816406,0.02327132225036621,0.017103061079978943
0.6492941844205822,-1.3335152971570345,1.1080694346341777,0.2003553807735443,1.213173747062683,-0.6923933625221252,-0.7741930484771729,-0.6046243906021118,-0.18722838163375854,-0.21509528160095215,0.049601197242736816,0.02942192554473877
0.6551075296407033,-1.3211693317397262,1.1078293274042872,0.035446107387542725,1.2118799686431885,-0.4230811893939972,-0.7684036493301392,-0.6092445254325867,-0.19590039551258087,-0.09150534868240356,0.10459065437316895,0.0605548620223999
0.6575317039505587,-1.308879262237835,1.1061806209355882,-0.15394192934036255,1.026706576347351,-0.1133587583899498,-0.7645092010498047,-0.6111650466918945,-0.20494605600833893,-0.009889543056488037,0.1217547059059143,0.07228608429431915
0.6566495017799535,-1.2985216999656932,1.1039088655508809,-0.22214612364768982,0.7548023462295532,0.182223841547966,-0.7628644108772278,-0.6104665398597717,-0.21299825608730316,0.001740872859954834,0.10057896375656128,0.03851392865180969
0.6532365021362063,-1.2914404589588842,1.1022275535881383,-0.22150403261184692,0.44832396507263184,0.3868806064128876,-0.7633354663848877,-0.6077597737312317,-0.21896816790103912,-0.037476301193237305,0.07103186845779419,0.0007827281951904297
