attitudeX,attitudeY,attitudeZ,gyroX,gyroY,gyroZ,gravityX,gravityY,gravityZ,accX,accY,accZ
0.3861418547380035,-1.5474512518667207,1.4256412249341626,0.4630517065525055,-0.381354421377182,-0.0486866757273674,-0.9261167049407959,-0.3766171634197235,-0.021624192595481873,-0.020370841026306152,0.005492866039276123,-0.04160827398300171
0.3865487866116208,-1.5533643526214154,1.430682503078748,0.4669003486633301,-0.40097281336784363,-0.008861814625561237,-0.9260750412940979,-0.3769941031932831,-0.016144951805472374,0.02962106466293335,0.0024670958518981934,0.003541169688105583
0.38652500246819915,-1.5588414547803753,1.4356710313040222,0.4509373903274536,-0.3051285743713379,0.03177908807992935,-0.9261584281921387,-0.3769720792770386,-0.011072632856667042,0.05520206689834595,-0.006710171699523926,0.03740924596786499
0.3860920427498712,-1.5629108357047856,1.4402281452453032,0.38315412402153015,-0.1639563888311386,0.05748278275132179,-0.9263589978218079,-0.37657102942466736,-0.007304946891963482,0.05407506227493286,-0.017349839210510254,0.07606101036071777
0.3855236213052423,-1.5653243302797601,1.4437739173927013,0.26905497908592224,-0.06386493891477585,0.05336686596274376,-0.9265879392623901,-0.376044362783432,-0.005070336628705263,0.023938894271850586,-0.01558774709701538,0.1024823784828186
0.3851817324199429,-1.5667547547860092,1.4459667873974875,0.1370597779750824,-0.0669475868344307,0.016171345487236977,-0.9267227649688721,-0.3757275640964508,-0.0037454371340572834,-0.02617347240447998,-0.015477299690246582,0.11045008897781372
0.38527476740853694,-1.5679094846736052,1.4467914447738601,0.024596627801656723,-0.09714490920305252,-0.03789375349879265,-0.9266912937164307,-0.3758137822151184,-0.0026752189733088017,-0.07340019941329956,-0.014399230480194092,0.08542358875274658
0.3860003144311324,-1.5688773136642478,1.4467304879851555,-0.02229306846857071,-0.0983089879155159,-0.11034362763166428,-0.9264205098152161,-0.37648603320121765,-0.0017778152832761407,-0.10806429386138916,-0.010019034147262573,0.0305100679397583
0.38744000567215414,-1.5698426151931293,1.446543933407027,-0.002222954761236906,-0.11931387335062027,-0.16862131655216217,-0.9258787631988525,-0.3778194189071655,-0.0008830216247588396,-0.10196840763092041,-0.006244271993637085,-0.025301098823547363
0.38913059329647975,-1.571655984579316,1.4469685507570247,0.08799643069505692,-0.21363398432731628,-0.16151106357574463,-0.9252389073371887,-0.3793841600418091,0.0007953890599310398,-0.04715794324874878,-0.002360224723815918,-0.06523334980010986
0.390565506445505,-1.5747576792540448,1.4486162393560857,0.22031743824481964,-0.27286961674690247,-0.12314051389694214,-0.9246866106987,-0.3807114064693451,0.003663028823211789,0.0058023929595947266,-0.0016280710697174072,-0.0863504409790039
0.3916499480859503,-1.5787618435454918,1.4516914856934766,0.34159690141677856,-0.28651970624923706,-0.09755910933017731,-0.9242512583732605,-0.38171395659446716,0.007362294476479292,0.019572794437408447,-0.004959046840667725,-0.08753204345703125
0.3924769274493091,-1.583180954103752,1.4558575667168578,0.4187300503253937,-0.2757757306098938,-0.07610175758600235,-0.9238935708999634,-0.38247817754745483,0.011442662216722965,0.018467605113983154,-0.00991678237915039,-0.06338357925415039
0.39307631802849274,-1.5877736821782322,1.460590353592173,0.443219393491745,-0.27951815724372864,-0.05643623694777489,-0.9236021041870117,-0.3830319344997406,0.015681827440857887,0.016283869743347168,-0.006235092878341675,-0.023845313116908073
0.39351278803225037,-1.5924431805930435,1.4652457153217648,0.40751489996910095,-0.30287835001945496,-0.04807897284626961,-0.9233514666557312,-0.38343507051467896,0.01999077759683132,0.009701013565063477,-0.003527820110321045,0.011076092720031738
0.39387362441428403,-1.5972218207009385,1.469273603835183,0.32973936200141907,-0.33915722370147705,-0.04331107437610626,-0.9231070280075073,-0.3837682902812958,0.02439923956990242,0.0021170377731323242,-0.005986928939819336,0.030562877655029297
0.39418069316316096,-1.6019158600979295,1.4724254872647584,0.25008153915405273,-0.3505571484565735,-0.03707634657621384,-0.9228643774986267,-0.3840518295764923,0.028728384524583817,-0.00500720739364624,-0.005718588829040527,0.03299331292510033
0.3944852106859136,-1.6062239531521205,1.4747624397397296,0.18334297835826874,-0.31930187344551086,-0.04041944444179535,-0.9226151704788208,-0.3843329846858978,0.032699745148420334,-0.011634647846221924,-0.00873333215713501,0.0162961445748806
0.3949211754768821,-1.6098242127414844,1.4765374026276603,0.14196278154850006,-0.25444215536117554,-0.05840883031487465,-0.9223239421844482,-0.38473543524742126,0.03601463884115219,-0.020257174968719482,-0.02377280592918396,-0.011707428842782974
0.39550804362072955,-1.6125885901634516,1.4780679100551706,0.13879132270812988,-0.18362990021705627,-0.07339747995138168,-0.9219951629638672,-0.38527706265449524,0.03855471312999725,-0.022630691528320312,-0.03893250226974487,-0.04288828372955322
0.39626726356282554,-1.614872005552262,1.4797936533206568,0.17508195340633392,-0.14314532279968262,-0.09209180623292923,-0.9216123223304749,-0.385977566242218,0.04064701125025749,-0.024020612239837646,-0.04529684782028198,-0.07635259628295898
0.39721728045338806,-1.6170907875654423,1.4820893085897848,0.23950955271720886,-0.12505556643009186,-0.11623889952898026,-0.9211530685424805,-0.38685378432273865,0.042674776166677475,-0.02147388458251953,-0.050951361656188965,-0.10696017742156982
0.39834657481632535,-1.6195393297937133,1.4851222536523396,0.3037492632865906,-0.1370168924331665,-0.13300856947898865,-0.9206089377403259,-0.3878948986530304,0.04490881413221359,-0.005370736122131348,-0.05804318189620972,-0.12729108333587646
0.3994824215650949,-1.6225437193715677,1.4886928171951994,0.3357059061527252,-0.19254142045974731,-0.1216152012348175,-0.9200292229652405,-0.38894155621528625,0.04765165597200394,0.037842392921447754,-0.06017035245895386,-0.1387619972229004
0.40034297649812356,-1.6262695489938996,1.4923922825568512,0.3298453688621521,-0.26312053203582764,-0.07989198714494705,-0.9195107221603394,-0.3897342085838318,0.05106060951948166,0.09695523977279663,-0.06636622548103333,-0.15135669708251953
0.4006230994811015,-1.6305511258472023,1.4959544625602244,0.3222101926803589,-0.3095945715904236,-0.012354040518403053,-0.9191746115684509,-0.3899921774864197,0.05499056354165077,0.15011650323867798,-0.07730817794799805,-0.16871440410614014
0.40010770854724176,-1.6352493944237054,1.4994902792416895,0.3350737988948822,-0.35396283864974976,0.07495956122875214,-0.919106662273407,-0.38951754570007324,0.059321410953998566,0.20475119352340698,-0.09499478340148926,-0.18799889087677002
0.39857511234770365,-1.6405334126158806,1.5032033593501595,0.36742866039276123,-0.41398948431015015,0.18958911299705505,-0.9193748831748962,-0.3881055414676666,0.0642186626791954,0.2717307209968567,-0.10659968852996826,-0.20281434059143066
0.395678407678915,-1.6468779493658434,1.5071145367652719,0.3891738951206207,-0.5626894235610962,0.33714690804481506,-0.9200660586357117,-0.38543426990509033,0.07013549655675888,0.3520575761795044,-0.10075652599334717,-0.21314096450805664
0.391109971144903,-1.655281943355552,1.5110902673924096,0.41562554240226746,-0.8192651867866516,0.5136168003082275,-0.9211891293525696,-0.38121479749679565,0.07801292836666107,0.4370277523994446,-0.09327250719070435,-0.21804296970367432
0.3846000867303356,-1.6664613873777219,1.5152357717091045,0.47255539894104004,-1.0932905673980713,0.7091532945632935,-0.9227100610733032,-0.3751884698867798,0.08854138106107712,0.5165058970451355,-0.09354621171951294,-0.23171472549438477
0.37601491990130254,-1.6802107021099393,1.520020712712941,0.5895369648933411,-1.2794355154037476,0.8996345400810242,-0.9245734810829163,-0.36721673607826233,0.10156725347042084,0.5785651803016663,-0.09736758470535278,-0.25444507598876953
0.3653809463523998,-1.695463119628955,1.525821131163215,0.732245922088623,-1.3323906660079956,1.0765366554260254,-0.9267390370368958,-0.357305109500885,0.1161358579993248,0.6273159384727478,-0.10416638851165771,-0.26905953884124756
0.3528730044481229,-1.7110208804602836,1.5327017058796202,0.8692944645881653,-1.274775743484497,1.2226231098175049,-0.9291731119155884,-0.34559521079063416,0.1311536431312561,0.6439100503921509,-0.11537277698516846,-0.26044130325317383
0.3387475407035316,-1.7256407744059497,1.5404097099027552,0.9629234671592712,-1.106271505355835,1.3498077392578125,-0.9318870306015015,-0.33230605721473694,0.14546196162700653,0.661363959312439,-0.11543256044387817,-0.23028564453125
0.3230686331563766,-1.7380696308302892,1.5481412026239745,0.9674881100654602,-0.865851104259491,1.5050472021102905,-0.9350302815437317,-0.3174779415130615,0.15788087248802185,0.6957876086235046,-0.07748058438301086,-0.1939222663640976
0.3057026762393966,-1.7475692746863267,1.5549816939934158,0.8973287343978882,-0.6089996099472046,1.6853946447372437,-0.9387744665145874,-0.3009633421897888,0.1677003800868988,0.7027515769004822,-0.028946906328201294,-0.15714134275913239
0.2867380642176676,-1.7540991222401061,1.560317085818592,0.7779671549797058,-0.3910923898220062,1.8470808267593384,-0.9431025981903076,-0.2828249931335449,0.17483589053153992,0.6707484722137451,-0.0010037422180175781,-0.1254889965057373
0.2665373850430877,-1.7582797935204555,1.5638888471487848,0.6340911984443665,-0.2548573315143585,1.9838919639587402,-0.947783887386322,-0.26339268684387207,0.17980548739433289,0.6201929450035095,0.022776871919631958,-0.10076500475406647
0.24519774035325606,-1.7610006081580105,1.5655431424214188,0.4785824418067932,-0.22259736061096191,2.141619920730591,-0.9525942802429199,-0.24274815618991852,0.1834045797586441,0.5721622705459595,0.0488852858543396,-0.08509232103824615
0.22232233182590894,-1.7638017345985848,1.5654192748615692,0.37288954854011536,-0.35310184955596924,2.3441319465637207,-0.957277238368988,-0.22049538791179657,0.18708854913711548,0.518098771572113,0.07591839134693146,-0.081986203789711
0.19754845792484924,-1.7677039403199433,1.5641916593511402,0.36346325278282166,-0.45489633083343506,2.5456905364990234,-0.9616027474403381,-0.1962660551071167,0.19183261692523956,0.42820125818252563,0.1220168024301529,-0.08645546436309814
0.17097522626810766,-1.772087289059341,1.562991451018658,0.46705567836761475,-0.45814940333366394,2.676117420196533,-0.9655231833457947,-0.17014344036579132,0.19701924920082092,0.27062249183654785,0.18904906511306763,-0.0840127170085907
0.14351132060220045,-1.7766745726116058,1.5629979684712356,0.6483117341995239,-0.4543904960155487,2.6636576652526855,-0.9688186645507812,-0.14301921427249908,0.20232537388801575,0.046974360942840576,0.25492721796035767,-0.0534760057926178
0.11660590712482737,-1.7812558267519378,1.5651414737641467,0.8785238862037659,-0.3974910080432892,2.4748988151550293,-0.9712941646575928,-0.11634183675050735,0.20749063789844513,-0.23146474361419678,0.30652737617492676,0.00018146634101867676
0.09179085026219984,-1.784975916159233,1.569964853245107,1.0956814289093018,-0.23050974309444427,2.1372015476226807,-0.9730375409126282,-0.09166200459003448,0.21165107190608978,-0.5393831729888916,0.3482385575771332,0.07246744632720947
0.07060131389870418,-1.7863051335747722,1.577524007640805,1.2647018432617188,0.10586560517549515,1.6579471826553345,-0.9744341373443604,-0.07054267823696136,0.21331176161766052,-0.8430707454681396,0.40100228786468506,0.1688445806503296
0.05415453386420401,-1.7838117673712843,1.5874571529160046,1.3501650094985962,0.5034348964691162,1.123146653175354,-0.975965142250061,-0.054128069430589676,0.21109823882579803,-1.1026482582092285,0.45560207962989807,0.2845682203769684
0.04279499677345562,-1.7779402257758314,1.5990087289363295,1.3643766641616821,0.7569236159324646,0.6196747422218323,-0.9777262210845947,-0.04278193414211273,0.20547737181186676,-1.2769886255264282,0.5037652254104614,0.41029104590415955
0.03614700943897202,-1.7702165170842623,1.6115691472434397,1.3549895286560059,0.8586456179618835,0.17937703430652618,-0.9795414209365845,-0.03613913804292679,0.1979716718196869,-1.3858914375305176,0.5426546335220337,0.5337177515029907
0.033741235677386544,-1.7624606792339383,1.624718381471525,1.2988229990005493,0.7433842420578003,-0.20964635908603668,-0.9811297059059143,-0.03373483195900917,0.19038458168506622,-1.4736430644989014,0.5881934762001038,0.6545555591583252
0.03499320031526327,-1.7573553636359787,1.6373899763235784,1.1182492971420288,0.31768378615379333,-0.49584636092185974,-0.9820466637611389,-0.03498606011271477,0.18536518514156342,-1.5294127464294434,0.6441932320594788,0.7764114141464233
0.03897095111496221,-1.757891049132985,1.6482084861668715,0.8419641852378845,-0.363227903842926,-0.6742991805076599,-0.9818027019500732,-0.03896108642220497,0.18586386740207672,-1.5369350910186768,0.7077385783195496,0.8786959648132324
0.045111786378400846,-1.7656354042563098,1.6562790973012622,0.49469658732414246,-1.105043649673462,-0.8378582000732422,-0.980080783367157,-0.04509648680686951,0.1934116929769516,-1.5580661296844482,0.7733527421951294,0.9366084337234497
0.05383390676614314,-1.7802587893768964,1.661215259692674,0.12089076638221741,-1.7383116483688354,-1.0755332708358765,-0.9767257571220398,-0.053807906806468964,0.2076328992843628,-1.6095778942108154,0.8316704630851746,0.9530879259109497
0.06617934044906996,-1.799988266635499,1.6634498762759562,-0.2208796590566635,-2.131883144378662,-1.4459218978881836,-0.9717185497283936,-0.06613104045391083,0.22669336199760437,-1.6622384786605835,0.869933545589447,0.9318605661392212
0.08358941201856311,-1.8219129141461574,1.6636885156126386,-0.5608587861061096,-2.1947178840637207,-1.9410887956619263,-0.965253472328186,-0.08349210023880005,0.24761806428432465,-1.680055856704712,0.907863438129425,0.8812729120254517
0.10683758081554498,-1.8430773870514934,1.6621252840814311,-0.942345142364502,-2.038684606552124,-2.45432710647583,-0.9576681852340698,-0.10663445293903351,0.2673957645893097,-1.6198768615722656,0.9407104253768921,0.8092337846755981
0.13605683752606018,-1.8619486579471536,1.658628584303482,-1.347158432006836,-1.8030586242675781,-2.9417243003845215,-0.9490611553192139,-0.13563746213912964,0.28440341353416443,-1.5055439472198486,0.9641439318656921,0.7161304950714111
0.17090788799840823,-1.877793638275799,1.6531108227756326,-1.7399542331695557,-1.521924376487732,-3.367953300476074,-0.939357340335846,-0.17007708549499512,0.2977949380874634,-1.3547865152359009,1.0063655376434326,0.6018021106719971
0.21077984949713424,-1.890268882185079,1.6456407030669284,-2.094208240509033,-1.2554186582565308,-3.736776828765869,-0.9283892512321472,-0.20922255516052246,0.30711498856544495,-1.193528652191162,1.0703980922698975,0.4665818512439728
0.25493610185084986,-1.899736816610564,1.6365650022515528,-2.3712356090545654,-1.0653060674667358,-4.034570693969727,-0.9157973527908325,-0.25218358635902405,0.31259962916374207,-1.028538465499878,1.1150529384613037,0.32437846064567566
0.3022699412201803,-1.9072324364536681,1.6263883463924902,-2.546544313430786,-1.0080572366714478,-4.234420299530029,-0.9011420011520386,-0.29768800735473633,0.31515824794769287,-0.8722954392433167,1.1418194770812988,0.1857723891735077
0.351655030513684,-1.9145000113308546,1.6158229621912237,-2.6025824546813965,-1.1384751796722412,-4.3786115646362305,-0.8838963508605957,-0.34445202350616455,0.316354900598526,-0.7420040369033813,1.1632691621780396,0.062429338693618774
0.40237416704716333,-1.9234838304874236,1.605973612961314,-2.556769371032715,-1.384608507156372,-4.50142240524292,-0.8634974956512451,-0.3916040062904358,0.31783366203308105,-0.6383945345878601,1.173571228981018,-0.03809431195259094
0.45391668378263234,-1.9352056897856815,1.5976832163731984,-2.4541289806365967,-1.6250609159469604,-4.594114780426025,-0.8397204875946045,-0.4384889602661133,0.3203074634075165,-0.5342724323272705,1.1703310012817383,-0.11951708793640137
0.5060247953066256,-1.9491634173068697,1.5914497509135064,-2.34283709526062,-1.7062112092971802,-4.695408821105957,-0.812811553478241,-0.48470404744148254,0.32310929894447327,-0.4448027014732361,1.1579065322875977,-0.18620750308036804
0.559014741190524,-1.9637684377228126,1.5875370967114328,-2.259253740310669,-1.5817067623138428,-4.84454870223999,-0.7831560969352722,-0.5303511619567871,0.32464441657066345,-0.3910382390022278,1.148789882659912,-0.24752667546272278
0.6132774609503666,-1.9776314498423921,1.5861074010250353,-2.169013738632202,-1.3253459930419922,-5.033555030822754,-0.7510184049606323,-0.5755507349967957,0.32359400391578674,-0.3448527455329895,1.1350141763687134,-0.307465523481369
0.6690651271980755,-1.9900796310420175,1.587805789752486,-2.045428514480591,-0.9338738322257996,-5.261318206787109,-0.716457724571228,-0.6202529668807983,0.31933465600013733,-0.300937294960022,1.1252121925354004,-0.3715350925922394
0.7263628908531785,-2.0009568596565703,1.593381854503445,-1.8877594470977783,-0.5350952744483948,-5.494289875030518,-0.6794880628585815,-0.6641549468040466,0.3117595613002777,-0.2851267457008362,1.142655372619629,-0.42856565117836
0.7849173416709241,-2.0120996546505223,1.6033369633985752,-1.7335450649261475,-0.3532674014568329,-5.688960552215576,-0.6396700739860535,-0.7067667245864868,0.302163302898407,-0.258034884929657,1.1769511699676514,-0.45374423265457153
0.8442605264667321,-2.0263471056506424,1.6179493075033844,-1.5949552059173584,-0.3802068531513214,-5.835411071777344,-0.5965396761894226,-0.7474800944328308,0.2922564446926117,-0.1959865689277649,1.2142770290374756,-0.46138492226600647
0.904035601192419,-2.0457288113419074,1.6377916644062194,-1.4876443147659302,-0.44495096802711487,-5.951563835144043,-0.5499969124794006,-0.7858290672302246,0.2828011214733124,-0.12506729364395142,1.233643889427185,-0.4713539779186249
0.9640625868398929,-2.0711134689139303,1.6635823022563896,-1.423691987991333,-0.47548118233680725,-6.046618461608887,-0.5002996921539307,-0.8215147852897644,0.2735210061073303,-0.053899526596069336,1.2414977550506592,-0.4880901575088501
1.0240163752345472,-2.1035735661642665,1.6963094848145064,-1.385407567024231,-0.5342673063278198,-6.095120429992676,-0.44787585735321045,-0.8542031645774841,0.2640916705131531,0.0363004207611084,1.2477272748947144,-0.5142595767974854
1.0832648474343636,-2.145662783785616,1.7378165790547486,-1.3426804542541504,-0.659628689289093,-6.097219467163086,-0.39315077662467957,-0.8834919333457947,0.2547050416469574,0.13086742162704468,1.242607593536377,-0.5538231134414673
1.1409799358853134,-2.200680851912337,1.7915919264881175,-1.2549680471420288,-0.6696685552597046,-6.075495719909668,-0.3367367386817932,-0.9090422987937927,0.2454601675271988,0.20535853505134583,1.218643069267273,-0.5899121761322021
1.1963886573155436,-2.2732983960112514,1.8638354402923227,-1.134952425956726,-0.5237842798233032,-6.082774639129639,-0.2791286110877991,-0.9307244420051575,0.2363031953573227,0.2602687478065491,1.1434167623519897,-0.6182459592819214
1.2483046703998235,-2.370423338983718,1.9628416620271232,-1.0012551546096802,-0.278990775346756,-6.071107864379883,-0.22089287638664246,-0.948448657989502,0.22727014124393463,0.3050297796726227,1.1081624031066895,-0.6367244720458984
1.295068231711832,-2.5025725395534444,2.0990523929377334,-0.9057220220565796,-0.1352735310792923,-6.0441575050354,-0.16237103939056396,-0.9622272253036499,0.21852795779705048,0.3219016492366791,1.15668523311615,-0.628424882888794
1.334125890912924,-2.683652323786287,2.2844136531541226,-0.8361886143684387,-0.2319689691066742,-5.973727226257324,-0.10365830361843109,-0.9721240401268005,0.21030883491039276,0.33707195520401,1.1625385284423828,-0.5904968976974487
1.361738101926555,-2.9227818417893743,2.525808157137402,-0.7997906804084778,-0.5055158138275146,-5.849487781524658,-0.04505026713013649,-0.9782267808914185,0.2025904804468155,0.3644166886806488,1.130128026008606,-0.5511775016784668
1.3742129916589787,3.074741342638512,2.8105935218260005,-0.791372537612915,-0.8104418516159058,-5.7135725021362305,0.013047662563621998,-0.9807396531105042,0.1948835402727127,0.3905167579650879,1.1038169860839844,-0.5320417881011963
1.3698271814566683,2.7817399192829844,3.100178616969649,-0.7781028151512146,-0.9701164960861206,-5.625186920166016,0.07029310613870621,-0.9798735976219177,0.18683312833309174,0.4107401669025421,1.0621795654296875,-0.5286452770233154
1.3498155187645973,2.5227309796856496,-2.927741927388584,-0.722565770149231,-0.8445466160774231,-5.6388373374938965,0.12715177237987518,-0.9756829142570496,0.1785358339548111,0.4060971140861511,1.0159356594085693,-0.5428853034973145
1.3169678051939486,2.3201869191689073,-2.7258284438471785,-0.6107766628265381,-0.3575691878795624,-5.7839837074279785,0.18384027481079102,-0.9679581522941589,0.17105579376220703,0.378232479095459,0.9909529685974121,-0.564854621887207
1.2741440971468083,2.1733467090338423,-2.5737896103664553,-0.4911355674266815,0.24389156699180603,-6.011836051940918,0.2408406138420105,-0.9563204646110535,0.1656712293624878,0.3469736874103546,0.9714266657829285,-0.5756292343139648
1.2240557342932739,2.0704451164375444,-2.461053188535397,-0.3349321186542511,0.5214126706123352,-6.189248085021973,0.2982896566390991,-0.9404853582382202,0.16282038390636444,0.3636060357093811,0.9801735281944275,-0.5546965599060059
1.169247590807364,1.9990014114121166,-2.3790282559396903,-0.1184932067990303,0.42928943037986755,-6.2311296463012695,0.35555630922317505,-0.9204567670822144,0.16229380667209625,0.48877352476119995,0.9966132640838623,-0.5277113914489746
1.112077015632275,1.9491484916482613,-2.3207525231433697,0.13575132191181183,0.20091857016086578,-6.135501861572266,0.4114828407764435,-0.8966203331947327,0.1635657697916031,0.6762245893478394,0.9757982492446899,-0.5065224170684814
1.054288814796025,1.9144111460178677,-2.280021644092438,0.36869871616363525,0.07532713562250137,-5.986578464508057,0.4649777412414551,-0.8695492148399353,0.1663733422756195,0.8489718437194824,0.9194758534431458,-0.4838324785232544
0.9966962944012461,1.8911935343923996,-2.250948500811797,0.5107021927833557,0.36240020394325256,-5.846208095550537,0.5154424905776978,-0.8396813869476318,0.17103944718837738,0.9738763570785522,0.8477684259414673,-0.4457129240036011
0.9404462854273873,1.8784245851442514,-2.2270205559968517,0.355844646692276,0.9287981986999512,-5.6618146896362305,0.561756432056427,-0.8078212141990662,0.17847809195518494,1.1250721216201782,0.7343349456787109,-0.2789877653121948
0.8867594598333081,1.8708301275507169,-2.203682037785126,0.13415859639644623,1.2406964302062988,-5.375437259674072,0.6036967039108276,-0.7750280499458313,0.18676763772964478,1.292116403579712,0.6312443614006042,-0.08792124688625336
0.8370869413143128,1.8674812142431172,-2.1816067929009626,0.05863439291715622,1.3950278759002686,-4.913307189941406,0.640373706817627,-0.7426956295967102,0.1957671195268631,1.476844310760498,0.5673263669013977,-0.018444791436195374
0.7927222575343246,1.8673212305580864,-2.163082832889485,0.11653710901737213,1.2230908870697021,-4.258200645446777,0.6712760925292969,-0.7122666835784912,0.2050967961549759,1.7442054748535156,0.5011765956878662,0.013073325157165527
0.7554963138525985,1.8686348141469546,-2.1497058805035083,0.23467609286308289,0.8936482667922974,-3.3752291202545166,0.6958827972412109,-0.6856500506401062,0.2136147916316986,2.0018253326416016,0.4555627107620239,0.029091358184814453
0.7270464715038355,1.8703334304640202,-2.141725320374703,0.2991640269756317,0.5153683423995972,-2.387617349624634,0.7138729095458984,-0.6646658182144165,0.22046475112438202,2.1756534576416016,0.4026114344596863,0.07320581376552582
0.7079831335675167,1.870923557848064,-2.137784867461155,0.24624675512313843,0.12424784153699875,-1.4232404232025146,0.7257166504859924,-0.6503029465675354,0.22459164261817932,2.2382726669311523,0.3479653000831604,0.11761711537837982
0.6982103802857548,1.869639781632557,-2.1364058087235818,0.12714380025863647,-0.20002345740795135,-0.5096730589866638,0.7320433855056763,-0.6428478956222534,0.22552022337913513,2.2290468215942383,0.28582268953323364,0.12273111939430237
0.6972694213941835,1.8667079152074357,-2.1369543673200178,0.014280474744737148,-0.43694981932640076,0.34518805146217346,0.7332795858383179,-0.6421267986297607,0.2235492616891861,2.1943936347961426,0.22968173027038574,0.06714582443237305
0.7045255744030647,1.86332707070382,-2.1394505014478575,-0.0661560446023941,-0.5387590527534485,1.1380250453948975,0.729550302028656,-0.6476724147796631,0.21971938014030457,2.1377439498901367,0.21134740114212036,-0.01863911747932434
0.7191683345241329,1.8611760579485792,-2.1442220013127042,-0.07216806709766388,-0.4977802038192749,1.8540643453598022,0.7208569049835205,-0.6587591767311096,0.21541106700897217,2.0421741008758545,0.25589656829833984,-0.12507900595664978
0.7401667311460183,1.8620706501847393,-2.1521363337163337,0.008574181236326694,-0.3711186647415161,2.480341672897339,0.7072555422782898,-0.6744109988212585,0.21203601360321045,1.911900281906128,0.2984192371368408,-0.21888723969459534
0.7663648744001451,1.8673111434588687,-2.1640641200529185,0.14266417920589447,-0.20724914968013763,3.0054800510406494,0.6889970898628235,-0.6935209631919861,0.21050353348255157,1.7551558017730713,0.2770932912826538,-0.26148319244384766
0.7965625675593888,1.877506989228996,-2.1801224817431786,0.22545866668224335,-0.013204305432736874,3.400399684906006,0.6665396094322205,-0.7149569988250732,0.21109606325626373,1.5731606483459473,0.23349636793136597,-0.2481445074081421
0.82977891599995,1.8922047172542,-2.199092977608433,0.18922634422779083,0.19212354719638824,3.689788341522217,0.6404709219932556,-0.7377821207046509,0.21324683725833893,1.397660732269287,0.22304224967956543,-0.20006327331066132
0.8654190095869578,1.9106448294836793,-2.219897503618906,0.10080087929964066,0.3665725886821747,3.9171228408813477,0.6112405061721802,-0.7613669633865356,0.2161141335964203,1.2339131832122803,0.23280256986618042,-0.18788541853427887
0.9028952427045123,1.9325586495736564,-2.2428595137237246,0.06812289357185364,0.4462530016899109,4.094465732574463,0.5792524814605713,-0.785123348236084,0.21919852495193481,1.0895707607269287,0.2442297339439392,-0.2395690679550171
0.9413963254297985,1.9581897481012478,-2.269564345740678,0.1263134926557541,0.41118156909942627,4.215301513671875,0.5450381636619568,-0.8083808422088623,0.22238166630268097,0.9629420638084412,0.2766426205635071,-0.33676159381866455
0.9799154777861508,1.9884751658226636,-2.3017292067052892,0.25385212898254395,0.37752532958984375,4.284585952758789,0.509200930595398,-0.8304502964019775,0.22597898542881012,0.8557434678077698,0.3265899419784546,-0.44100597500801086
1.0176007633487905,2.025553758966394,-2.341064829445289,0.42170798778533936,0.4295016825199127,4.308289527893066,0.47201040387153625,-0.8508498668670654,0.23078295588493347,0.7757160663604736,0.37154078483581543,-0.5258879661560059
1.0535710619136456,2.0718235745856046,-2.38877961770236,0.5887526869773865,0.6252974271774292,4.284451484680176,0.433694988489151,-0.8691945672035217,0.23750744760036469,0.7124537229537964,0.4055255651473999,-0.5807691812515259
1.087206651545793,2.129375793983199,-2.445717807465868,0.714923620223999,0.8912713527679443,4.256639003753662,0.39429035782814026,-0.8853315711021423,0.24642059206962585,0.6581540703773499,0.41081374883651733,-0.6069705486297607
1.1184709879068362,2.1994329615790056,-2.512430169328379,0.7645072937011719,1.204607605934143,4.26807975769043,0.35350561141967773,-0.8994332551956177,0.25700873136520386,0.6307777762413025,0.39819735288619995,-0.6094257831573486
1.14758480949143,2.2827232540703806,-2.5895478311957447,0.7326542735099792,1.4561370611190796,4.331705093383789,0.31093576550483704,-0.9117746949195862,0.26830175518989563,0.6190873384475708,0.4201517701148987,-0.5955569744110107
1.1745678030739213,2.3793189820608047,-2.6785803495754195,0.6916897892951965,1.4726459980010986,4.437661170959473,0.26651880145072937,-0.9225231409072876,0.27913910150527954,0.6261508464813232,0.5015179514884949,-0.5749918222427368
1.1983513384520743,2.489366986146271,-2.7829096205002144,0.8022064566612244,1.227469563484192,4.595505237579346,0.22086770832538605,-0.9314404129981995,0.28919899463653564,0.6175874471664429,0.6429578065872192,-0.6026451587677002
1.2174157127613616,2.618564720627333,-2.9083563123050906,0.9410824179649353,1.1126718521118164,4.898080825805664,0.17286443710327148,-0.9382081627845764,0.2998051047325134,0.6688408255577087,0.7353731989860535,-0.6490026116371155
1.2307996928639522,2.7670243029438684,-3.0554959299505717,0.9740107655525208,0.9025260806083679,5.236693859100342,0.12201213836669922,-0.9427557587623596,0.3103622496128082,0.7893953323364258,0.7714300751686096,-0.6013016700744629
1.2370076594678265,2.9326886068384757,3.0613526010457948,0.9959975481033325,0.8285515308380127,5.600640296936035,0.06794550269842148,-0.9448078870773315,0.32050222158432007,0.779634416103363,0.8627307415008545,-0.5649938583374023
1.2338603565086115,3.108294928037933,2.883583772361329,1.0272630453109741,0.6845701336860657,5.870660305023193,0.011006106622517109,-0.9437720775604248,0.3304141163825989,0.6688797473907471,0.9466100931167603,-0.5349887609481812
1.220347908187574,-3.0039366324750088,2.7078900132597785,1.03711998462677,0.40911999344825745,6.0386881828308105,-0.04711076617240906,-0.9392188787460327,0.3400709927082062,0.533667802810669,1.0143990516662598,-0.4884933531284332
1.1969305394778311,-2.8484722418434187,2.5449918091140744,1.055436372756958,0.22543403506278992,6.1832966804504395,-0.10552596300840378,-0.9309224486351013,0.34963876008987427,0.4394645392894745,1.0850517749786377,-0.4716329276561737
1.164894658898765,-2.7137532395329353,2.4013632309992983,1.0871840715408325,0.15750913321971893,6.252829551696777,-0.1638243943452835,-0.9187467694282532,0.3592572808265686,0.3493254780769348,1.1288145780563354,-0.46896806359291077
1.1257818494891174,-2.6014331343591803,2.2797016530134537,1.1486811637878418,0.1388624757528305,6.221837997436523,-0.22137948870658875,-0.9026044607162476,0.36918333172798157,0.24515268206596375,1.118714690208435,-0.45205390453338623
1.0817195646295745,-2.5078536877935025,2.179011976770034,1.1267585754394531,0.5641722679138184,6.180085182189941,-0.278204083442688,-0.8827669620513916,0.37858259677886963,0.258703351020813,1.095367670059204,-0.42472532391548157
1.0349425363112825,-2.4289960202041723,2.0947152849016524,1.0319130420684814,0.44037890434265137,6.065558910369873,-0.33381444215774536,-0.8598330020904541,0.3863352835178375,0.47292882204055786,1.137878656387329,-0.3431530296802521
0.9861707591789995,-2.3655568015078643,2.024715383699652,1.1147998571395874,0.4297751486301422,5.969234466552734,-0.3865726888179779,-0.8339188098907471,0.3938797414302826,0.01500585675239563,1.19666588306427,-0.4064376950263977
0.9352843138754474,-2.3151750674961575,1.9681577827313643,1.3169944286346436,0.3260383605957031,5.810399532318115,-0.43659037351608276,-0.8047678470611572,0.4021657705307007,0.03395676612854004,1.1910289525985718,-0.49873870611190796
0.882369808855592,-2.2773490909358554,1.9236095931362207,1.5981477499008179,0.24529267847537994,5.720697402954102,-0.4832293689250946,-0.7722466588020325,0.4124615788459778,0.06918209791183472,1.1914513111114502,-0.5184034109115601
0.8272106460364423,-2.2474723070546663,1.8880579936448405,1.815190315246582,0.3596418499946594,5.722664833068848,-0.5277752876281738,-0.7360460162162781,0.42389771342277527,0.0916181206703186,1.2150194644927979,-0.5216150879859924
0.7705321804863645,-2.222170115499364,1.8581942613835682,1.850501537322998,0.3987642228603363,5.734563827514648,-0.5706249475479126,-0.6965171694755554,0.4350298345088959,0.0880810022354126,1.2242577075958252,-0.4276447296142578
0.7135149592865597,-2.200501854576879,1.8312030342005792,1.74903404712677,0.2623816132545471,5.752668857574463,-0.6110532283782959,-0.654495358467102,0.445252388715744,0.053115665912628174,1.183685541152954,-0.3051615059375763
0.6568383339922043,-2.1829124028942686,1.8057046566253336,1.6271854639053345,0.01623626798391342,5.716646194458008,-0.6481395363807678,-0.6106160879135132,0.45504143834114075,-0.023964226245880127,1.1348624229431152,-0.23102736473083496
0.6009916643836855,-2.170262456968995,1.7822212759674116,1.6164848804473877,-0.2405949980020523,5.582531929016113,-0.6809651255607605,-0.5654606223106384,0.4653397798538208,-0.10454225540161133,1.1187137365341187,-0.21790313720703125
0.5461945997778325,-2.162256424207112,1.7619549183179122,1.7085216045379639,-0.3205648958683014,5.354246139526367,-0.709350049495697,-0.5194392800331116,0.4764508306980133,-0.16984617710113525,1.1037898063659668,-0.24169445037841797
0.49285800859367146,-2.156319590357442,1.7454643289897744,1.82163405418396,-0.08631430566310883,5.072502136230469,-0.7342326641082764,-0.47314566373825073,0.48686328530311584,-0.1854909062385559,1.0741894245147705,-0.23930466175079346
0.44105234519160547,-2.1490867987406785,1.73239621355928,1.9082247018814087,0.3609022796154022,4.856306076049805,-0.7572616338729858,-0.4268913269042969,0.4942857623100281,-0.15304714441299438,1.0517387390136719,-0.21291378140449524
0.38988652384692785,-2.139110909726885,1.7214781347767807,1.9423691034317017,0.7258336544036865,4.807119846343994,-0.7795583009719849,-0.38008347153663635,0.497820645570755,-0.11550700664520264,1.0326560735702515,-0.1526515781879425
0.33875585919481266,-2.1275508315504688,1.7114018093998957,1.8929919004440308,0.8234864473342896,4.815792083740234,-0.8007262945175171,-0.3323139250278473,0.49840208888053894,-0.16701656579971313,1.033958911895752,-0.051594316959381104
0.2883506175058006,-2.1168193136741067,1.701351202618763,1.7271175384521484,0.6681985855102539,4.717684745788574,-0.8193138241767883,-0.2843713164329529,0.49785321950912476,-0.36948317289352417,1.0435419082641602,0.04345226287841797
0.24063945992527444,-2.1091843262361754,1.6909696864848824,1.4635463953018188,0.30053165555000305,4.447128772735596,-0.8337985277175903,-0.23832370340824127,0.4979782700538635,-0.6328306794166565,1.0219082832336426,0.14284515380859375
0.1968258624991538,-2.105459651786747,1.680509054310613,1.2697712182998657,0.015529770404100418,4.098567008972168,-0.8438271284103394,-0.19555747509002686,0.49971312284469604,-0.8114006519317627,0.9949959516525269,0.1736418604850769
0.15639096203612296,-2.104229901763021,1.671416960750369,1.3371355533599854,-0.06251154094934464,3.748720169067383,-0.8505576252937317,-0.1557542383670807,0.5022871494293213,-0.8919962048530579,0.9616471529006958,0.09283608198165894
0.11794654978997757,-2.1038214973186835,1.6662071036195587,1.696799397468567,0.01312143076211214,3.365374803543091,-0.855289876461029,-0.11767327040433884,0.5046107172966003,-0.9649767279624939,0.9381231069564819,-0.007372677326202393
0.08087764302545891,-2.1030031397039575,1.66661829792188,2.1148290634155273,0.15969911217689514,2.9688799381256104,-0.8588728904724121,-0.08078949898481369,0.5057775974273682,-1.074812650680542,0.932702898979187,0.012868762016296387
0.04522632219838976,-2.1011312409997176,1.6719105284201412,2.370176315307617,0.26718348264694214,2.627723217010498,-0.8617556095123291,-0.045210905373096466,0.5053050518035889,-1.193267583847046,0.9586477875709534,0.19176208972930908
0.01201858458346453,-2.098892224551668,1.6803155762722153,2.388123035430908,0.19357958436012268,2.22094988822937,-0.8637058138847351,-0.012018295004963875,0.5038532018661499,-1.3636503219604492,0.9983158707618713,0.4874340891838074
-0.016570686469514196,-2.0981989827708256,1.6902748728639791,2.172426462173462,-0.08000269532203674,1.6955820322036743,-0.8639987707138062,0.01656992733478546,0.5032216310501099,-1.5744932889938354,1.003571629524231,0.7990854978561401
-0.039003292428797305,-2.10034232432294,1.7004081871932415,1.81154465675354,-0.3960442543029785,1.1495765447616577,-0.8623800873756409,0.03899340331554413,0.5047573447227478,-1.696549415588379,1.007103443145752,1.042956829071045
-0.05485388214002198,-2.105143646385336,1.7099182367366845,1.4247859716415405,-0.6422963738441467,0.6132641434669495,-0.8593068718910217,0.05482637882232666,0.5085135102272034,-1.7466198205947876,1.0152572393417358,1.1741647720336914
-0.06434722972858913,-2.1121202313539853,1.7189238188770037,1.0878984928131104,-0.8584101796150208,0.09873424470424652,-0.8552537560462952,0.06430283188819885,0.514204740524292,-1.7585617303848267,1.004468560218811,1.228623628616333
-0.06791282511355448,-2.120959673515477,1.727634255688468,0.7570885419845581,-1.0047178268432617,-0.3839013874530792,-0.8504741191864014,0.06786063313484192,0.5216212868690491,-1.7270252704620361,0.9865369200706482,1.2605746984481812
-0.0658209502362003,-2.1308746099807956,1.7355564823599983,0.3494971692562103,-1.0745978355407715,-0.7890567779541016,-0.8453788161277771,0.06577343493700027,0.5301020741462708,-1.6581764221191406,0.9677501320838928,1.29256010055542
-0.058191362498826234,-2.1416725455612706,1.7414274863121166,-0.19914008677005768,-1.1583291292190552,-1.1140217781066895,-0.8400036692619324,0.05815852805972099,0.5394549369812012,-1.544792652130127,0.9539569616317749,1.3316693305969238
-0.04465966662122575,-2.1534723648193337,1.7439015980355062,-0.8760888576507568,-1.2137166261672974,-1.4162182807922363,-0.8341607451438904,0.04464482143521309,0.5497118830680847,-1.425940752029419,0.9628777503967285,1.35751473903656
-0.02466450697250991,-2.165679631144552,1.7423040952645004,-1.5997434854507446,-1.2046948671340942,-1.7185614109039307,-0.8279621601104736,0.02466200664639473,0.5602417588233948,-1.331904411315918,0.9666404724121094,1.31451416015625
0.001634276666029588,-2.177705367753823,1.7369710200840336,-2.2217235565185547,-1.1802165508270264,-1.9976756572723389,-0.821413516998291,-0.001634275889955461,0.5703303217887878,-1.2251560688018799,0.9370591044425964,1.1777162551879883
0.033222119580417216,-2.1891108807632045,1.7290362362616427,-2.6746232509613037,-1.1136417388916016,-2.241257667541504,-0.8144070506095886,-0.03321600705385208,0.579342782497406,-1.1046757698059082,0.9049506187438965,0.9697752594947815
0.06899163960170786,-2.1994042412361914,1.719661169854668,-2.9875917434692383,-1.037940502166748,-2.4557807445526123,-0.8069224953651428,-0.06893692165613174,0.5866203904151917,-0.9807818531990051,0.8714271783828735,0.7319677472114563
0.10786175196200418,-2.208695712968751,1.7098922173810789,-3.1429214477539062,-0.9879432916641235,-2.638227701187134,-0.7986798882484436,-0.10765272378921509,0.5920485258102417,-0.8859209418296814,0.8266621232032776,0.4856492280960083
0.14864618120721235,-2.217627127538639,1.7008874267031056,-3.134488582611084,-1.035466194152832,-2.8016598224639893,-0.7891978621482849,-0.1480993777513504,0.5960146188735962,-0.8193380236625671,0.8120092749595642,0.23883944749832153
0.19019931289828973,-2.2275525849106756,1.6937666346240274,-2.984422206878662,-1.1946872472763062,-2.933016300201416,-0.7776948809623718,-0.18905462324619293,0.5995408296585083,-0.7705382704734802,0.8101941347122192,0.021140992641448975
0.2314781902781636,-2.2399767213291333,1.6895039160093455,-2.7252848148345947,-1.468733310699463,-3.0423619747161865,-0.7634109258651733,-0.22941653430461884,0.6037977337837219,-0.7398239374160767,0.7921454310417175,-0.1512831449508667
0.2718395215664101,-2.2562157405049663,1.6887882251194393,-2.4185831546783447,-1.8030049800872803,-3.143126964569092,-0.745725691318512,-0.268503874540329,0.6097532510757446,-0.7303028106689453,0.7779795527458191,-0.2760435938835144
0.31096860348321803,-2.276943074758803,1.6920049085937074,-2.1134443283081055,-2.1501810550689697,-3.2404403686523438,-0.7243747711181641,-0.305980920791626,0.6177835464477539,-0.7230890989303589,0.7840998768806458,-0.35063278675079346
0.348914806937732,-2.303080026248979,1.699234785458413,-1.8503607511520386,-2.5958638191223145,-3.356607675552368,-0.6988404393196106,-0.341878205537796,0.6282845139503479,-0.709698498249054,0.7877552509307861,-0.36885470151901245
0.3861031304629878,-2.33500614722071,1.7104831718303657,-1.6749989986419678,-2.9369401931762695,-3.515115976333618,-0.6687833666801453,-0.3765812814235687,0.6410265564918518,-0.69523024559021,0.8162176012992859,-0.36011236906051636
0.4235341245262858,-2.371283280924369,1.7255273076362712,-1.646370530128479,-3.0836384296417236,-3.726573944091797,-0.634828507900238,-0.4109848737716675,0.6542810797691345,-0.6622905135154724,0.8551072478294373,-0.33311426639556885
0.4620629343225317,-2.4098839465290807,1.7439610917419794,-1.7075505256652832,-3.0060019493103027,-3.940305709838867,-0.598077118396759,-0.4457956552505493,0.6660105586051941,-0.6017520427703857,0.8601785898208618,-0.31681323051452637
0.501780928731917,-2.448929951005371,1.7656709736257379,-1.7815752029418945,-2.757044792175293,-4.131778717041016,-0.5598679780960083,-0.48098769783973694,0.6746840476989746,-0.5099714994430542,0.8651888370513916,-0.3435989022254944
0.5423737613075286,-2.4876284735084266,1.790707720610447,-1.8481024503707886,-2.471593141555786,-4.292736053466797,-0.5210323929786682,-0.5161705613136292,0.6797743439674377,-0.4238528609275818,0.8862877488136292,-0.3972885012626648
0.583531623353307,-2.52636328745395,1.8192353354721578,-1.90798020362854,-2.222266435623169,-4.446149826049805,-0.48164108395576477,-0.5509746074676514,0.6815052032470703,-0.36796849966049194,0.9077860116958618,-0.4422319531440735
0.6251680782041289,-2.5660723705482806,1.8517057514932749,-1.9791820049285889,-2.0158188343048096,-4.628316402435303,-0.4413304626941681,-0.5852335691452026,0.6802420020103455,-0.3516536355018616,0.9298685193061829,-0.48204559087753296
0.6675459936595911,-2.607724457272776,1.889130512241989,-2.0701205730438232,-1.7845666408538818,-4.896557331085205,-0.3996354043483734,-0.6190606355667114,0.6760590672492981,-0.36267855763435364,0.9570426940917969,-0.523272693157196
0.7111114817596761,-2.6523936449896923,1.933258311439205,-2.1918563842773438,-1.5209797620773315,-5.292299747467041,-0.3560280203819275,-0.6526762843132019,0.6687734127044678,-0.3835655450820923,0.9918181300163269,-0.5652577877044678
0.7563872011070245,-2.701624097641393,1.9865158382053292,-2.344062566757202,-1.1595842838287354,-5.804548263549805,-0.30977368354797363,-0.6862982511520386,0.6580538749694824,-0.39823415875434875,1.0353279113769531,-0.5946536660194397
0.8027072475945595,-2.756183423762464,2.0511166377393377,-2.430262804031372,-0.6490696668624878,-6.278703212738037,-0.2611878216266632,-0.7192395925521851,0.643797755241394,-0.36748963594436646,1.0968334674835205,-0.6323384642601013
0.8483145671433052,-2.817068456372223,2.128322030145079,-2.461932897567749,-0.19439861178398132,-6.651489734649658,-0.2108442783355713,-0.7501669526100159,0.6267330050468445,-0.2610032856464386,1.153456687927246,-0.6832516193389893
0.8914270785546045,-2.8865078152084807,2.218544142872916,-2.452483892440796,0.08610615879297256,-6.900123596191406,-0.15853802859783173,-0.7779691815376282,0.6079719066619873,-0.11933982372283936,1.198730230331421,-0.7183082103729248
0.9301308452714129,-2.96613996092437,2.321332150882696,-2.388523817062378,0.21766604483127594,-6.998405456542969,-0.10433593392372131,-0.8016981482505798,0.5885524749755859,0.03152097016572952,1.2051100730895996,-0.7544155716896057
0.9624766852828647,-3.0559273656776047,2.4348651908990875,-2.2675116062164307,0.2381998747587204,-6.94192361831665,-0.04889696091413498,-0.8206095099449158,0.5693939328193665,0.1824266016483307,1.1660072803497314,-0.8012054562568665
0.9868892812182447,3.1288686171743914,2.556072336744713,-2.0877792835235596,0.1375366449356079,-6.783453941345215,0.007014416623860598,-0.8343151211738586,0.5512431263923645,0.2948654294013977,1.1240642070770264,-0.859653890132904
1.0024647419959354,3.0239681672662657,2.681538755985081,-1.8856037855148315,-0.09049837291240692,-6.607451438903809,0.06316278874874115,-0.8428001403808594,0.5345079302787781,0.33585450053215027,1.0873526334762573,-0.9033738970756531
1.0087006515224077,2.9146479912676724,2.8076799885865653,-1.6359401941299438,-0.47350406646728516,-6.455842971801758,0.11991694569587708,-0.8461400866508484,0.5192945003509521,0.32614320516586304,1.0314581394195557,-0.9266279339790344
1.005097635143001,2.8039223722602493,2.930547118758599,-1.3190394639968872,-0.915497899055481,-6.3600568771362305,0.17757336795330048,-0.8442143201828003,0.5057373046875,0.30724412202835083,0.9527957439422607,-0.9534453749656677
0.991362035442467,2.6946782731303487,3.0470420471677895,-0.9580835103988647,-1.326890468597412,-6.317440032958984,0.23664331436157227,-0.8367725610733032,0.4937731921672821,0.31335970759391785,0.8795885443687439,-0.9788348078727722
0.9678949939858983,2.5914546041987205,-3.1299042284038965,-0.5805163979530334,-1.6370487213134766,-6.284255504608154,0.29644858837127686,-0.8236939311027527,0.4833701550960541,0.36157137155532837,0.8463073968887329,-0.9800742864608765
0.9359994494504342,2.498296927385985,-3.0364071837756885,-0.24025945365428925,-1.7075891494750977,-6.221619606018066,0.3557108938694,-0.8051921725273132,0.4744842052459717,0.4288959801197052,0.8294689059257507,-0.9556396007537842
0.8975151797321741,2.4179084621117397,-2.9565896753421326,0.06091831997036934,-1.6707096099853516,-6.126130104064941,0.41288667917251587,-0.7817798852920532,0.4672739505767822,0.5215309858322144,0.8077503442764282,-0.9058420658111572
0.8542697137088365,2.350363660456878,-2.889618685408811,0.3281574845314026,-1.517181396484375,-6.0011796951293945,0.4671062231063843,-0.7540915012359619,0.4616905152797699,0.622783362865448,0.7949543595314026,-0.847295343875885
0.8077230243735495,2.295606638339241,-2.8343694306772393,0.5810201168060303,-1.2520009279251099,-5.842994689941406,0.5174089074134827,-0.7227153182029724,0.458224892616272,0.726487398147583,0.7492505311965942,-0.7814673185348511
0.7592055285667838,2.252589513160856,-2.788974169517869,0.7663580179214478,-0.9359782338142395,-5.680399417877197,0.5632191896438599,-0.6883453726768494,0.4571264088153839,0.8603646755218506,0.6686921119689941,-0.6813086271286011
0.710251992483858,2.219427639386791,-2.7510741046309644,0.8283751606941223,-0.6033132672309875,-5.447353363037109,0.6042162179946899,-0.6520248651504517,0.4580242931842804,1.0317699909210205,0.6008926630020142,-0.5536205768585205
0.6627377269855549,2.1947331433073227,-2.7190104383981715,0.81890469789505,-0.2749023735523224,-5.088906764984131,0.6397808194160461,-0.6152773499488831,0.4605584442615509,1.265690803527832,0.5521059632301331,-0.4121270775794983
0.6183583818135655,2.177526678659854,-2.692389490940045,0.8157094120979309,0.01183092687278986,-4.573233127593994,0.6693975329399109,-0.5796983242034912,0.46460413932800293,1.5187280178070068,0.5366531610488892,-0.31824183464050293
0.5784751863375961,2.16695728759431,-2.6714830175998374,0.845378577709198,0.2192070186138153,-3.914752244949341,0.6928611397743225,-0.5467478632926941,0.47011712193489075,1.7397865056991577,0.5467173457145691,-0.24698787927627563
0.5443490493623498,2.1618878114982727,-2.6565470868817593,0.8650864362716675,0.34785112738609314,-3.1166813373565674,0.7103205919265747,-0.5178613066673279,0.4767228364944458,1.9472570419311523,0.5718925595283508,-0.1667252779006958
0.5174531297263134,2.1612281756230427,-2.6475456802019397,0.8238077163696289,0.41978898644447327,-2.188357353210449,0.7219465970993042,-0.49466830492019653,0.4838350713253021,2.1216659545898438,0.5584347248077393,-0.06554591655731201
0.4989664104798946,2.1637319057826896,-2.6438785600822348,0.6901464462280273,0.43260106444358826,-1.2271255254745483,0.7281929850578308,-0.47851821780204773,0.49066784977912903,2.2154712677001953,0.5096156597137451,0.047860532999038696
0.4892457832367849,2.1683979809198566,-2.6446352129013455,0.4999985992908478,0.4201244115829468,-0.31340453028678894,0.7297064661979675,-0.4699602723121643,0.49665406346321106,2.200667381286621,0.46191897988319397,0.14937233924865723
0.48791875946986935,2.1745011736283075,-2.648983757414199,0.28175249695777893,0.3905929923057556,0.5097616910934448,0.7271748185157776,-0.4687885344028473,0.5014521479606628,2.106351852416992,0.4148944318294525,0.21871697902679443
0.49412498619941625,2.181739717333234,-2.65634954669909,0.07892454415559769,0.3564736247062683,1.231978178024292,0.7211290001869202,-0.47426149249076843,0.5050239562988281,1.961869716644287,0.38843074440956116,0.24624252319335938
0.5068640226926923,2.190054913976939,-2.666417142659979,-0.09967047721147537,0.345783531665802,1.8473153114318848,0.7119268774986267,-0.48543792963027954,0.5074545741081238,1.7897210121154785,0.37783291935920715,0.23631978034973145
0.5251215587964694,2.1999430638237816,-2.67894046762924,-0.2649894058704376,0.3989655375480652,2.362525701522827,0.6995911598205566,-0.5013182163238525,0.5091685056686401,1.5993437767028809,0.3777676820755005,0.1976643204689026
0.5478971214975615,2.211791776945947,-2.693468988539992,-0.42380577325820923,0.4864712655544281,2.757241725921631,0.6841787695884705,-0.5208933353424072,0.5104604363441467,1.4057718515396118,0.3864785432815552,0.14420264959335327
0.5741081944220293,2.2259237254365765,-2.7095216038958627,-0.5661118030548096,0.6374272704124451,3.033003807067871,0.6658390760421753,-0.5430861711502075,0.5115819573402405,1.2203152179718018,0.38488292694091797,0.08016926050186157
0.6027361004646368,2.2430027191960855,-2.726902356486012,-0.6704037189483643,0.849742591381073,3.2279136180877686,0.6445723176002502,-0.5668985843658447,0.512984037399292,1.059483528137207,0.37204378843307495,-0.003218412399291992
0.6327728142435783,2.263612412670161,-2.745810124071848,-0.7122856378555298,1.0738234519958496,3.346120834350586,0.6204779744148254,-0.5913829803466797,0.5150472521781921,0.9229028224945068,0.34283244609832764,-0.10568445920944214
0.6631523161924068,2.287941336812537,-2.7666678491931713,-0.6785369515419006,1.2620110511779785,3.409878730773926,0.5939458608627319,-0.6156041026115417,0.5179381966590881,0.8006463646888733,0.316226601600647,-0.2124725580215454
0.6930124293908598,2.3159643508860444,-2.79002366194304,-0.5881401896476746,1.3949792385101318,3.441796064376831,0.5654337406158447,-0.6388576030731201,0.5216755270957947,0.704021155834198,0.3098781704902649,-0.30942589044570923
0.7217317014108583,2.3476063811683674,-2.8165074835852986,-0.4477780759334564,1.4740324020385742,3.4758622646331787,0.5353376269340515,-0.6606855988502502,0.5262206792831421,0.638200581073761,0.3172864317893982,-0.39653629064559937
0.7490125587674287,2.383045828618265,-2.846905025950393,-0.28000879287719727,1.5221562385559082,3.5453343391418457,0.5037676692008972,-0.6809159517288208,0.5315746665000916,0.6015942096710205,0.3292924165725708,-0.46294069290161133
0.7745495001867551,2.4225968857316382,-2.881795134865803,-0.09106104075908661,1.5610982179641724,3.606154441833496,0.47074630856513977,-0.699394166469574,0.5378158688545227,0.5770747661590576,0.3292158246040344,-0.5053146481513977
0.7978835372722546,2.4664896035881614,-2.9213160382008136,0.09883566200733185,1.6139405965805054,3.6498587131500244,0.43637406826019287,-0.7158799171447754,0.5450628399848938,0.5517393350601196,0.3177018165588379,-0.5281714200973511
0.8186936899151106,2.51498492913122,-2.9654373900092046,0.2817672789096832,1.6964505910873413,3.7005298137664795,0.40061450004577637,-0.7302539944648743,0.5533869862556458,0.5369770526885986,0.322005033493042,-0.538296103477478
0.8368525362272315,2.5686261723351698,-3.0142206131212497,0.440374493598938,1.841481328010559,3.7762064933776855,0.3631185293197632,-0.7425386309623718,0.562833309173584,0.541910707950592,0.3501741290092468,-0.5335364937782288
0.8523508149014295,2.628093913452214,-3.067614652327254,0.5672881603240967,2.0574371814727783,3.870753049850464,0.32333365082740784,-0.7528298497200012,0.5733261108398438,0.5479126572608948,0.38957905769348145,-0.5217056274414062
0.8650867729212968,2.6935596416564684,-3.1252620028831064,0.6554843187332153,2.2859067916870117,3.959862470626831,0.2809581458568573,-0.7611515522003174,0.5845605134963989,0.5416432023048401,0.42570221424102783,-0.4921991229057312
0.8749266482959591,2.7642268826427334,3.0966120001413375,0.7040139436721802,2.441993236541748,4.044404029846191,0.2362106442451477,-0.7674964666366577,0.5959475636482239,0.533305287361145,0.45907062292099,-0.4426273703575134
0.8819190624624625,2.8387399523690022,3.0324064489284543,0.7054347395896912,2.5459253787994385,4.127185821533203,0.18958520889282227,-0.7719601988792419,0.6067412495613098,0.5194296836853027,0.49461638927459717,-0.3895629644393921
0.8862502338535198,2.9158466117455535,2.965636039704682,0.6589668989181519,2.511592149734497,4.243585109710693,0.14153477549552917,-0.7747061252593994,0.6162779331207275,0.5062007904052734,0.5524464845657349,-0.3448241353034973
0.8882012911698565,2.993747184843737,2.896755338445949,0.5645115375518799,2.363980770111084,4.349005222320557,0.09292279928922653,-0.7759383916854858,0.6239269375801086,0.5018342733383179,0.6099075675010681,-0.3018903136253357
0.8881189246602633,3.071423406877598,2.826133509257333,0.4111708998680115,2.205958843231201,4.484333515167236,0.044231534004211426,-0.7758864164352417,0.6293200850486755,0.5039404630661011,0.6597822904586792,-0.2682819366455078
0.8863581084728972,-3.1333966695076514,2.75326976516017,0.22103211283683777,2.1730971336364746,4.677721977233887,-0.005181753542274237,-0.7747743725776672,0.6322166323661804,0.5362638831138611,0.7084596157073975,-0.2620079517364502
0.882795184911269,-3.052607445006263,2.677650058975038,0.026953231543302536,2.2881226539611816,4.898493766784668,-0.05643054470419884,-0.7725168466567993,0.6324817538261414,0.5879094004631042,0.7782389521598816,-0.2914174199104309
0.8767530748362553,-2.968349087888612,2.5995512331207333,-0.12103915214538574,2.522195816040039,5.0986647605896,-0.11026178300380707,-0.7686660289764404,0.6300751566886902,0.6219805479049683,0.8404434323310852,-0.35207539796829224
0.8672293128590076,-2.880873641921037,2.5201829176589636,-0.20846745371818542,2.803687572479248,5.251021385192871,-0.1667657345533371,-0.7625393867492676,0.6250786781311035,0.6193260550498962,0.8897975087165833,-0.42657703161239624
0.8533789814028437,-2.7914791737068194,2.441166020445505,-0.24019530415534973,3.0690650939941406,5.376452445983887,-0.22550511360168457,-0.7535061836242676,0.6175564527511597,0.6097518801689148,0.9388394355773926,-0.48941314220428467
0.8346371692375427,-2.702041024186984,2.3640440411099206,-0.23944632709026337,3.2500669956207275,5.495935440063477,-0.28572314977645874,-0.7410529255867004,0.6076205372810364,0.6027244925498962,1.0149177312850952,-0.5441592335700989
0.8106580562463696,-2.6149153598844777,2.289662658879354,-0.21438652276992798,3.2033562660217285,5.664207458496094,-0.3463461101055145,-0.724740743637085,0.5956467390060425,0.5721609592437744,1.110177755355835,-0.581273078918457
0.7814657487670265,-2.5329516703613706,2.2186984311651696,-0.19999569654464722,3.0298526287078857,5.812619209289551,-0.40587717294692993,-0.7043206691741943,0.5824055075645447,0.5035334229469299,1.1908013820648193,-0.612389087677002
0.7471067233955841,-2.4574165932373053,2.151494063401262,-0.16402465105056763,2.723397731781006,6.029026031494141,-0.4636973738670349,-0.6795189380645752,0.5685410499572754,0.43215739727020264,1.2714684009552002,-0.6286606788635254
0.707805409968605,-2.3903443330493395,2.088335772320007,-0.11944067478179932,2.2617130279541016,6.204285144805908,-0.5185961127281189,-0.6501678824424744,0.5552831888198853,0.37903934717178345,1.3128113746643066,-0.6267707347869873
0.6639695487586798,-2.332800528189705,2.0294380957816895,-0.06703365594148636,1.7801491022109985,6.40640926361084,-0.5697575807571411,-0.6162479519844055,0.5437045693397522,0.3351537585258484,1.3551242351531982,-0.6157414317131042
0.6157767160914288,-2.283808233980612,1.974194917914713,-0.017418716102838516,1.4203611612319946,6.64479923248291,-0.6174643039703369,-0.5775927305221558,0.5339703559875488,0.3140890598297119,1.3863391876220703,-0.6053053736686707
0.5635973257379664,-2.2422169460094215,1.9222823634247288,0.03352276235818863,1.1186399459838867,6.8381757736206055,-0.661848247051239,-0.5342305898666382,0.5258841514587402,0.2690107822418213,1.4077963829040527,-0.6040399074554443
0.5082615371122968,-2.2076894438958488,1.8742709796962158,0.15736882388591766,0.8824705481529236,6.902846336364746,-0.7023217082023621,-0.48665928840637207,0.5195254683494568,0.16118407249450684,1.4101974964141846,-0.6224918961524963
0.45086388550662104,-2.17976777790025,1.8315033798708504,0.3839050233364105,0.7688542604446411,6.781766891479492,-0.7382712960243225,-0.4357432425022125,0.5148622393608093,0.00613933801651001,1.3778667449951172,-0.6625369191169739
0.39277521072638527,-2.1568227845779675,1.795134559767903,0.6642396450042725,0.8508874773979187,6.503188610076904,-0.7697011232376099,-0.38275375962257385,0.51093989610672,-0.14744359254837036,1.335360050201416,-0.686797559261322
0.3350052678837226,-2.1364480385334788,1.7651366084269549,0.9126784801483154,1.1018664836883545,6.205073356628418,-0.7973071336746216,-0.3287741541862488,0.5061710476875305,-0.22349077463150024,1.300942063331604,-0.684439480304718
0.27800185708047953,-2.1159035100515107,1.7403305958645263,1.065338134765625,1.5031790733337402,5.93587064743042,-0.8222417235374451,-0.27443477511405945,0.49860185384750366,-0.2791222929954529,1.2734277248382568,-0.6510525345802307
0.22232950099798512,-2.0940918792436762,1.7196866454286472,1.1490373611450195,1.791304349899292,5.637238502502441,-0.8448575735092163,-0.22050237655639648,0.4874372184276581,-0.38118642568588257,1.2402623891830444,-0.5780895352363586
0.16886761351637702,-2.072440289019396,1.7027909765958396,1.1909135580062866,1.8518028259277344,5.2658538818359375,-0.8643214106559753,-0.16806617379188538,0.4740275740623474,-0.5134251117706299,1.175588846206665,-0.45431333780288696
0.11853722906588163,-2.0517058389842835,1.6891193597367724,1.1609582901000977,1.8894668817520142,4.852665424346924,-0.8803532719612122,-0.11825982481241226,0.4593396484851837,-0.6274135708808899,1.1390117406845093,-0.33157771825790405
0.07198184321712853,-2.031329567845276,1.6780430586323711,1.082260251045227,1.9793701171875,4.420038223266602,-0.8934957385063171,-0.07191970199346542,0.44327491521835327,-0.6945473551750183,1.1027576923370361,-0.2160564363002777
0.029128418651082646,-2.0103779863558713,1.668701083392513,0.9537845849990845,2.102384567260742,4.089980602264404,-0.9045459628105164,-0.029124299064278603,0.4253804385662079,-0.7267254590988159,1.0684614181518555,-0.08456015586853027
-0.010894994434777558,-1.9891027983995093,1.6601119069339,0.8077604174613953,2.0848944187164307,3.8958349227905273,-0.9137240052223206,0.010894779115915298,0.4061894416809082,-0.7055692076683044,1.00750732421875,0.0593409538269043
-0.049623623568076244,-1.9699345550657432,1.651573933038142,0.7143745422363281,1.756951928138733,3.891507625579834,-0.9202620983123779,0.049603261053562164,0.3881461024284363,-0.6757768392562866,0.9269745349884033,0.19345790147781372
-0.08887829800986743,-1.9555983534959465,1.6428847643764004,0.6899774670600891,1.1852881908416748,4.019827842712402,-0.9232141375541687,0.0887613296508789,0.3738939166069031,-0.6978947520256042,0.8853292465209961,0.2728648781776428
-0.1293158904333484,-1.9481022986686274,1.6342482851877884,0.7160418033599854,0.5107960104942322,4.070567607879639,-0.9218983054161072,0.12895578145980835,0.3653411567211151,-0.8418957591056824,0.9368554353713989,0.3390503227710724
-0.16900457387115284,-1.9470475323847052,1.6262863502421638,0.7273568511009216,-0.04291698709130287,3.8282361030578613,-0.9167978763580322,0.16820119321346283,0.3622015118598938,-1.1500356197357178,0.947613000869751,0.4240838289260864
-0.2052090229212856,-1.9502195005610656,1.6195759067519362,0.709027111530304,-0.3002731502056122,3.3396613597869873,-0.9093889594078064,0.20377179980278015,0.36261340975761414,-1.4690747261047363,0.923959493637085,0.5181389451026917
-0.2358287980360253,-1.954420890982251,1.6145838774230574,0.6625284552574158,-0.2939259111881256,2.6679701805114746,-0.9016470313072205,0.23364892601966858,0.3639242351055145,-1.6949868202209473,0.908501923084259,0.5961740016937256
-0.2593557914342483,-1.9572079478258075,1.6116829757198168,0.5670730471611023,-0.10254049301147461,1.8814815282821655,-0.8952886462211609,0.25645795464515686,0.3642628490924835,-1.8482415676116943,0.886471152305603,0.6800792217254639
-0.27489858559386415,-1.9572230331457672,1.610374679767177,0.3511345088481903,0.1639689803123474,1.0918779373168945,-0.8914830684661865,0.27144932746887207,0.36273014545440674,-1.892223596572876,0.8766982555389404,0.7821519374847412
-0.2826017867916637,-1.9548151284284638,1.6093063819313649,0.02431858517229557,0.36446213722229004,0.4276149272918701,-0.8903886079788208,0.27885517477989197,0.3597883880138397,-1.8278882503509521,0.8812247514724731,0.8826279640197754
-0.2834223322250219,-1.9514055959548444,1.606993809082143,-0.3838883936405182,0.41940662264823914,-0.10012885928153992,-0.8913974761962891,0.27964308857917786,0.35666537284851074,-1.7346248626708984,0.8855485916137695,0.9433070421218872
-0.27811334340919075,-1.9490606836118594,1.6022731318115833,-0.8530799150466919,0.29139646887779236,-0.5409253835678101,-0.8935983777046204,0.274541974067688,0.35511741042137146,-1.6508197784423828,0.8816927671432495,0.9600679874420166
-0.26722099769235125,-1.9491750081090395,1.5945714307290673,-1.314500093460083,0.10072775185108185,-0.926974356174469,-0.8962836265563965,0.2640520930290222,0.3563031852245331,-1.568651556968689,0.8698437213897705,0.9054765701293945
-0.25135469450073167,-1.951750768989266,1.5844581716255877,-1.6491491794586182,-0.09739518910646439,-1.2943427562713623,-0.8991394639015198,0.2487163096666336,0.3601231873035431,-1.4965211153030396,0.8609181046485901,0.7628167867660522
-0.23082662063434883,-1.9562720540437684,1.5735584301173255,-1.816009283065796,-0.2731773555278778,-1.7205873727798462,-0.9020434617996216,0.2287822961807251,0.3660275638103485,-1.4580943584442139,0.8483356237411499,0.5746614933013916
-0.20582105080404742,-1.9618253190735664,1.5637996035527868,-1.8122292757034302,-0.4068294167518616,-2.1728322505950928,-0.9050039052963257,0.20437094569206238,0.3730953633785248,-1.4179940223693848,0.8314566612243652,0.3831453025341034
-0.17687564152741375,-1.9678651203095847,1.5566155306245015,-1.6860350370407104,-0.5212283730506897,-2.6128551959991455,-0.9078105092048645,0.17595481872558594,0.38068336248397827,-1.3471790552139282,0.8192844390869141,0.21212050318717957
-0.14455336397236573,-1.9743508632634363,1.5528391400710364,-1.509891152381897,-0.654559314250946,-3.026846170425415,-0.9100792407989502,0.1440504640340805,0.38859423995018005,-1.2490243911743164,0.8098374605178833,0.09872561693191528
-0.10937196519564094,-1.9817516482949822,1.5522359139165889,-1.3915214538574219,-0.8000271320343018,-3.3512208461761475,-0.9112619161605835,0.10915403813123703,0.3970983028411865,-1.1122976541519165,0.8115765452384949,0.053447842597961426
-0.07205161913227333,-1.9900056427786856,1.5534387428493208,-1.4096946716308594,-0.8511022925376892,-3.535989284515381,-0.9110410213470459,0.07198929041624069,0.40598219633102417,-0.9426881074905396,0.8338181972503662,0.04921787977218628
-0.03307356291117855,-1.9985917708033973,1.554680406596279,-1.5761022567749023,-0.8820247054100037,-3.652674674987793,-0.9093851447105408,0.03306753188371658,0.41463911533355713,-0.7994468212127686,0.868055522441864,0.062091171741485596
0.008194061513631045,-2.0078649454999637,1.5548303786132156,-1.8499058485031128,-0.9740699529647827,-3.8397886753082275,-0.9059661626815796,-0.0081939697265625,0.4232713580131531,-0.7359407544136047,0.8747100830078125,0.08296948671340942
0.05276916825047028,-2.0180272399925006,1.553848635441515,-2.126396894454956,-1.0459482669830322,-4.117311954498291,-0.9003931283950806,-0.052744682878255844,0.4318684935569763,-0.735288143157959,0.8545330166816711,0.06022745370864868
0.100971623420758,-2.0287324841540744,1.5521937266145192,-2.3560333251953125,-1.1017560958862305,-4.372189998626709,-0.8923982977867126,-0.10080014169216156,0.43984612822532654,-0.7232328057289124,0.9063268899917603,-0.027996301651000977
0.15216325911591344,-2.0397479659748545,1.5507474202595741,-2.443748712539673,-1.1410057544708252,-4.636794567108154,-0.8817356824874878,-0.15157674252986908,0.4467293620109558,-0.665948212146759,0.9428822994232178,-0.1487099528312683
0.2060043160056447,-2.0512322478299785,1.5509046389480154,-2.4262566566467285,-1.1276377439498901,-4.926482677459717,-0.8680434226989746,-0.2045503407716751,0.45239388942718506,-0.6039263606071472,0.9614778161048889,-0.253037691116333
0.2622020735440699,-2.0627942144927953,1.553499145851088,-2.3646905422210693,-1.0565675497055054,-5.217963218688965,-0.8512660264968872,-0.25920799374580383,0.4562421441078186,-0.5430514216423035,0.979453444480896,-0.33487391471862793
0.3206872525345001,-2.074590018443732,1.5588705051453033,-2.3058478832244873,-0.9896017909049988,-5.513766765594482,-0.8311106562614441,-0.31521883606910706,0.4581403136253357,-0.47775793075561523,1.0058163404464722,-0.3881940245628357
0.38133073828691555,-2.0869591091826414,1.5670025047974037,-2.2701964378356934,-0.9121434092521667,-5.775270462036133,-0.8072474598884583,-0.37215596437454224,0.4580950140953064,-0.3907198905944824,1.035837173461914,-0.4197651445865631
0.4436726451735786,-2.0998012716699344,1.5776678330133183,-2.2471141815185547,-0.7881450057029724,-5.95567512512207,-0.7797252535820007,-0.42925941944122314,0.4558126628398895,-0.2825459837913513,1.065718650817871,-0.45532435178756714
0.5069865173122206,-2.1129939479207276,1.5905980143428748,-2.221798896789551,-0.6635350584983826,-6.055851459503174,-0.748829185962677,-0.4855450391769409,0.451110303401947,-0.17327457666397095,1.0857954025268555,-0.48794516921043396
0.5704881179879665,-2.127112420225329,1.6056949237269356,-2.1797659397125244,-0.6114755868911743,-6.0858988761901855,-0.7147238850593567,-0.5400429368019104,0.44443631172180176,-0.08303624391555786,1.0994148254394531,-0.5179837346076965
0.6335844702099703,-2.1432311550907164,1.6232324816417025,-2.1080715656280518,-0.630428671836853,-6.083705425262451,-0.6774359345436096,-0.5920373201370239,0.43654584884643555,-0.03337949514389038,1.098095178604126,-0.5537944436073303
0.6959876633625691,-2.1627275918843467,1.6439935314224878,-2.0054144859313965,-0.705741286277771,-6.105983257293701,-0.6368556022644043,-0.6411436796188354,0.4281938970088959,-0.032532334327697754,1.0915677547454834,-0.5924394726753235
0.7578237574620205,-2.1871279423988774,1.66954001317008,-1.8602280616760254,-0.7614249587059021,-6.212498664855957,-0.5926913619041443,-0.6873424053192139,0.41985389590263367,-0.06766325235366821,1.0978038311004639,-0.6334311962127686
0.8193289529681909,-2.217957522099976,1.7021318792035725,-1.683194637298584,-0.7650812268257141,-6.393273830413818,-0.5446665287017822,-0.7306878566741943,0.41162338852882385,-0.10789096355438232,1.1218621730804443,-0.6719078421592712
0.8804967142115595,-2.2569173245953746,1.7442414662728736,-1.5018502473831177,-0.6777750849723816,-6.61609411239624,-0.4926736652851105,-0.771055281162262,0.40341871976852417,-0.11407685279846191,1.1557140350341797,-0.6944801807403564
0.9409901579490292,-2.305725923061505,1.798412764570515,-1.3492317199707031,-0.5137219429016113,-6.834143161773682,-0.43695709109306335,-0.8081417083740234,0.3949369192123413,-0.06707119941711426,1.183447003364563,-0.6879668831825256
0.9999922518422143,-2.3666801766511014,1.8668543652887437,-1.2465152740478516,-0.37562012672424316,-6.972023963928223,-0.37802886962890625,-0.8414667844772339,0.38604095578193665,0.03405001759529114,1.1998348236083984,-0.654809296131134
1.0562341220087843,-2.442536680448373,1.9518234080239871,-1.1754528284072876,-0.23179851472377777,-7.025749683380127,-0.31669852137565613,-0.8705082535743713,0.3767189085483551,0.13214346766471863,1.2066137790679932,-0.6291146278381348
1.108262902548451,-2.5364617108922203,2.056235512473497,-1.1361420154571533,-0.10766059905290604,-7.017979621887207,-0.2538391053676605,-0.8949249386787415,0.36698082089424133,0.20394286513328552,1.1912354230880737,-0.613990068435669
1.1545358212508157,-2.651634074372201,2.1829349304749424,-1.1399027109146118,0.022848667576909065,-6.93431282043457,-0.1902795433998108,-0.9146073460578918,0.3567730784416199,0.2542138397693634,1.1509965658187866,-0.6083447933197021
1.1933353733808394,-2.789658812702163,2.333593229550456,-1.16102933883667,0.16949458420276642,-6.805408954620361,-0.12704817950725555,-0.9296033978462219,0.3459714651107788,0.2874943017959595,1.1111676692962646,-0.6154265403747559
1.2228169051179967,-2.9515353435974294,2.508872283806064,-1.1602344512939453,0.2254028618335724,-6.700082302093506,-0.06441985815763474,-0.9400636553764343,0.33485862612724304,0.30340296030044556,1.052063226699829,-0.6358840465545654
1.2406715924772622,-3.1347924965280676,2.705208481491737,-1.0752122402191162,0.14988593757152557,-6.5838303565979,-0.0022043290082365274,-0.9460018873214722,0.3241535425186157,0.334769606590271,1.0077084302902222,-0.6777608394622803
1.2446072850375822,2.955803170767215,2.909301566477004,-0.8536945581436157,-0.01867804303765297,-6.376550197601318,0.059191569685935974,-0.947270393371582,0.3149206340312958,0.41245755553245544,0.9733172059059143,-0.7371923923492432
1.234097081483621,2.7752543791631172,3.099186290073512,-0.47690194845199585,-0.17021183669567108,-6.044735908508301,0.11833953857421875,-0.9438502788543701,0.308451771736145,0.5431900024414062,0.9379909038543701,-0.7958328723907471
1.2112309551513123,2.6238323191646797,-3.025340704103863,-0.024742744863033295,-0.26830509305000305,-5.642726421356201,0.1741514801979065,-0.9360498189926147,0.3057478964328766,0.6745880842208862,0.884032666683197,-0.8079910278320312
1.1799406518008915,2.507220561761373,-2.9033320181578,0.3817847669124603,-0.34511926770210266,-5.2239484786987305,0.2257956713438034,-0.924583375453949,0.3068574368953705,0.7538948059082031,0.7989579439163208,-0.7408328056335449
1.1441116973549483,2.4201870732790414,-2.8129747771908478,0.6726000905036926,-0.476481556892395,-4.8338727951049805,0.2733265459537506,-0.910342812538147,0.3107544779777527,0.7675516605377197,0.6974369883537292,-0.6015260219573975
1.1064243190635854,2.3542941164631928,-2.7460377045898263,0.8511044979095459,-0.6124876141548157,-4.512257099151611,0.3172871172428131,-0.8941029906272888,0.31608346104621887,0.7457011342048645,0.6371449828147888,-0.45629656314849854
1.0682582737325423,2.3021242562149853,-2.6948308699868186,0.911543607711792,-0.7416898012161255,-4.285529613494873,0.358487606048584,-0.8763629198074341,0.321675181388855,0.709780216217041,0.612950325012207,-0.33209702372550964
1.0303444840335088,2.258418078908321,-2.6534328783583865,0.8807432055473328,-0.8031384944915771,-4.137616157531738,0.3976019322872162,-0.8574762940406799,0.3265686333179474,0.6846886873245239,0.5772181153297424,-0.2253570854663849
0.9928877181691242,2.2202267600699406,-2.6178936318218295,0.7961902022361755,-0.7946851253509521,-4.060612201690674,0.43506768345832825,-0.8376069664955139,0.33034953474998474,0.6794800162315369,0.5169281959533691,-0.14973139762878418
0.9557349385560561,2.1864479560700705,-2.586271316268991,0.7354882955551147,-0.7014490962028503,-4.011952877044678,0.47106868028640747,-0.8167380094528198,0.3332173526287079,0.7202766537666321,0.468517005443573,-0.11274304986000061
0.9186469985823221,2.158203544906787,-2.558539588968716,0.7521189451217651,-0.4579525589942932,-3.9260752201080322,0.5051681995391846,-0.7947812080383301,0.33634454011917114,0.8252149820327759,0.43749678134918213,-0.11300167441368103
0.8818927123991539,2.1368602038169016,-2.5351693730201847,0.8184200525283813,-0.13796266913414001,-3.7933692932128906,0.5365349054336548,-0.7719434499740601,0.34092995524406433,0.9566290378570557,0.4048171043395996,-0.11459645628929138
0.8457945840615905,2.1226053122502537,-2.515886966559058,0.8689186573028564,0.22667734324932098,-3.628695011138916,0.5647121667861938,-0.748498260974884,0.34763509035110474,1.073272943496704,0.3788541555404663,-0.0818881094455719
0.8111177403070292,2.1146135495891283,-2.4993276645527978,0.8063101172447205,0.61369788646698,-3.432859182357788,0.5893382430076599,-0.7250574231147766,0.35633179545402527,1.1641407012939453,0.36069273948669434,-0.004311561584472656
0.7789015053252393,2.1116770842493344,-2.4838441742862467,0.6433800458908081,1.002307653427124,-3.177820920944214,0.6100965142250061,-0.7024980783462524,0.36644071340560913,1.2479052543640137,0.35421615839004517,0.09873870015144348
0.7502011888433875,2.112984210105843,-2.468465497443645,0.40662819147109985,1.3743152618408203,-2.8556344509124756,0.6266338229179382,-0.6817859411239624,0.3774889409542084,1.3243396282196045,0.3486256003379822,0.18171510100364685
0.7258238350390595,2.1179125701154455,-2.4530438954988325,0.1714729368686676,1.6615581512451172,-2.475552558898926,0.6387726068496704,-0.6637518405914307,0.38910481333732605,1.3879759311676025,0.3417609930038452,0.2297763228416443
0.7060938339592028,2.1256424046929174,-2.4381037448767793,-0.020826930180191994,1.8116909265518188,-2.04472017288208,0.6467527747154236,-0.6488665342330933,0.4008527398109436,1.4458222389221191,0.30772578716278076,0.25490885972976685
0.691368353469327,2.1350654377740703,-2.424591920955536,-0.16266822814941406,1.776404857635498,-1.525172472000122,0.65095055103302,-0.6375918984413147,0.4119948446750641,1.509739637374878,0.276309609413147,0.26059719920158386
0.6822161692908614,2.1450454410987465,-2.4137381243273888,-0.2582816779613495,1.5631730556488037,-0.9051697254180908,0.651678740978241,-0.6305147409439087,0.42162296175956726,1.5838863849639893,0.2596955895423889,0.26361870765686035
0.6790629259906525,2.1545730975335733,-2.4064314297686082,-0.34557557106018066,1.2388231754302979,-0.24448688328266144,0.6492879986763,-0.6280640959739685,0.42890655994415283,1.6186411380767822,0.26319587230682373,0.26437658071517944
0.6819093097496267,2.1628556757938187,-2.4027300054249126,-0.4496936798095703,0.8820962309837341,0.3894444704055786,0.6442272067070007,-0.6302765011787415,0.43327006697654724,1.601057767868042,0.2808501124382019,0.2658417820930481
0.6905201193590167,2.1698528841716316,-2.4021990240572846,-0.5832921862602234,0.591088593006134,0.9767375588417053,0.6366738677024841,-0.636938214302063,0.43469080328941345,1.561202049255371,0.300024151802063,0.25227510929107666
0.7045151073750633,2.176332510818521,-2.404571047809303,-0.6949898600578308,0.4146016836166382,1.5208791494369507,0.6264529228210449,-0.6476644277572632,0.4336903393268585,1.5213894844055176,0.31807464361190796,0.2066752314567566
0.723293474528383,2.1838413659843403,-2.4100769521513845,-0.763791024684906,0.3809126913547516,2.017775774002075,0.6131223440170288,-0.6618571281433105,0.43130767345428467,1.4775149822235107,0.32993263006210327,0.1397525668144226
0.7461768545051615,2.1939903439069988,-2.419052328400627,-0.796177327632904,0.45191311836242676,2.4625580310821533,0.5962567329406738,-0.6788364052772522,0.4285547137260437,1.4249377250671387,0.3505282998085022,0.06605887413024902
0.7725181087018506,2.2078925887386522,-2.431869835013688,-0.7984700202941895,0.5616015791893005,2.8671889305114746,0.5756646990776062,-0.6979408264160156,0.4260149896144867,1.3666417598724365,0.3783607482910156,0.0026043355464935303
0.8018248984788854,2.2260873326344917,-2.4489202011849183,-0.8003949522972107,0.6539405584335327,3.2399516105651855,0.5513591766357422,-0.7186263203620911,0.42376747727394104,1.3177506923675537,0.41570889949798584,-0.046204179525375366
0.8338083712436235,2.248929550220015,-2.470771263115099,-0.8032525181770325,0.7233092188835144,3.6162807941436768,0.5233639478683472,-0.7404962182044983,0.4216107428073883,1.2821017503738403,0.4659295082092285,-0.08468151092529297
0.8683320279734861,2.277365177147992,-2.4984022395970933,-0.7976062297821045,0.792543351650238,4.002293109893799,0.49142003059387207,-0.763252317905426,0.41946637630462646,1.253300428390503,0.5193711519241333,-0.12211853265762329
0.9052527478394098,2.312165405010033,-2.5329711716379193,-0.813107430934906,0.7974774241447449,4.396836757659912,0.45542412996292114,-0.78658127784729,0.4169877767562866,1.2241108417510986,0.5824949145317078,-0.15459775924682617
0.9442885134631662,2.354380386958613,-2.575957963607458,-0.8282749652862549,0.7685855031013489,4.794777870178223,0.41534170508384705,-0.8100799918174744,0.4138374924659729,1.1952080726623535,0.6542420387268066,-0.18591707944869995
0.9848654354640201,2.4058744688930207,-2.629606115978195,-0.8209635019302368,0.6990748643875122,5.19911003112793,0.3711124658584595,-0.8331977128982544,0.4099474549293518,1.158565878868103,0.7283088564872742,-0.22794073820114136
1.0261997071942186,2.469353794112659,-2.697007158598225,-0.7993923425674438,0.6015922427177429,5.615390777587891,0.3226243853569031,-0.8553363680839539,0.4053555130958557,1.1153028011322021,0.8010913729667664,-0.2681790888309479
1.0671427823586495,2.5483019744997035,-2.7818623221044545,-0.7691401243209839,0.48091834783554077,6.0321221351623535,0.2698340117931366,-0.8758251070976257,0.40015003085136414,1.0675530433654785,0.8709880113601685,-0.3038976192474365
1.1059910262869843,2.646915585478931,-2.8885360455775633,-0.7273231744766235,0.34576359391212463,6.434760093688965,0.21280482411384583,-0.8939088582992554,0.3945133686065674,1.0169466733932495,0.9349094033241272,-0.33663684129714966
1.1403901006715025,2.7693053574093183,-3.0212119434701985,-0.677829384803772,0.19913768768310547,6.817434310913086,0.1517699807882309,-0.9087963104248047,0.3886586129665375,0.9557129144668579,1.0035836696624756,-0.3707599937915802
1.1671707587342828,2.917925415595604,3.1010507043500883,-0.595544159412384,0.09193387627601624,7.152295112609863,0.08711590617895126,-0.9196431040763855,0.3829721510410309,0.889217734336853,1.0796465873718262,-0.41870826482772827
1.1826201991129277,3.0906981435524568,2.914641200612515,-0.4807262420654297,0.05930376052856445,7.445988178253174,0.019255293533205986,-0.9256009459495544,0.3780106008052826,0.8188946843147278,1.1538724899291992,-0.4874162971973419
1.1834975294706318,-3.005328536418664,2.7133023872590045,-0.33762434124946594,0.07259481400251389,7.681838035583496,-0.051306262612342834,-0.9259326457977295,0.3741874098777771,0.7513947486877441,1.226530909538269,-0.5540275573730469
1.1684155662309483,-2.8210193579190586,2.5142869198232907,-0.18954111635684967,0.03200051933526993,7.869394779205322,-0.12340056151151657,-0.920131266117096,0.3716595768928528,0.7005795240402222,1.3078265190124512,-0.6011365652084351
1.137904901351352,-2.6545665355484624,2.332245184119204,-0.011892130598425865,-0.04452662169933319,8.03552532196045,-0.1963246911764145,-0.9077566266059875,0.3707217574119568,0.6691487431526184,1.3810384273529053,-0.6384677886962891
1.094001841934877,-2.5149271267919295,2.1759871667626096,0.19823873043060303,-0.12134896963834763,8.186542510986328,-0.2691403031349182,-0.8884705901145935,0.3717304766178131,0.6344814896583557,1.4542665481567383,-0.6720998287200928
1.0392072921096391,-2.4033837985703066,2.0470093596660686,0.43225768208503723,-0.16983181238174438,8.325472831726074,-0.34112799167633057,-0.8620026707649231,0.3749440610408783,0.5921655297279358,1.5410797595977783,-0.7017874717712402
0.9760321692509788,-2.3168073731786327,1.9423179689397032,0.648025393486023,-0.24031610786914825,8.442144393920898,-0.411495566368103,-0.8282806873321533,0.3802931606769562,0.5345728397369385,1.6253386735916138,-0.701215922832489
0.9066146474618573,-2.2510313862814617,1.8572066281601238,0.8399056196212769,-0.38727548718452454,8.546765327453613,-0.4792165756225586,-0.787421464920044,0.3877102732658386,0.4804524779319763,1.6820746660232544,-0.6759487986564636
0.8326865833957859,-2.202705551988514,1.787343938003549,1.0253561735153198,-0.6350005865097046,8.599145889282227,-0.5429564118385315,-0.7397418022155762,0.3974674642086029,0.4136839509010315,1.7056994438171387,-0.6515873670578003
0.7557122857214126,-2.1690106566021146,1.7296439407577595,1.243367075920105,-0.8436942100524902,8.575310707092285,-0.6013984680175781,-0.6858072280883789,0.40986424684524536,0.3050726652145386,1.7015540599822998,-0.6419656276702881
0.6768775390620098,-2.1464763271188945,1.6819998999132735,1.4985296726226807,-0.8853305578231812,8.463584899902344,-0.653889000415802,-0.6263620257377625,0.4243814945220947,0.16998708248138428,1.6818735599517822,-0.6606638431549072
0.5974974705910268,-2.131649312284363,1.643245717153412,1.7858577966690063,-0.7443479299545288,8.191757202148438,-0.7000901103019714,-0.5625752806663513,0.43975353240966797,0.005418360233306885,1.6574238538742065,-0.6833296418190002
0.5193034903093533,-2.1217110857067696,1.6129287830434553,2.086562395095825,-0.45845547318458557,7.727940082550049,-0.7397168278694153,-0.49627557396888733,0.45445579290390015,-0.21705520153045654,1.621992588043213,-0.6940034627914429
0.44424038627804596,-2.1140126967023014,1.590663716700966,2.32546067237854,-0.05970537289977074,7.079259872436523,-0.7729598879814148,-0.42977210879325867,0.4667209982872009,-0.44105976819992065,1.561623454093933,-0.6624304056167603
0.37413113437756707,-2.106278255657862,1.5753323295968744,2.434051990509033,0.38880956172943115,6.3574910163879395,-0.8005313277244568,-0.36546391248703003,0.47495898604393005,-0.583486795425415,1.4570776224136353,-0.5788103342056274
0.3094703283941614,-2.0963835156814454,1.565059286515237,2.419692039489746,0.9033650755882263,5.762961387634277,-0.8239362239837646,-0.30455416440963745,0.47788673639297485,-0.6213762164115906,1.3503000736236572,-0.4986235499382019
0.24904406183762373,-2.0830377048988216,1.5579590413789026,2.376269578933716,1.3350294828414917,5.387691497802734,-0.8447563052177429,-0.2464776188135147,0.4750107526779175,-0.6098334193229675,1.300173282623291,-0.4315691590309143
0.19173217586806612,-2.067580711560813,1.553294784004204,2.35892915725708,1.507390022277832,5.050774574279785,-0.8630102276802063,-0.19055961072444916,0.4678676128387451,-0.6627007722854614,1.2851488590240479,-0.35414400696754456
0.13742364606580196,-2.0524173728630135,1.5513644801799231,2.3975582122802734,1.4248930215835571,4.681809425354004,-0.8778898119926453,-0.1369915008544922,0.4588492810726166,-0.79429030418396,1.2425365447998047,-0.26152268052101135
0.0863081673811026,-2.039164724608046,1.552428138637012,2.453057289123535,1.236212134361267,4.282052040100098,-0.888984739780426,-0.08620105683803558,0.44975072145462036,-0.905738890171051,1.1858714818954468,-0.15742284059524536
0.038670781233531175,-2.0277755349768163,1.5564759734385143,2.506531238555908,1.107182264328003,3.859952926635742,-0.8967186212539673,-0.03866114467382431,0.4409094452857971,-0.9852699041366577,1.127360463142395,-0.059607625007629395
-0.005698435363536343,-2.016865246621686,1.563135922672255,2.5424532890319824,1.0882173776626587,3.539416551589966,-0.9021352529525757,0.005698404740542173,0.4314153790473938,-1.0092263221740723,1.0811545848846436,0.01733022928237915
-0.04772787110294312,-2.0062236255622024,1.571528871154344,2.539891242980957,0.9713724851608276,3.326866626739502,-0.9056574702262878,0.04770975187420845,0.42131757736206055,-0.9888281226158142,1.062138319015503,0.11379295587539673
-0.0873740448313838,-1.996937714909914,1.5811298677977934,2.486983299255371,0.7381796836853027,3.0406739711761475,-0.9070938229560852,0.08726291358470917,0.41178345680236816,-1.0481061935424805,1.0368520021438599,0.24017873406410217
-0.12336769634859399,-1.9898723726258054,1.591756120460366,2.3707213401794434,0.44452857971191406,2.628225088119507,-0.9065228700637817,0.12305500358343124,0.4038240313529968,-1.1763170957565308,0.9829630851745605,0.3691861629486084
-0.15446098851499152,-1.9847691671388235,1.603222242667843,2.2029869556427,0.28176620602607727,2.115032911300659,-0.9046304225921631,0.15384753048419952,0.3974608778953552,-1.264437198638916,0.9163581728935242,0.4765167832374573
-0.1799037472550363,-1.9797717973232847,1.6154764865187867,2.0350863933563232,0.3317212462425232,1.5695185661315918,-0.9027207493782043,0.17893487215042114,0.3912515342235565,-1.2891738414764404,0.8471423983573914,0.5396872162818909
-0.1997604111444612,-1.9732173385280853,1.628451302682353,1.8623844385147095,0.49219197034835815,1.0799427032470703,-0.9018183350563049,0.198434516787529,0.38385891914367676,-1.243033528327942,0.8025878667831421,0.5804202556610107
-0.2150587415081955,-1.9646485983966144,1.641727408957689,1.7116025686264038,0.6639959812164307,0.7478398680686951,-0.9021652340888977,0.2134048193693161,0.37490853667259216,-1.1441452503204346,0.7946518063545227,0.610122561454773
-0.22730226353668645,-1.9548085015875374,1.6547935824956201,1.5661369562149048,0.6945286393165588,0.5614206790924072,-0.9033203721046448,0.2253500074148178,0.3650068938732147,-1.069854736328125,0.8172678351402283,0.6398606300354004
-0.23743076625131906,-1.9460063421521976,1.6671254037837977,1.3992888927459717,0.4621947705745697,0.42738568782806396,-0.9043277502059937,0.2352062463760376,0.35618680715560913,-1.0764460563659668,0.8605578541755676,0.6923513412475586
-0.24537837696311474,-1.94054287994194,1.6781365388362048,1.1492290496826172,0.09658828377723694,0.2652548849582672,-0.9044889211654663,0.24292337894439697,0.3505542278289795,-1.1548068523406982,0.8991817235946655,0.7734538316726685
-0.25033197325129725,-1.9391245520680087,1.6870165410266422,0.7940698862075806,-0.24215355515480042,0.026591196656227112,-0.9038512706756592,0.24772560596466064,0.3488333821296692,-1.2402527332305908,0.9322823286056519,0.8541542291641235
-0.25131771118003393,-1.9413429401657543,1.6931428437538099,0.3713696002960205,-0.4919537901878357,-0.283221960067749,-0.9028471112251282,0.2486804872751236,0.35074901580810547,-1.2838592529296875,0.9387737512588501,0.9083147048950195
-0.247561481472419,-1.9462265393729228,1.6965005403180615,-0.03578803688287735,-0.6344971060752869,-0.6583138108253479,-0.9019861221313477,0.24504052102565765,0.35549396276474,-1.3063420057296753,0.9220889806747437,0.9154105186462402
-0.23871337438825674,-1.9526470086388674,1.6977910487766525,-0.3770582675933838,-0.700564980506897,-1.0736658573150635,-0.9016621112823486,0.23645268380641937,0.3620716631412506,-1.303324580192566,0.9051336050033569,0.8688852787017822
-0.2250484993526107,-1.9597309372305678,1.697872075888964,-0.6229774951934814,-0.7125356197357178,-1.4515148401260376,-0.9019801020622253,0.22315363585948944,0.3696405291557312,-1.2595646381378174,0.9137328863143921,0.7876622676849365
-0.20728059748263472,-1.9671566699337824,1.6974740951331981,-0.7996506094932556,-0.757394552230835,-1.7850762605667114,-0.902725875377655,0.20579947531223297,0.377799391746521,-1.1829521656036377,0.9301105737686157,0.7152485847473145
-0.18594347225130872,-1.975369497762421,1.6968379328273056,-0.9796054363250732,-0.8628027439117432,-2.078280448913574,-0.9034244418144226,0.1848738193511963,0.3868412375450134,-1.1045864820480347,0.9280412197113037,0.6764521598815918
-0.1612719399640815,-1.9850477189797724,1.6955311772264035,-1.2261229753494263,-1.0211637020111084,-2.325774669647217,-0.9035393595695496,0.16057376563549042,0.39728179574012756,-1.0277047157287598,0.9170324206352234,0.658656895160675
-0.13343716013843765,-1.9964869126265774,1.6927090753477856,-1.554430603981018,-1.1834495067596436,-2.502285957336426,-0.902657687664032,0.13304153084754944,0.4092789590358734,-0.9352177977561951,0.9061583280563354,0.6337202191352844
-0.10282801506222336,-2.0100939218821012,1.6876602127098714,-1.9076749086380005,-1.421641230583191,-2.6156091690063477,-0.9002699851989746,0.10264690220355988,0.42305731773376465,-0.8277420401573181,0.8899831175804138,0.5760424137115479
-0.06980230253003038,-2.0262191374641856,1.6804604086219153,-2.2246289253234863,-1.6598445177078247,-2.697971820831299,-0.8958882689476013,0.06974563002586365,0.43877100944519043,-0.7438822984695435,0.8794578909873962,0.47341465950012207
-0.03466683321078351,-2.044177342330196,1.671638236538455,-2.4780595302581787,-1.817802906036377,-2.7798216342926025,-0.8894971013069153,0.034659888595342636,0.45562413334846497,-0.6756426095962524,0.8946003913879395,0.3432649075984955
0.00267718782786313,-2.0627739291748752,1.661829723246554,-2.7097017765045166,-1.8341823816299438,-2.913106918334961,-0.8813973665237427,-0.0026771845296025276,0.4723682403564453,-0.6058769226074219,0.880255937576294,0.2244700789451599
0.04272826959272254,-2.0797791341527816,1.6514046459385865,-2.94596266746521,-1.5571967363357544,-3.0974836349487305,-0.8724434971809387,-0.042715270072221756,0.48684442043304443,-0.5162893533706665,0.831533670425415,0.13038867712020874
0.08574180425956561,-2.0922872404268635,1.6404490863648153,-3.1716678142547607,-1.0531495809555054,-3.269731044769287,-0.8638920783996582,-0.08563678711652756,0.49634331464767456,-0.394378125667572,0.8126417994499207,0.047144144773483276
0.1309303104815146,-2.0991388419727284,1.628714704324542,-3.3489155769348145,-0.6030476093292236,-3.366819381713867,-0.8562517762184143,-0.13055655360221863,0.4997878670692444,-0.26604747772216797,0.827181339263916,-0.03531038761138916
0.17767076174718005,-2.1028669587017954,1.616251543056771,-3.472660541534424,-0.5703812837600708,-3.416743278503418,-0.8481925129890442,-0.1767374873161316,0.4993325471878052,-0.18574285507202148,0.8263041973114014,-0.09433385729789734
0.22507469209226466,-2.1067799924805373,1.603307461397062,-3.5019190311431885,-0.738706111907959,-3.4356026649475098,-0.8380811214447021,-0.2231791764497757,0.4978061318397522,-0.18221300840377808,0.8041881322860718,-0.17232102155685425
0.27302734837599574,-2.1121602803934727,1.5908695025030632,-3.4624991416931152,-0.9502583146095276,-3.556236982345581,-0.8252620697021484,-0.26964786648750305,0.49621787667274475,-0.2247408628463745,0.7931464910507202,-0.2522452473640442
0.32248550628976785,-2.1192656510063714,1.5800604890989915,-3.408447504043579,-1.0881661176681519,-3.819091796875,-0.8093351721763611,-0.31692492961883545,0.4945046901702881,-0.27727365493774414,0.7980803847312927,-0.30912575125694275
0.3742168262080769,-2.1275040157557483,1.5717621409709208,-3.3236186504364014,-1.096601128578186,-4.146392822265625,-0.7902437448501587,-0.3655436635017395,0.49182599782943726,-0.3065122961997986,0.797260582447052,-0.36588001251220703
0.42827424848392276,-2.135914504499024,1.5667157509518466,-3.18841552734375,-0.9570097327232361,-4.486753940582275,-0.7682509422302246,-0.41530153155326843,0.48714983463287354,-0.2848496437072754,0.7746613025665283,-0.4261453449726105
0.4842667016500377,-2.143861847428047,1.5657583497561038,-2.964362382888794,-0.698334813117981,-4.822730541229248,-0.7436287999153137,-0.4655595123767853,0.479865163564682,-0.22463297843933105,0.7606034278869629,-0.47920918464660645
0.5415154027668169,-2.1513172217825396,1.5697300216156027,-2.677790641784668,-0.39500847458839417,-5.107100963592529,-0.716543972492218,-0.5154351592063904,0.46999067068099976,-0.13231772184371948,0.7596521377563477,-0.5259599685668945
0.5990293889220516,-2.1588385529891734,1.5787860583953703,-2.383685350418091,-0.13590580224990845,-5.276505470275879,-0.6871582269668579,-0.5638411045074463,0.45814481377601624,-0.01982724666595459,0.7536757588386536,-0.5397641658782959
0.6558685014591565,-2.167319317138003,1.5923071748094475,-2.141474962234497,0.02253996953368187,-5.328089714050293,-0.6556458473205566,-0.6098477840423584,0.445212721824646,0.08820194005966187,0.7419125437736511,-0.5149300694465637
0.7114962637994942,-2.1772092206994493,1.609326995672959,-1.976992130279541,0.14808617532253265,-5.294739246368408,-0.6223422288894653,-0.6529677510261536,0.43165209889411926,0.16447162628173828,0.7494947910308838,-0.46850210428237915
0.7657256885364936,-2.188353596284571,1.6287349657296175,-1.902428150177002,0.2265811711549759,-5.193329334259033,-0.587729811668396,-0.6930603384971619,0.41742199659347534,0.210715651512146,0.7546753287315369,-0.4104945659637451
0.8186528258503507,-2.200972809711142,1.6494523134019603,-1.9163976907730103,0.16879776120185852,-5.065676212310791,-0.5519776344299316,-0.7302260994911194,0.40260425209999084,0.2258516550064087,0.7582566142082214,-0.3462842106819153
0.8707263140031621,-2.2167035379128137,1.67091767092704,-1.9816703796386719,-0.11833205074071884,-4.9702677726745605,-0.5144854784011841,-0.7647970914840698,0.3878018260002136,0.20482361316680908,0.7644003629684448,-0.3036649227142334
0.922180713955301,-2.237497818793257,1.69369483948155,-2.0230844020843506,-0.4814290404319763,-4.890492916107178,-0.4747288227081299,-0.7969208359718323,0.3735637664794922,0.16975131630897522,0.7831115126609802,-0.30962952971458435
0.9728412196913302,-2.2646463306779903,1.7190508787125627,-2.0291290283203125,-0.8242438435554504,-4.8194260597229,-0.432792603969574,-0.8264884948730469,0.3600095808506012,0.17174533009529114,0.7811547517776489,-0.33146053552627563
1.0223382719576868,-2.2991791867304587,1.7484398752660433,-1.99557363986969,-1.1268292665481567,-4.729135036468506,-0.38907507061958313,-0.8533294796943665,0.34705865383148193,0.21088284254074097,0.7516753077507019,-0.36536917090415955
1.069979104510623,-2.341676641288433,1.7833531753859175,-1.9231454133987427,-1.2928111553192139,-4.590538024902344,-0.344404935836792,-0.8771904706954956,0.3345473110675812,0.2677905559539795,0.7212762832641602,-0.4223463833332062
1.115093799877208,-2.391560138781969,1.8247783271491178,-1.8445546627044678,-1.3090405464172363,-4.414547920227051,-0.29999491572380066,-0.8979520797729492,0.3220013976097107,0.31407877802848816,0.6918364763259888,-0.47284987568855286
1.1574836340216113,-2.4489275695859276,1.873708777128793,-1.7919578552246094,-1.2673064470291138,-4.2558441162109375,-0.2564868927001953,-0.9157953262329102,0.309084951877594,0.33716005086898804,0.6689691543579102,-0.5070525407791138
1.197361633978306,-2.5149814934479746,1.9321156704517055,-1.7539385557174683,-1.1319774389266968,-4.14832067489624,-0.21392899751663208,-0.9310798048973083,0.2955076992511749,0.3436591625213623,0.6485022902488708,-0.52120041847229
1.2346828180618508,-2.5920193009426398,2.003208268184471,-1.7010712623596191,-0.9296514391899109,-4.079033851623535,-0.17227301001548767,-0.9440436363220215,0.2812536358833313,0.3313916027545929,0.639890193939209,-0.5172766447067261
1.2689874363288047,-2.684025412741889,2.091360847733279,-1.6246819496154785,-0.7257704734802246,-4.05305290222168,-0.13131427764892578,-0.9548003673553467,0.26666995882987976,0.3196382224559784,0.6177794933319092,-0.5014417171478271
1.2995391779911232,-2.7968140576630427,2.202212100534183,-1.5375169515609741,-0.5617201328277588,-4.073657035827637,-0.09056146442890167,-0.9634348154067993,0.2521742582321167,0.3056340515613556,0.5824229121208191,-0.48152926564216614
1.3252149471076025,-2.935238798232645,2.3403091849573734,-1.468411922454834,-0.4054296314716339,-4.079936504364014,-0.04981358349323273,-0.9699961543083191,0.23796267807483673,0.31725433468818665,0.5431772470474243,-0.4585437774658203
1.3445187387841602,-3.099080720707067,2.505767013159336,-1.3807075023651123,-0.17448031902313232,-4.04069185256958,-0.009534758515655994,-0.9745082855224609,0.22414915263652802,0.35905253887176514,0.5075893402099609,-0.443723201751709
1.3557921472948742,3.001770178805576,2.6923806175732725,-1.2527409791946411,0.14442948997020721,-3.9775071144104004,0.02973424643278122,-0.9769755005836487,0.21126948297023773,0.4015248417854309,0.47250473499298096,-0.4506341218948364
1.3580917119969302,2.8164759488321462,2.8855495956651023,-1.080369472503662,0.5499926209449768,-3.89040207862854,0.0674307569861412,-0.9774635434150696,0.2000451385974884,0.4593788981437683,0.4281166195869446,-0.47297918796539307
1.3518803909629467,2.645012967872612,3.0685734651655783,-0.9104560017585754,0.8978890180587769,-3.7561440467834473,0.10346473008394241,-0.9761334657669067,0.190940260887146,0.5335896611213684,0.38538962602615356,-0.46659043431282043
1.3392542535414975,2.5011712749421884,-3.0565001023050233,-0.7679511904716492,1.1420732736587524,-3.5118541717529297,0.13712111115455627,-0.9733136892318726,0.18400602042675018,0.6562443375587463,0.33291757106781006,-0.41868627071380615
1.3232609129955621,2.3891027051813,-2.9288033934602367,-0.6701996326446533,1.2127220630645752,-3.1594109535217285,0.16745756566524506,-0.9695191979408264,0.17885830998420715,0.791252076625824,0.28624600172042847,-0.34281396865844727
1.3063583418362321,2.3037940084417876,-2.8288949734804794,-0.5690852403640747,1.0205347537994385,-2.772083044052124,0.19424042105674744,-0.9652395248413086,0.17488057911396027,0.8707009553909302,0.2544088363647461,-0.27317774295806885
1.2899247920778683,2.2392985880410947,-2.7528496139436642,-0.4353596568107605,0.7265162467956543,-2.363574981689453,0.21752773225307465,-0.9608142375946045,0.17180758714675903,0.9168869256973267,0.21028012037277222,-0.2239469289779663
1.274769351404033,2.1911931052537894,-2.6965522241623034,-0.30159902572631836,0.4469093084335327,-1.9721879959106445,0.2373594343662262,-0.9565030336380005,0.16959525644779205,0.9543519616127014,0.1554471254348755,-0.19016408920288086
1.2614736488159546,2.1561384594916055,-2.6561019285944716,-0.17739930748939514,0.2790931463241577,-1.575775384902954,0.25373610854148865,-0.9525399804115295,0.1681840568780899,0.9646629095077515,0.10334241390228271,-0.16531537473201752
1.250595877625252,2.131961942167357,-2.6283029200604373,-0.09477616101503372,0.16590841114521027,-1.1819261312484741,0.26648473739624023,-0.94917231798172,0.16750550270080566,0.9544320106506348,0.06538307666778564,-0.13938350975513458
1.2425761529714863,2.115083131924911,-2.609702257271216,-0.08082252740859985,-0.02594704180955887,-0.7992432713508606,0.2757764756679535,-0.946617603302002,0.16691972315311432,0.9320329427719116,0.035362839698791504,-0.09936918318271637
1.2380762380757604,2.1022345285311013,-2.5976302215363334,-0.13702292740345,-0.2603831887245178,-0.3709770739078522,0.2815682291984558,-0.9451574087142944,0.16552004218101501,0.9234793782234192,-0.0030847787857055664,-0.0482257604598999
1.237609375653219,2.0920493520409082,-2.5904985805685055,-0.2227727174758911,-0.4112304747104645,0.04982981085777283,0.28362178802490234,-0.9450048208236694,0.16286323964595795,0.9099053740501404,-0.03468567132949829,-0.022284045815467834
1.2410762058768392,2.084146216857082,-2.58676985205341,-0.33139845728874207,-0.44642916321754456,0.4231160283088684,0.282044380903244,-0.946133017539978,0.1590067446231842,0.8686361312866211,-0.0389590859413147,-0.01677967607975006
1.248007279475641,2.0785044395775283,-2.5854816691768097,-0.40926501154899597,-0.43210187554359436,0.7248966693878174,0.2771998941898346,-0.9483543634414673,0.15422116219997406,0.8286502361297607,-0.02804023027420044,-0.015854492783546448
1.2575666789632975,2.0762914677416333,-2.587585586099433,-0.3867741823196411,-0.40650397539138794,0.9897161722183228,0.2695958912372589,-0.9513433575630188,0.14921031892299652,0.8217431306838989,-0.013286709785461426,-0.04505385458469391
1.2691178815200135,2.080703778841699,-2.5960119477282135,-0.2869495749473572,-0.298453688621521,1.2548344135284424,0.25932562351226807,-0.9548391103744507,0.14502453804016113,0.8071415424346924,-0.01432269811630249,-0.06996670365333557
1.2823799119405366,2.093566161186383,-2.61170783542849,-0.23867610096931458,-0.13381722569465637,1.4790966510772705,0.24644461274147034,-0.9586955308914185,0.1420126110315323,0.72943115234375,-0.020918548107147217,-0.04359355568885803
1.2971761646016828,2.1124765902527556,-2.6320015195996382,-0.3050772547721863,0.019003737717866898,1.6179461479187012,0.23153582215309143,-0.9627989530563354,0.1393187940120697,0.6288310289382935,-0.0194094181060791,0.022683754563331604
1.3138054589881787,2.1334487313019492,-2.652853691295061,-0.5248350501060486,0.11866255104541779,1.7850947380065918,0.2149893194437027,-0.9671592116355896,0.13558316230773926,0.5524209141731262,-0.0012093782424926758,0.11527132987976074
1.3330753340663732,2.1534675661911122,-2.672156085534602,-0.7547297477722168,0.12947791814804077,1.9412214756011963,0.1966320276260376,-0.9718771576881409,0.12957914173603058,0.5010608434677124,-0.03588956594467163,0.17236173152923584
1.354155555214554,2.1720363211137603,-2.690222416882499,-0.9057532548904419,0.055632974952459335,1.9902602434158325,0.17725563049316406,-0.9766250252723694,0.12159004807472229,0.40874290466308594,-0.06355148553848267,0.15105392038822174
1.3761064664751028,2.189656465107218,-2.70801329565301,-1.000902771949768,-0.012458196841180325,2.0112829208374023,0.15758277475833893,-0.9811077117919922,0.11222881823778152,0.3310341238975525,-0.04628175497055054,0.1055598184466362
1.398536900028138,2.209048235023102,-2.728148431804277,-1.0259939432144165,-0.07015460729598999,2.031202554702759,0.1376647651195526,-0.9851999878883362,0.10212388634681702,0.2706450819969177,-0.016890406608581543,0.04150699824094772
1.420870124620174,2.2346925163092943,-2.7551524937041605,-0.9773872494697571,-0.12944748997688293,2.0285086631774902,0.11763986945152283,-0.9887821078300476,0.09203753620386124,0.19820177555084229,-0.0012081265449523926,-0.03484761714935303
1.4424399718135956,2.2717632691780403,-2.794032315147649,-0.9000684022903442,-0.15469031035900116,1.9846456050872803,0.0978231206536293,-0.9917736053466797,0.08255711197853088,0.13955780863761902,0.0001965165138244629,-0.08765364438295364
1.4628911677890435,2.3259103992275376,-2.8499039531898323,-0.8355615735054016,-0.10151070356369019,1.9302254915237427,0.07842335850000381,-0.9941838979721069,0.07381165027618408,0.1122961938381195,0.0009893178939819336,-0.10303235054016113
1.4819448381735085,2.406296998279792,-2.9309385035499615,-0.7651093602180481,0.05972306802868843,1.85446298122406,0.05952419340610504,-0.9960553050041199,0.06580895930528641,0.09057649970054626,0.017936408519744873,-0.09029936790466309
1.4989805732701635,2.5264550615790577,-3.0499526587585586,-0.6928330659866333,0.2335507869720459,1.7415460348129272,0.041407011449337006,-0.9974223375320435,0.05860087275505066,0.05226665362715721,0.014222323894500732,-0.07639265060424805
1.513108515191328,2.7000824937497865,3.0620928213446623,-0.6205343008041382,0.33008477091789246,1.5724800825119019,0.02463666908442974,-0.9983364939689636,0.05212712287902832,0.006536988541483879,0.0034329891204833984,-0.06517350673675537
1.5235068616463734,2.9335523326473862,2.8319749400951832,-0.5753822922706604,0.3972310423851013,1.3529088497161865,0.009764077141880989,-0.9988820552825928,0.046254511922597885,-0.040632665157318115,0.015102028846740723,-0.037328239530324936
1.5302409152977212,-3.072000014586541,2.55839810060795,-0.594809353351593,0.4677635729312897,1.119835376739502,-0.0028194054029881954,-0.9991777539253235,0.04044755920767784,-0.08830612897872925,0.034440815448760986,-0.0017360448837280273
1.5343858703783526,-2.772017269066595,2.2632749335748867,-0.7076733708381653,0.5366648435592651,0.9067912697792053,-0.013147873803973198,-0.9993371963500977,0.03394096717238426,-0.09970614314079285,0.04247397184371948,0.029840700328350067
1.537076386463342,-2.446890734482605,1.9434948409233552,-0.8747507333755493,0.5617172718048096,0.7498670816421509,-0.021580347791314125,-0.9994315505027771,0.02589833177626133,-0.08459034562110901,0.05103689432144165,0.047679539769887924
1.5379035314808318,-2.088842086152141,1.5910112230493931,-1.0076518058776855,0.5817328095436096,0.6211408376693726,-0.028569940477609634,-0.9994590878486633,0.016284003853797913,-0.08832767605781555,0.052071452140808105,0.03431415557861328
1.5360673994693388,-1.7432143196680756,1.2504168506374953,-0.996208667755127,0.42826151847839355,0.49697649478912354,-0.034203533083200455,-0.9993970394134521,0.005956446286290884,-0.11194518208503723,0.0469740629196167,0.0013524284586310387
1.5318204402185522,-1.4976963104678418,1.0070475378248611,-0.7101700305938721,0.016381287947297096,0.4414365589618683,-0.038864582777023315,-0.999240517616272,-0.002846072893589735,-0.08717304468154907,0.04950296878814697,-0.06177496910095215
1.5267647913238733,-1.388679740489212,0.8965169275857551,-0.33177196979522705,-0.2635613679885864,0.444125235080719,-0.04328881949186325,-0.9990307688713074,-0.007971941493451595,-0.04310646280646324,0.04708075523376465,-0.1494225263595581
1.5220804278561795,-1.3703126720891454,0.8754109731607195,-0.05585888773202896,-0.24737975001335144,0.42714786529541016,-0.04772087186574936,-0.9988136291503906,-0.009697530418634415,-0.02855783700942993,0.027484893798828125,-0.16959333419799805
1.518105416238788,-1.3924260728194318,0.8959685207975356,0.10097327083349228,-0.05456073209643364,0.388933390378952,-0.051829759031534195,-0.9986121654510498,-0.009344195947051048,-0.023853864520788193,0.00697404146194458,-0.12255281209945679
1.5146599825122968,-1.4300026164133575,0.9341028792420306,0.19919224083423615,0.14591990411281586,0.35231971740722656,-0.05555160716176033,-0.998424768447876,-0.007873410359025002,-0.01315876841545105,0.0075495243072509766,-0.07637041807174683
1.5115788171435587,-1.476209831774351,0.9824833131822593,0.27879056334495544,0.26160943508148193,0.32189205288887024,-0.05892059952020645,-0.9982471466064453,-0.0055897724814713,-0.00579196959733963,0.010637164115905762,-0.04613757133483887
1.5087035875053005,-1.5271793465349255,1.036440735282533,0.32448428869247437,0.3042389154434204,0.2912835478782654,-0.061991408467292786,-0.9980728626251221,-0.002705593826249242,-0.0146077461540699,0.013530194759368896,-0.017619192600250244
1.5059841949894726,-1.5773812706518953,1.089637991704244,0.33423012495040894,0.2622046172618866,0.262250691652298,-0.06476766616106033,-0.9979004263877869,0.0004264976305421442,-0.026266351342201233,0.014868021011352539,0.004837751388549805
1.5033178665292706,-1.6235585459436639,1.1383213105199492,0.3170444965362549,0.22383221983909607,0.25605884194374084,-0.06733421981334686,-0.997724175453186,0.0035560033284127712,-0.021380431950092316,0.01290661096572876,0.018767595291137695
1.5003731760532242,-1.6618668989410696,1.1786623646846857,0.27892422676086426,0.1553962677717209,0.29173848032951355,-0.07007385045289993,-0.9975213408470154,0.006399367470294237,0.0009514987468719482,0.011772990226745605,0.03025221824645996
1.4969251552038343,-1.6935225415052124,1.2112649815670675,0.2601255178451538,0.01164230052381754,0.3406815230846405,-0.0732487291097641,-0.997272789478302,0.009034945629537106,0.012915432453155518,0.007648766040802002,0.02761662006378174
1.4928845018532428,-1.7207598990453876,1.2378028997495873,0.2452477216720581,-0.1670953929424286,0.40614381432533264,-0.07695960998535156,-0.9969664216041565,0.011628439649939537,0.01859471946954727,0.009020864963531494,0.01904165744781494
1.4881238838248154,-1.7430092028448463,1.2576309533923713,0.21912796795368195,-0.3299841582775116,0.480087548494339,-0.08135733008384705,-0.9965845942497253,0.014150949195027351,0.02964523434638977,0.014101684093475342,0.01352846622467041
1.482709790153495,-1.7601732871023112,1.2708997379191782,0.19703280925750732,-0.44449204206466675,0.5323655605316162,-0.08639790117740631,-0.9961228966712952,0.01656021550297737,0.030291303992271423,0.017836332321166992,0.012706037610769272
1.477060553928948,-1.773417607539891,1.2795218316836547,0.1779259741306305,-0.47057050466537476,0.5361621379852295,-0.0916832908987999,-0.9956099987030029,0.018835460767149925,-0.0003425106406211853,0.01698768138885498,0.01227712444961071
1.4715962015041262,-1.7842756526132597,1.2861616553304864,0.17354433238506317,-0.3612229824066162,0.4978201985359192,-0.09678814560174942,-0.9950836896896362,0.020981980487704277,-0.03970174491405487,0.008008003234863281,0.002058742567896843
1.4666644100009583,-1.794004827223556,1.2932372842452369,0.18124911189079285,-0.16969165205955505,0.42834579944610596,-0.10136571526527405,-0.9945831894874573,0.023009084165096283,-0.07113492488861084,-0.0031585693359375,-0.007323145866394043
1.4623838493266768,-1.805150420360618,1.3036452896703268,0.2278221845626831,0.009882292710244656,0.35028836131095886,-0.10524226725101471,-0.9941291213035583,0.02512563019990921,-0.08888009190559387,-0.004833221435546875,-0.019373178482055664
1.4586801664301283,-1.819548326566132,1.3190098956557599,0.2756805419921875,0.16109125316143036,0.2884971797466278,-0.1084374412894249,-0.9937215447425842,0.027544517070055008,-0.0827246829867363,0.004448533058166504,-0.026659490540623665
1.455352561145773,-1.8359006152490647,1.3376359029075373,0.30076324939727783,0.2594282329082489,0.24864204227924347,-0.11116267740726471,-0.9933437705039978,0.030180059373378754,-0.06802131235599518,0.0069242119789123535,-0.022871140390634537
1.452264497925501,-1.8529610183485516,1.357599318294309,0.3070158064365387,0.2876737117767334,0.21690939366817474,-0.11357859522104263,-0.992983341217041,0.032926373183727264,-0.059669747948646545,0.009462714195251465,-0.012113448232412338
1.4495455344924488,-1.8693637444553741,1.3771911515774748,0.2904963195323944,0.31995320320129395,0.16621294617652893,-0.11560266464948654,-0.9926581382751465,0.03557871654629707,-0.07024943083524704,0.00860363245010376,0.007176395505666733
1.4473045714858406,-1.8830310697944272,1.3943448679899808,0.2397998720407486,0.3465419411659241,0.13838398456573486,-0.11722251027822495,-0.9923845529556274,0.0378386415541172,-0.08152323961257935,0.010176301002502441,0.02853703498840332
1.4452807866255803,-1.8919405701035499,1.4067480005107373,0.1779085248708725,0.32089701294898987,0.14762955904006958,-0.11878488957881927,-0.9921332597732544,0.03951495885848999,-0.06201649457216263,0.005408585071563721,0.04747533053159714
1.4432645154471655,-1.8958181463369275,1.413586123327614,0.11026504635810852,0.25729116797447205,0.1802748441696167,-0.12052680552005768,-0.9918788075447083,0.04061416536569595,-0.04295586794614792,0.006100118160247803,0.06056677922606468
1.4411748327940077,-1.8940816633710027,1.414128152801284,0.03476092591881752,0.1948087215423584,0.2079482227563858,-0.12256255745887756,-0.9916108846664429,0.041063301265239716,-0.047176264226436615,0.0059389472007751465,0.06533622741699219
1.4391229416843916,-1.8884863029204035,1.4100162640634548,-0.0024120076559484005,0.10535259544849396,0.21229024231433868,-0.12472303956747055,-0.9913435578346252,0.04101238399744034,-0.06962817907333374,0.0023452043533325195,0.04439091682434082
1.4370887545728346,-1.8836048079978647,1.405795802297961,0.028557147830724716,0.03659721463918686,0.20434705913066864,-0.12684021890163422,-0.9910744428634644,0.04102354869246483,-0.08196108043193817,-0.0014334321022033691,-0.0007861889898777008
1.4349656913521232,-1.8839162878369382,1.4063544842375317,0.11691364645957947,0.020804407075047493,0.19064456224441528,-0.12882865965366364,-0.9907891750335693,0.0417109914124012,-0.07695139944553375,-0.005945324897766113,-0.044884923845529556
1.4326840071713955,-1.8910031754687022,1.4138411474435015,0.2156946212053299,0.04454788193106651,0.17883317172527313,-0.13067542016506195,-0.9904776215553284,0.04333445057272911,-0.07757657766342163,-0.013321757316589355,-0.0622706413269043
1.4302074807951757,-1.9035400741042068,1.4270312026354792,0.2806723117828369,0.05933268368244171,0.1699744313955307,-0.1324390321969986,-0.9901336431503296,0.045770056545734406,-0.0696178674697876,-0.011926114559173584,-0.046441562473773956
1.4276619482713238,-1.9183323582472651,1.4425769020930224,0.2946804463863373,0.05741248279809952,0.16631698608398438,-0.13411831855773926,-0.9897737503051758,0.04858284816145897,-0.06645852327346802,0.004101753234863281,-0.010405421257019043
1.425165557543411,-1.9315472473631907,1.4564510188127582,0.22850729525089264,0.045616280287504196,0.15970222651958466,-0.13577553629875183,-0.9894145727157593,0.05122273415327072,-0.07288843393325806,0.013492941856384277,0.033890724182128906
1.4232067329762628,-1.9366416498449874,1.4620361732707041,0.06282258778810501,0.04087163507938385,0.1423700600862503,-0.13732197880744934,-0.9891284108161926,0.05260683223605156,-0.08293865621089935,0.021385610103607178,0.15958189964294434
1.4221361182271446,-1.9325455941165617,1.458094910163288,-0.08815494179725647,-0.009540141560137272,0.09687687456607819,-0.13852661848068237,-0.9889703989028931,0.052418649196624756,-0.11573056876659393,0.009661436080932617,0.14376354217529297
1.4218023907116957,-1.924160977702656,1.4490654935558984,-0.12456727772951126,-0.10260084271430969,0.05410677567124367,-0.1392705738544464,-0.9889209270477295,0.05136941745877266,-0.1355554461479187,0.005858361721038818,0.10387348383665085
1.4219523615697043,-1.9189595866550249,1.4424154167009988,-0.05724816024303436,-0.16482986509799957,-0.01466057077050209,-0.13939760625362396,-0.9889431595802307,0.05059413984417915,-0.14162355661392212,0.019628584384918213,0.0037423372268676758
1.422382262138011,-1.9223253756501677,1.4442246917726307,0.0811808779835701,-0.13838762044906616,-0.08421638607978821,-0.1388264000415802,-0.9890068173408508,0.05091628059744835,-0.138120636343956,0.02312558889389038,-0.08801054954528809
1.422870232727298,-1.9357552010719026,1.4568492781167002,0.23786531388759613,-0.04373035579919815,-0.13746389746665955,-0.13768063485622406,-0.9890788793563843,0.0526043176651001,-0.11187689006328583,0.025730371475219727,-0.13141608238220215
1.4231415140007382,-1.9583598658817676,1.4799040246892983,0.37037867307662964,0.08185923844575882,-0.16568772494792938,-0.13620774447917938,-0.9891188144683838,0.05560130998492241,-0.07753738760948181,0.014845132827758789,-0.12409806251525879
1.4230215658206962,-1.9875147535218702,1.510740849995873,0.46385109424591064,0.18469880521297455,-0.1705314815044403,-0.13463781774044037,-0.9891011714935303,0.05959638953208923,-0.04520229995250702,0.009395241737365723,-0.09304379671812057
1.42257328732475,-2.0185878272972952,1.5445540434211122,0.46617746353149414,0.28501269221305847,-0.16699467599391937,-0.13312062621116638,-0.9890350699424744,0.06394238024950027,-0.033673226833343506,0.012564122676849365,-0.03197526931762695
1.422118203482306,-2.046535787513368,1.5757416556403863,0.3884086310863495,0.26897674798965454,-0.15964701771736145,-0.13168121874332428,-0.988967776298523,0.06784315407276154,-0.02853606641292572,0.011703431606292725,0.045529596507549286
1.4218043102348625,-2.0687843332937286,1.600416420098998,0.2805642783641815,0.16209089756011963,-0.1251450777053833,-0.1304122358560562,-0.9889212250709534,0.0709042102098465,-0.008564844727516174,0.0075064897537231445,0.09926175326108932
1.4216611889511543,-2.0836554206639515,1.616712741632507,0.1519186794757843,0.09412036836147308,-0.0857984647154808,-0.12946726381778717,-0.9888999462127686,0.07290539890527725,0.006038874387741089,0.0026786327362060547,0.13488876819610596
1.4219133996985462,-2.0886528885216635,1.6226611821952799,-0.025809872895479202,0.08354295045137405,-0.05083145201206207,-0.12888412177562714,-0.9889373779296875,0.07342775911092758,-0.0008155852556228638,-0.005508363246917725,0.15635430812835693
1.422793467445388,-2.0839917253033957,1.618419953720046,-0.16425484418869019,-0.005820750258862972,-0.04276873171329498,-0.12846703827381134,-0.989067554473877,0.0723990648984909,-0.012615740299224854,-0.006995677947998047,0.15030288696289062
1.424145219729354,-2.073072361704888,1.6068579221925736,-0.258090078830719,-0.08180175721645355,-0.03273652121424675,-0.12807780504226685,-0.9892659783363342,0.07034820318222046,-0.011433333158493042,-0.0007394552230834961,0.11525964736938477
1.4258124282435494,-2.058277051518219,1.5911680968968434,-0.2897236943244934,-0.05921469256281853,-0.049010567367076874,-0.12764732539653778,-0.9895082116127014,0.06767305731773376,-0.0238267183303833,0.0020357370376586914,0.06484949588775635
1.4275571982041892,-2.0432624983004946,1.5754949151840294,-0.25915423035621643,-0.047276560217142105,-0.05057721212506294,-0.12711109220981598,-0.9897587895393372,0.0649629607796669,-0.018885046243667603,0.006299376487731934,0.0034116506576538086
1.4288689793648155,-2.0319135447126975,1.5634120251078059,-0.15769420564174652,-0.0755569338798523,-0.03058459609746933,-0.1266772300004959,-0.9899452328681946,0.06293844431638718,0.007765486836433411,0.011689066886901855,-0.05062473565340042
1.4294356174681713,-2.027446520619113,1.558053383551746,-0.02651694416999817,-0.08740615844726562,-0.005070620682090521,-0.12645286321640015,-0.9900252223014832,0.06212421506643295,0.01446862518787384,0.01070106029510498,-0.08894921094179153
1.4292350383733654,-2.0304478750909576,1.560159119632641,0.09293621778488159,-0.09732483327388763,0.011903036385774612,-0.12644468247890472,-0.9899969100952148,0.06259199231863022,0.0010784715414047241,0.01596742868423462,-0.0966038778424263
1.4284735502247914,-2.0392523753742995,1.5680271077127934,0.1691184937953949,-0.1046619862318039,0.019296083599328995,-0.1265619546175003,-0.9898892045021057,0.06404352933168411,-0.014520838856697083,0.020971298217773438,-0.07373284548521042
1.4274680842152367,-2.0514149454194053,1.5791922779369816,0.1977919489145279,-0.11327065527439117,0.011038953438401222,-0.12665560841560364,-0.98974609375,0.06603790074586868,-0.038490280508995056,0.026290953159332275,-0.03271270543336868
1.4265547536530714,-2.064517453496349,1.5913785717154347,0.1909785270690918,-0.08790405094623566,-0.013837634585797787,-0.1265745609998703,-0.9896152019500732,0.068119578063488,-0.05317401885986328,0.025382041931152344,0.008693084120750427
1.425918759199518,-2.0766154048344525,1.6029523665320986,0.15962885320186615,-0.03934210538864136,-0.031669363379478455,-0.12629245221614838,-0.9895235896110535,0.06995116919279099,-0.053364574909210205,0.020987272262573242,0.04317736625671387
1.4255784459617808,-2.0862071668650466,1.6124887279475013,0.11339255422353745,0.009309445507824421,-0.04460275545716286,-0.12590789794921875,-0.9894744157791138,0.07132482528686523,-0.04575347900390625,0.016665756702423096,0.06952892243862152
1.4256021996219088,-2.092305814393836,1.6190743263207164,0.057496797293424606,0.07142261415719986,-0.05448494851589203,-0.1254512369632721,-0.989477813243866,0.07208025455474854,-0.04189196228981018,0.006262540817260742,0.08487164974212646
1.4259884936238088,-2.095116862203713,1.6228754241531087,0.006995981093496084,0.11179866641759872,-0.06623750180006027,-0.12491769343614578,-0.9895336627960205,0.07224152982234955,-0.0453856885433197,0.005265474319458008,0.08501553535461426
1.4267048552036778,-2.094908257725214,1.6238201049033851,-0.043474115431308746,0.10648592561483383,-0.07249806076288223,-0.12431775033473969,-0.9896367788314819,0.07185997068881989,-0.04487169533967972,0.00898510217666626,0.07412074506282806
1.4276781961164362,-2.0923777740607314,1.622174076526275,-0.08132656663656235,0.07122278213500977,-0.0745755061507225,-0.12366437911987305,-0.989776074886322,0.07106541842222214,-0.043907664716243744,0.010787487030029297,0.05503319948911667
1.428800085066291,-2.089319296546126,1.6196907876844013,-0.08296334743499756,0.04682397097349167,-0.09093423932790756,-0.12291735410690308,-0.9899354577064514,0.0701369196176529,-0.049537479877471924,0.015356600284576416,0.02741241455078125
1.429977502208091,-2.0877476439954687,1.6184331876472324,-0.06391408294439316,0.021401360630989075,-0.1043497696518898,-0.1220131516456604,-0.9901013970375061,0.06936700642108917,-0.04903792589902878,0.018910109996795654,0.00013672560453414917
1.431069768391697,-2.0879489510060005,1.6188028078123826,-0.04439551755785942,0.011257116682827473,-0.09574935585260391,-0.12105946987867355,-0.9902541041374207,0.06885706633329391,-0.03323742747306824,0.01407313346862793,-0.013208389282226562
1.4319627137170814,-2.088879672947768,1.6198328678926706,-0.030402593314647675,0.001858329400420189,-0.07720675319433212,-0.12022744864225388,-0.9903780817985535,0.06853200495243073,-0.012218832969665527,0.010504424571990967,-0.010182380676269531
1.4326155005119603,-2.08985454941973,1.620777418224277,-0.024730592966079712,-0.006598271895200014,-0.057670071721076965,-0.11959876865148544,-0.9904682040214539,0.06832820922136307,0.0008700862526893616,0.014943361282348633,-0.007018454372882843
