attitudeX,attitudeY,attitudeZ,gyroX,gyroY,gyroZ,gravityX,gravityY,gravityZ,accX,accY,accZ
0.9894672231502832,0.7615856976918767,-1.8206143199068288,0.5523717403411865,0.1744728684425354,0.23401018977165222,0.3789415955543518,-0.8357335329055786,-0.39743247628211975,-0.13249698281288147,0.02498835325241089,-0.31348976492881775
0.9959313095738328,0.7647235258169047,-1.8250203531786808,0.7081741094589233,-0.3324872851371765,0.3276943564414978,0.37643882632255554,-0.8392657041549683,-0.3923352062702179,-0.039082348346710205,0.02055537700653076,-0.1989886462688446
1.0042238749509067,0.7614221586523551,-1.8295213127477583,0.811425507068634,-1.0866563320159912,0.4562793970108032,0.37032684683799744,-0.8437456488609314,-0.3885245621204376,0.03705224394798279,0.0023760199546813965,-0.036371707916259766
1.0135899359613976,0.7501685838318524,-1.8330608407561462,0.7870082855224609,-1.7228999137878418,0.5518996715545654,0.3605274558067322,-0.8487357497215271,-0.38686880469322205,0.08136701583862305,-0.022281646728515625,0.10717520117759705
1.0229633934402773,0.7312763248138349,-1.8334665611028145,0.6084870100021362,-2.070286989212036,0.6850526332855225,0.34782639145851135,-0.853655219078064,-0.3876718282699585,0.10662603378295898,-0.06332165002822876,0.1868203580379486
1.0316126663311813,0.7059664716568925,-1.8285553674851236,0.35255002975463867,-2.1002092361450195,0.8318039774894714,0.3331015110015869,-0.8581281304359436,-0.3907168507575989,0.09586876630783081,-0.07833433151245117,0.1988985538482666
1.0389351728267806,0.6766328168015022,-1.8180196897723384,0.09450747817754745,-1.9271602630615234,0.9124996066093445,0.31755542755126953,-0.8618646860122681,-0.3954084515571594,0.03156560659408569,-0.050794005393981934,0.15348035097122192
1.0445717521965767,0.6463076897734729,-1.8037471070870466,-0.076327383518219,-1.6611113548278809,0.9041373133659363,0.3024899363517761,-0.8647094964981079,-0.4009704887866974,-0.0508878231048584,-0.02216184139251709,0.08123779296875
1.0488173355055865,0.6173418885099133,-1.7883400255225126,-0.13612434267997742,-1.465653657913208,0.8311489820480347,0.28862252831459045,-0.8668341636657715,-0.40656572580337524,-0.10278579592704773,-0.034777164459228516,-0.011998116970062256
1.0522557826648673,0.5907602595963655,-1.7741807396700568,-0.0833122581243515,-1.3950984477996826,0.7098345160484314,0.2760528028011322,-0.8685434460639954,-0.4116152822971344,-0.14310306310653687,-0.05882471799850464,-0.0765591561794281
1.055527483355382,0.5674095458115243,-1.763064534666376,0.03684193268418312,-1.3256899118423462,0.5601105093955994,0.26483818888664246,-0.8701602816581726,-0.4155498445034027,-0.18349364399909973,-0.06073254346847534,-0.1035846471786499
1.058979824050649,0.5477580916566247,-1.7557469473334606,0.17012354731559753,-1.354466438293457,0.41355517506599426,0.2550554573535919,-0.8718562722206116,-0.41810670495033264,-0.21936523914337158,-0.05508458614349365,-0.09382566809654236
1.062886673945261,0.5296963530896563,-1.7525956919668806,0.3485727310180664,-1.7439147233963013,0.24480780959129333,0.2457396388053894,-0.8737630844116211,-0.4197024405002594,-0.22971796989440918,-0.054215431213378906,-0.03497898578643799
1.0674643718919743,0.5108447968923655,-1.7548844904645942,0.5512169003486633,-2.460162878036499,0.00439120689406991,0.235826313495636,-0.8759802579879761,-0.4207665026187897,-0.22335995733737946,-0.08677297830581665,0.04424062371253967
1.0724930666178387,0.4890978526627566,-1.7638815440764088,0.7391554713249207,-3.467454671859741,-0.2753172218799591,0.22454848885536194,-0.8783947825431824,-0.42190131545066833,-0.20024126768112183,-0.14083141088485718,0.11655759811401367
1.0780359944471802,0.4619060869215725,-1.7787887004219705,0.8803690671920776,-4.569094181060791,-0.4544004201889038,0.21082153916358948,-0.8810304403305054,-0.42348524928092957,-0.16373297572135925,-0.2021452784538269,0.16587108373641968
1.0841634517738172,0.4260189925683439,-1.7956474420616828,0.8751168251037598,-5.534389972686768,-0.4028550386428833,0.19325675070285797,-0.8839125037193298,-0.42585253715515137,-0.09891171753406525,-0.2019791603088379,0.22547414898872375
1.0905710970609934,0.37420067846461336,-1.8053687924812087,0.6353865265846252,-6.481861114501953,0.10321269184350967,0.16886655986309052,-0.8868908882141113,-0.4300101101398468,0.08490230143070221,-0.04227781295776367,0.2946341633796692
1.096207016444538,0.30437217205382944,-1.8024079951801715,0.3461896479129791,-6.809437274932861,0.4985674023628235,0.1369522362947464,-0.889480471611023,-0.4359685182571411,0.2561904191970825,-0.014862120151519775,0.2968999445438385
1.1002977642888878,0.2268376896529032,-1.7915988716187399,0.1951175481081009,-6.729804992675781,0.639147937297821,0.10195288062095642,-0.8913424015045166,-0.4417175054550171,0.2104555070400238,-0.2931821346282959,0.15651553869247437
1.1026836523720964,0.1478138319506969,-1.778085744262548,0.03660516440868378,-6.599856853485107,0.6315085887908936,0.06645140796899796,-0.8924214243888855,-0.44628259539604187,0.08786065876483917,-0.3351480960845947,0.07692837715148926
1.102520237046613,0.07119586287542819,-1.7647464991258566,-0.2154071033000946,-6.276850700378418,0.5528079271316528,0.03210701793432236,-0.8923476934432983,-0.4502052366733551,-0.06709547340869904,-0.24833834171295166,0.03316730260848999
1.098614483724739,0.000920159988514348,-1.7536955756778394,-0.6230218410491943,-5.739770889282227,0.41569262742996216,0.00041851657442748547,-0.890578031539917,-0.4548301100730896,-0.19072619080543518,-0.17302048206329346,0.021556854248046875
1.0894972227774375,-0.058602816528734676,-1.7472935446806404,-1.1847336292266846,-4.975688457489014,0.22011780738830566,-0.0271135363727808,-0.8863942623138428,-0.46213632822036743,-0.26768630743026733,-0.15013527870178223,-0.03468978404998779
1.074728529415263,-0.10426254315207566,-1.748019459397782,-1.748756766319275,-4.282869815826416,-0.05169219896197319,-0.0495360791683197,-0.8794609904289246,-0.4733862280845642,-0.3276459872722626,-0.16953492164611816,-0.16557550430297852
1.0551975076149336,-0.13819261510001965,-1.7565678470167059,-2.180551052093506,-4.038083553314209,-0.25833860039711,-0.06792002171278,-0.8699976205825806,-0.4883553981781006,-0.3122680187225342,-0.15154772996902466,-0.3386251628398895
1.0328910038102226,-0.1681171598329416,-1.769917587418407,-2.395051956176758,-4.266903400421143,-0.39565309882164,-0.08572767674922943,-0.8587837219238281,-0.5051150321960449,-0.14767080545425415,-0.0681113600730896,-0.6077389717102051
1.0103801421199323,-0.19789171466564856,-1.787130107416949,-2.31339168548584,-4.596186637878418,-0.5513784885406494,-0.10450190305709839,-0.8470339775085449,-0.5211647748947144,-0.2564142942428589,0.0038180947303771973,-0.8958883881568909
0.9899873892424239,-0.2285880386390558,-1.807495121938974,-2.132253408432007,-4.947518348693848,-0.7412377595901489,-0.12433689832687378,-0.8360190391540527,-0.534427285194397,-0.368216872215271,0.07697057723999023,-1.1816219091415405
0.9720744446079684,-0.25979462830227645,-1.8313445202657894,-1.9491981267929077,-5.152082920074463,-0.9663441181182861,-0.14477546513080597,-0.8260565996170044,-0.544674813747406,-0.4081878364086151,0.1337195634841919,-1.3802518844604492
0.9579923381002626,-0.287554277289648,-1.8586721156129289,-1.5702799558639526,-4.805140495300293,-1.279870629310608,-0.16312085092067719,-0.8180384635925293,-0.5515475273132324,-0.4975084662437439,0.11917072534561157,-1.57731294631958
0.9497051676386711,-0.307039675956851,-1.8899460296739856,-1.049254059791565,-4.122027397155762,-1.6971189975738525,-0.17587925493717194,-0.8132439851760864,-0.5547077655792236,-0.6183102130889893,0.12730032205581665,-1.7502391338348389
0.9484733173883176,-0.31501545585406066,-1.925072652781609,-0.4287251830101013,-3.124281167984009,-2.098083734512329,-0.18060806393623352,-0.812526524066925,-0.5542393922805786,-0.7423045635223389,0.20275485515594482,-1.8370110988616943
0.9544376286484576,-0.3101032828805284,-1.9622821351726276,0.23494228720664978,-1.9208829402923584,-2.346853733062744,-0.17640139162540436,-0.8159887790679932,-0.5504950284957886,-0.8231256008148193,0.33851081132888794,-1.8266868591308594
0.9672938600061505,-0.2926596861102672,-1.9994547472156412,0.9600644707679749,-0.6738454103469849,-2.4569692611694336,-0.16373226046562195,-0.8233529329299927,-0.5433984398841858,-0.8724005818367004,0.4862861633300781,-1.770169734954834
0.9872871678856484,-0.26399979662162504,-2.0353453891056263,1.7796562910079956,0.4213199317455292,-2.4811296463012695,-0.1437685191631317,-0.8345344066619873,-0.5318673253059387,-0.9006498456001282,0.5789649486541748,-1.695137619972229
1.014792943271093,-0.22613871806408053,-2.0703967722869105,2.6207311153411865,1.1999244689941406,-2.520325183868408,-0.1183403879404068,-0.8493713140487671,-0.5143578052520752,-0.8959723711013794,0.6164916753768921,-1.6114661693572998
1.049784402743216,-0.17943099507181906,-2.1080420470858883,3.4268791675567627,1.630418062210083,-2.665140390396118,-0.0888347327709198,-0.867315948009491,-0.4897666573524475,-0.8953419327735901,0.6742770075798035,-1.4945014715194702
1.09157573496261,-0.1225540762773677,-2.153199398731732,4.1473388671875,1.779764175415039,-2.8543052673339844,-0.056366823613643646,-0.8873545527458191,-0.45762932300567627,-0.8829032182693481,0.7356058955192566,-1.3576323986053467
1.1386916646010823,-0.052851663162133924,-2.2107921114277356,4.748546600341797,1.7902730703353882,-2.9930570125579834,-0.022123072296380997,-0.908086359500885,-0.41819819808006287,-0.8560355305671692,0.8170066475868225,-1.2081903219223022
1.1892452110509155,0.03412254281791288,-2.2864229418515545,5.259325981140137,1.682637333869934,-3.060204029083252,0.01270341407507658,-0.9280881881713867,-0.37214353680610657,-0.8565297722816467,0.9488096833229065,-1.0632964372634888
1.2414372817499564,0.14643252721948186,-2.389276165713483,5.725160598754883,1.4659963846206665,-3.1109731197357178,0.0471925362944603,-0.9462498426437378,-0.31997498869895935,-0.8486757278442383,1.0656347274780273,-0.9625872373580933
1.292684223019536,0.30038785018456865,-2.5365080956848165,6.153940677642822,1.2000218629837036,-3.1844592094421387,0.08123404532670975,-0.961575448513031,-0.2622472643852234,-0.8417016267776489,1.1656618118286133,-0.8921411037445068
1.3385274995466314,0.5228000055520577,-2.755084954455019,6.564389705657959,0.9639294147491455,-3.2366039752960205,0.11493365466594696,-0.9731466770172119,-0.1994386613368988,-0.8357436060905457,1.2710440158843994,-0.8425687551498413
1.3708528872621446,0.8433763802638955,-3.073933458084185,6.932592868804932,0.8601548671722412,-3.2873551845550537,0.14834323525428772,-0.9800778031349182,-0.13206729292869568,-0.8214847445487976,1.3613338470458984,-0.7878240346908569
1.3772906515753378,1.250155789820286,2.804215358648819,7.2649617195129395,1.018502116203308,-3.494615316390991,0.18249911069869995,-0.9813361167907715,-0.06060803681612015,-0.8274118900299072,1.477002739906311,-0.7035520672798157
1.3499073896787608,1.6365942232204131,2.4209737472392474,7.547677040100098,1.1849777698516846,-3.8196794986724854,0.21862302720546722,-0.9757030606269836,0.014405730180442333,-0.8657330870628357,1.5893505811691284,-0.5962691307067871
1.2945288519256573,1.9139180525149873,2.1470986905794254,7.786661624908447,1.0978449583053589,-4.172270774841309,0.25686681270599365,-0.9620802402496338,0.09176647663116455,-0.8980106115341187,1.6226179599761963,-0.49755859375
1.2213941257374714,2.088898887139366,1.972913406795431,7.9786601066589355,0.667940616607666,-4.581244468688965,0.2974083721637726,-0.9395775198936462,0.16953617334365845,-0.9323570728302002,1.6320059299468994,-0.38723325729370117
1.136664494686574,2.1937574418000336,1.8634219107070766,8.148260116577148,0.027426663786172867,-5.127835273742676,0.34161099791526794,-0.9072355628013611,0.2454095035791397,-0.9855624437332153,1.6748287677764893,-0.24720999598503113
1.043022342752471,2.2527581886962063,1.7935195432283118,8.312211990356445,-0.6404970288276672,-5.792853355407715,0.39097243547439575,-0.8639302849769592,0.3174349367618561,-1.061397910118103,1.777580738067627,-0.07916891574859619
0.9418214893336341,2.280941383523325,1.7476754706741635,8.483116149902344,-1.4354667663574219,-6.490109443664551,0.4461006224155426,-0.8086310625076294,0.3835487961769104,-1.1373238563537598,1.881476640701294,0.05862027406692505
0.8338987929092676,2.2863431360672766,1.7159007780289215,8.61342716217041,-2.429802656173706,-7.1629319190979,0.50717693567276,-0.7405569553375244,0.4408482015132904,-1.1391350030899048,1.944612741470337,0.16957974433898926
0.720130990535646,2.2727164349073785,1.6926415006468791,8.655139923095703,-3.5779483318328857,-7.906002044677734,0.5740156769752502,-0.6594831347465515,0.4853738844394684,-1.1165419816970825,1.9880659580230713,0.29521995782852173
0.6004593936189953,2.2410283140307405,1.6751613724888297,8.584168434143066,-4.87755012512207,-8.816837310791016,0.6465936899185181,-0.5650215744972229,0.5125107169151306,-1.1167323589324951,2.035297393798828,0.41786348819732666
0.4744053408559048,2.192921458366436,1.6617920783054845,8.363333702087402,-6.0538482666015625,-9.861783981323242,0.7228972911834717,-0.45680955052375793,0.5184056162834167,-1.0916106700897217,2.113502025604248,0.527202844619751
0.34237205521397623,2.1317171034536018,1.6509418139124874,7.9449992179870605,-6.959719181060791,-10.84617805480957,0.7976202964782715,-0.335722416639328,0.5010913610458374,-0.9703649282455444,2.2628464698791504,0.6207349896430969
0.20668592257760135,2.061130546681819,1.6402297834759494,7.404389381408691,-7.668052673339844,-11.443428039550781,0.8633995652198792,-0.20521749556064606,0.460897833108902,-0.6789972186088562,2.4626638889312744,0.6493469476699829
0.07245553450729231,1.9836363369678842,1.6263772831242889,6.706744194030762,-8.090873718261719,-11.327171325683594,0.9135817885398865,-0.07239215821027756,0.40015968680381775,-0.11995691061019897,2.715183973312378,0.6475698947906494
-0.05140091439329165,1.9033228637970216,1.609852370303985,5.185018539428711,-7.849706172943115,-10.359326362609863,0.9439722895622253,0.051378283649683,0.3260011076927185,0.7284824848175049,2.8595409393310547,0.7268859148025513
-0.15368527853915512,1.8307933560039085,1.600203640706945,2.532158851623535,-6.1591291427612305,-8.467191696166992,0.9550005197525024,0.1530809998512268,0.254047691822052,1.578477144241333,2.8773908615112305,1.0693166255950928
-0.22827131333591252,1.786400579908473,1.6059356461434786,-0.0803821012377739,-2.799037218093872,-6.249394416809082,0.9515068531036377,0.22629402577877045,0.20838795602321625,2.2733922004699707,2.788827419281006,1.2781386375427246
-0.27668776619913393,1.7820950613564628,1.6291311167431397,-2.2113614082336426,0.6804235577583313,-4.130305767059326,0.9405708312988281,0.2731708884239197,0.20175296068191528,2.6525840759277344,2.6121134757995605,1.13748037815094
-0.30019561453874405,1.8128401580210103,1.6680140778973187,-3.941175937652588,3.0578572750091553,-2.133326530456543,0.9274325966835022,0.2957070767879486,0.2289682924747467,2.901134967803955,2.5400779247283936,1.0404410362243652
-0.3005513227040719,1.8650541570671875,1.7182923273366986,-5.206916332244873,4.236195087432861,-0.5305266976356506,0.9141178131103516,0.2960468530654907,0.2770286202430725,2.920431137084961,2.574680805206299,0.9187874794006348
-0.2820013998068075,1.924511080303459,1.7727892465099604,-5.735409736633301,4.352400779724121,0.67409747838974,0.9010381698608398,0.27827855944633484,0.3327029049396515,2.68795108795166,2.5896718502044678,0.683883547782898
-0.2504410911845031,1.9778741186807762,1.8230121888030157,-5.490134239196777,3.540886402130127,1.5330969095230103,0.8896343111991882,0.2478313148021698,0.3835759460926056,2.3464343547821045,2.476411819458008,0.39921531081199646
-0.21218783346782658,2.015897347777229,1.8632240757925977,-4.731575965881348,2.136207342147827,2.1621806621551514,0.8823249340057373,0.2105991691350937,0.42089298367500305,2.0010368824005127,2.303805112838745,0.1971338391304016
-0.17134521429796837,2.033905373954876,1.891156391028561,-3.741426467895508,0.3524004817008972,2.7565531730651855,0.8815667629241943,0.17050801217556,0.44019004702568054,1.7433570623397827,2.100961208343506,0.11316996812820435
-0.12922491615502155,2.0302743571139383,1.9062453894007554,-2.6656851768493652,-1.5191415548324585,3.449455976486206,0.8888108134269714,0.1288655549287796,0.4397825598716736,1.5576459169387817,1.9113413095474243,0.07756665349006653
-0.0852309018127212,2.0075103659099613,1.9089654927079522,-1.643924593925476,-3.0046815872192383,4.216919422149658,0.9028571844100952,0.08512774854898453,0.4214288592338562,1.3648735284805298,1.7548991441726685,0.047534823417663574
-0.03801334141348932,1.9721482275733877,1.9013107771101696,-0.8291283249855042,-3.8913612365722656,5.002626895904541,0.9198688268661499,0.03800418600440025,0.39038100838661194,1.1277081966400146,1.6314904689788818,0.07893365621566772
0.014495050528512535,1.9306235048722837,1.8862372990485698,-0.3059309422969818,-4.302915096282959,5.834498405456543,0.9358594417572021,-0.014494542963802814,0.3520755171775818,0.8755724430084229,1.5902849435806274,0.211523175239563
0.07417744753140217,1.8877025893164363,1.8669516468565959,-0.039960797876119614,-4.399144649505615,6.661818504333496,0.9475911259651184,-0.07410944253206253,0.3107714354991913,0.6188150644302368,1.608929991722107,0.3607832193374634
0.14178866976269308,1.8459039020455827,1.8461085729102573,0.041274700313806534,-4.37339448928833,7.422853946685791,0.9527381062507629,-0.1413140594959259,0.26892438530921936,0.3611503839492798,1.651644229888916,0.520199179649353
0.21700035037544918,1.806170933051055,1.8261149233797698,-0.04379865154623985,-4.2304840087890625,8.063375473022461,0.9496212601661682,-0.2153012901544571,0.22773799300193787,0.07280904054641724,1.7128446102142334,0.6855462789535522
0.2991586599523725,1.76977465711857,1.8090958390113514,-0.29864081740379333,-3.851480722427368,8.634493827819824,0.9367300271987915,-0.29471632838249207,0.18888843059539795,-0.18949198722839355,1.7729268074035645,0.8222352266311646
0.38788354594525876,1.7379924824823898,1.7973954035550344,-0.783394455909729,-3.2354698181152344,9.15522289276123,0.9128027558326721,-0.3782300353050232,0.15405531227588654,-0.39377516508102417,1.8453474044799805,0.9171117544174194
0.48271778417617284,1.710872528783589,1.7938465275857503,-1.485148310661316,-2.4321072101593018,9.627510070800781,0.8770613074302673,-0.4641881287097931,0.12366530299186707,-0.5648663640022278,1.9121251106262207,0.9614940881729126
0.582960756568545,1.6877532733316687,1.8010088212929434,-2.2878735065460205,-1.4119333028793335,10.025816917419434,0.8291330337524414,-0.5504980683326721,0.09741745889186859,-0.6957407593727112,1.9495917558670044,0.9419808387756348
0.6874072915510611,1.6665872994020714,1.8214636945286515,-3.197715997695923,-0.3788691759109497,10.326606750488281,0.7693503499031067,-0.6345354318618774,0.07392305880784988,-0.7737755179405212,1.9333789348602295,0.856390118598938
0.7949243186601213,1.6414709697421674,1.8604413855041548,-4.308205604553223,0.6385965943336487,10.54251480102539,0.6985903978347778,-0.7138106226921082,0.04945499449968338,-0.8220798373222351,1.994694471359253,0.8444658517837524
0.9035798543361265,1.6031329390561178,1.9267919005174017,-5.52786922454834,1.6799894571304321,10.616898536682129,0.6184782981872559,-0.785547137260437,0.020006466656923294,-0.8351073861122131,2.0570926666259766,0.8044106960296631
1.0101329815303324,1.5374063047719206,2.0337141067394415,-6.719075679779053,2.665349006652832,10.599246978759766,0.5314515829086304,-0.8469025492668152,-0.017751777544617653,-0.8549379706382751,2.07853102684021,0.6504422426223755
1.1092082413609767,1.4213366834504235,2.202120553540693,-7.8037428855896,3.5196545124053955,10.500714302062988,0.44040554761886597,-0.8953463435173035,-0.06631739437580109,-0.8459078073501587,2.094839572906494,0.45776641368865967
1.1904131938033247,1.2212106982835007,2.463500653476676,-8.804576873779297,4.196099758148193,10.296120643615723,0.3488195240497589,-0.9285224676132202,-0.127165287733078,-0.8143652081489563,2.1373543739318848,0.2789902687072754
1.2355420669283976,0.9133982620053951,2.838775359064556,-9.753846168518066,4.604723930358887,10.027788162231445,0.26043856143951416,-0.9443266987800598,-0.2010440081357956,-0.7570205926895142,2.1730103492736816,0.14393046498298645
1.2258572293878822,0.5558379416350049,-3.015426987748711,-10.634298324584961,4.8553361892700195,9.724682807922363,0.1784210205078125,-0.9410960674285889,-0.2872353792190552,-0.7078704833984375,2.212733030319214,0.027774930000305176
1.1619036765268762,0.27003485529282384,-2.655245800474545,-11.454971313476562,5.036798477172852,9.348834037780762,0.10606404393911362,-0.9175616502761841,-0.38318535685539246,-0.6715548038482666,2.289647102355957,-0.09949588775634766
1.0610110469587437,0.09446252887968802,-2.4029158054548874,-12.20780086517334,5.136992454528809,8.91871166229248,0.04602824151515961,-0.8728492856025696,-0.4858143627643585,-0.6631699800491333,2.3939521312713623,-0.2442576289176941
0.9391311410940497,0.0009770876597730534,-2.231155835674214,-12.843155860900879,5.088437080383301,8.37717056274414,0.0005769598647020757,-0.8070453405380249,-0.5904892086982727,-0.6779146194458008,2.4946064949035645,-0.4358322024345398
0.8063718003872083,-0.04196511314460372,-2.1098841391970184,-13.214973449707031,4.9041008949279785,7.678906440734863,-0.029036443680524826,-0.7217807769775391,-0.691512405872345,-0.730897068977356,2.559579849243164,-0.7073522806167603
0.6704949042855612,-0.054882035333655085,-2.0200717160970116,-13.110319137573242,4.589890956878662,6.8486433029174805,-0.042979270219802856,-0.6213738322257996,-0.7823345065116882,-0.8128862380981445,2.5301568508148193,-1.1170947551727295
0.5390037590633349,-0.05050188011064539,-1.9503294219907286,-12.363578796386719,4.198822021484375,5.957000255584717,-0.0433233268558979,-0.5132812261581421,-0.8571262955665588,-0.8738977909088135,2.411978244781494,-1.6571407318115234
0.41955955261761857,-0.036638781976123906,-1.8937907918864527,-10.887341499328613,3.753537178039551,5.081318378448486,-0.0334535576403141,-0.4073582589626312,-0.9126555323600769,-0.8850645422935486,2.2434635162353516,-2.270129442214966
0.319871012684127,-0.019070916432000387,-1.8468663875635634,-8.630070686340332,3.094507932662964,4.1830830574035645,-0.018102465197443962,-0.3144441246986389,-0.9491033554077148,-0.8823339939117432,2.007040500640869,-2.872612953186035
0.2475009367697398,-0.003045262688447336,-1.809184620012696,-5.640949726104736,2.1632373332977295,3.178206443786621,-0.0029524618294090033,-0.2449818104505539,-0.9695231914520264,-0.9421159625053406,1.7150592803955078,-3.3871967792510986
0.2076695956365745,0.006631839888233539,-1.7818799396607838,-2.29854679107666,0.9670621156692505,2.105771780014038,0.006489301100373268,-0.2061801254749298,-0.9784925580024719,-1.0469557046890259,1.448413372039795,-3.6721575260162354
0.20092006404292675,0.006925510332481938,-1.7660295228331138,0.8824151754379272,-0.256655216217041,0.9760991334915161,0.0067861382849514484,-0.19957096874713898,-0.9798598885536194,-1.1714743375778198,1.325516939163208,-3.595442295074463
0.22307517982003505,-0.001649083835674638,-1.7618107444245752,3.4275243282318115,-1.2380173206329346,-0.1269688606262207,-0.0016082216752693057,-0.2212296426296234,-0.9752204418182373,-1.2791383266448975,1.3204575777053833,-3.1802818775177
0.26654782506293406,-0.015969125176955503,-1.7677655614385686,5.122121334075928,-1.8576455116271973,-1.0827888250350952,-0.01540453638881445,-0.2634027600288391,-0.9645629525184631,-1.2604897022247314,1.3546502590179443,-2.5437378883361816
0.3234331907942452,-0.03186826984071811,-1.7820210169856776,6.068921089172363,-2.0948967933654785,-1.883407711982727,-0.03021078184247017,-0.3178236186504364,-0.9476684331893921,-1.1557176113128662,1.3816206455230713,-1.921044945716858
0.38745964797807736,-0.04541640354273807,-1.8028425108804356,6.485322952270508,-2.0164849758148193,-2.4757533073425293,-0.042035315185785294,-0.377837598323822,-0.9249171614646912,-0.9792049527168274,1.3564753532409668,-1.461435317993164
0.45460948800721024,-0.05359599518165509,-1.8287001309968396,6.632717132568359,-1.6996965408325195,-2.8656842708587646,-0.04812933877110481,-0.43911150097846985,-0.8971425294876099,-0.7565277218818665,1.291024923324585,-1.1707133054733276
0.5231375090506092,-0.05444908282888625,-1.8584276064966399,6.725417137145996,-1.24419105052948,-3.082235813140869,-0.04714353755116463,-0.49960047006607056,-0.8649721741676331,-0.5814728736877441,1.2369966506958008,-1.0124998092651367
0.5927717395723185,-0.04698607494251045,-1.8912607021102044,6.863716125488281,-0.7332870960235596,-3.1612393856048584,-0.038955699652433395,-0.5586620569229126,-0.828480064868927,-0.4673157334327698,1.219367504119873,-0.9248310327529907
0.6638562204553089,-0.03081403613678776,-1.926978292416589,7.0778985023498535,-0.23435793817043304,-3.143209218978882,-0.024265974760055542,-0.616158664226532,-0.7872481942176819,-0.39890608191490173,1.2321255207061768,-0.8686050772666931
0.7367799213850966,-0.005728608255484504,-1.9658513125563066,7.352134704589844,0.23618721961975098,-3.046428680419922,-0.004242790397256613,-0.6719064712524414,-0.7406238913536072,-0.35574260354042053,1.256241798400879,-0.8168864846229553
0.8117673271109446,0.02885748134869969,-2.0088300682544324,7.663052082061768,0.6574501991271973,-2.9077260494232178,0.019857462495565414,-0.7255046367645264,-0.6879308223724365,-0.320409893989563,1.2868907451629639,-0.7560694217681885
0.8887568059372478,0.07401246441080862,-2.0578239456356813,7.995357990264893,0.9861377477645874,-2.743551731109619,0.046613212674856186,-0.7762886881828308,-0.6286517977714539,-0.30361706018447876,1.3181283473968506,-0.6850994229316711
0.9676415751152191,0.13199771638867636,-2.1165009000602217,8.366039276123047,1.1849387884140015,-2.624973773956299,0.07465758174657822,-0.8235502243041992,-0.5623088479042053,-0.3066217601299286,1.3586454391479492,-0.6238787770271301
1.0480362978155788,0.20814930347777194,-2.1919154236538176,8.780108451843262,1.2526891231536865,-2.5819919109344482,0.10317463427782059,-0.86644446849823,-0.4884967505931854,-0.33251428604125977,1.411228895187378,-0.574400007724762
1.128568733793644,0.31318072381876744,-2.296472377317485,9.205448150634766,1.185528039932251,-2.6442768573760986,0.13184669613838196,-0.9038006067276001,-0.40713754296302795,-0.39034587144851685,1.4776835441589355,-0.5239842534065247
1.2057748731024298,0.46776027815251076,-2.4524573744427522,9.638525009155273,0.9826447367668152,-2.808091878890991,0.1609533131122589,-0.9341161251068115,-0.3186238706111908,-0.4526251256465912,1.5415685176849365,-0.4691873788833618
1.2724851570301203,0.7070275806903982,-2.6966665220229595,10.1383695602417,0.6120632290840149,-3.049962043762207,0.1909148246049881,-0.9558342099189758,-0.22345595061779022,-0.5315825939178467,1.609001874923706,-0.4282926917076111
1.3139975900933052,1.0700097158510316,-3.0701486715990716,10.761481285095215,0.03601374104619026,-3.4515724182128906,0.22279736399650574,-0.9672080278396606,-0.12194240838289261,-0.6343574523925781,1.6985007524490356,-0.4246731996536255
1.308324621317256,1.5130030723237122,2.7513972300575067,11.471479415893555,-0.8192936778068542,-4.085620880126953,0.2590356171131134,-0.965751588344574,-0.014987200498580933,-0.7560296058654785,1.7904584407806396,-0.4086120128631592
1.2478842776357997,1.8740581828490184,2.3602518621012334,12.18050765991211,-2.0097732543945312,-4.922210216522217,0.30284908413887024,-0.9483153820037842,0.09476567804813385,-0.8699114918708801,1.8962523937225342,-0.34320926666259766
1.1475494941113134,2.085723866991016,2.1043914549248566,12.741275787353516,-3.405163049697876,-5.929438591003418,0.3574637174606323,-0.9117602109909058,0.20226939022541046,-0.9765434265136719,2.042146682739258,-0.22796525061130524
1.0229726614431116,2.1852345176552888,1.9452216749887257,12.983091354370117,-4.891780853271484,-7.061166286468506,0.425569087266922,-0.8536600470542908,0.30025842785835266,-1.0396592617034912,2.201697826385498,-0.02900296449661255
0.884299946936841,2.2123965615755155,1.8425597467465082,12.785589218139648,-6.445687770843506,-8.316995620727539,0.5077869296073914,-0.773471474647522,0.37933415174484253,-1.0646717548370361,2.31770658493042,0.22271662950515747
0.7375113807693102,2.190243134339704,1.7729899160658362,12.138766288757324,-8.0560884475708,-9.645525932312012,0.6026251912117004,-0.6724480390548706,0.42971646785736084,-1.0499976873397827,2.336236000061035,0.4417586922645569
0.5865786540941885,2.132425585244744,1.7228887054253392,11.136383056640625,-9.591771125793457,-10.909734725952148,0.7049055695533752,-0.553514838218689,0.4435417652130127,-0.9990188479423523,2.3294854164123535,0.5766608715057373
0.43430458441387454,2.049491910807892,1.6834354688813207,9.899263381958008,-10.704912185668945,-11.957956314086914,0.8051946759223938,-0.42077964544296265,0.4178589880466461,-0.8934363126754761,2.3693575859069824,0.5936919450759888
0.2836369588334307,1.952076626866089,1.6489238444817769,8.460864067077637,-11.011911392211914,-12.567627906799316,0.8911021947860718,-0.2798491418361664,0.35724112391471863,-0.6891369819641113,2.4309568405151367,0.5236488580703735
0.13969365433555855,1.851415606387556,1.6165096879198988,6.796499729156494,-10.24665355682373,-12.392062187194824,0.9515239596366882,-0.13923975825309753,0.27425292134284973,-0.3359995484352112,2.4534335136413574,0.45465949177742004
0.00984439593934324,1.760918362357033,1.5886421462834162,4.494840621948242,-7.995415687561035,-11.41049861907959,0.9819337129592896,-0.009844237007200718,0.18896959722042084,0.19401544332504272,2.512300968170166,0.5185041427612305
-0.10107300052115234,1.698276374311123,1.5759337353456964,1.4493334293365479,-4.275540828704834,-9.97000503540039,0.9868234395980835,0.10090100020170212,0.12648622691631317,0.829552412033081,2.5538079738616943,0.8154388666152954
-0.19154484973733377,1.6757989028081095,1.5851177935126466,-1.072795033454895,-0.6549234986305237,-8.065011978149414,0.9763043522834778,0.19037571549415588,0.10289289802312851,1.6881091594696045,2.2880024909973145,1.1198244094848633
-0.2571812310792749,1.6859998607924707,1.6114021418661468,-2.4315478801727295,1.2996162176132202,-5.422964096069336,0.960700273513794,0.2543554902076721,0.11116831004619598,2.697441816329956,2.0997705459594727,0.9105449914932251
-0.29404778637613876,1.712614852205479,1.644747110925644,-2.943145751953125,2.097578763961792,-2.7538089752197266,0.94746994972229,0.2898286283016205,0.1352769285440445,3.274392604827881,2.048290729522705,0.4231489896774292
-0.3059542490990471,1.74589805303829,1.680739769476964,-3.477187156677246,2.349055290222168,-0.772058367729187,0.9389789700508118,0.30120325088500977,0.1661180704832077,3.139024019241333,2.0574545860290527,0.3066602945327759
-0.3000608030044497,1.7809337078274627,1.719531367914248,-3.9483578205108643,2.308314561843872,0.40062758326530457,0.9343038201332092,0.2955783009529114,0.1992739886045456,2.5945963859558105,2.064300298690796,0.3221494257450104
-0.28441785633269434,1.8150627138572657,1.7585669422452683,-3.9442245960235596,2.238436222076416,0.8952309489250183,0.9313326478004456,0.2805987298488617,0.23212845623493195,1.9582240581512451,2.025233030319214,0.08031044900417328
-0.2651209302412794,1.845541591869448,1.793223237263214,-3.4065260887145996,1.904287576675415,1.1002784967422485,0.9288657307624817,0.26202598214149475,0.26182276010513306,1.5849894285202026,1.9767588376998901,-0.259518563747406
-0.24535429879645304,1.8674203962488,1.8189199003644103,-2.409409761428833,1.0966157913208008,1.2895941734313965,0.9276881217956543,0.2429000288248062,0.28353962302207947,1.4594579935073853,1.90282142162323,-0.5468146800994873
-0.2263885787714809,1.8754749420890502,1.8319414654648298,-1.1023794412612915,-0.14600276947021484,1.5952842235565186,0.9296020269393921,0.2244597226381302,0.2923319935798645,1.4562623500823975,1.8299837112426758,-0.7072794437408447
-0.20771680650601312,1.8666997261877294,1.8305789477364298,0.23819349706172943,-1.5381611585617065,2.051909923553467,0.935977578163147,0.20622631907463074,0.28533586859703064,1.477367639541626,1.7358360290527344,-0.7396509647369385
-0.1875455847933431,1.8426202982021394,1.8159087115825403,1.3485249280929565,-2.631444215774536,2.6255042552948,0.9463915228843689,0.1864480823278427,0.2637809216976166,1.4641157388687134,1.657454490661621,-0.6411764621734619
-0.1632117248155228,1.8087266102174617,1.7910099407405045,2.1157121658325195,-3.1832854747772217,3.3141720294952393,0.9589129090309143,0.16248808801174164,0.23255953192710876,1.4266157150268555,1.6229122877120972,-0.4484407901763916
-0.13215700282752157,1.7718115703918171,1.7595312470354962,2.560032367706299,-3.1925668716430664,4.081789970397949,0.9713197946548462,0.13177263736724854,0.19792312383651733,1.3518459796905518,1.6010764837265015,-0.23071424663066864
-0.0929435206175049,1.7374606215539874,1.7249990694330508,2.7054648399353027,-2.8508501052856445,4.852875709533691,0.9818871021270752,0.0928097665309906,0.16517774760723114,1.2049107551574707,1.5693758726119995,-0.009660154581069946
-0.045047236645719864,1.7089596894165304,1.6906773568337896,2.5591821670532227,-2.3413403034210205,5.61387825012207,0.9894658327102661,0.04503200203180313,0.13758450746536255,1.0123957395553589,1.5463528633117676,0.23118996620178223
0.011437307390839663,1.6876728116825792,1.6595396245600469,2.145230531692505,-1.7994723320007324,6.341433525085449,0.9931127429008484,-0.011437058448791504,0.11660294979810715,0.8149926662445068,1.548042893409729,0.47404956817626953
0.07598885173480668,1.6731929332524187,1.6334824715353826,1.6024826765060425,-1.3078527450561523,7.003573417663574,0.9918915629386902,-0.07591573894023895,0.10192280262708664,0.5710052847862244,1.5493348836898804,0.648672342300415
0.1474134362492979,1.6649832877046582,1.6131210588883773,1.017231822013855,-0.7685104012489319,7.549305438995361,0.9847700595855713,-0.1468801200389862,0.0930277556180954,0.30125588178634644,1.5374746322631836,0.7328238487243652
0.22454436494534785,1.6625012993578185,1.5985654045472817,0.3975391685962677,-0.270429790019989,8.015871047973633,0.9707991480827332,-0.22266219556331635,0.08927752077579498,0.05694127082824707,1.5349791049957275,0.7805651426315308
0.3065334442030546,1.6640467349249515,1.5899724260120016,-0.26199668645858765,0.12256090342998505,8.397832870483398,0.9492432475090027,-0.30175548791885376,0.08877478539943695,-0.15574043989181519,1.542676568031311,0.8050699234008789
0.39249208647723133,1.667524149069059,1.5877777564709215,-0.9480606913566589,0.4179588854312897,8.694389343261719,0.9196397662162781,-0.38249218463897705,0.08923321962356567,-0.3226549029350281,1.5588380098342896,0.8148958683013916
0.4819076133814663,1.6708090407901315,1.5923442178691083,-1.6178559064865112,0.6182387471199036,8.96308708190918,0.8816843628883362,-0.46347036957740784,0.0884748324751854,-0.43182480335235596,1.5715484619140625,0.7865557670593262
0.5745918148070359,1.6717320195409067,1.6042056718892685,-2.2634694576263428,0.7604715824127197,9.210715293884277,0.8351418972015381,-0.5434921979904175,0.08458306640386581,-0.4922006130218506,1.5765427350997925,0.7368738651275635
0.6701749205624222,1.6680844538934994,1.6247260746723704,-2.9387426376342773,0.9150033593177795,9.415343284606934,0.7800068855285645,-0.6211230754852295,0.07612573355436325,-0.5435110330581665,1.598875880241394,0.6925510168075562
0.7681416031332245,1.6571114222105394,1.6569938676929437,-3.6768269538879395,1.1604926586151123,9.583358764648438,0.7165257334709167,-0.6947999000549316,0.06200104206800461,-0.5643040537834167,1.6233277320861816,0.6451981067657471
0.8678205375554513,1.634660488142824,1.7059416645996106,-4.470235824584961,1.513556957244873,9.725160598754883,0.6451730132102966,-0.7629217505455017,0.04125954583287239,-0.5621500015258789,1.6571325063705444,0.5830538272857666
0.9680466243954393,1.5933484998175234,1.7797120401811288,-5.324528217315674,1.967002511024475,9.834951400756836,0.566765546798706,-0.8237798810005188,0.012783962301909924,-0.5462883114814758,1.715167760848999,0.5058776140213013
1.066357881791928,1.5193147045399011,1.8925946633856001,-6.214537620544434,2.448653221130371,9.897228240966797,0.48267582058906555,-0.8754460215568542,-0.024870911613106728,-0.5249426364898682,1.785754680633545,0.41139137744903564
1.1575234261537308,1.3879360640234126,2.068546038650934,-7.0781569480896,2.847513198852539,9.895360946655273,0.3949129581451416,-0.91581130027771,-0.07302969694137573,-0.5176852941513062,1.8463990688323975,0.29808157682418823
1.2309270856778989,1.1628278520089304,2.3426399322664913,-7.863519191741943,3.156911849975586,9.805295944213867,0.30600404739379883,-0.9427982568740845,-0.13226047158241272,-0.5147442817687988,1.8771092891693115,0.1681644469499588
1.268418066531569,0.8256005397269354,2.7320551619262274,-8.544098854064941,3.374791383743286,9.616509437561035,0.2188633680343628,-0.954630970954895,-0.20193707942962646,-0.5048588514328003,1.8878127336502075,0.04236072301864624
1.2538149481723437,0.453213920551083,-3.124346390136355,-9.098631858825684,3.531965494155884,9.338150978088379,0.13648013770580292,-0.9501806497573853,-0.2802322208881378,-0.5046747326850891,1.8872380256652832,-0.06856837868690491
1.1915774173596279,0.16730938722432442,-2.782310285932783,-9.623234748840332,3.6561672687530518,8.978407859802246,0.06164852902293205,-0.9289540648460388,-0.36502566933631897,-0.519061267375946,1.900618553161621,-0.14118453860282898
1.0994890919302247,-0.008133606539213046,-2.5500274588087515,-10.101730346679688,3.5808756351470947,8.609098434448242,-0.003693034639582038,-0.8909754753112793,-0.4540363848209381,-0.49954184889793396,1.9344782829284668,-0.194141685962677
0.9912883419746846,-0.10940306811792269,-2.3934469369429667,-10.431661605834961,3.2603461742401123,8.287283897399902,-0.059791017323732376,-0.8367322087287903,-0.5443382859230042,-0.5154348015785217,2.017533540725708,-0.2844274640083313
0.8755305872556409,-0.168537684347738,-2.2819498411114756,-10.528989791870117,2.841341495513916,8.003894805908203,-0.10745309293270111,-0.7678834795951843,-0.6315131187438965,-0.59632807970047,2.113434076309204,-0.464846134185791
0.7576294398780606,-0.2037495183696098,-2.1972592965167914,-10.379280090332031,2.4746854305267334,7.692977428436279,-0.14699532091617584,-0.6872012615203857,-0.7114400267601013,-0.7422106266021729,2.1828372478485107,-0.7163248658180237
0.6418062087631465,-0.22348005545816113,-2.1297809996013815,-9.957358360290527,2.2959985733032227,7.233728408813477,-0.17752470076084137,-0.5986432433128357,-0.7810962200164795,-0.9747427701950073,2.1991376876831055,-1.0409862995147705
0.5322325285687718,-0.23075740667106667,-2.0749761736762595,-9.225518226623535,2.3249659538269043,6.5205464363098145,-0.19707822799682617,-0.5074583292007446,-0.8388362526893616,-1.2473492622375488,2.1097989082336426,-1.4565433263778687
0.4335452140779995,-0.22789648187367761,-2.030578281384656,-8.08594799041748,2.3477797508239746,5.566174030303955,-0.20502644777297974,-0.4200906455516815,-0.8840181231498718,-1.4817564487457275,1.9456186294555664,-1.9234158992767334
0.3510152309867829,-0.21832804240142897,-1.9951223800014672,-6.441166400909424,2.2417545318603516,4.429210186004639,-0.203390434384346,-0.3438512980937958,-0.9167326092720032,-1.6521546840667725,1.7314245700836182,-2.4187471866607666
0.29009577450574303,-0.20584162693329353,-1.9677941193222837,-4.289008140563965,1.9308319091796875,3.176680088043213,-0.1958509087562561,-0.28604400157928467,-0.9379878640174866,-1.7785143852233887,1.5007199048995972,-2.8696751594543457
0.25487384608422314,-0.19436908533410915,-1.948414614135246,-1.8261750936508179,1.3613370656967163,1.8628007173538208,-0.18690793216228485,-0.25212332606315613,-0.9494731426239014,-1.8805817365646362,1.3433098793029785,-3.1329853534698486
0.24682954286280162,-0.18758943058413294,-1.9373730105533966,0.639610767364502,0.5026612877845764,0.5402003526687622,-0.18083897233009338,-0.24433082342147827,-0.9526802897453308,-1.935860276222229,1.270896315574646,-3.126680612564087
0.26437838418388565,-0.18807681824139613,-1.9348160038705313,2.8429863452911377,-0.4711422622203827,-0.6854193210601807,-0.18047372996807098,-0.26130929589271545,-0.948233425617218,-1.9041668176651,1.2655969858169556,-2.87520694732666
0.30362366020633036,-0.1956532218604019,-1.9397993098021549,4.584391117095947,-1.28630530834198,-1.7171493768692017,-0.18551501631736755,-0.29898008704185486,-0.9360529184341431,-1.721269130706787,1.2763208150863647,-2.4768803119659424
0.3591680470670012,-0.2077767480338854,-1.9509784595216524,5.777859210968018,-1.8173185586929321,-2.5383050441741943,-0.19312185049057007,-0.3514954745769501,-0.9160539507865906,-1.4306575059890747,1.2832581996917725,-2.0307843685150146
0.4257471789340908,-0.22109962199846223,-1.9669883784492515,6.518763542175293,-2.0182151794433594,-3.1403603553771973,-0.19972555339336395,-0.4130013883113861,-0.8885603547096252,-1.1130949258804321,1.256263017654419,-1.6343735456466675
0.49933930505409685,-0.23230091970762973,-1.9864500365045272,6.96627140045166,-1.911998987197876,-3.5171680450439453,-0.2021075189113617,-0.47884562611579895,-0.8543180823326111,-0.8483685851097107,1.246377944946289,-1.3295044898986816
0.5770962046496676,-0.2387693255028388,-2.0082999191787616,7.208103656768799,-1.593986988067627,-3.7275846004486084,-0.19820483028888702,-0.545592725276947,-0.814274787902832,-0.6674873232841492,1.2559351921081543,-1.095149040222168
0.656916456332388,-0.23873660732609311,-2.03246533098355,7.311760425567627,-1.1781971454620361,-3.850196361541748,-0.18725980818271637,-0.61067795753479,-0.7694194316864014,-0.5437277555465698,1.2641050815582275,-0.9067585468292236
0.7375715163585739,-0.2307294812027847,-2.0595868657202527,7.355250835418701,-0.6979777216911316,-3.9215011596679688,-0.1692526787519455,-0.6724925637245178,-0.7204909920692444,-0.4685342311859131,1.273169994354248,-0.7617020010948181
0.8184938899310661,-0.21345796016317414,-2.090908712540558,7.400002956390381,-0.2598663866519928,-3.9700522422790527,-0.1447552740573883,-0.7301174998283386,-0.6678130626678467,-0.4187823534011841,1.2827298641204834,-0.650347888469696
0.8996418385539373,-0.18634322723724578,-2.128159068652928,7.498655796051025,0.014212572015821934,-4.002108097076416,-0.11521556228399277,-0.7831042408943176,-0.6111243963241577,-0.3937718868255615,1.2893145084381104,-0.5721945762634277
0.9815007884236929,-0.1483974070753825,-2.1741091560856067,7.701352596282959,0.13264814019203186,-4.042812824249268,-0.08217328041791916,-0.8313323855400085,-0.549667239189148,-0.41559898853302,1.3044006824493408,-0.5224305391311646
1.0645030232168937,-0.09594395822365907,-2.2335260727023574,7.968642711639404,0.19709637761116028,-4.10055685043335,-0.04645560681819916,-0.8745480179786682,-0.482708603143692,-0.45255258679389954,1.3209439516067505,-0.4811890423297882
1.1480464382862585,-0.020439679673602884,-2.3154859275866664,8.208736419677734,0.23102302849292755,-4.1786980628967285,-0.008385201916098595,-0.9119641780853271,-0.41018423438072205,-0.49440720677375793,1.3574138879776,-0.42047369480133057
1.2297763040968805,0.09564066771014972,-2.437812834873129,8.378894805908203,0.257640540599823,-4.294897079467773,0.03193815425038338,-0.9424139857292175,-0.33292022347450256,-0.5110794305801392,1.3874671459197998,-0.34595853090286255
1.3050466584967917,0.2883213676716381,-2.636869796072922,8.546260833740234,0.22676269710063934,-4.491691589355469,0.07467784732580185,-0.9648959040641785,-0.25179189443588257,-0.5332044959068298,1.3893039226531982,-0.29715824127197266
1.3632905989890824,0.6233184103720767,-2.9797164510917056,8.756560325622559,0.02325405925512314,-4.8081254959106445,0.12026067823171616,-0.9785478115081787,-0.16727717220783234,-0.5901398658752441,1.4064500331878662,-0.2648364305496216
1.3821747470416437,1.1292107278854249,2.786250170926586,9.004571914672852,-0.38402217626571655,-5.253220558166504,0.16951864957809448,-0.9822636246681213,-0.08013468235731125,-0.6671078205108643,1.439371109008789,-0.22630751132965088
1.3451747259122528,1.6079582033693307,2.2905954237502835,9.282455444335938,-1.0106298923492432,-5.801934242248535,0.22355717420578003,-0.9746552109718323,0.008311630226671696,-0.7425696849822998,1.4799349308013916,-0.18963181972503662
1.2666395416283354,1.8968916587977922,1.9764769398585462,9.592451095581055,-1.9480621814727783,-6.469980716705322,0.28370562195777893,-0.9540998339653015,0.09594013541936874,-0.8126058578491211,1.5404036045074463,-0.1315082311630249
1.1648027506023944,2.0420946876130563,1.7945433074324684,9.87319564819336,-3.204934597015381,-7.278977394104004,0.35187631845474243,-0.918710470199585,0.17931629717350006,-0.8792963027954102,1.6147552728652954,-0.03911851346492767
1.0487998426200356,2.10281231017825,1.6824464763121678,9.987020492553711,-4.737390995025635,-8.161029815673828,0.42969632148742676,-0.8668254613876343,0.2529314160346985,-0.9137357473373413,1.7057232856750488,0.127088725566864
0.9239644752404752,2.1092280762232645,1.6079497753182976,9.709254264831543,-6.394015789031982,-9.0397367477417,0.5173929929733276,-0.7979971170425415,0.30903875827789307,-0.8780650496482849,1.805626630783081,0.37293753027915955
0.7950785841077036,2.0768177090357396,1.5559363722902684,8.934157371520996,-7.89913272857666,-9.810769081115723,0.6124758124351501,-0.7139186263084412,0.3394015431404114,-0.7699924111366272,1.852163314819336,0.6093137264251709
0.6659174062398349,2.0169876608353072,1.5181723569972074,7.8434929847717285,-8.993820190429688,-10.473085403442383,0.7093644142150879,-0.6177808046340942,0.3393360376358032,-0.6601396203041077,1.8316479921340942,0.7405894994735718
0.5380200799709451,1.9402571531244017,1.4892393364420917,6.627164363861084,-9.494394302368164,-11.013071060180664,0.8007799983024597,-0.5124368071556091,0.3100964426994324,-0.5971363186836243,1.810105323791504,0.7424854040145874
0.4126841133492357,1.8560510219968598,1.46587982814221,5.316409587860107,-9.33588695526123,-11.256513595581055,0.8790299296379089,-0.4010695517063141,0.25777745246887207,-0.46655458211898804,1.8381118774414062,0.6770674586296082
0.2928520653623328,1.7731207886170886,1.4470392359701532,3.8386471271514893,-8.391096115112305,-11.00004768371582,0.9378948211669922,-0.28868404030799866,0.19239145517349243,-0.1427748203277588,1.8708374500274658,0.6045598983764648
0.18292720776888716,1.7001219867011568,1.4348225257866296,2.058976411819458,-6.653203010559082,-10.143022537231445,0.9751038551330566,-0.1819087117910385,0.12681372463703156,0.39255666732788086,1.9162379503250122,0.6386892795562744
0.08723380003523176,1.6454420526761722,1.4336263682912966,0.10292306542396545,-4.216237545013428,-8.748611450195312,0.9934234023094177,-0.08712320774793625,0.074292853474617,1.006805419921875,1.9536851644515991,0.7448294162750244
0.008250376263345965,1.6164880766347294,1.446123196540919,-1.6189104318618774,-1.445109248161316,-7.10256290435791,0.9989224672317505,-0.0082502830773592,0.04567430540919304,1.5634708404541016,1.935710072517395,0.7565566301345825
-0.05333229168910733,1.6154143553509595,1.4720243491094223,-2.9540562629699707,0.9930253624916077,-5.364767074584961,0.9975844621658325,0.05330701172351837,0.044539809226989746,2.0104875564575195,1.90532648563385,0.6784675121307373
-0.09578774591654125,1.6353008906033237,1.5090147609452425,-3.89255690574646,2.2336413860321045,-3.4750585556030273,0.9933457970619202,0.09564132988452911,0.06416435539722443,2.467332363128662,1.9609230756759644,0.604369044303894
-0.1182545449281414,1.663356449550729,1.553032798504249,-4.398282051086426,2.2927308082580566,-1.7234853506088257,0.9887652397155762,0.11797912418842316,0.09178249537944794,2.716862201690674,2.023714065551758,0.47280800342559814
-0.12396605611770527,1.6897051299484411,1.5990968099370517,-4.509716033935547,1.8093924522399902,-0.44496405124664307,0.9853187799453735,0.12364879250526428,0.1177184209227562,2.532228708267212,2.0300986766815186,0.24734815955162048
-0.11859584656921345,1.7105226385262242,1.6436745078357653,-4.342555999755859,1.26662278175354,0.3049171566963196,0.9832982420921326,0.11831803619861603,0.1382938027381897,2.13240909576416,1.9973740577697754,-0.005389705300331116
-0.10728223792164959,1.72525326828074,1.68421827529756,-3.89277720451355,0.7498971819877625,0.7240222692489624,0.9824145436286926,0.10707656294107437,0.15295906364917755,1.7660291194915771,1.9427129030227661,-0.2647906541824341
-0.09284101410742024,1.7333961318659792,1.7180422079899031,-3.1522367000579834,0.18310260772705078,1.0573456287384033,0.9825599193572998,0.09270770102739334,0.161187082529068,1.5469200611114502,1.8718003034591675,-0.521965742111206
-0.07615223661304973,1.7340712758596613,1.7428557255441122,-2.243288993835449,-0.48411405086517334,1.4382435083389282,0.9838407039642334,0.07607865333557129,0.16207937896251678,1.448944330215454,1.7788712978363037,-0.7107701301574707
-0.05664774847710379,1.726809050010944,1.7579151755124807,-1.342423439025879,-1.1527938842773438,1.935779094696045,0.9862701892852783,0.056617457419633865,0.15513138473033905,1.4173859357833862,1.6698992252349854,-0.781519889831543
-0.03310757646080725,1.7130064363910826,1.764004478247343,-0.578082263469696,-1.6187008619308472,2.5322320461273193,0.9893625974655151,0.03310152888298035,0.14165358245372772,1.3934650421142578,1.5871376991271973,-0.7442078590393066
-0.004358192146407458,1.6956765112320658,1.7628906752788072,0.0128485057502985,-1.7995415925979614,3.1795849800109863,0.9922032952308655,0.004358178470283747,0.12455468624830246,1.3258967399597168,1.5478726625442505,-0.6489534378051758
0.030281609428934285,1.6778285745742831,1.7564423389471475,0.4498652517795563,-1.7578070163726807,3.8255321979522705,0.9938217401504517,-0.030276982113718987,0.10677903890609741,1.1954482793807983,1.5227391719818115,-0.5343760251998901
0.07088960638002732,1.6614088396334064,1.7461060696070858,0.7871440649032593,-1.6103761196136475,4.424201488494873,0.9933962225914001,-0.07083024829626083,0.0902612954378128,1.004284381866455,1.4825886487960815,-0.41716551780700684
0.11717125841754363,1.647467494467707,1.7330491642271788,1.0117079019546509,-1.4113690853118896,4.983969211578369,0.990225613117218,-0.11690333485603333,0.0760708749294281,0.7908564805984497,1.438833236694336,-0.2828274965286255
0.16901299146764953,1.6365337968038005,1.7185587629205425,1.0872575044631958,-1.1752116680145264,5.525351524353027,0.9836222529411316,-0.1682094931602478,0.06475414335727692,0.595387876033783,1.410122275352478,-0.12383615225553513
0.22622478939992546,1.6289484484312973,1.7041164059282095,1.0027543306350708,-0.9049422144889832,6.031250953674316,0.9728729128837585,-0.22430011630058289,0.056638482958078384,0.41424256563186646,1.3992421627044678,0.042147040367126465
0.2884590177926217,1.6243098878617377,1.6912018745654571,0.7770772576332092,-0.6877647042274475,6.485016822814941,0.9573110342025757,-0.2844752371311188,0.05127808079123497,0.22956335544586182,1.3906763792037964,0.1960059404373169
0.355028802769014,1.6213843994741457,1.6808720356047737,0.479665607213974,-0.5532718896865845,6.858116149902344,0.9364370107650757,-0.34761735796928406,0.047412995249032974,0.027781128883361816,1.380622148513794,0.3100547790527344
0.42505398666427224,1.6189913650908405,1.6737440939242114,0.13813762366771698,-0.45876213908195496,7.140016078948975,0.9099586606025696,-0.412369966506958,0.04388948157429695,-0.16600114107131958,1.3660595417022705,0.3907877206802368
0.4978938854329887,1.6162648630694891,1.6706109393079647,-0.2635709345340729,-0.35566505789756775,7.391378402709961,0.8776823282241821,-0.47757619619369507,0.03993445634841919,-0.31362593173980713,1.3448095321655273,0.4608132839202881
0.5733968448266766,1.6123193865662206,1.6725361774216982,-0.7309350967407227,-0.2209770679473877,7.6299147605896,0.8393388390541077,-0.5424887537956238,0.034871961921453476,-0.4069201350212097,1.3274924755096436,0.5197392702102661
0.6512936954890023,1.6061485729981237,1.6812603779286641,-1.2982115745544434,0.007482481189072132,7.8331475257873535,0.794803261756897,-0.60621577501297,0.02810979261994362,-0.47639816999435425,1.3178552389144897,0.5664184093475342
0.731268333009798,1.5962466942082587,1.6992589353749445,-1.9593559503555298,0.32935839891433716,8.015302658081055,0.7440871000289917,-0.6678142547607422,0.018941380083560944,-0.5144575238227844,1.3141765594482422,0.5934549570083618
0.8129262058241424,1.5801205291031688,1.7298497708540659,-2.6966538429260254,0.7242617607116699,8.185150146484375,0.6873461604118347,-0.7263016700744629,0.006409140303730965,-0.516554594039917,1.317457675933838,0.5957332849502563
0.8956761017890525,1.5535283306637588,1.7774416462282936,-3.4672470092773438,1.142285704612732,8.328143119812012,0.624897837638855,-0.7806318402290344,-0.010791805572807789,-0.48868268728256226,1.3296431303024292,0.5601083040237427
0.9784343122311014,1.5100461869262827,1.8480464046967724,-4.206479549407959,1.5454741716384888,8.475059509277344,0.5572921633720398,-0.8296242356300354,-0.033897288143634796,-0.4439651370048523,1.3581581115722656,0.4871901869773865
1.0596738236509526,1.4404730328972073,1.9498331598746867,-4.814894199371338,1.8722432851791382,8.647479057312012,0.4850084185600281,-0.8721959590911865,-0.06356818974018097,-0.37531304359436035,1.3946263790130615,0.37054455280303955
1.1368933466047255,1.3311544203941799,2.0948332304282795,-5.267068862915039,2.0893948078155518,8.878043174743652,0.40840116143226624,-0.9073317646980286,-0.09978760033845901,-0.3185116648674011,1.4450515508651733,0.2364758849143982
1.2054757259812998,1.1616393125382516,2.3020185060917275,-5.59909725189209,2.191115140914917,9.134955406188965,0.32776039838790894,-0.9340092539787292,-0.14212651550769806,-0.27487340569496155,1.478580117225647,0.14403389394283295
1.256520088440439,0.9080022517531916,2.5939784233027705,-5.8869829177856445,2.164778470993042,9.39909553527832,0.24367861449718475,-0.951020359992981,-0.19021350145339966,-0.27288392186164856,1.5116891860961914,0.11961111426353455
1.2765678371990832,0.5719826899747241,2.9680484893442496,-6.2098517417907715,2.0622878074645996,9.65826416015625,0.1569778025150299,-0.9570261836051941,-0.24384166300296783,-0.3192092776298523,1.5563151836395264,0.1470552384853363
1.2547341577967825,0.22384593100171848,-2.9295784020620794,-6.658086776733398,1.9322171211242676,9.84264850616455,0.06899762153625488,-0.9504667520523071,-0.3030715584754944,-0.40420272946357727,1.6287504434585571,0.21795809268951416
1.1931678563486519,-0.04857192343400537,-2.6203440590479015,-7.2872114181518555,1.8183329105377197,9.903042793273926,-0.017902256920933723,-0.9295416474342346,-0.3682822287082672,-0.5162926912307739,1.7309333086013794,0.2904777228832245
1.1032064678240179,-0.22692023112290213,-2.405627272129761,-7.9778361320495605,1.7451831102371216,9.902783393859863,-0.10140564292669296,-0.8926572203636169,-0.4391811490058899,-0.6318707466125488,1.8351010084152222,0.29086577892303467
0.9954771127060796,-0.33487245168019575,-2.261071448224362,-8.620275497436523,1.7869503498077393,9.811817169189453,-0.17881867289543152,-0.8390186429023743,-0.5138790607452393,-0.7723684906959534,1.9327991008758545,0.17992520332336426
0.8769266090337389,-0.3967515790372244,-2.1613974944836722,-9.203675270080566,1.9280468225479126,9.623945236206055,-0.24712486565113068,-0.7687770128250122,-0.5898399353027344,-0.9374759793281555,2.0461971759796143,-0.03201669454574585
0.7520123303712586,-0.4282836830270877,-2.0899117723189935,-9.644376754760742,2.201333999633789,9.299643516540527,-0.3033074736595154,-0.6831097602844238,-0.6643534898757935,-1.1181554794311523,2.148350238800049,-0.35696297883987427
0.6254425631994571,-0.43803119528962514,-2.0367497440316167,-9.750892639160156,2.6167101860046387,8.669045448303223,-0.3438660800457001,-0.585456132888794,-0.734164297580719,-1.3456480503082275,2.1562111377716064,-0.8530548810958862
0.5040941742240685,-0.43084151428221384,-1.9969597853763972,-9.276516914367676,3.05849552154541,7.5373053550720215,-0.36568683385849,-0.4830144941806793,-0.7955941557884216,-1.6468863487243652,1.9851049184799194,-1.4692373275756836
0.3963455420291794,-0.41190484201071553,-1.9675476350751386,-8.060961723327637,3.2179198265075684,6.038518905639648,-0.3693191707134247,-0.3860497772693634,-0.845321774482727,-1.9662978649139404,1.666475772857666,-2.1524505615234375
0.3100856109806407,-0.38829568457292996,-1.9462689004586282,-6.144329071044922,2.885420322418213,4.310370922088623,-0.360554575920105,-0.3051401674747467,-0.8814135789871216,-2.2179062366485596,1.3577677011489868,-2.7491865158081055
0.25121351901882505,-0.3674098120652095,-1.9324363532076145,-3.7394802570343018,1.973874807357788,2.4785943031311035,-0.3479245901107788,-0.24857957661151886,-0.9039672017097473,-2.4040591716766357,1.127455234527588,-3.1385741233825684
0.22274326561009028,-0.355670831959402,-1.9261843444921845,-1.138750433921814,0.6309746503829956,0.6718961000442505,-0.3396165668964386,-0.22090594470500946,-0.9142544269561768,-2.509260416030884,0.9700056314468384,-3.2785251140594482
0.22405522724758478,-0.355985099464102,-1.9274765229684958,1.2395477294921875,-0.7206706404685974,-0.9688284397125244,-0.3398025631904602,-0.22218529880046844,-0.9138752222061157,-2.5077316761016846,0.9516316652297974,-3.1493420600891113
0.25016968184399846,-0.366351860256329,-1.9355993590212957,2.975393295288086,-1.6519640684127808,-2.293569326400757,-0.34706079959869385,-0.24756836891174316,-0.9045765399932861,-2.3354649543762207,1.0266821384429932,-2.7753398418426514
0.2932246652929594,-0.3812073340755464,-1.9490558322133775,3.991283416748047,-1.9446065425872803,-3.1969525814056396,-0.3561614751815796,-0.289040744304657,-0.8885968923568726,-1.971459984779358,1.1244442462921143,-2.292067050933838
0.3459619695355281,-0.3943398249547102,-1.9660054940905665,4.480081081390381,-1.6767770051956177,-3.7120556831359863,-0.3614348769187927,-0.3391018211841583,-0.8685475587844849,-1.534347653388977,1.154561996459961,-1.8816202878952026
0.4033637749732108,-0.40125301609073477,-1.9848841432780597,4.688446521759033,-1.0482594966888428,-3.920560598373413,-0.35922712087631226,-0.3925143778324127,-0.8466926217079163,-1.1371718645095825,1.1050540208816528,-1.582491397857666
0.462488736128982,-0.40003295995927945,-2.0043334227718814,4.77760124206543,-0.34014442563056946,-3.9053730964660645,-0.34853512048721313,-0.44617676734924316,-0.8242872953414917,-0.8215851783752441,1.0506536960601807,-1.3415908813476562
0.5218035861080016,-0.3912190933526715,-2.0235491604155404,4.832433223724365,0.2737877070903778,-3.7635765075683594,-0.330570787191391,-0.498444527387619,-0.8014212250709534,-0.6326250433921814,1.0364389419555664,-1.1293801069259644
0.5808977467896681,-0.37622363766488576,-2.0421793016666396,4.903608322143555,0.7493763566017151,-3.585134744644165,-0.3071445822715759,-0.5487746596336365,-0.7775015234947205,-0.5419307947158813,1.0407332181930542,-0.9522042274475098
0.6399028711436132,-0.35649004361187825,-2.060534457065468,5.005670070648193,1.07314932346344,-3.4367685317993164,-0.2799413204193115,-0.59711754322052,-0.7517203688621521,-0.525280237197876,1.0513869524002075,-0.8203468322753906
0.6993403071024609,-0.33282111241493767,-2.0794264411784913,5.154117107391357,1.293299674987793,-3.360584259033203,-0.2500208616256714,-0.6437129974365234,-0.7232725620269775,-0.5321294069290161,1.0607357025146484,-0.7326600551605225
0.7601587850187306,-0.30535380187341205,-2.100240139813169,5.403099536895752,1.4027515649795532,-3.403348207473755,-0.21787503361701965,-0.6890365481376648,-0.6912012696266174,-0.6055502891540527,1.076274037361145,-0.6776036024093628
0.82371118996851,-0.2733160736999458,-2.125216839253541,5.752110958099365,1.4314320087432861,-3.576223134994507,-0.1834155023097992,-0.7336726188659668,-0.6542807221412659,-0.7096204161643982,1.1009516716003418,-0.6496590375900269
0.8908050996294777,-0.2348889664293877,-2.1571485865728715,6.144811153411865,1.402449369430542,-3.8251938819885254,-0.14634057879447937,-0.7775782346725464,-0.6115199327468872,-0.757101833820343,1.1306818723678589,-0.6099766492843628
0.9613823330799515,-0.1872950807191679,-2.199829174604953,6.544735431671143,1.268465280532837,-4.128937244415283,-0.10657960176467896,-0.8199836015701294,-0.5623769164085388,-0.7721588611602783,1.1830663681030273,-0.5519571900367737
1.0349592984303304,-0.12571531912017006,-2.258903237487832,6.946990966796875,1.0957707166671753,-4.462027549743652,-0.06401639431715012,-0.8598415851593018,-0.5065317153930664,-0.7873935699462891,1.2528774738311768,-0.4921255111694336
1.1103685246833428,-0.04146637689824319,-2.343638992042814,7.351137638092041,0.8309964537620544,-4.844136714935303,-0.018419528380036354,-0.8958625197410583,-0.4439493417739868,-0.8251321315765381,1.3711128234863281,-0.4274495244026184
1.1851903196285545,0.08168267469045966,-2.47113815682575,7.743014335632324,0.5252612829208374,-5.289708614349365,0.030688384547829628,-0.9265706539154053,-0.3748665452003479,-0.9162628054618835,1.4958150386810303,-0.3816489279270172
1.2539064376041762,0.27343076660905685,-2.670677948700529,8.077417373657227,0.32609084248542786,-5.754573822021484,0.08414685726165771,-0.9502091407775879,-0.3000366985797882,-0.9831184148788452,1.6082749366760254,-0.34298384189605713
1.3048377030046714,0.5728026563586621,-2.980017663240543,8.313213348388672,0.24450358748435974,-6.219693183898926,0.14245347678661346,-0.9648410081863403,-0.22088214755058289,-1.0203983783721924,1.7206851243972778,-0.2963297367095947
1.3201441761699964,0.9763875453668032,2.8888895816299525,8.47312068939209,0.29946157336235046,-6.667538642883301,0.2054927796125412,-0.9687508940696716,-0.138904869556427,-1.0481593608856201,1.822098731994629,-0.2528035044670105
1.288926254822359,1.3701974742301117,2.48488064139312,8.576126098632812,0.4247547686100006,-7.108084678649902,0.2725744843482971,-0.9605369567871094,-0.0554235465824604,-1.0762702226638794,1.9155082702636719,-0.1928827166557312
1.2199030059347595,1.6527993762413598,2.1929422288452805,8.632658004760742,0.5145356059074402,-7.563121318817139,0.34258151054382324,-0.9390659928321838,0.028155868873000145,-1.1235873699188232,1.9837591648101807,-0.09559965133666992
1.1276368379185,1.8300403594013832,2.0063313492123105,8.640103340148926,0.4211377501487732,-8.054228782653809,0.4144672453403473,-0.9034013748168945,0.10992178320884705,-1.1883931159973145,2.0486650466918945,0.027269959449768066
1.0214883137966575,1.9373478642129989,1.8874339580310786,8.60269832611084,0.04735346511006355,-8.577032089233398,0.48741385340690613,-0.8528860211372375,0.1871187686920166,-1.249727725982666,2.1124227046966553,0.1593015342950821
0.906509402002341,1.9992235116689345,1.8088466646905867,8.540696144104004,-0.6430678367614746,-9.140722274780273,0.5607791543006897,-0.7873566150665283,0.2561183571815491,-1.2871737480163574,2.153903007507324,0.2884221374988556
0.7843802551253997,2.0296290935288184,1.7540335136920162,8.4680757522583,-1.4961953163146973,-9.736817359924316,0.6346158981323242,-0.7063866257667542,0.3134976327419281,-1.3160123825073242,2.196239471435547,0.36538127064704895
0.6562575316683383,2.0368946420811413,1.7137181041881338,8.342179298400879,-2.374807119369507,-10.431135177612305,0.7077674269676208,-0.6101560592651367,0.35605454444885254,-1.3259468078613281,2.2368345260620117,0.4067934453487396
0.5222187373152708,2.025665595610755,1.682664414689144,8.14560604095459,-3.325425624847412,-11.215293884277344,0.7785856127738953,-0.49880439043045044,0.38078656792640686,-1.3232940435409546,2.2696633338928223,0.47666579484939575
0.38269556252200215,1.9982897713084053,1.657443433781569,7.81172513961792,-4.344593524932861,-11.981144905090332,0.844179093837738,-0.37342238426208496,0.3846001625061035,-1.2677936553955078,2.3728272914886475,0.5758033394813538
0.23983547562976634,1.956083585375444,1.6357724458599336,7.197822093963623,-5.381274700164795,-12.49077033996582,0.9001657962799072,-0.23754280805587769,0.36506807804107666,-1.0541882514953613,2.55094313621521,0.6994462013244629
0.09862441050351252,1.90177187212242,1.6168236014361639,6.100773334503174,-5.992966651916504,-12.465008735656738,0.9411299228668213,-0.09846460819244385,0.3233865797519684,-0.5612167716026306,2.7172391414642334,0.841560959815979
-0.032880920304147805,1.8430411571037555,1.6017548008555347,4.5198655128479,-5.6969194412231445,-11.531636238098145,0.9626491069793701,0.03287499397993088,0.2687489092350006,0.2538578510284424,2.8274002075195312,0.9538310766220093
-0.1450928445052525,1.7902592560184658,1.591919326645513,2.828108072280884,-4.577763080596924,-9.586392402648926,0.9657590389251709,0.1445842981338501,0.21541792154312134,1.392151117324829,2.820183277130127,0.9978847503662109
-0.23155710805961358,1.75087283945522,1.5886073111848664,1.2323592901229858,-3.1394426822662354,-7.159056663513184,0.957571804523468,0.22949334979057312,0.17432458698749542,2.3608789443969727,2.636915922164917,1.0060495138168335
-0.2913610622435112,1.7287205844325877,1.5951601489525817,-0.5188254714012146,-1.6111408472061157,-4.833207607269287,0.9459341764450073,0.2872561812400818,0.1506403684616089,2.7995643615722656,2.3321895599365234,1.0758764743804932
-0.3261972449368891,1.7273220947004677,1.6170438756613976,-2.5049188137054443,-0.0036010462790727615,-2.694274425506592,0.935687243938446,0.32044312357902527,0.14766709506511688,2.8655059337615967,2.26023006439209,1.2213817834854126
-0.3377794901552987,1.747388856995327,1.6552773767422384,-4.123735427856445,1.4291950464248657,-0.8657549619674683,0.9288195967674255,0.33139288425445557,0.16574916243553162,2.765531539916992,2.38128399848938,1.132224440574646
-0.33053130015626303,1.7822582401907494,1.7037258781212183,-5.01777982711792,2.2442848682403564,0.46057912707328796,0.9248009920120239,0.32454562187194824,0.19852818548679352,2.4520606994628906,2.4915096759796143,0.7285654544830322
-0.30958648364863856,1.8213902748975528,1.7545120497493871,-5.21213436126709,2.273406744003296,1.3620679378509521,0.9227100610733032,0.3046647906303406,0.23619042336940765,2.092075824737549,2.5147476196289062,0.2575231194496155
-0.2797785518875793,1.855164745437809,1.800609176359375,-4.766134738922119,1.7289010286331177,2.023284435272217,0.9225172400474548,0.27614280581474304,0.26964250206947327,1.815077304840088,2.4690659046173096,-0.17012465000152588
-0.2450285847631147,1.8774883301324268,1.8364679159569894,-3.8106353282928467,0.8280411958694458,2.5810413360595703,0.92486172914505,0.24258404970169067,0.2928888499736786,1.6126902103424072,2.3441011905670166,-0.5362969636917114
-0.20798643998361388,1.8857335511440316,1.858823979504297,-2.5620007514953613,-0.19495439529418945,3.116790294647217,0.9303244352340698,0.206490159034729,0.30308109521865845,1.4473609924316406,2.147101640701294,-0.7720904350280762
-0.16982936327436995,1.8803717072806925,1.8667143924886642,-1.2548359632492065,-1.1548386812210083,3.642454147338867,0.9387606382369995,0.16901417076587677,0.3002713918685913,1.28993821144104,1.9349744319915771,-0.8504270315170288
-0.13038852702402634,1.8640946671852583,1.8613993403707174,-0.11382587999105453,-1.8968331813812256,4.176210880279541,0.9491693377494812,0.1300193816423416,0.28665709495544434,1.1232945919036865,1.7521674633026123,-0.7645776271820068
-0.0883101663160507,1.8411324153435102,1.8458311877610125,0.6925579905509949,-2.293208360671997,4.740740776062012,0.9599258303642273,0.08819542825222015,0.2660146653652191,0.9779707789421082,1.6032108068466187,-0.5428242683410645
-0.04172675211520587,1.816530828455777,1.824019041114201,1.0876333713531494,-2.284813165664673,5.3458075523376465,0.9691147208213806,0.04171464592218399,0.24305710196495056,0.8396316766738892,1.4993619918823242,-0.2344968020915985
0.010681113186912849,1.794621583070747,1.799954746078866,1.1095428466796875,-1.9832587242126465,5.929666996002197,0.9749999642372131,-0.0106809101998806,0.22194842994213104,0.6603913307189941,1.455230474472046,0.08026722073554993
0.06941443374917233,1.7777694012645018,1.7769357784246773,0.8387883305549622,-1.543373942375183,6.483166217803955,0.9763007760047913,-0.0693587064743042,0.20500366389751434,0.4516015648841858,1.4347761869430542,0.3499280512332916
0.13425592209676507,1.7665752478103816,1.7574196062442162,0.3517121970653534,-1.0830471515655518,6.945084571838379,0.9720696210861206,-0.13385295867919922,0.19278010725975037,0.22330397367477417,1.4279966354370117,0.5621333122253418
0.2043702931311531,1.7601106005665814,1.7431789432151925,-0.29074883460998535,-0.6931543350219727,7.290392875671387,0.9616943597793579,-0.2029505968093872,0.18426914513111115,-0.02573549747467041,1.4279567003250122,0.7279623746871948
0.2786022276678103,1.7563917294768472,1.7355867448738698,-1.034214735031128,-0.40843793749809265,7.509519577026367,0.9449295997619629,-0.2750120460987091,0.1774163544178009,-0.2582535743713379,1.4180479049682617,0.8417487144470215
0.3559593405817797,1.7533971343664183,1.7358616014711796,-1.8440622091293335,-0.17231568694114685,7.6330037117004395,0.921729564666748,-0.3484897315502167,0.17020449042320251,-0.43555402755737305,1.394845962524414,0.9068371057510376
0.4357417574500844,1.7488463963039036,1.7451101675160041,-2.6798503398895264,-0.030344173312187195,7.70941686630249,0.8922255039215088,-0.42208296060562134,0.16056109964847565,-0.540815532207489,1.3837833404541016,0.9337077140808105
0.5176757871458246,1.7401086360688307,1.7642684013160477,-3.4780304431915283,0.04888481646776199,7.793637275695801,0.8565462827682495,-0.49486181139945984,0.14642567932605743,-0.5834901928901672,1.3840218782424927,0.903272271156311
0.6014263806154212,1.7251101926611951,1.7941955309132152,-4.1944708824157715,0.14255937933921814,7.863040447235107,0.8147318959236145,-0.5658191442489624,0.1267319768667221,-0.586643397808075,1.3841478824615479,0.8140640258789062
0.6861935596406393,1.7019151252289568,1.8361760746458382,-4.826520919799805,0.26542434096336365,7.911587715148926,0.7670223116874695,-0.6335968971252441,0.10115137696266174,-0.5740445256233215,1.3992524147033691,0.7054587602615356
0.7710897136664466,1.667696347235389,1.8923675687584494,-5.39504861831665,0.3736269772052765,7.946585655212402,0.713787317276001,-0.6969171166419983,0.06938330084085464,-0.5429041981697083,1.4284999370574951,0.5996383428573608
0.8548138167547592,1.6179972660462658,1.966306073673156,-5.901747703552246,0.431520015001297,7.957427501678467,0.655627965927124,-0.7544487118721008,0.03096925839781761,-0.5029485821723938,1.4671409130096436,0.4950927495956421
0.9354094772777308,1.5466724235916838,2.0628278839736267,-6.30510950088501,0.3660570979118347,7.9467549324035645,0.5933161973953247,-0.8048421740531921,-0.01431587990373373,-0.4676448106765747,1.5005056858062744,0.38862931728363037
1.010072320833184,1.4459294256000836,2.187925734562211,-6.570502758026123,0.17229239642620087,7.90963888168335,0.5276587009429932,-0.8468703031539917,-0.06623169034719467,-0.4357093572616577,1.5102462768554688,0.27883243560791016
1.0751264856772453,1.3079481630820284,2.3480092364980623,-6.698575496673584,-0.08640174567699432,7.876652240753174,0.4592852294445038,-0.8796502947807312,-0.12358152121305466,-0.40626096725463867,1.495311975479126,0.16838133335113525
1.1261459878668054,1.1274475282906837,2.5480971634326584,-6.730846405029297,-0.2856121063232422,7.867707252502441,0.3885563313961029,-0.9027611017227173,-0.18451686203479767,-0.3854893445968628,1.4704490900039673,0.07315826416015625
1.1579581510063206,0.9066696356073523,2.7871061472741165,-6.782207012176514,-0.32910099625587463,7.891199588775635,0.31593555212020874,-0.9159858226776123,-0.24729493260383606,-0.34985587000846863,1.4382941722869873,0.014033868908882141
1.1656393048441762,0.6612645689114953,3.0511635459367494,-6.896650791168213,-0.23094956576824188,7.980701446533203,0.24206143617630005,-0.9190405011177063,-0.3110796809196472,-0.2976340055465698,1.4332466125488281,-0.00766107439994812
1.1470637116235665,0.42016195938292517,-2.9700627907736505,-7.052899360656738,0.026742160320281982,8.12224006652832,0.1677180528640747,-0.911560595035553,-0.3754040002822876,-0.2567225694656372,1.4541934728622437,-0.028831839561462402
1.1042059206710857,0.2111254592558708,-2.7366751441328425,-7.22458028793335,0.3312053382396698,8.254878044128418,0.09426950663328171,-0.8931072354316711,-0.4398553669452667,-0.2419746220111847,1.4962871074676514,-0.06057178974151611
1.0420632908562097,0.0465806055563184,-2.5444180792884277,-7.369779109954834,0.5594518184661865,8.2864408493042,0.023488614708185196,-0.8634468913078308,-0.5038926005363464,-0.2737938165664673,1.541593313217163,-0.11155527830123901
0.966274883866082,-0.0756921424297092,-2.392428842821564,-7.459552764892578,0.6362737417221069,8.176506996154785,-0.042979951947927475,-0.8227741718292236,-0.5667409896850586,-0.3654063045978546,1.5488941669464111,-0.17601102590560913
0.8820164224248632,-0.16463337818019164,-2.2736179935529464,-7.475658416748047,0.5440913438796997,7.999099254608154,-0.10416821390390396,-0.7720220685005188,-0.6270015239715576,-0.500873327255249,1.5548741817474365,-0.2437564730644226
0.7929886798137501,-0.22999499361692527,-2.1794508588894037,-7.452064037322998,0.4008652865886688,7.795440196990967,-0.15997278690338135,-0.7124536633491516,-0.6832411885261536,-0.6636050939559937,1.6125695705413818,-0.33064424991607666
0.7013229156034549,-0.27790615079273545,-2.1034573305246864,-7.440826416015625,0.38409510254859924,7.540951251983643,-0.20959489047527313,-0.645228922367096,-0.7346764802932739,-0.846328616142273,1.6842609643936157,-0.4411657452583313
0.6083831647151656,-0.31099844789491066,-2.0417834288886456,-7.45374059677124,0.5367810130119324,7.149374961853027,-0.25110307335853577,-0.5715414881706238,-0.7812091112136841,-1.0592607259750366,1.7513662576675415,-0.5859020948410034
0.5159332003557496,-0.3306836656500231,-1.992617864430278,-7.388171195983887,0.7834113240242004,6.495237827301025,-0.28242576122283936,-0.49334678053855896,-0.8227056860923767,-1.3354790210723877,1.7943720817565918,-0.8168511390686035
0.42755533076686303,-0.3383870437031266,-1.9554878906812314,-7.035768508911133,1.0537779331207275,5.475844383239746,-0.30208316445350647,-0.4146474301815033,-0.8583782911300659,-1.685923457145691,1.7651876211166382,-1.1928454637527466
0.3485151476667669,-0.3362249957730875,-1.9301629644336515,-6.215674877166748,1.290059208869934,4.120291709899902,-0.31009095907211304,-0.3415026068687439,-0.8872539401054382,-2.0356273651123047,1.6298480033874512,-1.693495512008667
0.28473648335400287,-0.3271006015503173,-1.9157756644251984,-4.849350452423096,1.396631121635437,2.584973096847534,-0.30836185812950134,-0.2809045612812042,-0.9088485240936279,-2.268267869949341,1.4495141506195068,-2.219569444656372
0.2413614234633819,-0.31530596183094345,-1.9110652907441084,-3.0046892166137695,1.1626300811767578,1.0020842552185059,-0.3011184334754944,-0.2390248030424118,-0.9231439828872681,-2.3447556495666504,1.2493091821670532,-2.6804325580596924
0.2222713338974871,-0.30579888724411874,-1.9146942949960837,-0.8026213645935059,0.5266284346580505,-0.4835341274738312,-0.29364892840385437,-0.2204456478357315,-0.9301472902297974,-2.2708804607391357,1.1077899932861328,-2.972196340560913
0.22880546654110967,-0.30252030934071483,-1.9244908809218901,1.4618096351623535,-0.3124891519546509,-1.6754558086395264,-0.29016244411468506,-0.22681428492069244,-0.9297102093696594,-2.0601489543914795,1.0826644897460938,-3.0180132389068604
0.25869112369336933,-0.306491013305094,-1.937615741407264,3.3942677974700928,-1.0910723209381104,-2.4903335571289062,-0.2916756570339203,-0.25581544637680054,-0.9216744303703308,-1.7108573913574219,1.1255358457565308,-2.792452096939087
0.30630886013004915,-0.3162593909580264,-1.9521427862552292,4.713449001312256,-1.6223864555358887,-3.0361831188201904,-0.296536922454834,-0.30154135823249817,-0.9061669707298279,-1.3345208168029785,1.1776857376098633,-2.3499975204467773
0.3651710719091276,-0.32871982127076693,-1.9673158961718322,5.451815605163574,-1.8106664419174194,-3.3677475452423096,-0.30154499411582947,-0.35710909962654114,-0.8840495944023132,-1.0153191089630127,1.1946334838867188,-1.8728320598602295
0.4299397292331,-0.3402839739602424,-1.9825675616460228,5.784354209899902,-1.6270273923873901,-3.5040416717529297,-0.3033800721168518,-0.41681602597236633,-0.8568692803382874,-0.7512006759643555,1.1714394092559814,-1.4890016317367554
0.49701130387940895,-0.34777158497095906,-1.9975408246241073,5.877128601074219,-1.1761478185653687,-3.503828287124634,-0.29957032203674316,-0.4768005609512329,-0.8263890147209167,-0.5694635510444641,1.1341034173965454,-1.2059900760650635
0.5640476137090413,-0.349359561568957,-2.011926092903371,5.822376251220703,-0.5758916139602661,-3.3763601779937744,-0.28927382826805115,-0.5346112251281738,-0.7940475344657898,-0.47102591395378113,1.1259808540344238,-0.9843490123748779
0.6295996826953433,-0.34418372928532787,-2.025460971523329,5.704325199127197,0.0961512103676796,-3.1644186973571777,-0.2727309763431549,-0.5888212323188782,-0.7608596086502075,-0.4004105031490326,1.139495611190796,-0.8176468014717102
0.693285075342714,-0.33208393539548403,-2.038188968975095,5.617567539215088,0.7495657205581665,-2.943422317504883,-0.2507537603378296,-0.6390673518180847,-0.7271282076835632,-0.3505188226699829,1.1108081340789795,-0.7112872004508972
0.755724780560356,-0.31348311474311735,-2.050502369861082,5.618497848510742,1.3145420551300049,-2.7583577632904053,-0.22442667186260223,-0.6858163475990295,-0.6923066973686218,-0.33589133620262146,1.0819497108459473,-0.6494900584220886
0.8180245914414271,-0.28884405552059134,-2.063158446197713,5.72096061706543,1.7951511144638062,-2.6353628635406494,-0.19473788142204285,-0.7297967672348022,-0.6553425192832947,-0.34052520990371704,1.0719444751739502,-0.6078104972839355
0.8811051688407858,-0.25839242285749536,-2.0773687649116073,5.887373447418213,2.120054244995117,-2.574899911880493,-0.1625913679599762,-0.7714425921440125,-0.6151751279830933,-0.3576265573501587,1.0794564485549927,-0.5574169754981995
0.9457241704722396,-0.22258556666431653,-2.094799788041465,6.129420280456543,2.245882034301758,-2.5646839141845703,-0.1291743814945221,-0.8109208941459656,-0.5707199573516846,-0.3960789442062378,1.1245348453521729,-0.5134780406951904
1.0127948907566278,-0.18084253256389426,-2.117881236499367,6.469236850738525,2.2383205890655518,-2.6349642276763916,-0.09523358196020126,-0.8483150005340576,-0.5208572149276733,-0.4268306493759155,1.1812007427215576,-0.4883285164833069
1.0831933808828256,-0.130575398806203,-2.1506004575272213,6.901144981384277,2.1094319820404053,-2.765549898147583,-0.061002131551504135,-0.8834584355354309,-0.46452122926712036,-0.46477001905441284,1.2496998310089111,-0.46551722288131714
1.1573247424276787,-0.06634319629496173,-2.1998643554676995,7.387021541595459,1.8287644386291504,-2.9457552433013916,-0.026636537164449692,-0.9157314896583557,-0.40090692043304443,-0.4959312677383423,1.3300533294677734,-0.4448724389076233
1.2346623245892652,0.02403844485397415,-2.2794382904578008,7.896069526672363,1.3946619033813477,-3.189060926437378,0.007928074337542057,-0.9440369009971619,-0.3297445774078369,-0.5232632160186768,1.4285340309143066,-0.4237954616546631
1.313046066327624,0.17042885530821048,-2.420675045545114,8.429147720336914,0.8247556090354919,-3.4958784580230713,0.04323325678706169,-0.966965913772583,-0.2512125074863434,-0.5652211904525757,1.540482759475708,-0.40927937626838684
1.3856349253525135,0.45124587855911236,-2.7029210245782065,8.98379898071289,0.20715127885341644,-3.857515811920166,0.08028558641672134,-0.9829065203666687,-0.16567645967006683,-0.6170593500137329,1.6323665380477905,-0.4105105698108673
1.4288128318103115,1.0190417280014166,3.004130319692803,9.523043632507324,-0.4613998532295227,-4.299532413482666,0.12050838023424149,-0.9899372458457947,-0.07417555153369904,-0.6723730564117432,1.7129597663879395,-0.4173710346221924
1.40291300902371,1.7011321586498316,2.305827232060515,10.063791275024414,-1.259269118309021,-4.861872673034668,0.16567884385585785,-0.9859406352043152,0.021717002615332603,-0.7462911009788513,1.79343581199646,-0.4247931241989136
1.319406694402968,2.0730527653970396,1.9087731039421636,10.572355270385742,-2.1433792114257812,-5.570285797119141,0.21802903711795807,-0.9685676693916321,0.11974938958883286,-0.8397942185401917,1.8672646284103394,-0.4090101718902588
1.2093419897087279,2.2288863998798267,1.7179076074510289,10.980597496032715,-3.1426713466644287,-6.425920486450195,0.2797824442386627,-0.9353834986686707,0.2162855565547943,-0.9212009906768799,1.9271132946014404,-0.33692145347595215
1.0850890576541354,2.2857658763037505,1.6157048144295076,11.156085014343262,-4.124429225921631,-7.408041954040527,0.35251253843307495,-0.8843449950218201,0.3060537576675415,-0.9669687747955322,1.9837713241577148,-0.1902090311050415
0.9518785491832293,2.2906957959891376,1.5556988017810398,11.030004501342773,-5.113489151000977,-8.501230239868164,0.43620163202285767,-0.8145067691802979,0.38250088691711426,-0.9943834543228149,2.063133478164673,-0.015053868293762207
0.8117027388227877,2.2630025322713996,1.5181001869111443,10.723913192749023,-6.226023197174072,-9.667037963867188,0.5298529863357544,-0.7254601716995239,0.4392756223678589,-1.0453407764434814,2.126232385635376,0.11666300892829895
0.6651572929796553,2.2123898931948918,1.4921156201695651,10.356945991516113,-7.339967727661133,-10.906445503234863,0.6303551197052002,-0.6171829104423523,0.47089022397994995,-1.0981439352035522,2.214442491531372,0.19964203238487244
0.5125681953687213,2.1457182391703764,1.471143489290901,9.876272201538086,-8.253576278686523,-12.021355628967285,0.731383204460144,-0.4904170036315918,0.47388848662376404,-1.052077054977417,2.370330333709717,0.24135220050811768
0.35660318530365614,2.067718138477834,1.450056694006049,9.273094177246094,-9.021254539489746,-12.68589973449707,0.8237512111663818,-0.34909313917160034,0.44673043489456177,-0.8114067912101746,2.5876948833465576,0.23307925462722778
0.20282742497022163,1.9826795417847591,1.4251487662664892,8.449225425720215,-9.165811538696289,-12.648575782775879,0.8975838422775269,-0.20143960416316986,0.39212924242019653,-0.32255637645721436,2.738548994064331,0.21784090995788574
0.060959216586450565,1.8986217669362315,1.395640928365995,7.122716903686523,-8.199919700622559,-11.443887710571289,0.9449864029884338,-0.06092146784067154,0.32138702273368835,0.5455227494239807,2.796074628829956,0.34618499875068665
-0.05529235493806663,1.8258568190166002,1.36757392482502,4.7414140701293945,-6.2199201583862305,-9.027284622192383,0.9661694169044495,0.0552641861140728,0.25191840529441833,1.7618579864501953,2.750903367996216,0.8130382299423218
-0.13641235311181343,1.7745638604036311,1.3540748703231422,1.501132607460022,-3.7133262157440186,-6.084381580352783,0.9702136516571045,0.13598968088626862,0.20048047602176666,2.784959077835083,2.414440631866455,1.419774055480957
-0.18258000054679666,1.7530720491088247,1.3639051068155983,-1.5732060670852661,-0.8687423467636108,-3.3843307495117188,0.9670877456665039,0.18156729638576508,0.1782551407814026,3.276839256286621,1.9390839338302612,1.7254770994186401
-0.20012176931455214,1.765296694268204,1.396645784219852,-3.9857189655303955,2.0083727836608887,-1.3294004201889038,0.9615628719329834,0.19878867268562317,0.1894189864397049,3.083282470703125,1.8243284225463867,1.5297125577926636
-0.1953285847228787,1.8066522790759716,1.446685412283864,-5.687410831451416,4.109013557434082,0.0977080687880516,0.9538252353668213,0.194088876247406,0.22923177480697632,2.612565755844116,2.0307188034057617,1.1356364488601685
-0.17420253252384593,1.863745002592958,1.5063008162690135,-6.580155372619629,4.917789936065674,0.8386260867118835,0.942906379699707,0.17332279682159424,0.284405916929245,2.148707389831543,2.214540481567383,0.7148312330245972
-0.1436998778473436,1.9218219305249469,1.5667583208708422,-6.51482629776001,4.621339321136475,1.1295764446258545,0.9293420910835266,0.14320583641529083,0.34031689167022705,1.7734167575836182,2.213529348373413,0.2324829399585724
-0.10991371993875217,1.9696042885964682,1.6196181223394828,-5.5948896408081055,3.473320484161377,1.3063982725143433,0.9159636497497559,0.1096925437450409,0.3859768509864807,1.5858979225158691,2.146487236022949,-0.23183250427246094
-0.07714076767015823,1.9997650908264104,1.6588667150585712,-4.116794109344482,1.7520865201950073,1.5444327592849731,0.9066908359527588,0.07706428319215775,0.4146963357925415,1.5128343105316162,2.018089532852173,-0.5770955681800842
-0.047970855299861496,2.009107554437564,1.6815104298451755,-2.416693687438965,-0.1742667853832245,1.8402636051177979,0.9044281244277954,0.04795245826244354,0.42392274737358093,1.4390778541564941,1.819143533706665,-0.7526732087135315
-0.022730877543533916,1.9988746186363127,1.6877273058596656,-0.8611294627189636,-1.8584805727005005,2.2105324268341064,0.9095302224159241,0.022728919982910156,0.4150160551071167,1.3369755744934082,1.6161870956420898,-0.7674786448478699
0.0007555087599233216,1.974359963506258,1.6801945786674901,0.27299952507019043,-2.9211220741271973,2.6888020038604736,0.9196673035621643,-0.0007555086631327868,0.39269813895225525,1.23359215259552,1.4872820377349854,-0.634778618812561
0.026199056259084218,1.943403625209908,1.6633654787324674,0.8422563672065735,-3.2067418098449707,3.289401054382324,0.9310616850852966,-0.026196058839559555,0.363920122385025,1.1406850814819336,1.4381223917007446,-0.3873271048069
0.05714472708827701,1.9132245880492373,1.6423204401786606,0.8705620765686035,-2.9343597888946533,3.9606494903564453,0.9404045939445496,-0.057113632559776306,0.33522728085517883,1.0368751287460327,1.4256134033203125,-0.10503312945365906
0.09558778373203297,1.887912105029103,1.621518030430731,0.535257875919342,-2.408658027648926,4.627743721008301,0.9458013772964478,-0.0954422876238823,0.3104039430618286,0.8827356100082397,1.417433261871338,0.13326072692871094
0.14189063349307973,1.868913904247046,1.6036167924994789,0.0438508503139019,-1.7938867807388306,5.232835292816162,0.9462846517562866,-0.14141499996185303,0.2907695174217224,0.6834301352500916,1.413967490196228,0.2700062394142151
0.19529743619169476,1.856264871003653,1.5897798379017996,-0.4974847733974457,-1.1971056461334229,5.731332302093506,0.9412891864776611,-0.19405832886695862,0.27625373005867004,0.47524523735046387,1.4118469953536987,0.32456111907958984
0.2547428496028426,1.8485427624090438,1.5804586949845303,-1.0421035289764404,-0.7878950834274292,6.153659820556641,0.9306406378746033,-0.25199657678604126,0.26534053683280945,0.27819108963012695,1.431653618812561,0.3406164348125458
0.31942756417401336,1.8429389859662266,1.5752562166055912,-1.4846090078353882,-0.6476029753684998,6.520707607269287,0.9144742488861084,-0.31402313709259033,0.2551989257335663,0.11714208126068115,1.4550753831863403,0.3124738037586212
0.3883818840918994,1.837188643599714,1.5733164808173234,-1.8140122890472412,-0.6345300078392029,6.816295146942139,0.8928769826889038,-0.37869131565093994,0.24364645779132843,-0.024453580379486084,1.460875153541565,0.25716233253479004
0.460615595141315,1.830532789733878,1.5742546287083563,-2.0943679809570312,-0.6108100414276123,7.040066242218018,0.8657325506210327,-0.4444996416568756,0.23005922138690948,-0.160883367061615,1.4621999263763428,0.2025885432958603
0.5356067397148724,1.8227898683967374,1.5782383091245469,-2.366133689880371,-0.5437327027320862,7.244615077972412,0.8327993154525757,-0.5103629231452942,0.2144179344177246,-0.2596639394760132,1.474703073501587,0.16457998752593994
0.6131952144947002,1.8138207036401097,1.585593302212773,-2.6138031482696533,-0.43436914682388306,7.456956386566162,0.7937817573547363,-0.575483500957489,0.19679801166057587,-0.32747316360473633,1.5020735263824463,0.12540662288665771
0.6934766854956104,1.8033450731072336,1.5964014998413496,-2.8087940216064453,-0.35296669602394104,7.697235107421875,0.7483275532722473,-0.6392146944999695,0.17722900211811066,-0.34822696447372437,1.5185787677764893,0.07147406041622162
0.7762676499647821,1.7902945245899884,1.6106907142284406,-2.941657304763794,-0.33448436856269836,7.907047748565674,0.696413516998291,-0.7006211280822754,0.15536469221115112,-0.3740410804748535,1.5446152687072754,0.028946280479431152
0.8608881376818468,1.7736376263537015,1.6291804507914351,-3.057788848876953,-0.28185099363327026,8.057540893554688,0.6384016275405884,-0.7584217190742493,0.1312999427318573,-0.43286585807800293,1.5780019760131836,0.0013600289821624756
0.946920418260812,1.752148564429193,1.6537208251564877,-3.1928062438964844,-0.1407472789287567,8.196928977966309,0.5746051073074341,-0.81162029504776,0.10536354780197144,-0.4649554491043091,1.5995383262634277,-0.01281893253326416
1.0341763788107312,1.723097679329642,1.6879728991690468,-3.39872407913208,0.07080785185098648,8.330591201782227,0.505316436290741,-0.8594415783882141,0.07756099849939346,-0.4584718942642212,1.6190087795257568,-0.008362405002117157
1.1223679600630334,1.67986398805164,1.7390679766044441,-3.6751227378845215,0.29939600825309753,8.473655700683594,0.4309737980365753,-0.9011296033859253,0.04719258472323418,-0.4412277340888977,1.6432865858078003,0.0036191940307617188
1.2108604303917943,1.6091910018212077,1.8205575556686602,-3.9982478618621826,0.5664085149765015,8.643651008605957,0.35195475816726685,-0.9359194040298462,0.013519832864403725,-0.41404280066490173,1.6654115915298462,0.0005793571472167969
1.2977413238914448,1.4816165337398406,1.9622162368038065,-4.34467077255249,0.8769106864929199,8.863547325134277,0.26860299706459045,-0.9629515409469604,-0.024017665535211563,-0.36598461866378784,1.6954344511032104,-0.015700936317443848
1.3768297002511625,1.222155121931883,2.2393117329900276,-4.710496425628662,1.1962559223175049,9.16773509979248,0.18115642666816711,-0.9812473654747009,-0.0658484399318695,-0.3059428334236145,1.7447819709777832,-0.035698771476745605
1.4262695282777096,0.6730893294019892,2.8095524670165863,-5.1219706535339355,1.5161532163619995,9.56160831451416,0.0897856280207634,-0.9895741939544678,-0.11261281371116638,-0.2397642731666565,1.8135029077529907,-0.05340273678302765
1.4050703723560383,-0.029797886891226873,-2.7460452121421803,-5.562595844268799,1.8149718046188354,10.015092849731445,-0.0049149817787110806,-0.9862988591194153,-0.164895161986351,-0.18754413723945618,1.8997814655303955,-0.0707157701253891
1.3234815036568757,-0.4283717208886912,-2.3193614086653693,-5.989046573638916,2.0904219150543213,10.463587760925293,-0.10168806463479996,-0.9695732593536377,-0.22268187999725342,-0.19480547308921814,1.9957420825958252,-0.1079302430152893
1.2159716936824412,-0.6072411775496271,-2.109334377250661,-6.391377925872803,2.3009305000305176,10.860283851623535,-0.19824276864528656,-0.9377074241638184,-0.2853151857852936,-0.264647901058197,2.103005886077881,-0.16840490698814392
1.09650097474246,-0.6928014092520423,-1.9896942465275995,-6.706931114196777,2.5105457305908203,11.169611930847168,-0.29169970750808716,-0.8896147608757019,-0.35142141580581665,-0.36792251467704773,2.2102324962615967,-0.2737463712692261
0.9707685635713087,-0.7350598835800273,-1.9101267984211838,-6.886470794677734,2.713092088699341,11.355278968811035,-0.378682404756546,-0.8253199458122253,-0.4188634157180786,-0.5074870586395264,2.2569148540496826,-0.4275567829608917
0.8422808491308733,-0.753850982010364,-1.8503012854283254,-6.944407939910889,2.9561238288879395,11.389927864074707,-0.4556821286678314,-0.746163547039032,-0.4853798449039459,-0.7077394723892212,2.2755215167999268,-0.6070272922515869
0.7136523407715281,-0.7567208612956259,-1.8013150309356076,-6.944453716278076,3.3532354831695557,11.228732109069824,-0.519008457660675,-0.6545991897583008,-0.5496634840965271,-1.0166054964065552,2.293789863586426,-0.8272284865379333
0.5873077934944003,-0.7458534750268909,-1.759899015597386,-6.968494892120361,3.810717821121216,10.713654518127441,-0.5648899078369141,-0.5541219711303711,-0.6114314198493958,-1.4054927825927734,2.253401756286621,-1.080417275428772
0.4666161072588906,-0.7228504699535836,-1.7262134197284547,-6.970976829528809,4.126705169677734,9.64176082611084,-0.5908051133155823,-0.44986671209335327,-0.6697531342506409,-1.8778076171875,2.0777812004089355,-1.3793801069259644
0.356880056248604,-0.6910402814997612,-1.701704265502493,-6.6894989013671875,4.127274513244629,7.888264179229736,-0.5971813201904297,-0.34935256838798523,-0.7220300436019897,-2.424379348754883,1.8038051128387451,-1.7555853128433228
0.26544350243300346,-0.656372581592038,-1.6877665615776374,-5.796862602233887,3.5507755279541016,5.478964328765869,-0.5888740420341492,-0.26233726739883423,-0.7644648551940918,-3.0245141983032227,1.5159687995910645,-2.231171131134033
0.20108171663058277,-0.6274298677572472,-1.6846399906925336,-3.9880330562591553,2.309116840362549,2.665543556213379,-0.5752373337745667,-0.19972936809062958,-0.7932276725769043,-3.507251739501953,1.206138014793396,-2.806000232696533
0.17147045920836365,-0.6111293135879966,-1.6899682009861103,-1.34013831615448,0.7304390668869019,-0.047855135053396225,-0.5653780102729797,-0.17063142359256744,-0.806989848613739,-3.6067869663238525,0.9119949340820312,-3.341111898422241
0.1790220221296862,-0.6105463835789805,-1.6989890111611965,1.539756178855896,-0.9265167713165283,-2.1661157608032227,-0.5641526579856873,-0.17806731164455414,-0.8062405586242676,-3.2536725997924805,0.8148623704910278,-3.55507230758667
0.21799132697260393,-0.6263343352266334,-1.7062808260323012,3.8582823276519775,-2.4646077156066895,-3.3867440223693848,-0.572306215763092,-0.21626892685890198,-0.7910077571868896,-2.5369467735290527,0.9093383550643921,-3.2875750064849854
0.27702753132482705,-0.6560366341257696,-1.707984122272226,5.266540050506592,-3.4285922050476074,-3.8456952571868896,-0.586724042892456,-0.27349773049354553,-0.7622032761573792,-1.720435380935669,1.0095359086990356,-2.706684112548828
0.3453990742728162,-0.6929362325486081,-1.7029432675846996,5.901027202606201,-3.504352331161499,-3.8880467414855957,-0.6010717749595642,-0.3385722041130066,-0.7239347696304321,-1.125978946685791,0.9755503535270691,-2.139056444168091
0.4159447870247163,-0.7290536861097526,-1.6921729466616011,5.992928981781006,-2.8123409748077393,-3.780625820159912,-0.6093636751174927,-0.40405434370040894,-0.6822140216827393,-0.8262290358543396,0.8463150262832642,-1.6968295574188232
0.4843338344762977,-0.75754252622025,-1.678456066770438,5.6618266105651855,-1.6372190713882446,-3.6363637447357178,-0.6081071496009827,-0.46561890840530396,-0.64296555519104,-0.7212385535240173,0.7665374875068665,-1.302743673324585
0.5478404251305672,-0.7738566706743422,-1.6650067101190003,5.056581497192383,-0.28470632433891296,-3.4571940898895264,-0.5966158509254456,-0.5208449363708496,-0.6105489730834961,-0.6909970641136169,0.7793135046958923,-0.9257058501243591
0.6050782229022036,-0.7761098488447674,-1.654071567447171,4.3697991371154785,1.0007538795471191,-3.222580909729004,-0.5761385560035706,-0.56882643699646,-0.5869418978691101,-0.6539182066917419,0.8251588344573975,-0.6292597651481628
0.6559314191861215,-0.7650715928494469,-1.6464250963992444,3.782285213470459,2.0662484169006348,-2.9623682498931885,-0.5488627552986145,-0.6098976135253906,-0.5716419219970703,-0.6022908091545105,0.8781929612159729,-0.4517344832420349
0.7016456169819407,-0.7433259977069823,-1.6414094265762762,3.423252582550049,2.8598108291625977,-2.7241909503936768,-0.5168813467025757,-0.645475447177887,-0.5623121857643127,-0.536356508731842,0.8933240175247192,-0.392475962638855
0.7444284832172093,-0.7142267573976322,-1.637850599538249,3.326296091079712,3.377222776412964,-2.572315216064453,-0.4817608594894409,-0.6775515675544739,-0.5557251572608948,-0.4911700487136841,0.8747256398200989,-0.4114074110984802
0.7868005484071209,-0.6812919221817684,-1.6345675690071642,3.479578733444214,3.611252784729004,-2.5059397220611572,-0.44470882415771484,-0.7080976963043213,-0.548481285572052,-0.46180063486099243,0.8812697529792786,-0.4587970972061157
0.8311839751292166,-0.6478808042953278,-1.6305669269127419,3.8517346382141113,3.5983951091766357,-2.5297064781188965,-0.40675854682922363,-0.7387298941612244,-0.5374249219894409,-0.44066882133483887,0.9220032691955566,-0.5089617371559143
0.8798398202627487,-0.6169092732503962,-1.6251181086617914,4.414121627807617,3.3630170822143555,-2.6318273544311523,-0.3686741292476654,-0.770636796951294,-0.5198060274124146,-0.413033664226532,0.968482255935669,-0.551437258720398
0.9345612314793124,-0.5918508455514125,-1.617174774295992,5.1385064125061035,2.8439645767211914,-2.7564804553985596,-0.3314870297908783,-0.8043384552001953,-0.49310848116874695,-0.3942210078239441,1.0508289337158203,-0.5694677829742432
0.9965343372841351,-0.5772198853333089,-1.6047576869290519,5.954206466674805,2.090550661087036,-2.8814444541931152,-0.2964305877685547,-0.8395934104919434,-0.45520517230033875,-0.3743610382080078,1.1639342308044434,-0.5751140117645264
1.0663524152650867,-0.5771065445214857,-1.5853281188373716,6.800046920776367,1.2617676258087158,-3.0460093021392822,-0.263700395822525,-0.8754433989524841,-0.4050443768501282,-0.3672657907009125,1.283921241760254,-0.565445065498352
1.1441526357469478,-0.595596750879911,-1.5550236144516527,7.616120338439941,0.4589233696460724,-3.2785840034484863,-0.23215286433696747,-0.910359799861908,-0.3425639569759369,-0.3782902956008911,1.3792624473571777,-0.5437427759170532
1.2293489871097283,-0.6402522833981704,-1.506095131069563,8.331555366516113,-0.3010683059692383,-3.5801308155059814,-0.2000395804643631,-0.9422709941864014,-0.26853254437446594,-0.3982881009578705,1.4710185527801514,-0.5000678896903992
1.3202937902593077,-0.730223746725237,-1.418781129110542,8.887545585632324,-0.9450204372406006,-3.9564242362976074,-0.165352001786232,-0.9687879681587219,-0.18468469381332397,-0.4395827054977417,1.5941848754882812,-0.44547271728515625
1.4131644369671923,-0.9315097151093158,-1.225322526414285,9.282608985900879,-1.344865083694458,-4.387760639190674,-0.12597909569740295,-0.9876018166542053,-0.09365734457969666,-0.49830377101898193,1.7030713558197021,-0.40806686878204346
1.4901735997348184,-1.5925251570975205,-0.5752264663744873,9.552167892456055,-1.581480860710144,-4.881064414978027,-0.08051746338605881,-0.9967517256736755,0.0017498256638646126,-0.5463289022445679,1.7838001251220703,-0.37877917289733887
1.467675060836556,-2.8661893960029166,0.6856512998304917,9.721022605895996,-1.7645235061645508,-5.464815139770508,-0.02799268439412117,-0.9946877360343933,0.09905968606472015,-0.6055827736854553,1.841611623764038,-0.36074793338775635
1.3709630392804408,2.9793986961405317,1.1082126117910889,9.810524940490723,-2.110788583755493,-6.066709518432617,0.03205548971891403,-0.9800996780395508,0.19590064883232117,-0.6236540675163269,1.8743104934692383,-0.325478196144104
1.2593751833981195,2.81069096572692,1.2573033979206496,9.873831748962402,-2.756801128387451,-6.622097969055176,0.09955193847417831,-0.9518990516662598,0.2897888720035553,-0.5845983624458313,1.9179635047912598,-0.2653137445449829
1.1413922110201649,2.7094890205611204,1.3316082161051948,9.955909729003906,-3.599390745162964,-7.087495803833008,0.1743512898683548,-0.9092140197753906,0.37806329131126404,-0.5131574869155884,1.9702643156051636,-0.2241019606590271
1.0189322090062423,2.6319836269029198,1.3731052471252905,10.028278350830078,-4.550212383270264,-7.437092304229736,0.2557603716850281,-0.8515486717224121,0.45765843987464905,-0.45368218421936035,2.004075527191162,-0.16497960686683655
0.8939500472123171,2.563076441735856,1.3956577597910336,9.940510749816895,-5.467483043670654,-7.675583839416504,0.3424701392650604,-0.7795518636703491,0.5244165658950806,-0.4314594566822052,2.026454448699951,-0.04976147413253784
0.7687562619303779,2.496657222984554,1.4071558236321287,9.590832710266113,-6.0312395095825195,-7.952423572540283,0.43208980560302734,-0.6952418088912964,0.5744014978408813,-0.4140387177467346,1.997549057006836,0.09649693965911865
0.6450011498506157,2.4300074863839973,1.4140660874728588,8.938547134399414,-6.329302787780762,-8.359477043151855,0.5218398571014404,-0.6011993288993835,0.6051799654960632,-0.39075154066085815,1.8683044910430908,0.21299642324447632
0.5234622869316096,2.3627250436112726,1.420369034085445,8.155378341674805,-6.3377790451049805,-8.844866752624512,0.6084082722663879,-0.4998818039894104,0.6164070963859558,-0.3837379217147827,1.7267036437988281,0.28782880306243896
0.4040723183873829,2.2989491670544915,1.4269187122377052,7.38999080657959,-5.691781997680664,-9.175288200378418,0.6862950325012207,-0.3931659460067749,0.6118982434272766,-0.332367479801178,1.6969380378723145,0.2994939684867859
0.28872224033482335,2.2453943646157044,1.4331230847370493,6.522061824798584,-4.528885841369629,-9.08918571472168,0.7486331462860107,-0.2847275733947754,0.5987311005592346,-0.03964877128601074,1.8207688331604004,0.35407358407974243
0.18266552296533528,2.2050491323281896,1.4396088449496338,5.271955966949463,-3.214479923248291,-8.35977840423584,0.7921132445335388,-0.18165139853954315,0.5827170610427856,0.5199899077415466,1.9576524496078491,0.6066139340400696
0.09436058718178239,2.1770189688892114,1.447557413069336,3.6662662029266357,-2.2209742069244385,-6.778684616088867,0.8181501030921936,-0.09422062337398529,0.5672325491905212,1.4146530628204346,1.9884772300720215,0.9941535592079163
0.030416813081369433,2.1572248525103954,1.456233770411732,2.0757381916046143,-1.6685032844543457,-4.725100517272949,0.8325369954109192,-0.03041212260723114,0.5531337261199951,2.351987361907959,1.949754238128662,1.2963840961456299
-0.008188657379562488,2.1422446273254847,1.4662732357866402,0.4538375437259674,-1.2986035346984863,-2.882430076599121,0.8410905003547668,0.008188566192984581,0.5408328175544739,2.724430799484253,1.8570152521133423,1.4236449003219604
-0.024948803060587273,2.132762620961796,1.4814430687552114,-1.1948366165161133,-0.585820734500885,-1.6401716470718384,0.8459458351135254,0.024946214631199837,0.532685399055481,2.5143752098083496,1.7724781036376953,1.457442283630371
-0.02522475454853117,2.133044278317372,1.5042955626460024,-2.5816147327423096,0.5465605854988098,-0.8781566023826599,0.8457897901535034,0.02522207982838154,0.5329198837280273,2.1077165603637695,1.8014838695526123,1.2987300157546997
-0.013638230439046177,2.1441846034481773,1.5334938127678415,-3.5029780864715576,1.4815596342086792,-0.30787819623947144,0.8399894833564758,0.013637807220220566,0.5424309968948364,1.8728704452514648,1.9173009395599365,0.9885290861129761
0.006735603200786291,2.1606997114919433,1.564890847234826,-3.892133951187134,1.6917046308517456,0.26720431447029114,0.8309755325317383,-0.006735552102327347,0.5562680959701538,1.9005002975463867,1.9903323650360107,0.6667085886001587
0.03340537365142717,2.174924222114973,1.593421147769732,-3.7386868000030518,1.1689330339431763,0.9479900598526001,0.822538435459137,-0.03339916095137596,0.5677275061607361,2.0123002529144287,2.0091986656188965,0.38625192642211914
0.06420597632475988,2.180505638430554,1.6144398749566014,-3.1622543334960938,0.0886913314461708,1.704890251159668,0.8181254863739014,-0.06416187435388565,0.5714493989944458,2.0360159873962402,1.9991289377212524,0.13826751708984375
0.09711776882004115,2.1739417880535945,1.625530021690213,-2.3818814754486084,-1.2268495559692383,2.411858320236206,0.8196747303009033,-0.09696517139673233,0.5645627975463867,1.8938872814178467,1.9259294271469116,-0.02521038055419922
0.13090214549746673,2.155639751114857,1.626913663243128,-1.6344784498214722,-2.338732957839966,2.9941489696502686,0.8266651034355164,-0.13052862882614136,0.5473456978797913,1.6178083419799805,1.8056994676589966,-0.08399718999862671
0.16560176584031855,2.129899860330269,1.6207258784632232,-1.1245568990707397,-2.89802622795105,3.4755442142486572,0.8361334800720215,-0.16484589874744415,0.5231698751449585,1.292879581451416,1.6748404502868652,-0.057135820388793945
0.20279243010578996,2.102438537473415,1.6100428098144224,-0.974595308303833,-2.9142651557922363,3.9543840885162354,0.8443120718002319,-0.20140531659126282,0.4965611398220062,1.040712833404541,1.582524061203003,0.04932200908660889
0.24458555484018465,2.0772012280007415,1.5977212510915306,-1.1043319702148438,-2.640868663787842,4.475158214569092,0.8484669923782349,-0.24215424060821533,0.4706007242202759,0.8631112575531006,1.5216037034988403,0.17966791987419128
0.29233876632203054,2.055609012762221,1.58553314864312,-1.367354393005371,-2.3129165172576904,5.016844272613525,0.8472239375114441,-0.2881925404071808,0.44626957178115845,0.7066089510917664,1.479095220565796,0.26584288477897644
0.3463845886076226,2.037442570450685,1.5743937226338107,-1.6935354471206665,-2.0040550231933594,5.519963264465332,0.8400384783744812,-0.3394993543624878,0.4231726825237274,0.535129189491272,1.4673985242843628,0.3143302798271179
0.4062764615922332,2.0223050277006562,1.5649557207379745,-2.0242421627044678,-1.706207275390625,5.95226526260376,0.8265456557273865,-0.39519163966178894,0.400806188583374,0.3285292983055115,1.4705090522766113,0.3124200701713562
0.47126399838980015,2.0098092864305483,1.5575520122455082,-2.3461320400238037,-1.4083590507507324,6.30930757522583,0.8065036535263062,-0.4540128707885742,0.3787141740322113,0.1412808895111084,1.4855375289916992,0.2918180823326111
0.5407016316290261,1.9997314989043324,1.5524166613218309,-2.6618452072143555,-1.093429684638977,6.620521068572998,0.7796798348426819,-0.5147376656532288,0.356573224067688,-0.01408541202545166,1.5057501792907715,0.2673739194869995
0.6141374657495575,1.9917313668375982,1.5496593846224709,-2.9490134716033936,-0.7989532947540283,6.904698371887207,0.7459288835525513,-0.5762538313865662,0.3339482843875885,-0.12578123807907104,1.5079097747802734,0.2247370183467865
0.6911036086388268,1.9852369294110843,1.549302498212609,-3.222567319869995,-0.5438680648803711,7.133459091186523,0.7053104043006897,-0.6373879313468933,0.31028079986572266,-0.20888090133666992,1.510770559310913,0.17925181984901428
0.7710186935708271,1.9790484641496753,1.5518595309864007,-3.49750018119812,-0.3594247102737427,7.314824104309082,0.658258855342865,-0.6968662142753601,0.28473299741744995,-0.287592351436615,1.5475437641143799,0.16132724285125732
0.8536625786099229,1.9713257836151847,1.5582627181874271,-3.796376943588257,-0.2632640600204468,7.4886674880981445,0.6052108407020569,-0.753692626953125,0.2562568187713623,-0.3337874412536621,1.5865782499313354,0.16325309872627258
0.9389828090288882,1.9596842921417967,1.5700209150592281,-4.089709281921387,-0.23240628838539124,7.6500630378723145,0.5465090870857239,-0.8069577813148499,0.22393514215946198,-0.3728945851325989,1.63572359085083,0.15988445281982422
1.026584620073994,1.94137897736007,1.5890513911156858,-4.332225322723389,-0.26048898696899414,7.782238483428955,0.48259761929512024,-0.8555356860160828,0.18750539422035217,-0.40409114956855774,1.6808836460113525,0.14583814144134521
1.1157181149598485,1.9121579594282672,1.6188592377188606,-4.525197982788086,-0.35051342844963074,7.880639553070068,0.4141714870929718,-0.8982266783714294,0.14714255928993225,-0.4328940510749817,1.7101925611495972,0.13267314434051514
1.2058788252934445,1.8640917559364598,1.6667070324983466,-4.6938934326171875,-0.4682556688785553,8.014275550842285,0.3416327238082886,-0.9341531991958618,0.1031748577952385,-0.4472540318965912,1.7128701210021973,0.11800135672092438
1.2967621876381457,1.78011204626091,1.750044233738366,-4.867435455322266,-0.459834486246109,8.239397048950195,0.26471051573753357,-0.9626870155334473,0.05623171105980873,-0.43489181995391846,1.7305092811584473,0.11248469352722168
1.386956696073673,1.6084066297529778,1.922390994859796,-5.073085784912109,-0.24288812279701233,8.591967582702637,0.18267740309238434,-0.9831490516662598,0.006873793434351683,-0.41244423389434814,1.7951911687850952,0.0918048620223999
1.4651140563372151,1.1314991887804244,2.4032626370415846,-5.345626354217529,0.16240131855010986,8.978650093078613,0.09547044336795807,-0.9944208264350891,-0.04486367851495743,-0.38682180643081665,1.8505914211273193,0.04182720184326172
1.4706329429179783,0.04351930233242287,-2.7827047849724686,-5.73043966293335,0.7626156210899353,9.336532592773438,0.004350413102656603,-0.9949878454208374,-0.09990201890468597,-0.4068620204925537,1.877540946006775,-0.024075627326965332
1.3872562984189556,-0.5041219664954533,-2.2185988179372695,-6.259679317474365,1.5549951791763306,9.590109825134277,-0.08816003054380417,-0.9832037687301636,-0.15980666875839233,-0.4480490982532501,1.8943670988082886,-0.09115457534790039
1.2781713752061428,-0.6664770483392015,-2.0318579997422086,-6.954091548919678,2.297011137008667,9.675591468811035,-0.17833617329597473,-0.9574899673461914,-0.22673621773719788,-0.5011072158813477,1.908951759338379,-0.13311177492141724
1.159786882976941,-0.7168430796118729,-1.9506884445396857,-7.62945556640625,2.863306999206543,9.66110610961914,-0.26249778270721436,-0.9167180061340332,-0.3012029826641083,-0.5848532915115356,1.9330754280090332,-0.18242430686950684
1.036492286297755,-0.7251299626236216,-1.9064096621810966,-8.152870178222656,3.36418080329895,9.574945449829102,-0.3377460539340973,-0.8606232404708862,-0.38112354278564453,-0.7230297327041626,1.9831666946411133,-0.3006848394870758
0.9104260726377604,-0.7126901817886604,-1.8774694702467574,-8.617288589477539,3.896959066390991,9.415581703186035,-0.4010908305644989,-0.7897651791572571,-0.46410882472991943,-0.8841874599456787,2.0300302505493164,-0.4515252113342285
0.7823605210303969,-0.6870988785746929,-1.856190121759567,-9.09264087677002,4.358566761016846,9.161981582641602,-0.4498760402202606,-0.7049555778503418,-0.5483147501945496,-1.0374438762664795,2.099151134490967,-0.5969945788383484
0.6537463941276911,-0.6532311312278525,-1.8398807374088262,-9.44809341430664,4.479592800140381,8.638107299804688,-0.4824430048465729,-0.6081646084785461,-0.6303845643997192,-1.263177752494812,2.1344707012176514,-0.7900255918502808
0.5284013138204281,-0.6161967149853083,-1.8280307162422929,-9.457924842834473,4.175280570983887,7.70186185836792,-0.4991133213043213,-0.504153311252594,-0.7047802805900574,-1.6093766689300537,2.083346366882324,-1.0919420719146729
0.41197250197576296,-0.5806179077197593,-1.8211685833849898,-8.95419692993164,3.4921157360076904,6.323023796081543,-0.5026457905769348,-0.4004175662994385,-0.7661677002906799,-1.9921510219573975,1.956005334854126,-1.5115727186203003
0.3112921438842286,-0.5506539261756904,-1.8200070271892113,-7.789405345916748,2.55729341506958,4.5770769119262695,-0.4980967342853546,-0.3062889277935028,-0.811225414276123,-2.3525197505950928,1.7307121753692627,-2.0507588386535645
0.23314180940179902,-0.5285332208971141,-1.8245551948617944,-5.946038722991943,1.6220358610153198,2.6743886470794678,-0.49062445759773254,-0.23103547096252441,-0.8401846289634705,-2.61557674407959,1.450563669204712,-2.6464486122131348
0.1827364399236758,-0.5148173711305359,-1.8333654371715933,-3.5585474967956543,0.7706124782562256,0.8607411980628967,-0.4841778874397278,-0.18172113597393036,-0.8558908700942993,-2.6715686321258545,1.2543681859970093,-3.1439106464385986
0.16308166207778765,-0.5093273207895689,-1.8438135316688131,-0.842609167098999,-0.02129758894443512,-0.6883761882781982,-0.4811205267906189,-0.16235974431037903,-0.8614884614944458,-2.5450329780578613,1.1227478981018066,-3.4809036254882812
0.1737721532607515,-0.5116153983931627,-1.8528445807208482,1.7988823652267456,-0.7075953483581543,-1.8534753322601318,-0.4822130501270294,-0.17289891839027405,-0.858822762966156,-2.2397260665893555,1.0301834344863892,-3.562716484069824
0.21032853904243598,-0.5201529258966451,-1.8582137078415786,3.9365386962890625,-1.158713459968567,-2.6050634384155273,-0.48605984449386597,-0.20878121256828308,-0.8486201763153076,-1.8143703937530518,1.011683464050293,-3.302518129348755
0.2650622123845392,-0.5323727565680901,-1.8589482234306796,5.336031913757324,-1.2565972805023193,-2.9543209075927734,-0.48985254764556885,-0.26196929812431335,-0.8315145969390869,-1.3708194494247437,1.0380923748016357,-2.7648141384124756
0.3298604120490243,-0.5450621170830744,-1.8549855164438964,6.062662601470947,-1.0012961626052856,-2.994582414627075,-0.4905191659927368,-0.32391098141670227,-0.8089948296546936,-1.0060324668884277,1.0394108295440674,-2.1585192680358887
0.39809353059425795,-0.5556669591535475,-1.8469363394795828,6.265372276306152,-0.5180040597915649,-2.8288326263427734,-0.48625966906547546,-0.3876616656780243,-0.783115565776825,-0.7723311185836792,1.0553863048553467,-1.6140706539154053
0.46538007193088127,-0.5625257643689288,-1.8357968546574377,6.1447343826293945,0.09060600399971008,-2.5784952640533447,-0.47660595178604126,-0.4487624764442444,-0.7559490203857422,-0.6732200980186462,1.075883388519287,-1.1897449493408203
0.5296064004103419,-0.564543916775148,-1.8229334739195924,5.872298717498779,0.7304640412330627,-2.3730762004852295,-0.4617345631122589,-0.5051937103271484,-0.7290956377983093,-0.686168909072876,1.1005001068115234,-0.8924099802970886
0.5907302270732495,-0.5610467961119968,-1.8099599930338357,5.610060691833496,1.3282028436660767,-2.2984912395477295,-0.4419046640396118,-0.5569676756858826,-0.7032121419906616,-0.7555745840072632,1.1038883924484253,-0.7239270806312561
0.6500484731825302,-0.5520262915823452,-1.7982449114996693,5.448734760284424,1.8107609748840332,-2.3493683338165283,-0.4174618124961853,-0.6052249670028687,-0.6778114438056946,-0.8143192529678345,1.0932925939559937,-0.6508780717849731
0.709092480963763,-0.5380247674837649,-1.7884399739599552,5.424281597137451,2.194845199584961,-2.4582338333129883,-0.38891854882240295,-0.6511452794075012,-0.6517301201820374,-0.8147252798080444,1.114234209060669,-0.6309388875961304
0.7692714276786504,-0.5200883670322399,-1.7801828063534586,5.573629856109619,2.478701114654541,-2.543696880340576,-0.35702258348464966,-0.6956120133399963,-0.6234251260757446,-0.7250087261199951,1.1246891021728516,-0.6562684178352356
0.8320969183174844,-0.49975876803338465,-1.7722628750604563,5.917732238769531,2.6977474689483643,-2.611981153488159,-0.32266753911972046,-0.7393448948860168,-0.5909777283668518,-0.5969796776771545,1.1308854818344116,-0.7046764492988586
0.8991990124361614,-0.47844232449314134,-1.7635810885487901,6.4374165534973145,2.862860918045044,-2.682645082473755,-0.28647610545158386,-0.7828287482261658,-0.5523681044578552,-0.5031967759132385,1.173713207244873,-0.7414703369140625
0.9719458611524832,-0.4577378483769651,-1.7529831771148556,7.083151817321777,2.9562621116638184,-2.7330331802368164,-0.24910728633403778,-0.8259841203689575,-0.5056635141372681,-0.4206314980983734,1.243129014968872,-0.7476322650909424
1.0509872374906875,-0.4405551529679632,-1.7383109519376405,7.790735244750977,2.9347777366638184,-2.703392505645752,-0.21181972324848175,-0.8679140210151672,-0.4492856562137604,-0.35028356313705444,1.3678377866744995,-0.717904806137085
1.1364030299767383,-0.43160849635477067,-1.7160447874370452,8.501625061035156,2.7797157764434814,-2.6276090145111084,-0.17605940997600555,-0.9071255326271057,-0.38226476311683655,-0.308712363243103,1.534978985786438,-0.6549819111824036
1.2277235748947655,-0.43883239282020836,-1.6794885808519744,9.159262657165527,2.5166738033294678,-2.5438520908355713,-0.14292310178279877,-0.941725492477417,-0.3045096695423126,-0.2996276021003723,1.7218005657196045,-0.5655311942100525
1.3240520192200969,-0.4790306136444748,-1.613002429499112,9.748553276062012,2.1492953300476074,-2.5047402381896973,-0.11257878690958023,-0.9697127342224121,-0.21675638854503632,-0.32702696323394775,1.9022231101989746,-0.4647011160850525
1.4231854968995976,-0.6139659689244655,-1.4560161666611307,10.263556480407715,1.670153021812439,-2.4954724311828613,-0.0847323015332222,-0.9891253113746643,-0.12021518498659134,-0.3771665394306183,2.051945686340332,-0.38054776191711426
1.5098960729601385,-1.2936256261322834,-0.759265423531738,10.690728187561035,1.1540377140045166,-2.5686075687408447,-0.05854211002588272,-0.9981461763381958,-0.016654852777719498,-0.40865153074264526,2.1540908813476562,-0.3192979097366333
1.4733102266506868,-2.804735659614534,0.7634257585908223,11.071783065795898,0.5323309898376465,-2.7764105796813965,-0.03217077627778053,-0.9952520132064819,0.09186282008886337,-0.47123199701309204,2.19408917427063,-0.2565051317214966
1.3659582548429028,-3.127202045168551,1.0902276621762577,11.428995132446289,-0.3340302109718323,-3.172107696533203,-0.0029270655941218138,-0.9790939092636108,0.203387051820755,-0.6193721890449524,2.236097812652588,-0.15851105749607086
1.248307943422917,3.0377419963394927,1.2038535929559744,11.68741226196289,-1.353472352027893,-3.787942409515381,0.03285403549671173,-0.9484497308731079,0.31522035598754883,-0.7670307159423828,2.2708678245544434,0.010631084442138672
1.1256535060656214,2.9557786825782597,1.2703562932349144,11.752193450927734,-2.7270679473876953,-4.671257972717285,0.07954942435026169,-0.9025492072105408,0.42317473888397217,-0.8891808390617371,2.2525858879089355,0.2583896815776825
1.0003546144209718,2.8754730279149725,1.3214904998399863,11.439806938171387,-4.396359443664551,-5.7476396560668945,0.1420154720544815,-0.8416625261306763,0.5209951400756836,-0.9388142228126526,2.1628293991088867,0.5773935317993164
0.8749398190393808,2.7870548729538767,1.3652032252086208,10.802340507507324,-6.215126991271973,-6.762350559234619,0.22254246473312378,-0.7675049304962158,0.6011744737625122,-0.8374106884002686,2.055102825164795,0.8268191814422607
0.7506364367611492,2.68946662320504,1.4011249312592404,10.102391242980957,-8.018824577331543,-7.436038494110107,0.31946995854377747,-0.6821042895317078,0.6577788591384888,-0.5305448174476624,1.968084454536438,0.9249849915504456
0.6276424672966174,2.5847293345626556,1.426237611631611,9.539671897888184,-9.6239652633667,-7.755462169647217,0.4277965724468231,-0.5872381925582886,0.6871257424354553,-0.14784353971481323,1.9497716426849365,0.8794484734535217
0.5063558452688158,2.474950732409116,1.4390137767041284,9.038376808166504,-10.80974006652832,-7.855213165283203,0.540758490562439,-0.4849936068058014,0.6872859001159668,0.2011696696281433,1.916832447052002,0.74955815076828
0.3891630068969363,2.3631718978682685,1.4403302857807123,8.292549133300781,-11.207366943359375,-7.743434906005859,0.6496536731719971,-0.3794141411781311,0.6587833166122437,0.5444382429122925,1.8186841011047363,0.6981809735298157
0.28140977073573215,2.255731908505859,1.434480829971208,6.899297714233398,-10.435924530029297,-7.339873790740967,0.7439963221549988,-0.2777102291584015,0.6077388525009155,0.914191484451294,1.7140657901763916,0.7984349727630615
0.1906645856964661,2.1624081602352936,1.428095479514244,4.785459995269775,-8.262723922729492,-6.381587982177734,0.8150014281272888,-0.1895114779472351,0.5475934147834778,1.3787243366241455,1.6751986742019653,1.040053129196167
0.12420876580369809,2.096869076077475,1.4285442049103445,2.1169633865356445,-4.685083389282227,-4.844395637512207,0.8581234216690063,-0.12388963252305984,0.49827247858047485,1.9681856632232666,1.654193639755249,1.30366849899292
0.08649147127183711,2.0690075808825545,1.4414695915504248,-0.6360346078872681,-0.6221907138824463,-2.9640285968780518,0.8751550912857056,-0.08638367801904678,0.47606876492500305,2.513882875442505,1.706668734550476,1.4924829006195068
0.0760945794853695,2.0781997946479014,1.4674026673111136,-2.807563543319702,2.684830904006958,-1.402078628540039,0.8714801073074341,-0.07602116465568542,0.48450344800949097,2.7452497482299805,1.8083209991455078,1.4693083763122559
0.08685196287799361,2.111754338946513,1.502978461612225,-4.296100616455078,4.369088172912598,-0.33405575156211853,0.8539846539497375,-0.0867428109049797,0.513016402721405,2.656787872314453,1.89152193069458,1.2416069507598877
