attitudeX,attitudeY,attitudeZ,gyroX,gyroY,gyroZ,gravityX,gravityY,gravityZ,accX,accY,accZ
1.1936013164729031,-2.1867500550217964,1.753650109404252,0.5020243525505066,-0.1708349585533142,0.1145506203174591,-0.30062612891197205,-0.9297013878822327,0.21278859674930573,0.024274200201034546,0.007399320602416992,-0.04942803084850311
1.1894617082766838,-2.1968984970711354,1.762754698725356,0.521081805229187,-0.1627722680568695,0.16111138463020325,-0.3015672564506531,-0.928168773651123,0.21808189153671265,0.047294825315475464,0.007972359657287598,0.00642058253288269
1.184955059982233,-2.2061336599812624,1.7710470285066506,0.5043869614601135,-0.14602258801460266,0.19647283852100372,-0.3029044568538666,-0.9264821410179138,0.22333794832229614,0.0475027859210968,0.003264307975769043,0.05183902382850647
1.1804596112417256,-2.213943108542958,1.778002058962517,0.44687584042549133,-0.13087591528892517,0.2098347693681717,-0.3044808804988861,-0.9247809648513794,0.22819213569164276,0.03313380479812622,-0.0036858320236206055,0.08716118335723877
1.1763322804617913,-2.220235363566957,1.783344285295015,0.37371402978897095,-0.1450897455215454,0.19716104865074158,-0.3060760796070099,-0.9232026934623718,0.23240958154201508,0.014221221208572388,-0.0017698407173156738,0.10123896598815918
1.1728416318517652,-2.2257405516694035,1.7875699782668453,0.3069498836994171,-0.1794629693031311,0.15674050152301788,-0.3073456883430481,-0.9218555688858032,0.23605236411094666,-0.008816421031951904,-0.0041391849517822266,0.09930524230003357
1.170083055571165,-2.23106880047847,1.7911204946263544,0.24598374962806702,-0.23157410323619843,0.11119776964187622,-0.30809125304222107,-0.9207829833030701,0.23924566805362701,-0.031203240156173706,-0.006310462951660156,0.08114302158355713
1.1679770611167646,-2.236257662064774,1.794084463478817,0.19337652623653412,-0.2546252906322479,0.07945048809051514,-0.3083702623844147,-0.9199594855308533,0.24203771352767944,-0.040857672691345215,-0.014351367950439453,0.05329607427120209
1.1663452683414413,-2.240934139206904,1.7964201975492322,0.15049031376838684,-0.2450035810470581,0.058548666536808014,-0.30841130018234253,-0.9193185567855835,0.24440932273864746,-0.04548582434654236,-0.028877854347229004,0.02501511573791504
1.1651420975093674,-2.244850725162117,1.7981779673674296,0.1098916232585907,-0.21760153770446777,0.04202207177877426,-0.3083157241344452,-0.9188444018363953,0.24630562961101532,-0.0327335000038147,-0.02840602397918701,0.006150990724563599
1.1642690168483294,-2.248124646458918,1.7994850369491124,0.08506563305854797,-0.1971772313117981,0.02998405136168003,-0.30813249945640564,-0.9184995293617249,0.24781621992588043,-0.006000220775604248,-0.01658952236175537,-0.001356363296508789
1.1635493201284028,-2.251278423358966,1.800907822834595,0.0958835780620575,-0.16643694043159485,0.009559479542076588,-0.30786362290382385,-0.918214738368988,0.24920299649238586,0.014803260564804077,-0.012937843799591064,-0.009273827075958252
1.162869628876902,-2.2546509448052046,1.80296403748778,0.11498376727104187,-0.12587833404541016,-0.006863967981189489,-0.307504802942276,-0.9179452657699585,0.2506338059902191,0.030496716499328613,-0.01778465509414673,-0.007912397384643555
1.1622161659719537,-2.257970607314836,1.805618188716208,0.12678776681423187,-0.04625937342643738,-0.026164036244153976,-0.3071347773075104,-0.917685866355896,0.2520337700843811,0.049184948205947876,-0.012962937355041504,0.004390120506286621
1.1617308377416433,-2.2605627736075524,1.8084883308361632,0.10441562533378601,0.05191060155630112,-0.04050862044095993,-0.3068234920501709,-0.9174929261207581,0.2531120479106903,0.07307413220405579,-0.010454893112182617,0.01973026990890503
1.1615380821166164,-2.26133076081233,1.8102713254611407,0.023478638380765915,0.11728058755397797,-0.016069019213318825,-0.3067657947540283,-0.9174162149429321,0.2534606158733368,0.10916444659233093,-0.016299545764923096,0.04498600959777832
1.1617146911661662,-2.2592771555385935,1.8095499536548552,-0.09260082989931107,0.15597258508205414,0.02675221487879753,-0.30716046690940857,-0.9174864888191223,0.25272712111473083,0.14123639464378357,-0.037576377391815186,0.05913197994232178
1.1622788245543216,-2.2541847762553178,1.8058866059476182,-0.1991509348154068,0.186555415391922,0.07282470166683197,-0.30804166197776794,-0.9177107810974121,0.2508324980735779,0.15958896279335022,-0.07198935747146606,0.04729360342025757
1.1629560401258825,-2.2465283202456208,1.7997066456245854,-0.2602267861366272,0.20925061404705048,0.13274529576301575,-0.3094683587551117,-0.9179795384407043,0.24807807803153992,0.17897522449493408,-0.0975690484046936,0.0048057883977890015
1.1632116864109405,-2.237006907031664,1.7916733871554595,-0.2667495906352997,0.2146015763282776,0.22879141569137573,-0.31163206696510315,-0.9180809259414673,0.24497541785240173,0.20752131938934326,-0.09234082698822021,-0.05108201503753662
1.1626540677688337,-2.226650376730615,1.782700003060861,-0.21478146314620972,0.2162332981824875,0.2701606750488281,-0.31455790996551514,-0.9178597331047058,0.24204693734645844,0.23400676250457764,-0.07934784889221191,-0.09507443010807037
1.1614268637592078,-2.2172667080406767,1.774944518791859,-0.1223069503903389,0.23591159284114838,0.30777275562286377,-0.317714124917984,-0.9173719882965088,0.23976291716098785,0.2320360541343689,-0.053010642528533936,-0.1278550773859024
1.15908077556084,-2.20868401235555,1.7681880653847566,-0.027780435979366302,0.23291338980197906,0.394613653421402,-0.32148846983909607,-0.9164356589317322,0.238308385014534,0.26126205921173096,-0.05307728052139282,-0.14349032938480377
1.1554331380760103,-2.2007234616256044,1.7619569604987935,0.05456455424427986,0.21777111291885376,0.4880182147026062,-0.3260745406150818,-0.914969801902771,0.23770937323570251,0.2927950918674469,-0.0756460428237915,-0.14954423904418945
1.1506344739730205,-2.1933727890907178,1.7562888088971615,0.13266760110855103,0.21805153787136078,0.5561658143997192,-0.3313758969306946,-0.9130229353904724,0.23786352574825287,0.3159340023994446,-0.08523750305175781,-0.16552163660526276
1.1449407159124325,-2.18675568126253,1.7514567271590071,0.20270562171936035,0.2195621132850647,0.6008444428443909,-0.33718010783195496,-0.9106855988502502,0.23866501450538635,0.32785695791244507,-0.07756495475769043,-0.1943078339099884
1.1384959672442914,-2.181016834193708,1.747523677254761,0.2719549834728241,0.20915767550468445,0.6393684148788452,-0.34334704279899597,-0.9080044031143188,0.2400844395160675,0.33818960189819336,-0.0652925968170166,-0.22416964173316956
1.1312406108903128,-2.176660028411081,1.7447175836303486,0.3625640869140625,0.138755664229393,0.6835887432098389,-0.34979626536369324,-0.9049407839775085,0.24233175814151764,0.34251776337623596,-0.05381464958190918,-0.25290608406066895
1.1231876856939491,-2.175206147440682,1.7435473472456577,0.462352454662323,-0.08895152807235718,0.6790286302566528,-0.35613301396369934,-0.9014846682548523,0.24595624208450317,0.33640339970588684,-0.035298049449920654,-0.28552237153053284
1.1146708684833049,-2.178143394150473,1.744467351506284,0.5761634707450867,-0.33456671237945557,0.6821606755256653,-0.3617008924484253,-0.8977658748626709,0.25137391686439514,0.3117130696773529,-0.0063631534576416016,-0.3112647533416748
1.10502706110941,-2.1851881066477383,1.7471190309100597,0.7221065163612366,-0.5943090915679932,0.7666113972663879,-0.3669789731502533,-0.8934763669967651,0.2588949203491211,0.3221181035041809,-0.026048898696899414,-0.34210118651390076
1.093552230313104,-2.1954526158349306,1.7507390642917808,0.8725351691246033,-0.7957181930541992,0.9107064604759216,-0.3725943863391876,-0.8882641792297363,0.2686263620853424,0.34358736872673035,-0.04819822311401367,-0.36333775520324707
1.0798779228723865,-2.207562968280288,1.7545574203855947,1.0216248035430908,-0.9397574067115784,1.0801072120666504,-0.3790450394153595,-0.8819002509117126,0.28031522035598755,0.3671431541442871,-0.04510164260864258,-0.3767050504684448
1.0639952325661952,-2.220974468627831,1.7584856741333994,1.178755283355713,-1.0403859615325928,1.222703218460083,-0.3863533139228821,-0.8743016719818115,0.29381611943244934,0.3827064633369446,-0.023174524307250977,-0.37540483474731445
1.0462457211047604,-2.2356640004182986,1.7628779851449001,1.3239848613739014,-1.1293333768844604,1.3080103397369385,-0.3941477835178375,-0.8655490875244141,0.3089859187602997,0.38584697246551514,0.0064792633056640625,-0.3738816976547241
1.0271934749614857,-2.25184510132398,1.7680510349136682,1.4581949710845947,-1.18804132938385,1.327612280845642,-0.401837021112442,-0.8558507561683655,0.3256476819515228,0.36501753330230713,0.042191147804260254,-0.38181543350219727
1.0070391654261528,-2.268581084269491,1.7748628314750878,1.6567562818527222,-0.9592137932777405,1.3170543909072876,-0.4094671905040741,-0.8452534079551697,0.34334173798561096,0.3470739722251892,0.0571521520614624,-0.4035072326660156
0.9854446361086846,-2.283645196585286,1.784097345860133,1.8974086046218872,-0.47836872935295105,1.3192261457443237,-0.41796183586120605,-0.833517849445343,0.3613256812095642,0.3565298914909363,0.06290310621261597,-0.4277777373790741
0.9621131394048913,-2.294977994439008,1.7950469355122949,2.0797719955444336,0.027373813092708588,1.383663535118103,-0.4282929301261902,-0.820401668548584,0.37882232666015625,0.3937622308731079,0.057996273040771484,-0.4276200532913208
0.9371386065324346,-2.300922325968362,1.8056852235385468,2.1325433254241943,0.508604884147644,1.519722580909729,-0.44116514921188354,-0.8058671951293945,0.39490655064582825,0.45794981718063354,0.05429565906524658,-0.3932434916496277
0.9112780310020744,-2.3002015383350103,1.813720887561686,2.001160144805908,0.9088556170463562,1.675376534461975,-0.4568382203578949,-0.7902874946594238,0.40834346413612366,0.5154472589492798,0.0782361626625061,-0.3244355022907257
0.8859815763285608,-2.28716778111516,1.8158577396956457,1.4618823528289795,2.0551185607910156,1.957509994506836,-0.47704991698265076,-0.7745362520217896,0.4153522849082947,0.5644062757492065,0.09957879781723022,-0.1748127043247223
0.8629553449969631,-2.2602597239377618,1.808122274088791,0.7649648189544678,2.1059517860412598,2.1711881160736084,-0.5016825199127197,-0.7597674131393433,0.4136043190956116,0.6572457551956177,0.06093001365661621,0.06578105688095093
0.8419863129461662,-2.2248624171524702,1.791451223072595,0.14460457861423492,2.4299283027648926,2.4745984077453613,-0.5285344123840332,-0.745967447757721,0.40519577264785767,0.6083837747573853,0.172862708568573,-0.03677242994308472
0.8207989416919498,-2.182883819256883,1.7677929119938574,-0.16417856514453888,2.4344675540924072,2.8138601779937744,-0.5578858852386475,-0.7316906452178955,0.3916529417037964,0.6396577954292297,0.2534039616584778,-0.056417495012283325
0.7968023401625693,-2.1401093337430592,1.7413704981300087,-0.15976253151893616,2.250905990600586,3.184530735015869,-0.5887452960014343,-0.7151246070861816,0.3767968416213989,0.639755368232727,0.30588388442993164,-0.18062996864318848
0.7685057990342236,-2.1012113912778534,1.7157192357365487,0.0238613523542881,1.8824808597564697,3.5127463340759277,-0.6201640367507935,-0.6950617432594299,0.36371052265167236,0.6121227145195007,0.344247043132782,-0.2730276882648468
0.7361261487744709,-2.0689864856328115,1.692888008988838,0.26233088970184326,1.4150469303131104,3.726377010345459,-0.6509964466094971,-0.6714221239089966,0.3541126847267151,0.5608475804328918,0.33414191007614136,-0.28985801339149475
0.7007247297541936,-2.0448079924813545,1.673905251527133,0.5085177421569824,0.9224833250045776,3.8405532836914062,-0.6800982356071472,-0.6447718143463135,0.3489060699939728,0.4894092082977295,0.32745009660720825,-0.2822404205799103
0.6633278865755716,-2.027545955302912,1.6583026567010892,0.6630419492721558,0.5831310153007507,3.8980135917663574,-0.7071757316589355,-0.6157424449920654,0.3475111424922943,0.41649574041366577,0.34445637464523315,-0.2652357518672943
0.6252036831112419,-2.014627153392016,1.6448891230919407,0.7103881239891052,0.3908417522907257,3.865314483642578,-0.732283890247345,-0.5852624177932739,0.3481781780719757,0.32049494981765747,0.3689844012260437,-0.23042622208595276
0.5873296324875772,-2.0048957083603574,1.6330561030225037,0.7447555065155029,0.19859175384044647,3.7970168590545654,-0.7552154064178467,-0.5541401505470276,0.35011181235313416,0.25562745332717896,0.3881092667579651,-0.21368303894996643
0.5496034816529776,-1.9981180731363175,1.6226597137952308,0.8068073987960815,0.04566745087504387,3.775456666946411,-0.7760534286499023,-0.5223491191864014,0.3534018397331238,0.26763033866882324,0.4146372675895691,-0.2323385775089264
0.511415466026565,-1.9933733066934225,1.6134460457880613,0.8940299153327942,-0.018564365804195404,3.82002329826355,-0.7953425049781799,-0.4894120991230011,0.35763928294181824,0.3138819932937622,0.4398516118526459,-0.25821319222450256
0.4721505371319623,-1.9895826721123215,1.6053734947600493,1.0121797323226929,0.02497352473437786,3.912790298461914,-0.8136301040649414,-0.45480257272720337,0.36216112971305847,0.3576211929321289,0.46684175729751587,-0.2842804193496704
0.4313574676638775,-1.9855803467822597,1.5983267192075603,1.1228227615356445,0.16385135054588318,4.033879280090332,-0.8313698172569275,-0.4181043207645416,0.3660777807235718,0.36629718542099,0.5001813173294067,-0.29428529739379883
0.3890547908653221,-1.98078771488973,1.5920632881395695,1.205483078956604,0.28602227568626404,4.150935649871826,-0.8485854864120483,-0.37931400537490845,0.36881306767463684,0.31960922479629517,0.5347859263420105,-0.28267738223075867
0.34557722927686346,-1.975458279880149,1.5864576744598815,1.2658957242965698,0.37286266684532166,4.212735176086426,-0.8648902177810669,-0.3387398421764374,0.37043195962905884,0.23595356941223145,0.559702455997467,-0.2688543200492859
0.30179853427871733,-1.9696086405695485,1.581495194589608,1.2780401706695557,0.48747071623802185,4.17788028717041,-0.8798732161521912,-0.29723793268203735,0.37077322602272034,0.11534684896469116,0.5697293877601624,-0.2318878173828125
0.2588019629367609,-1.9624352456833638,1.5772135067563722,1.2658308744430542,0.7245334386825562,4.034017562866211,-0.8935036063194275,-0.2559225857257843,0.36899200081825256,-0.028356194496154785,0.5663169026374817,-0.19845986366271973
0.21770013265412338,-1.9526393196873242,1.5740281933667006,1.2566930055618286,1.0882697105407715,3.777367353439331,-0.906076192855835,-0.21598461270332336,0.3638360798358917,-0.18370658159255981,0.5624507069587708,-0.1834925413131714
0.17922676102888335,-1.939173747718407,1.5724404469174271,1.2694683074951172,1.545728087425232,3.468437910079956,-0.9179692268371582,-0.17826877534389496,0.3543339669704437,-0.319030225276947,0.5703891515731812,-0.175363689661026
0.14359598761095652,-1.9210784707413757,1.5728292403039141,1.3049695491790771,2.0759506225585938,3.1527068614959717,-0.9296088814735413,-0.1431030035018921,0.33963099122047424,-0.41105908155441284,0.5640014410018921,-0.15649500489234924
0.11078441881902813,-1.897727529060418,1.5753951510083442,1.3503857851028442,2.6480917930603027,2.8532066345214844,-0.9412266612052917,-0.11055794358253479,0.3191696107387543,-0.47233229875564575,0.5450214743614197,-0.11360326409339905
0.08067248047795028,-1.8690197797126271,1.5801769963360601,1.404113531112671,3.1128504276275635,2.563340187072754,-0.9527512788772583,-0.08058500289916992,0.29286694526672363,-0.5312269330024719,0.5365633964538574,-0.05203750729560852
0.05331439603925648,-1.8377776657709117,1.5874950340242917,1.5305324792861938,3.188267469406128,2.2815146446228027,-0.9632012844085693,-0.05328914150595665,0.2634461224079132,-0.6625159978866577,0.5402886271476746,-0.006335586309432983
0.028108530784558203,-1.8063682655849163,1.5976457441268168,1.660146951675415,3.1303975582122803,2.091968059539795,-0.9719968438148499,-0.02810482867062092,0.23330694437026978,-0.7757295370101929,0.561399519443512,0.04569992423057556
0.0047756125712826785,-1.7770830440040282,1.6093007138223807,1.6068533658981323,2.6854605674743652,1.9384708404541016,-0.9787870049476624,-0.00477559445425868,0.20482441782951355,-0.8563417196273804,0.5620113015174866,0.19669517874717712
-0.016505761146476224,-1.7538811289275935,1.6209973196866283,1.5070221424102783,1.907888650894165,1.7670210599899292,-0.9831526279449463,0.016505012288689613,0.18203884363174438,-1.014420986175537,0.5461475849151611,0.33422693610191345
-0.035437724494581144,-1.7386786804063132,1.63284261095826,1.485968828201294,1.0650190114974976,1.5307461023330688,-0.9853218793869019,0.03543030843138695,0.16698995232582092,-1.2168571949005127,0.5287786722183228,0.4227011203765869
-0.05163370081443271,-1.7312479211406664,1.6452985633437802,1.4836078882217407,0.32862964272499084,1.244206428527832,-0.9858394861221313,0.051610760390758514,0.15955106914043427,-1.3910982608795166,0.5330755114555359,0.4965919852256775
-0.0647185362981376,-1.7302439904303384,1.6580760123432423,1.4300507307052612,-0.25859546661376953,0.9187609553337097,-0.9852482676506042,0.06467336416244507,0.15844053030014038,-1.5339627265930176,0.5540400147438049,0.5782690048217773
-0.07414399691388943,-1.734245701957427,1.6705854801108182,1.320591688156128,-0.6894110441207886,0.530292809009552,-0.9839610457420349,0.0740760862827301,0.162275493144989,-1.6445941925048828,0.579717218875885,0.6639878749847412
-0.07941325516211582,-1.7416921073080818,1.6823375528242404,1.1482607126235962,-0.9618719220161438,0.11323335021734238,-0.9823272228240967,0.07932981103658676,0.16952918469905853,-1.7054779529571533,0.569290816783905,0.7598989009857178
-0.08003675281159263,-1.7512080719149399,1.6928131441814407,0.9125124216079712,-1.0824248790740967,-0.3556411862373352,-0.9806205034255981,0.07995133101940155,0.17886021733283997,-1.7484748363494873,0.5623673796653748,0.8422883749008179
-0.07568059931344663,-1.761684057845001,1.701469842396176,0.611527681350708,-1.1403782367706299,-0.8125184178352356,-0.979025661945343,0.07560837268829346,0.18918746709823608,-1.7537622451782227,0.5941914319992065,0.9169831275939941
-0.06635167491080289,-1.773221736119883,1.707839413576464,0.26055923104286194,-1.260225534439087,-1.2508504390716553,-0.9774261116981506,0.06630299985408783,0.20060338079929352,-1.70815110206604,0.609020471572876,0.9667854309082031
-0.05220372444830297,-1.7861953260748622,1.7115656852424872,-0.12135618180036545,-1.3595829010009766,-1.6568602323532104,-0.9755602478981018,0.05218001827597618,0.2134460210800171,-1.6374156475067139,0.6075642108917236,0.9628691673278809
-0.033460596064738446,-1.799905000013828,1.7126902642219544,-0.48042699694633484,-1.3710033893585205,-2.038257122039795,-0.9733241200447083,0.033454351127147675,0.2269824594259262,-1.542407751083374,0.6136708855628967,0.9022899866104126
-0.010291753721568188,-1.8132488986808393,1.7114364867076766,-0.8416017889976501,-1.2749511003494263,-2.3924026489257812,-0.9707005620002747,0.010291571728885174,0.24007144570350647,-1.434999942779541,0.6285176277160645,0.8118542432785034
0.01703936932009956,-1.8253337833957535,1.7077457911365144,-1.2106765508651733,-1.1382702589035034,-2.7039759159088135,-0.9676395058631897,-0.01703854463994503,0.251761257648468,-1.3133054971694946,0.6453039050102234,0.7216883897781372
0.048254584374979,-1.8359945907140902,1.7016101647998472,-1.5669583082199097,-1.0331041812896729,-2.993434429168701,-0.9639171957969666,-0.04823585972189903,0.2617955207824707,-1.1890215873718262,0.6539792418479919,0.6222681999206543
0.0831045096033784,-1.845549913294506,1.6933262586872644,-1.8641550540924072,-0.9841904044151306,-3.2570347785949707,-0.9591702818870544,-0.08300888538360596,0.2703734040260315,-1.0847139358520508,0.6656657457351685,0.5088318586349487
0.12103436144656865,-1.8544223351682472,1.6836428896542155,-2.051323890686035,-0.9941412806510925,-3.4785215854644775,-0.9530236721038818,-0.12073906511068344,0.27779141068458557,-0.9991706609725952,0.6896172165870667,0.36736539006233215
0.1614615453933475,-1.8634383040310385,1.6736476139498166,-2.11494779586792,-1.0907751321792603,-3.687133550643921,-0.9450314044952393,-0.16076090931892395,0.2847307026386261,-0.9196383953094482,0.7136020660400391,0.2126295566558838
0.20401963449535587,-1.87345097292529,1.6644868412905778,-2.0753138065338135,-1.239746332168579,-3.895016670227051,-0.9347515106201172,-0.20260722935199738,0.29187363386154175,-0.8548451662063599,0.7250071167945862,0.06960693001747131
0.24816437150799028,-1.8851105063685076,1.6571750183294032,-1.9363898038864136,-1.410866379737854,-4.056513786315918,-0.9218743443489075,-0.24562497437000275,0.2996930181980133,-0.7776800394058228,0.7376446723937988,-0.060191184282302856
0.29313042896462327,-1.898938446129017,1.6526107220468762,-1.7215912342071533,-1.5849602222442627,-4.167211055755615,-0.9062626957893372,-0.28895053267478943,0.30853745341300964,-0.6846643090248108,0.7579294443130493,-0.18338492512702942
0.3382528644953047,-1.9152765551871218,1.651131249761099,-1.5146652460098267,-1.760596752166748,-4.229301929473877,-0.887916088104248,-0.3318394720554352,0.31857165694236755,-0.5845876932144165,0.7735508680343628,-0.25544604659080505
0.3831676804345798,-1.9342516828212322,1.6524507344672303,-1.3672386407852173,-1.93003249168396,-4.252788543701172,-0.8668961524963379,-0.37386032938957214,0.3297264873981476,-0.4890151619911194,0.7823076248168945,-0.27944886684417725
0.42778572233876444,-1.9557815427992407,1.6559439475775495,-1.2938024997711182,-2.0825257301330566,-4.261714935302734,-0.843286395072937,-0.41485708951950073,0.34170371294021606,-0.41928672790527344,0.7893688678741455,-0.2832321226596832
0.47234242406865024,-1.979617008726757,1.6612214995527044,-1.2723952531814575,-2.2094621658325195,-4.300800323486328,-0.817118763923645,-0.4549734592437744,0.3540002405643463,-0.38817298412323,0.7908651828765869,-0.2800257205963135
0.5172929860143696,-2.0055221332079096,1.668006069958329,-1.3216596841812134,-2.304994821548462,-4.3682780265808105,-0.7883166670799255,-0.494529128074646,0.36605745553970337,-0.378187358379364,0.7933419346809387,-0.27792271971702576
0.5632092446272453,-2.032994928931785,1.6759464390838783,-1.431050181388855,-2.3490543365478516,-4.470812797546387,-0.7568265199661255,-0.5339025259017944,0.3770434558391571,-0.3651522397994995,0.8039983510971069,-0.280043363571167
0.6104414593949009,-2.0615778772932627,1.6850272592785984,-1.5410120487213135,-2.3399829864501953,-4.584654331207275,-0.7226775884628296,-0.5732292532920837,0.3861934542655945,-0.3525940775871277,0.8232292532920837,-0.31267666816711426
0.6587757322906045,-2.0912492565670444,1.6957601781661982,-1.6129904985427856,-2.301996946334839,-4.678146839141846,-0.6860431432723999,-0.6121492385864258,0.3932148218154907,-0.3133007287979126,0.8334169983863831,-0.37101346254348755
0.707745581815369,-2.1221726265929757,1.7087788793556655,-1.6372244358062744,-2.211785316467285,-4.7400712966918945,-0.6472261548042297,-0.6501224637031555,0.3980444073677063,-0.26741623878479004,0.8407962322235107,-0.4327581524848938
0.7567071478218285,-2.154248766942338,1.7247744806167207,-1.6029822826385498,-2.039232015609741,-4.763299942016602,-0.6068132519721985,-0.6865309476852417,0.4005659520626068,-0.2250654101371765,0.8645399808883667,-0.4930952787399292
0.8051390217547809,-2.1875284153657844,1.7446101208392857,-1.5340453386306763,-1.8050174713134766,-4.793362617492676,-0.5653392672538757,-0.7209270000457764,0.4008181691169739,-0.182509183883667,0.8956250548362732,-0.5354009866714478
0.8530556519963604,-2.2223419653742544,1.769034529944858,-1.482957363128662,-1.5424963235855103,-4.852936744689941,-0.522956132888794,-0.7532935738563538,0.39883050322532654,-0.15471720695495605,0.9134193062782288,-0.539989709854126
0.9005689072537555,-2.259374724833247,1.7986311978280476,-1.4480717182159424,-1.3098373413085938,-4.911224365234375,-0.47963204979896545,-0.7836804389953613,0.3947126865386963,-0.12344110012054443,0.9110455513000488,-0.5201704502105713
0.9475432075497588,-2.2996639828214542,1.8338244214405353,-1.4399603605270386,-1.1292210817337036,-4.947796821594238,-0.4353838264942169,-0.8119840025901794,0.38874566555023193,-0.10665422677993774,0.9245479702949524,-0.5016149878501892
0.9938638910516312,-2.344601794272913,1.875313491701032,-1.4540597200393677,-1.0114846229553223,-4.98691463470459,-0.390140563249588,-0.8381398320198059,0.38119828701019287,-0.10151290893554688,0.9501087665557861,-0.48244035243988037
1.0394983778109037,-2.3962642710583,1.9241975008381687,-1.4980645179748535,-1.0147782564163208,-5.032374382019043,-0.34361863136291504,-0.8621501922607422,0.37232157588005066,-0.10325029492378235,0.9749126434326172,-0.46192121505737305
1.0844596517016716,-2.457658584969029,1.9821905089409564,-1.586430311203003,-1.1360266208648682,-5.098634719848633,-0.29531943798065186,-0.8840509653091431,0.36227118968963623,-0.10772627592086792,0.994387149810791,-0.4396333396434784
1.128795693123641,-2.5324478644853055,2.0520895219020545,-1.7071746587753296,-1.3166239261627197,-5.2031049728393555,-0.24474327266216278,-0.9038977026939392,0.3508126437664032,-0.10823829472064972,1.022855281829834,-0.427655965089798
1.1718985147468157,-2.62588395154196,2.1383337670497102,-1.805939793586731,-1.6305211782455444,-5.3129048347473145,-0.1915413737297058,-0.9214896559715271,0.3378883898258209,-0.09161600470542908,1.0711784362792969,-0.441663533449173
1.2121376593611417,-2.745164810406938,2.2471600277621335,-1.8476096391677856,-1.9558104276657104,-5.407731533050537,-0.13553722202777863,-0.9363685250282288,0.3237955868244171,-0.05039115250110626,1.1221596002578735,-0.49451103806495667
1.2471503191932503,-2.894381056534631,2.3838061815862246,-1.8761789798736572,-2.1004154682159424,-5.436244487762451,-0.07782123237848282,-0.9480822086334229,0.30835700035095215,0.042695462703704834,1.1268389225006104,-0.5454175472259521
1.2744893745142465,-3.0745225880408165,2.5507091373254056,-1.9065719842910767,-2.0785796642303467,-5.426219940185547,-0.019569098949432373,-0.9564213156700134,0.2913333475589752,0.1528087854385376,1.0670475959777832,-0.5977909564971924
1.2918691145507764,3.003484126176829,2.7444231064520244,-1.9268852472305298,-1.7396844625473022,-5.383525371551514,0.03790385648608208,-0.9613513350486755,0.2727026343345642,0.24996843934059143,0.9884510636329651,-0.656888484954834
1.2973872877540846,2.7889777418917165,2.9523429425920904,-1.8825669288635254,-1.1166400909423828,-5.335886478424072,0.09325068444013596,-0.9628559947013855,0.2534022629261017,0.32520630955696106,0.9025532007217407,-0.7190700769424438
1.2902423152964972,2.5841818221677473,-3.125457398016288,-1.752888798713684,-0.2923951745033264,-5.337502479553223,0.14647112786769867,-0.960902214050293,0.2349747121334076,0.35449013113975525,0.8315229415893555,-0.77782142162323
1.2709764293338852,2.4082822457758017,-2.940189806382033,-1.5396572351455688,0.6267436742782593,-5.398841857910156,0.19768592715263367,-0.955389678478241,0.21943235397338867,0.38147658109664917,0.7740849256515503,-0.8118853569030762
1.2415575513541104,2.270928959231068,-2.7847955523507433,-1.2808635234832764,1.4288692474365234,-5.460917949676514,0.24726301431655884,-0.9462887644767761,0.20832282304763794,0.4339655935764313,0.7227628231048584,-0.8082221746444702
1.2047902769312016,2.1712002274518865,-2.6605274829391137,-1.014679193496704,1.9572144746780396,-5.450107097625732,0.2952965497970581,-0.9337641596794128,0.20219838619232178,0.5195837616920471,0.6874874234199524,-0.7574810981750488
1.164123332360011,2.1028913590618545,-2.5640867845852204,-0.7559949159622192,2.203038215637207,-5.24815034866333,0.34086883068084717,-0.918441891670227,0.20068132877349854,0.6495028138160706,0.6579591035842896,-0.6671731472015381
1.1226713144958609,2.058304212289475,-2.4908853842777,-0.4944402873516083,2.1583991050720215,-4.898373126983643,0.38280123472213745,-0.9012610912322998,0.202957883477211,0.808437168598175,0.6041113138198853,-0.5918433666229248
1.0824079994902882,2.0301423113784,-2.4365381216268025,-0.1978384256362915,1.8698464632034302,-4.463303565979004,0.420566588640213,-0.8830901980400085,0.2080267369747162,0.9584769010543823,0.5388673543930054,-0.5299261808395386
1.0445841507244922,2.012993907596147,-2.397956495365667,0.11943436414003372,1.427433967590332,-3.9396376609802246,0.453950434923172,-0.8647157549858093,0.21493098139762878,1.1175367832183838,0.48437535762786865,-0.47343021631240845
1.0104182753839392,2.0031729004020744,-2.3727772590441507,0.40975967049598694,0.9084702134132385,-3.3232243061065674,0.4825933575630188,-0.8470542430877686,0.22271713614463806,1.279278039932251,0.440132737159729,-0.41931137442588806
0.9808629533859967,1.997774756742647,-2.358660313894106,0.6452282667160034,0.3898017406463623,-2.6715385913848877,0.5063610672950745,-0.830977737903595,0.23037858307361603,1.3977982997894287,0.40731751918792725,-0.3514723777770996
0.9563310409471544,1.9951195620453017,-2.3532798359478972,0.8101786375045776,-0.013578490354120731,-2.0395617485046387,0.5253944993019104,-0.8170818090438843,0.23735642433166504,1.4766044616699219,0.3677866458892822,-0.27345868945121765
0.9368928117260047,1.9946294715037898,-2.354465093391371,0.9029743075370789,-0.2569310963153839,-1.4418671131134033,0.5398879647254944,-0.805721640586853,0.24358558654785156,1.528791904449463,0.3116266131401062,-0.20281407237052917
0.9224545752316449,1.9963380192463296,-2.3605949827708885,0.9434881806373596,-0.3653869926929474,-0.8851003050804138,0.5500098466873169,-0.797086238861084,0.24928425252437592,1.5589988231658936,0.2711615562438965,-0.1422286033630371
0.9128145802444185,2.000589596591491,-2.370537763409099,0.9424813985824585,-0.3468121588230133,-0.3711410164833069,0.5559046268463135,-0.7912280559539795,0.25481048226356506,1.557117223739624,0.25060898065567017,-0.09323522448539734
0.9077024667351311,2.0078460026245937,-2.3833409304362765,0.9005925059318542,-0.2077392041683197,0.10078470408916473,0.5576983094215393,-0.7880915403366089,0.2605462074279785,1.5207014083862305,0.2276057004928589,-0.049425601959228516
0.9069908257389508,2.0186002489846193,-2.398256465713361,0.8120661377906799,0.01952245458960533,0.5530343651771545,0.5553694367408752,-0.7876533269882202,0.2667714059352875,1.47301185131073,0.21729499101638794,-0.017244458198547363
0.9105636815001626,2.033142552123591,-2.414801634540858,0.6962122917175293,0.2780269980430603,0.9728316068649292,0.5489090085029602,-0.789849579334259,0.27356216311454773,1.4233503341674805,0.22136825323104858,0.007992953062057495
0.9180444059183939,2.051366814301731,-2.4326875605805083,0.5673139691352844,0.5292452573776245,1.33641517162323,0.5385781526565552,-0.7944153547286987,0.28078028559684753,1.3528707027435303,0.19826984405517578,0.02175566554069519
0.9287897777319833,2.0729605277597707,-2.451723269167844,0.4452919363975525,0.7412142157554626,1.6276755332946777,0.5248770117759705,-0.8008958697319031,0.28821831941604614,1.2513375282287598,0.17411059141159058,0.015355199575424194
0.9420384104498204,2.097591683287652,-2.4721319686966083,0.3670352101325989,0.8974975943565369,1.8627166748046875,0.5084021091461182,-0.8087586760520935,0.2956969439983368,1.1403558254241943,0.165768563747406,-0.010601788759231567
0.9570987134820128,2.125461244140753,-2.4943832270514754,0.30545520782470703,1.054772138595581,2.0401663780212402,0.4895547330379486,-0.8175241947174072,0.30329978466033936,1.033043622970581,0.1721993088722229,-0.04773029685020447
0.9735305621085341,2.156973002016521,-2.51880824932462,0.26191508769989014,1.2209827899932861,2.2128186225891113,0.4685004949569702,-0.8268764019012451,0.31109949946403503,0.9402061700820923,0.18634289503097534,-0.07971525192260742
0.9910879132682593,2.192645858881957,-2.546019847136392,0.234095960855484,1.3747090101242065,2.380221366882324,0.4452371299266815,-0.836622416973114,0.3191036283969879,0.8713369965553284,0.1978740692138672,-0.11439177393913269
1.0094782320693523,2.23308001030112,-2.576962877669654,0.23966795206069946,1.484755039215088,2.550513505935669,0.4197685718536377,-0.8465542197227478,0.32732319831848145,0.8111426830291748,0.22033345699310303,-0.14795613288879395
1.0283736463719833,2.278475719630095,-2.612424749159507,0.2489597201347351,1.5376936197280884,2.7171709537506104,0.39225542545318604,-0.8564605712890625,0.3355751633644104,0.7603629231452942,0.24487316608428955,-0.16778960824012756
1.0476572210753035,2.329001309723856,-2.6531424145187703,0.24045556783676147,1.5407527685165405,2.9007301330566406,0.36274656653404236,-0.8662551641464233,0.34353578090667725,0.7291723489761353,0.2627090811729431,-0.17452958226203918
1.0672506715997077,2.3850383090596443,-2.699903498932624,0.23036432266235352,1.5057915449142456,3.103036642074585,0.3312210738658905,-0.8758771419525146,0.3509015440940857,0.7096114158630371,0.28372931480407715,-0.18177318572998047
1.0869715711645802,2.447334122481658,-2.7540501677941336,0.22173017263412476,1.3979578018188477,3.3367817401885986,0.2976219952106476,-0.8852222561836243,0.357494980096817,0.6985784769058228,0.31852608919143677,-0.19318845868110657
1.106602159775171,2.5167758743301243,-2.8173511679657923,0.21714314818382263,1.2102912664413452,3.6183838844299316,0.26188287138938904,-0.8941826224327087,0.363118052482605,0.7076757550239563,0.35646289587020874,-0.20624259114265442
1.1255892136481107,2.5947938748959056,-2.891956177878922,0.2436913102865219,0.9743234515190125,3.9199118614196777,0.22391606867313385,-0.9025214910507202,0.36785387992858887,0.7150487303733826,0.40304034948349,-0.22928884625434875
1.1429078183865835,2.6828699894360737,-2.979675770136361,0.2986006438732147,0.7404702305793762,4.222762107849121,0.18374142050743103,-0.909843921661377,0.37205246090888977,0.7009021043777466,0.46138817071914673,-0.2562231123447418
1.1571855396124202,2.7818972385924714,-3.081186253177872,0.38197335600852966,0.5358330011367798,4.492953777313232,0.1414707750082016,-0.9156755805015564,0.37619689106941223,0.6704798340797424,0.531764566898346,-0.2819738984107971
1.1670309088580546,2.890745229339918,3.0883497907393553,0.4586004912853241,0.38959431648254395,4.702832221984863,0.09752350300550461,-0.9195881485939026,0.38058724999427795,0.6256972551345825,0.6026478409767151,-0.30333212018013
1.1713757249705012,3.007578961376249,2.9653018133434426,0.5286480188369751,0.33218857645988464,4.870707988739014,0.05195997282862663,-0.9212864637374878,0.38539746403694153,0.5759849548339844,0.6685094237327576,-0.3160311281681061
1.1694331445488149,3.128557601605127,2.8375554477049536,0.5832095146179199,0.32896721363067627,4.992194175720215,0.005092307459563017,-0.920529305934906,0.3906404972076416,0.5265696048736572,0.7317475080490112,-0.3215334415435791
1.1609764337087545,-3.034227663019952,2.71011663270621,0.6210809350013733,0.3255123198032379,5.094411373138428,-0.04269678145647049,-0.9171925783157349,0.39614957571029663,0.4841640293598175,0.8025686740875244,-0.3196879029273987
1.1463047892540554,-2.918216953335726,2.5869759041532743,0.6196212768554688,0.3578138053417206,5.193758487701416,-0.09123580157756805,-0.9112482666969299,0.40162503719329834,0.44296613335609436,0.8518762588500977,-0.3197617530822754
1.1259386971797736,-2.8087461109902314,2.4706388142362257,0.5988352298736572,0.4250311553478241,5.309411525726318,-0.1406034678220749,-0.9026719331741333,0.40671104192733765,0.4052976369857788,0.8844988346099854,-0.3224216103553772
1.1002088273594282,-2.7074459384436587,2.3626320735075526,0.5989362001419067,0.4439566433429718,5.431666851043701,-0.19072064757347107,-0.8913020491600037,0.4113466143608093,0.35969647765159607,0.9211636185646057,-0.3287814259529114
1.0692777344688307,-2.6159241349316416,2.2641178651933105,0.6338877081871033,0.42785924673080444,5.546587944030762,-0.24123981595039368,-0.8768535256385803,0.4158495366573334,0.30732566118240356,0.9358593821525574,-0.3356190323829651
1.0336065726065347,-2.5354020538309725,2.1759808033053725,0.6901280879974365,0.36066314578056335,5.619135856628418,-0.291549950838089,-0.8591501116752625,0.4205469787120819,0.2392885982990265,0.9461710453033447,-0.3369135856628418
0.9939828034311312,-2.466626804805381,2.098620742663734,0.7678070664405823,0.24923303723335266,5.629707336425781,-0.34077680110931396,-0.8382046818733215,0.4257746636867523,0.17030563950538635,0.948327362537384,-0.3310786783695221
0.951309293286554,-2.4092767509157413,2.031765259799441,0.8596810698509216,0.17471271753311157,5.589581489562988,-0.3881970942020416,-0.8141763806343079,0.4317633807659149,0.10493293404579163,0.9761027693748474,-0.3385017216205597
0.9064702562506428,-2.3615259972982043,1.974518642009686,0.9490635395050049,0.21964330971240997,5.508514404296875,-0.4336211383342743,-0.7873324751853943,0.4382696747779846,0.05314323306083679,1.005182147026062,-0.3468085527420044
0.8602031199478801,-2.3206113643387076,1.925622292983866,1.035522222518921,0.4175974130630493,5.418202877044678,-0.4773510694503784,-0.7579750418663025,0.44453367590904236,0.021692931652069092,0.9964545369148254,-0.3497459888458252
0.8128429822337876,-2.2841038568442715,1.8840224318481984,1.1418979167938232,0.707063615322113,5.313894271850586,-0.5198408365249634,-0.7262444496154785,0.4498162567615509,-0.002131938934326172,0.9678367972373962,-0.3474755883216858
0.7647900187697247,-2.2507074057908647,1.8492029943433763,1.2491921186447144,1.0236865282058716,5.171883583068848,-0.5610806345939636,-0.6923854947090149,0.45364171266555786,-0.03750640153884888,0.9454067349433899,-0.32758891582489014
0.7164966367090447,-2.2192560916527064,1.820053921057245,1.2981486320495605,1.3166453838348389,5.0607171058654785,-0.6010379791259766,-0.6567468047142029,0.45545268058776855,-0.05524259805679321,0.9299706220626831,-0.2782829999923706
0.6681514856435214,-2.1886824110601832,1.794722755894403,1.2598388195037842,1.5404400825500488,5.012111663818359,-0.6398317217826843,-0.6195360422134399,0.45474278926849365,-0.057754576206207275,0.9213395118713379,-0.2052004337310791
0.6200440559376219,-2.1586375575984196,1.771665765096764,1.1393288373947144,1.683306336402893,4.9701128005981445,-0.6772392392158508,-0.5810710191726685,0.45133498311042786,-0.08173280954360962,0.916703462600708,-0.12337788939476013
0.5727447280653268,-2.128740543995224,1.749926567434746,0.9524260759353638,1.8441481590270996,4.892127513885498,-0.7129635214805603,-0.5419408082962036,0.44495296478271484,-0.1227603554725647,0.8872777223587036,-0.049612998962402344
0.5268336354554566,-2.0983896310079735,1.7290310486300073,0.7330374121665955,2.0267229080200195,4.774627685546875,-0.7468630075454712,-0.502798855304718,0.4351885914802551,-0.18010848760604858,0.8502719402313232,-0.011909782886505127
0.4827086152656036,-2.0675220083738592,1.7089270383115498,0.525583028793335,2.1826961040496826,4.60194730758667,-0.7786969542503357,-0.46417999267578125,0.4220993220806122,-0.2387896180152893,0.8145217895507812,0.001164078712463379
0.4407466652362482,-2.0363905360178722,1.6900423086368512,0.36810559034347534,2.3547890186309814,4.366945743560791,-0.8081609606742859,-0.4266148805618286,0.40604886412620544,-0.2934778332710266,0.7683507204055786,-0.001919865608215332
0.40101212883134807,-2.004783746144685,1.6729487587453613,0.2877558767795563,2.548233985900879,4.12502384185791,-0.8353172540664673,-0.3903503715991974,0.38713276386260986,-0.3191322684288025,0.71807861328125,-0.026445627212524414
0.3629294463339982,-1.9728575854541404,1.6580576307757768,0.28831031918525696,2.7022690773010254,3.9397289752960205,-0.8603114485740662,-0.3550143837928772,0.3658260107040405,-0.3119601011276245,0.6766544580459595,-0.0643429160118103
0.32571639320829765,-1.9410598107295252,1.6454192089135407,0.3091292977333069,2.769866943359375,3.8435347080230713,-0.8832168579101562,-0.31998759508132935,0.34283503890037537,-0.29897308349609375,0.6508439183235168,-0.07795774936676025
0.28838064205271946,-1.9103965878210722,1.6343454615253548,0.2947237193584442,2.650012969970703,3.8859896659851074,-0.9039519429206848,-0.2844001054763794,0.3193546235561371,-0.2799469828605652,0.6416236162185669,-0.05704092979431152
0.24991621938207484,-1.8823670041839526,1.6238209448752967,0.23735150694847107,2.359065055847168,4.031544208526611,-0.9222822189331055,-0.24732278287410736,0.29703041911125183,-0.3057146668434143,0.6591575145721436,-0.009051293134689331
0.21011471441755195,-1.858488101404127,1.6134383422779044,0.18002840876579285,1.9067132472991943,4.133432865142822,-0.9378122091293335,-0.20857208967208862,0.27749931812286377,-0.425728440284729,0.6606289744377136,0.03872370719909668
0.16988837222196368,-1.8403036649197932,1.603492785263965,0.16113673150539398,1.3388214111328125,4.089239597320557,-0.9500253796577454,-0.16907232999801636,0.26242342591285706,-0.6465168595314026,0.6163227558135986,0.0709657073020935
0.13064850081702348,-1.8283314675986697,1.5948269166986144,0.2355499118566513,0.7967424988746643,3.8955233097076416,-0.958779513835907,-0.1302771419286728,0.2525271475315094,-0.8967657089233398,0.5563788414001465,0.08171656727790833
0.09343996900871017,-1.8219285930085447,1.5881777206589975,0.35817834734916687,0.34442591667175293,3.6028246879577637,-0.9644062519073486,-0.09330406039953232,0.24741683900356293,-1.1116893291473389,0.515377402305603,0.08963441848754883
0.059213343474107866,-1.819459287771202,1.5836775829419685,0.4523366391658783,0.11259490251541138,3.2170703411102295,-0.9675434827804565,-0.05917874723672867,0.2456769049167633,-1.283585548400879,0.47635406255722046,0.12032029032707214
0.029121332437855835,-1.8182235074575497,1.580992692538877,0.4956827759742737,0.13588851690292358,2.7155044078826904,-0.9691345691680908,-0.029117217287421227,0.2448064386844635,-1.4319579601287842,0.426913857460022,0.16893523931503296
0.004227063325089867,-1.816066798506447,1.5799268369669495,0.5071030259132385,0.2995980679988861,2.1383063793182373,-0.9700631499290466,-0.004227050580084324,0.24281656742095947,-1.5659935474395752,0.38481175899505615,0.21725109219551086
-0.014795978597216642,-1.812166322214577,1.580389988057325,0.49373021721839905,0.47119140625,1.5167206525802612,-0.9709050059318542,0.014795438386499882,0.23900693655014038,-1.677532434463501,0.3516291379928589,0.26538753509521484
-0.027743217096951378,-1.8067655272923515,1.5821278964260082,0.45081761479377747,0.5883060097694397,0.9153481125831604,-0.9719139933586121,0.02773965895175934,0.23369544744491577,-1.7404425144195557,0.32766807079315186,0.32930800318717957
-0.03504193252498994,-1.8005067200260205,1.5846525019211717,0.37206849455833435,0.635794460773468,0.39435017108917236,-0.9731347560882568,0.03503476083278656,0.2275557816028595,-1.7306617498397827,0.31976261734962463,0.3966659605503082
-0.03741997544474972,-1.7940692514932886,1.5873987530877283,0.26682791113853455,0.620731770992279,-0.052589211612939835,-0.9744952321052551,0.037411242723464966,0.2212674617767334,-1.6927409172058105,0.31738612055778503,0.45538339018821716
-0.03523468507804988,-1.7881882823303856,1.590055483366926,0.1579725295305252,0.5216498970985413,-0.48785969614982605,-0.9758570790290833,0.035227395594120026,0.2155497968196869,-1.670215129852295,0.31508389115333557,0.5004687309265137
-0.028595723726319407,-1.7836848837289134,1.5926254646682187,0.06253369897603989,0.35305240750312805,-0.914351224899292,-0.9770252108573914,0.028591826558113098,0.21119777858257294,-1.6455793380737305,0.3233826756477356,0.5264272689819336
-0.01752780353604036,-1.7811359818747263,1.595098384931763,-0.04683806002140045,0.13862666487693787,-1.347174882888794,-0.9778099656105042,0.017526905983686447,0.20876003801822662,-1.6051216125488281,0.34111568331718445,0.5402480363845825
-0.001966872368797693,-1.780897760587642,1.5972058056142364,-0.19524195790290833,-0.09574583172798157,-1.7679920196533203,-0.978007972240448,0.001966871088370681,0.20855872333049774,-1.5338633060455322,0.3587203919887543,0.5443862676620483
0.01783740782995635,-1.7829881240126277,1.598545579562354,-0.3732926547527313,-0.31786492466926575,-2.134202003479004,-0.9774160385131836,-0.01783646270632744,0.21056951582431793,-1.4165810346603394,0.38305559754371643,0.5275132656097412
0.04116506947560616,-1.7871747101946536,1.5988199566367238,-0.5603988170623779,-0.5101495385169983,-2.410680055618286,-0.9758540391921997,-0.0411534458398819,0.21451200544834137,-1.2521581649780273,0.4074712097644806,0.4831046164035797
0.06725183852512444,-1.792992259155395,1.5981086226453973,-0.7004696130752563,-0.6507160067558289,-2.629044771194458,-0.9732110500335693,-0.0672011524438858,0.21987397968769073,-1.0843299627304077,0.4203353226184845,0.41199246048927307
0.09555425924202553,-1.7998736980958958,1.5969040467564135,-0.7877507209777832,-0.7401448488235474,-2.8118748664855957,-0.9694336652755737,-0.09540891647338867,0.2260431945323944,-0.9496642351150513,0.43676328659057617,0.3262791633605957
0.12570704479008413,-1.807636059298136,1.5955946914515033,-0.8489283323287964,-0.8405486345291138,-2.9723777770996094,-0.9644139409065247,-0.12537622451782227,0.2327803671360016,-0.8306605815887451,0.45636987686157227,0.25485995411872864
0.15733431846843127,-1.8164333272500295,1.5942310660635406,-0.9178751111030579,-0.9517928957939148,-3.0810816287994385,-0.9580017924308777,-0.15668600797653198,0.2401706576347351,-0.7232115268707275,0.4696285128593445,0.19851945340633392
0.18995904454666235,-1.8264288317224162,1.5926923663700172,-0.9869106411933899,-1.098793625831604,-3.136749267578125,-0.9500999450683594,-0.18881867825984955,0.2483089715242386,-0.6205786466598511,0.48285555839538574,0.13399989902973175
0.22306494789378373,-1.8380750233279919,1.5910212314532317,-1.0299072265625,-1.2935668230056763,-3.1509199142456055,-0.9405969977378845,-0.22121967375278473,0.2575642168521881,-0.5340276956558228,0.49238359928131104,0.06067299842834473
0.25637810529524496,-1.8518663220768588,1.5895512572371722,-1.0327131748199463,-1.5305116176605225,-3.168588638305664,-0.929356575012207,-0.25357872247695923,0.26831746101379395,-0.48824596405029297,0.49381309747695923,-0.021720290184020996
0.2899898611436487,-1.8682695788372907,1.588825684139071,-1.0077747106552124,-1.7745472192764282,-3.222337007522583,-0.9161606431007385,-0.2859424948692322,0.28086724877357483,-0.4801862835884094,0.49575087428092957,-0.10491815209388733
0.3241117804746918,-1.8871998778139565,1.5893834665651032,-0.9442477226257324,-1.9599934816360474,-3.2983028888702393,-0.9008791446685791,-0.3184669315814972,0.29495030641555786,-0.4750516414642334,0.4976814389228821,-0.18461406230926514
0.35867491957622716,-1.9084827940787101,1.5916454390362949,-0.863312304019928,-2.1275973320007324,-3.3640475273132324,-0.8834804892539978,-0.3510337769985199,0.310221791267395,-0.449679970741272,0.5101982355117798,-0.25175023078918457
0.39347545160957736,-1.9320818250349998,1.5958809295326564,-0.7722859382629395,-2.2620456218719482,-3.429750680923462,-0.8639586567878723,-0.3834005892276764,0.32646507024765015,-0.4282013773918152,0.526360273361206,-0.3043093979358673
0.42866221096653595,-1.9579725462134474,1.6023103144350916,-0.7004868388175964,-2.3839240074157715,-3.533080577850342,-0.8421988487243652,-0.41565442085266113,0.34341317415237427,-0.43230676651000977,0.5472919940948486,-0.34255874156951904
0.4645679686687621,-1.986268726683096,1.6109798722972388,-0.6659477949142456,-2.5087084770202637,-3.663809299468994,-0.8179577589035034,-0.4480366110801697,0.3608444631099701,-0.4254658818244934,0.5667956471443176,-0.35933390259742737
0.5012168472497848,-2.016831639876538,1.6216986886198879,-0.6658705472946167,-2.5815258026123047,-3.757793426513672,-0.7911970615386963,-0.48049306869506836,0.3783303201198578,-0.38826167583465576,0.5930265784263611,-0.37471407651901245
0.5381760318311763,-2.0491332409188794,1.634187943012792,-0.686322808265686,-2.6177470684051514,-3.796717643737793,-0.7622721195220947,-0.5125706791877747,0.3952372074127197,-0.3211171627044678,0.6252111196517944,-0.3935283422470093
0.5752168676248145,-2.0829590788300862,1.6482496903556554,-0.7295030355453491,-2.634770154953003,-3.831437587738037,-0.731410026550293,-0.5440167784690857,0.4111998975276947,-0.2592821717262268,0.6354626417160034,-0.4065611958503723
0.6124264208905109,-2.1180037808378005,1.6639660640097194,-0.777248203754425,-2.588045358657837,-3.885498285293579,-0.6987746357917786,-0.5748546123504639,0.42574208974838257,-0.2292191982269287,0.6497447490692139,-0.41980648040771484
0.6499164963578985,-2.1538569789383293,1.6815963503375295,-0.8307145237922668,-2.473978281021118,-3.9517765045166016,-0.6645981669425964,-0.6051199436187744,0.4383368492126465,-0.22054892778396606,0.6773245334625244,-0.44018328189849854
0.6878656720319999,-2.1902676155209715,1.7015014160923294,-0.8814573287963867,-2.3209128379821777,-4.052158832550049,-0.6290422081947327,-0.6348896622657776,0.44857701659202576,-0.22171175479888916,0.7158526182174683,-0.45791542530059814
0.7265546848956698,-2.2274148434935372,1.7242352274828265,-0.9466115832328796,-2.129012107849121,-4.20142936706543,-0.5920395851135254,-0.6642982959747314,0.45628538727760315,-0.22870004177093506,0.7476114630699158,-0.47097980976104736
0.7663201871626002,-2.265297052591426,1.7506490865662374,-0.9939548969268799,-1.8284176588058472,-4.408275127410889,-0.5535881519317627,-0.6934887766838074,0.46110066771507263,-0.23849564790725708,0.7599102854728699,-0.48357656598091125
0.8073455922061328,-2.303824205250256,1.7820681432991539,-1.0145739316940308,-1.3989537954330444,-4.675622463226318,-0.5138288736343384,-0.7224544286727905,0.46264389157295227,-0.24436509609222412,0.7707332968711853,-0.5059025883674622
0.8495695487218872,-2.3432724639318856,1.8201174754525822,-0.9921038150787354,-0.8633351922035217,-4.977903366088867,-0.47290122509002686,-0.7509962320327759,0.460834801197052,-0.24063023924827576,0.7925612926483154,-0.5290265083312988
0.8925431918985643,-2.384554029954646,1.8665398267491062,-0.9302392601966858,-0.28370776772499084,-5.277144432067871,-0.43090367317199707,-0.7786699533462524,0.4560644328594208,-0.22024980187416077,0.8265674114227295,-0.5439399480819702
0.9355057561405299,-2.4292198133015956,1.922699323360663,-0.8430483937263489,0.2382797747850418,-5.533213138580322,-0.38787227869033813,-0.804899275302887,0.44910141825675964,-0.18126529455184937,0.8650190234184265,-0.5434160232543945
0.9775936308407426,-2.4796808507127577,1.989937416656183,-0.7385915517807007,0.6437751054763794,-5.753634452819824,-0.34358781576156616,-0.8291545510292053,0.44096481800079346,-0.1457921266555786,0.8900676965713501,-0.524216890335083
1.0178185678540108,-2.5387147910692915,2.069781609780237,-0.6231153011322021,0.9556400179862976,-5.941319942474365,-0.29780954122543335,-0.8509643077850342,0.4326300323009491,-0.11045458912849426,0.900875985622406,-0.501355767250061
1.0550557066974708,-2.6089915658170195,2.164008915548583,-0.4824812412261963,1.2026094198226929,-6.110195636749268,-0.2504243850708008,-0.869927704334259,0.4248683452606201,-0.08453655242919922,0.9104704260826111,-0.4854458272457123
1.0879085648545774,-2.692820612345572,2.274518948932483,-0.3158126473426819,1.4282432794570923,-6.27180814743042,-0.2014576494693756,-0.8856577277183533,0.4183599054813385,-0.07196459174156189,0.915900707244873,-0.46862250566482544
1.1147956545803297,-2.791522786702391,2.4021988890984947,-0.1350327730178833,1.5904680490493774,-6.407734394073486,-0.15102776885032654,-0.8978208303451538,0.4136526584625244,-0.04491038620471954,0.9063351154327393,-0.4474661946296692
1.1339339541765228,-2.9045702790281984,2.5455060967137686,0.06075190380215645,1.6377111673355103,-6.487785339355469,-0.09934748709201813,-0.9060836434364319,0.4112693965435028,0.00581108033657074,0.8887495994567871,-0.4209129214286804
1.1436456671259239,-3.02832244518342,2.6995227080712674,0.28349149227142334,1.5621769428253174,-6.494258880615234,-0.04682520031929016,-0.910149872303009,0.41162431240081787,0.08024191856384277,0.865868866443634,-0.3929171562194824
1.1427801137473184,3.1272962477390314,2.8557586004331688,0.5345873832702637,1.321089506149292,-6.408458709716797,0.005933756940066814,-0.9097909331321716,0.415024071931839,0.17357060313224792,0.8355875015258789,-0.35672035813331604
1.1313228634235533,3.003219048666194,3.0051750959098533,0.7820656299591064,0.9780517816543579,-6.231317520141602,0.05868519842624664,-0.9049758315086365,0.4213966131210327,0.2618561387062073,0.8000562191009521,-0.31038886308670044
1.1107799778634744,2.8905664829691187,3.1393478294500796,0.9733993411064148,0.6687506437301636,-5.950211524963379,0.1102796196937561,-0.8960452675819397,0.43004852533340454,0.3526262938976288,0.7704956531524658,-0.25965359807014465
1.0837783585342282,2.7939820095816645,-3.029323403547318,1.0827300548553467,0.40598246455192566,-5.571499347686768,0.15942271053791046,-0.8837323784828186,0.4400014877319336,0.45919907093048096,0.7679030299186707,-0.20191869139671326
1.0532283378864193,2.7136666414478463,-2.9344818239717183,1.0984374284744263,0.16359379887580872,-5.155337810516357,0.20532113313674927,-0.8690250515937805,0.4501539170742035,0.5609904527664185,0.7502506971359253,-0.13612812757492065
1.0214230081742572,2.6469171091575565,-2.8561699835665304,1.0381587743759155,-0.015489477664232254,-4.7824835777282715,0.24789004027843475,-0.852851927280426,0.4595586359500885,0.6172680854797363,0.6821517944335938,-0.07097840309143066
0.9894933749360085,2.5907176941775694,-2.790416105869813,0.9698646664619446,-0.10708729922771454,-4.488238334655762,0.28742390871047974,-0.8357478976249695,0.46788111329078674,0.6172696352005005,0.6020138263702393,-0.03154093027114868
0.9577071368969401,2.542821741280934,-2.7341159893635094,0.9246036410331726,-0.14880140125751495,-4.260571479797363,0.32430943846702576,-0.8178744316101074,0.475294291973114,0.6070870161056519,0.5258212685585022,-0.013685494661331177
0.9259137358434983,2.501919000385892,-2.685420062049427,0.9257554411888123,-0.1474951207637787,-4.073716640472412,0.3588196039199829,-0.7991703748703003,0.48226064443588257,0.6113494634628296,0.471762478351593,-0.005621910095214844
0.8940361607906466,2.4673368098811945,-2.6431354451279323,0.9483842849731445,-0.07779857516288757,-3.901890993118286,0.3909907937049866,-0.7796058058738708,0.4892248213291168,0.6284793615341187,0.44787973165512085,0.0009942054748535156
0.8622226835564591,2.4390893142363166,-2.6065031877976996,0.9855790734291077,0.07685624063014984,-3.734700918197632,0.4204702079296112,-0.759290874004364,0.4966711103916168,0.6647348403930664,0.42968571186065674,0.009996891021728516
0.8305096028708269,2.417022524321959,-2.574364700437028,1.007698893547058,0.3312780559062958,-3.624145269393921,0.4470675587654114,-0.7382751703262329,0.5050548315048218,0.6834561228752136,0.4283539056777954,0.019618511199951172
0.7989315955840004,2.40020614901752,-2.545082730305737,0.9881156086921692,0.5496807098388672,-3.569270372390747,0.4710110127925873,-0.7166113257408142,0.5144090056419373,0.6852846741676331,0.4454931616783142,0.03342717885971069
0.7675853824714198,2.387125614174948,-2.517838504252438,0.9831958413124084,0.6656164526939392,-3.492351531982422,0.49284693598747253,-0.6943997144699097,0.524319052696228,0.763668417930603,0.4323759078979492,0.06802690029144287
0.736743036395471,2.3776550024959144,-2.49346560947533,1.0398814678192139,0.7760023474693298,-3.2957472801208496,0.5123668909072876,-0.6718791723251343,0.5348440408706665,0.9639666676521301,0.41719478368759155,0.09769362211227417
0.7072588982725663,2.3733110494138945,-2.473568232470997,1.1324307918548584,0.9909858703613281,-2.897839307785034,0.5282257795333862,-0.6497525572776794,0.5466253161430359,1.2097045183181763,0.41290557384490967,0.12170958518981934
0.6807885232479222,2.3754228891643137,-2.45969315622909,1.1745556592941284,1.1894707679748535,-2.2673768997192383,0.5388097763061523,-0.6294059753417969,0.5599395632743835,1.4577417373657227,0.4203910231590271,0.17507624626159668
0.6595141148283853,2.3834292830844923,-2.4524108074426434,1.0857802629470825,1.2911410331726074,-1.4711740016937256,0.5433947443962097,-0.6127329468727112,0.5738296508789062,1.659898042678833,0.4408884048461914,0.28351593017578125
0.6453147162139445,2.395418485154525,-2.451076807607532,0.8162463903427124,1.2344399690628052,-0.6152207851409912,0.542327880859375,-0.6014499068260193,0.5866329669952393,1.7427672147750854,0.4565371870994568,0.41310757398605347
0.6393426454300088,2.4087167631083353,-2.4545882635672784,0.4297925531864166,0.9748526215553284,0.218373641371727,0.5368726849555969,-0.5966680645942688,0.5964522361755371,1.7176744937896729,0.44881027936935425,0.5263810753822327
0.6416785034413082,2.4207495576884135,-2.461853188680493,-0.00746547244489193,0.5428906083106995,0.9404498338699341,0.5287353992462158,-0.5985409021377563,0.6018200516700745,1.6101653575897217,0.4338375926017761,0.592149555683136
0.6515972340850087,2.4297287579098317,-2.471801199203977,-0.4433113932609558,0.060910165309906006,1.5407075881958008,0.5194064974784851,-0.6064571738243103,0.6020186543464661,1.4658076763153076,0.4101528525352478,0.6042647957801819
0.6682557024401606,2.4358203468956074,-2.4838749655261645,-0.832433819770813,-0.2894132435321808,2.0610599517822266,0.5091054439544678,-0.6196178197860718,0.5973984599113464,1.3315163850784302,0.39523744583129883,0.5566693544387817
0.6908047476856642,2.4410884143816145,-2.4981155326692375,-1.1611286401748657,-0.4146122634410858,2.5224649906158447,0.49681711196899414,-0.6371576189994812,0.5892388224601746,1.2112514972686768,0.404354453086853,0.4475194215774536
0.7183147399106115,2.4477291535946937,-2.5146228902671077,-1.423235297203064,-0.3777751624584198,2.9072792530059814,0.48149898648262024,-0.6581167578697205,0.5788276195526123,1.0863111019134521,0.42262762784957886,0.3213188648223877
0.7496059721701066,2.457072138245968,-2.533448760576012,-1.609752893447876,-0.2675871253013611,3.199066400527954,0.46281781792640686,-0.6813504099845886,0.5670636892318726,0.957241415977478,0.43568384647369385,0.1981339454650879
0.7834813393864396,2.469961170869927,-2.5547477200145994,-1.7218633890151978,-0.09799277037382126,3.409313440322876,0.440849632024765,-0.7057501077651978,0.5545884370803833,0.8310772180557251,0.45008909702301025,0.07836127281188965
0.8188817101369494,2.4872925383501197,-2.578829663931937,-1.7761074304580688,0.11000321805477142,3.5656235218048096,0.4156998097896576,-0.7303824424743652,0.5419731140136719,0.7326613068580627,0.4639030694961548,-0.034191250801086426
0.8549176925064573,2.510027552226962,-2.606383601224488,-1.7598410844802856,0.34370678663253784,3.682749032974243,0.3874736428260803,-0.7545168995857239,0.5296868681907654,0.6655200719833374,0.46615636348724365,-0.1342250108718872
0.8907216554577352,2.5390890840876192,-2.6382477055078195,-1.692757248878479,0.5790520310401917,3.7804744243621826,0.35637420415878296,-0.777525782585144,0.5181224942207336,0.6136574745178223,0.46531569957733154,-0.21734148263931274
0.9256669192650174,2.5754465403406823,-2.675630171613409,-1.5832374095916748,0.7848121523857117,3.8903815746307373,0.3225284218788147,-0.7990219593048096,0.5074834823608398,0.5806392431259155,0.47117161750793457,-0.28359127044677734
0.9592227650894262,2.6201151806738574,-2.720113162871719,-1.4419001340866089,0.933159351348877,4.036309242248535,0.2860228419303894,-0.8187455534934998,0.497842013835907,0.5649902820587158,0.48555463552474976,-0.33016327023506165
0.9908947977432628,2.673816692625266,-2.7733374013491874,-1.2826154232025146,0.9755376577377319,4.2050395011901855,0.24706806242465973,-0.8365166187286377,0.48907792568206787,0.5529807806015015,0.5021507740020752,-0.3591647148132324
1.0199901811222327,2.7368589440765647,-2.83672825861848,-1.1131000518798828,0.903534471988678,4.385618209838867,0.2060912549495697,-0.8521028757095337,0.48108962178230286,0.5306946039199829,0.5246187448501587,-0.37830638885498047
1.0457837052596914,2.809190230356183,-2.9113411995613383,-0.9341866970062256,0.7399226427078247,4.584222316741943,0.16355684399604797,-0.8653176426887512,0.4737875461578369,0.5007345080375671,0.5527870655059814,-0.3908102512359619
1.0673739529094035,2.8910921966358534,-2.9979252593815926,-0.7486628890037537,0.5707259774208069,4.811929702758789,0.11958812177181244,-0.8759366273880005,0.4673691689968109,0.48667407035827637,0.5912227630615234,-0.4042589068412781
1.0838501908251235,2.9832642388634794,-3.09704010356888,-0.5614386796951294,0.41350868344306946,5.05040168762207,0.07377738505601883,-0.8837659955024719,0.46207672357559204,0.4785449802875519,0.6179424524307251,-0.40915924310684204
1.0941985685124815,3.0841856910446457,3.0760731103255403,-0.39919817447662354,0.25868913531303406,5.2731733322143555,0.026321452111005783,-0.8885608911514282,0.4580024778842926,0.4517363905906677,0.6497762799263,-0.3978067636489868
1.0977316606825138,-3.092421087299052,2.958391687712469,-0.26740846037864685,0.1200239509344101,5.447208881378174,-0.02239435538649559,-0.8901761770248413,0.45506590604782104,0.4123784601688385,0.6717922687530518,-0.37761229276657104
1.0941226128514352,-2.984516770577377,2.837772457474853,-0.1505899429321289,0.004275272600352764,5.550445556640625,-0.07177448272705078,-0.8885260224342346,0.45317721366882324,0.3628969192504883,0.6829139590263367,-0.36266225576400757
1.083352581198033,-2.8799657378165184,2.719308428951252,-0.02449246682226658,-0.09509258717298508,5.598714351654053,-0.12114476412534714,-0.8835330009460449,0.4524305462837219,0.30013036727905273,0.6830019950866699,-0.3622359037399292
1.0657303087825716,-2.7829202704978133,2.607114045271605,0.1143612340092659,-0.24135147035121918,5.611004829406738,-0.16985172033309937,-0.875142514705658,0.4530733823776245,0.23422858119010925,0.6941734552383423,-0.3630772531032562
1.0419691399000455,-2.6959380372833084,2.503390710983789,0.23224739730358124,-0.3934054374694824,5.650550365447998,-0.21747323870658875,-0.8633993864059448,0.4552440643310547,0.19461551308631897,0.7100636959075928,-0.3548411726951599
1.0129333767065187,-2.6189818899628743,2.408117344007592,0.3083992302417755,-0.5296628475189209,5.731973648071289,-0.26423412561416626,-0.8483883738517761,0.45871299505233765,0.17895272374153137,0.7423244714736938,-0.3496279716491699
0.9794127282908173,-2.5517015781546513,2.320829255712531,0.3679240643978119,-0.6710450053215027,5.821776390075684,-0.3101266920566559,-0.8301700949668884,0.4632919728755951,0.1453469693660736,0.7602999210357666,-0.3496597409248352
0.9420402408659788,-2.4944181269833683,2.241646200913474,0.45332106947898865,-0.8584570288658142,5.856888294219971,-0.3546094000339508,-0.8087597489356995,0.46921172738075256,0.0784711241722107,0.7659283876419067,-0.35570165514945984
0.9015453104758181,-2.4476962149895356,2.1710257199575054,0.5840049982070923,-1.0402647256851196,5.81749963760376,-0.3967682719230652,-0.7842865586280823,0.47693774104118347,-0.00310361385345459,0.7620697617530823,-0.36466360092163086
0.858630227204144,-2.41114856475085,2.109252830219069,0.7649185657501221,-1.1616661548614502,5.6964921951293945,-0.4359988868236542,-0.7569481730461121,0.4867593050003052,-0.08272373676300049,0.7616934776306152,-0.38557833433151245
0.8143450723039545,-2.383762022353084,2.0564484726038685,0.9444468021392822,-1.1806209087371826,5.459610462188721,-0.47175732254981995,-0.7272762656211853,0.49851202964782715,-0.17193469405174255,0.7542385458946228,-0.3886794149875641
0.7700420404973358,-2.36339023601704,2.0119079276491565,1.066757321357727,-1.05995512008667,5.154078483581543,-0.5039529800415039,-0.6961654424667358,0.5112583041191101,-0.22700411081314087,0.7362960577011108,-0.3678562641143799
0.7267692617060809,-2.347078778214222,1.9742284247294033,1.1247223615646362,-0.7799506187438965,4.843094825744629,-0.5332335829734802,-0.664458692073822,0.5235995054244995,-0.20664983987808228,0.7078394889831543,-0.3438205122947693
0.6848511703618405,-2.331784876690553,1.9419079999343265,1.160420298576355,-0.3334296941757202,4.579194068908691,-0.5608675479888916,-0.63255774974823,0.5341336727142334,-0.13896173238754272,0.6763502955436707,-0.34039270877838135
0.6439942164383735,-2.3151758017920248,1.9139391981838216,1.2079886198043823,0.21495988965034485,4.375554084777832,-0.5881892442703247,-0.6003944277763367,0.5418120622634888,-0.05066579580307007,0.6600714325904846,-0.356509268283844
0.6035513352499042,-2.2959824691542448,1.8894276628121656,1.2592905759811401,0.7432153820991516,4.28001070022583,-0.616156816482544,-0.5675699710845947,0.546090841293335,0.040381669998168945,0.6509439945220947,-0.37468886375427246
0.5627564691269792,-2.2742679255654132,1.867379335108013,1.2950334548950195,1.1467167139053345,4.275059700012207,-0.6449986100196838,-0.5335196256637573,0.547113835811615,0.09781843423843384,0.6406516432762146,-0.36391693353652954
0.5213283662362136,-2.2507849003182643,1.847029566907344,1.2923729419708252,1.4257930517196655,4.302639007568359,-0.6742849349975586,-0.49803248047828674,0.5452554821968079,0.09930318593978882,0.6478585004806519,-0.32700902223587036
0.4794926638282696,-2.2263016445140407,1.8279132223867278,1.2479058504104614,1.615293264389038,4.307498931884766,-0.7033420205116272,-0.4613291025161743,0.5408192873001099,0.04744291305541992,0.6668497323989868,-0.2832052707672119
0.4377996714286112,-2.201616455151102,1.810085941769646,1.1886029243469238,1.7203466892242432,4.247004508972168,-0.7313817143440247,-0.42394769191741943,0.5341804623603821,-0.043902039527893066,0.660733699798584,-0.2411661148071289
0.39678049158155093,-2.1776276804694628,1.793761868278409,1.1354355812072754,1.737247347831726,4.139986991882324,-0.7576397657394409,-0.38645097613334656,0.5259631872177124,-0.1334276795387268,0.637580156326294,-0.20201927423477173
0.3566116318533092,-2.154660779995788,1.7791376516788175,1.1142785549163818,1.777410864830017,4.003437519073486,-0.7818463444709778,-0.34910106658935547,0.5165703892707825,-0.1903979778289795,0.635127067565918,-0.1906273365020752
0.3175081846968358,-2.13204181608044,1.766503816926111,1.114789366722107,1.9070491790771484,3.8326101303100586,-0.8042769432067871,-0.31220027804374695,0.5056375861167908,-0.24032437801361084,0.6386315822601318,-0.18563038110733032
0.27948426660065007,-2.1090133275885328,1.7558819644332504,1.1192060708999634,2.0561647415161133,3.703279972076416,-0.8253076672554016,-0.2758599519729614,0.4927157163619995,-0.26124024391174316,0.6160699129104614,-0.1680392026901245
0.2417498420720847,-2.0855848920240923,1.7467164977192224,1.133210301399231,2.129561424255371,3.70135235786438,-0.8450860977172852,-0.2394019514322281,0.47803351283073425,-0.23248952627182007,0.5953131914138794,-0.13706067204475403
0.20345971679774144,-2.0624679334944767,1.738336321511075,1.1171586513519287,2.0998594760894775,3.7770776748657227,-0.8633615970611572,-0.20205888152122498,0.46236228942871094,-0.23340964317321777,0.5964528322219849,-0.07982456684112549
0.164466900738612,-2.040471988769612,1.730376287507838,1.0937563180923462,1.977821946144104,3.8257694244384766,-0.879682183265686,-0.16372644901275635,0.44648969173431396,-0.32736432552337646,0.6050564050674438,-0.009920477867126465
0.125548983426133,-2.0206974985214123,1.7232005192980362,1.0794485807418823,1.749168872833252,3.732795238494873,-0.8934024572372437,-0.1252194195985794,0.431453675031662,-0.5177762508392334,0.5883083939552307,0.05878061056137085
0.08812307420777366,-2.0038644073465703,1.7173699990220652,1.0613752603530884,1.4812899827957153,3.4915871620178223,-0.9041603803634644,-0.0880090594291687,0.41802921891212463,-0.7245780229568481,0.5520746111869812,0.1160435676574707
0.05328697673983735,-1.9898728645656296,1.7130281313300817,1.0182183980941772,1.2605692148208618,3.1872568130493164,-0.9121686220169067,-0.053261760622262955,0.406339555978775,-0.8544941544532776,0.5191431045532227,0.1632099747657776
0.0212818194540799,-1.9777014525504348,1.7099847720448746,0.9893527030944824,1.1528078317642212,2.907975912094116,-0.9181419610977173,-0.021280212327837944,0.39567938446998596,-0.9048406481742859,0.4912661910057068,0.18243032693862915
-0.008350606904908252,-1.9664825819180156,1.7082999710575621,1.013442039489746,1.0723787546157837,2.6642534732818604,-0.9227002859115601,0.008350510150194168,0.38542813062667847,-0.9252917170524597,0.47205719351768494,0.19744271039962769
-0.03590455784634358,-1.9563638755792192,1.7082201663245087,1.0590194463729858,0.9402233958244324,2.4194626808166504,-0.9259881377220154,0.035896845161914825,0.37584277987480164,-0.9974129796028137,0.45304054021835327,0.24844011664390564
-0.06108828480905561,-1.9473834332245812,1.709687078704521,1.0718519687652588,0.843072235584259,2.1209144592285156,-0.9281906485557556,0.06105029582977295,0.3670629560947418,-1.1149461269378662,0.43899548053741455,0.3238091766834259
-0.08302021273445419,-1.9389744744199304,1.7125409697613871,1.039419412612915,0.79615718126297,1.7392263412475586,-0.9297712445259094,0.08292488008737564,0.35867664217948914,-1.2441942691802979,0.42073723673820496,0.4070092439651489
-0.10114373385826199,-1.9307414095911268,1.7164518442629053,0.9694253206253052,0.7715872526168823,1.362522840499878,-0.9311330914497375,0.10097137093544006,0.35042276978492737,-1.3344461917877197,0.41381439566612244,0.48997023701667786
-0.11553109702817053,-1.922741248320188,1.720962657785847,0.8639028668403625,0.7219368815422058,1.0186575651168823,-0.9324462413787842,0.11527425795793533,0.3424260914325714,-1.3722716569900513,0.4218656122684479,0.5655327439308167
-0.12636913551228593,-1.9154142406727444,1.7255841046678506,0.726882815361023,0.6136177182197571,0.6979069709777832,-0.9336994886398315,0.12603306770324707,0.33514317870140076,-1.4163981676101685,0.45070338249206543,0.6350411176681519
-0.1334148952238432,-1.9097599061746326,1.7299663071686655,0.5546519160270691,0.38616007566452026,0.3271541893482208,-0.9347188472747803,0.13301946222782135,0.329554945230484,-1.5038034915924072,0.47501277923583984,0.7035107612609863
-0.13584454207810026,-1.9068510606707425,1.7339151580999599,0.336810827255249,0.07839440554380417,-0.1402757316827774,-0.935365617275238,0.13542711734771729,0.326727032661438,-1.6158733367919922,0.4901984930038452,0.7669618129730225
-0.13267486489396735,-1.9072989905122766,1.7372800026822215,0.07658778876066208,-0.2543931305408478,-0.6799206137657166,-0.9356198906898499,0.1322859674692154,0.32728615403175354,-1.687976360321045,0.5049821138381958,0.8127132654190063
-0.1234889485964695,-1.9108309647663222,1.7397892705628677,-0.22014500200748444,-0.5001536011695862,-1.2027032375335693,-0.9355639815330505,0.12317533046007156,0.33097994327545166,-1.6657848358154297,0.5221036076545715,0.8302139043807983
-0.10875575059467339,-1.9164839233075195,1.741054587904551,-0.5329569578170776,-0.6453787088394165,-1.6316123008728027,-0.9352840185165405,0.10854148864746094,0.3368417024612427,-1.5381503105163574,0.5490818023681641,0.8207662105560303
-0.08947866377827475,-1.9235566523131193,1.7407333042393431,-0.8400269150733948,-0.7631406784057617,-1.9470785856246948,-0.9346685409545898,0.08935931324958801,0.34410735964775085,-1.3617184162139893,0.5707054138183594,0.7916194200515747
-0.06659767030059979,-1.9320983443287605,1.7387121526532565,-1.1272344589233398,-0.9095673561096191,-2.1791234016418457,-0.9333637952804565,0.06654845178127289,0.3527089059352875,-1.189622163772583,0.5718334913253784,0.7484261989593506
-0.04078822073192665,-1.9421613363408703,1.735049933948447,-1.398705244064331,-1.0521937608718872,-2.358222007751465,-0.9310579299926758,0.04077691212296486,0.3625859320163727,-1.0502043962478638,0.5852454304695129,0.6871271133422852
-0.012322660020332879,-1.953418108613704,1.7298090889183617,-1.660913109779358,-1.1607705354690552,-2.5375006198883057,-0.9276185631752014,0.012322348542511463,0.3733256161212921,-0.9515165686607361,0.6069250702857971,0.6138417720794678
0.01890773672821727,-1.9653846335059113,1.7232721092718037,-1.8994598388671875,-1.2225806713104248,-2.733677864074707,-0.922990083694458,-0.01890661008656025,0.3843595087528229,-0.8849020004272461,0.6223917007446289,0.5308321714401245
0.05292629447104502,-1.9774097269197026,1.7159570828539668,-2.077437162399292,-1.2233293056488037,-2.9416754245758057,-0.91717928647995,-0.05290158838033676,0.3949472904205322,-0.824535071849823,0.6425012350082397,0.4302327036857605
0.08961788359897654,-1.9891319208343798,1.7085640984828958,-2.1933233737945557,-1.2205802202224731,-3.1708719730377197,-0.9100993275642395,-0.08949797600507736,0.4046098589897156,-0.7668415307998657,0.6640371680259705,0.32331058382987976
0.12884887719430535,-2.000635598165839,1.7017785520024873,-2.2452409267425537,-1.2184656858444214,-3.403764486312866,-0.9014973044395447,-0.12849265336990356,0.4132702648639679,-0.7072673439979553,0.6742079854011536,0.22004568576812744
0.17020301226870294,-2.012031261003356,1.6960751312085116,-2.247695207595825,-1.2297272682189941,-3.5858776569366455,-0.8911593556404114,-0.16938243806362152,0.42088568210601807,-0.6242825984954834,0.6868232488632202,0.11404156684875488
0.21275129471945817,-2.023799143435119,1.6915717764792821,-2.21390438079834,-1.292737603187561,-3.674872398376465,-0.8788646459579468,-0.21114996075630188,0.42779964208602905,-0.5196186304092407,0.7090137600898743,0.016810864210128784
0.25581181736890857,-2.0365015402390965,1.6882862727115167,-2.161257028579712,-1.3897459506988525,-3.7393317222595215,-0.8644289374351501,-0.2530308961868286,0.43444007635116577,-0.4369627833366394,0.7150822877883911,-0.05501502752304077
0.29934870755167403,-2.0503361349158116,1.6864291332339996,-2.10764217376709,-1.4628092050552368,-3.826277017593384,-0.8477522730827332,-0.2948979437351227,0.4408532679080963,-0.40110349655151367,0.7155369520187378,-0.1128351092338562
0.3434347925966205,-2.0651284519901756,1.6861623976016562,-2.05010986328125,-1.496002197265625,-3.9208219051361084,-0.8288804888725281,-0.33672329783439636,0.4467381536960602,-0.36794281005859375,0.7258223295211792,-0.1542118787765503
0.3881350976057501,-2.0807004290885556,1.6876256444756634,-2.001037359237671,-1.5012342929840088,-4.019876956939697,-0.8078699111938477,-0.37846288084983826,0.4517873525619507,-0.32024282217025757,0.7353507876396179,-0.182622492313385
0.4332414849106966,-2.096994705621737,1.6907987750718072,-1.9492871761322021,-1.4961379766464233,-4.0736260414123535,-0.7848308682441711,-0.4198150038719177,0.45584672689437866,-0.2603963613510132,0.7547911405563354,-0.21410173177719116
0.4782089205497476,-2.114245890760539,1.6955045727755729,-1.8957016468048096,-1.5321558713912964,-4.064148426055908,-0.7599121928215027,-0.4601897597312927,0.45908454060554504,-0.19534897804260254,0.781524658203125,-0.2396937906742096
0.5227312643570944,-2.1327860712514872,1.7015548776260054,-1.868121862411499,-1.5891265869140625,-4.049895286560059,-0.7331942915916443,-0.49924853444099426,0.461710661649704,-0.1502590775489807,0.7894096374511719,-0.24521934986114502
0.5671156723048011,-2.1529070720946555,1.708815452712494,-1.886591911315918,-1.6700475215911865,-4.063285827636719,-0.7045407295227051,-0.537201464176178,0.46372124552726746,-0.13327378034591675,0.7670750617980957,-0.2331761121749878
0.611746879960066,-2.174702533309021,1.7171732418770658,-1.938355565071106,-1.7467765808105469,-4.090524196624756,-0.6738467812538147,-0.5742984414100647,0.4648779332637787,-0.11336934566497803,0.761325478553772,-0.23355478048324585
0.6567704434730008,-2.1980649200228437,1.7265749300482307,-2.0136117935180664,-1.798601746559143,-4.111069202423096,-0.6412039995193481,-0.6105623245239258,0.46483415365219116,-0.08186417818069458,0.7807132005691528,-0.2545834481716156
0.7023309774804815,-2.222700732155081,1.7370159274416699,-2.110450506210327,-1.795366644859314,-4.148120403289795,-0.6068007349967957,-0.6459987759590149,0.46311864256858826,-0.05213499069213867,0.7967859506607056,-0.2829732894897461
0.7487329381146349,-2.248089445918785,1.7487819795392292,-2.2144899368286133,-1.6931885480880737,-4.219082355499268,-0.5708574652671814,-0.6807110905647278,0.45908021926879883,-0.02840113639831543,0.7832042574882507,-0.3108714818954468
0.7960290426572649,-2.2735825398939706,1.7622803496953934,-2.29736590385437,-1.5007195472717285,-4.2753496170043945,-0.5337873697280884,-0.7145838737487793,0.45215123891830444,0.007954239845275879,0.7665553689002991,-0.3452329933643341
0.8437449954133336,-2.298805798382526,1.7778599337658418,-2.3401262760162354,-1.2532280683517456,-4.293243885040283,-0.4961759150028229,-0.7471375465393066,0.4422610402107239,0.06302466988563538,0.7632508873939514,-0.37974587082862854
0.8913899012871411,-2.3238573759871977,1.7958833158231335,-2.3515522480010986,-0.9988191723823547,-4.2813310623168945,-0.458429753780365,-0.7779458165168762,0.42970019578933716,0.10642480850219727,0.7546610236167908,-0.40826159715652466
0.9384744007043977,-2.3491722617805157,1.816655127897932,-2.331521511077881,-0.7728776931762695,-4.231163024902344,-0.420837938785553,-0.8066573739051819,0.4149686098098755,0.13195854425430298,0.7395341396331787,-0.4366820454597473
0.9844814572079763,-2.3755578412196896,1.8405304713639332,-2.2763004302978516,-0.5785630345344543,-4.14906644821167,-0.3835901618003845,-0.8329852819442749,0.39874058961868286,0.13726750016212463,0.7191852927207947,-0.4574717581272125
1.0291264618780873,-2.403704495662888,1.8679936157651917,-2.2234485149383545,-0.4268760681152344,-4.072788715362549,-0.3468359410762787,-0.856848955154419,0.38146349787712097,0.11821350455284119,0.7023386359214783,-0.45662838220596313
1.0725504063427844,-2.436105933740925,1.9004197465511818,-2.153149127960205,-0.43565621972084045,-4.068525791168213,-0.3098631799221039,-0.8784221410751343,0.3638124465942383,0.074618399143219,0.7110484838485718,-0.4556703567504883
1.1149565071326826,-2.47635310693453,1.9404857340254495,-2.0644147396087646,-0.48935648798942566,-4.130460262298584,-0.27172261476516724,-0.897891640663147,0.34634870290756226,0.015191823244094849,0.725284218788147,-0.47147083282470703
1.1560761537785373,-2.5276577964552276,1.9915357113469254,-1.9496936798095703,-0.5010780692100525,-4.201293468475342,-0.23212569952011108,-0.915229082107544,0.3293534517288208,-0.013327240943908691,0.7255927920341492,-0.4807969033718109
1.1952357706464798,-2.5925557337860927,2.056452634777986,-1.8375067710876465,-0.4873923361301422,-4.24757194519043,-0.19141730666160583,-0.9303021430969238,0.3128854036331177,0.0017658323049545288,0.7283216118812561,-0.47949615120887756
1.2318354221341972,-2.6740455383896053,2.1383685787370963,-1.7636092901229858,-0.4488346576690674,-4.288464546203613,-0.14986039698123932,-0.9431006908416748,0.2968214750289917,0.022342652082443237,0.7275397777557373,-0.4673842191696167
1.265356786830869,-2.775210414545359,2.240713350616653,-1.729670763015747,-0.34943801164627075,-4.322399139404297,-0.10772724449634552,-0.9537148475646973,0.2807539403438568,0.037552036345005035,0.716318666934967,-0.4530715048313141
1.2949547856931172,-2.899559623570538,2.3675623158108148,-1.7216123342514038,-0.2050519585609436,-4.35555362701416,-0.0652775838971138,-0.9621963500976562,0.2644181251525879,0.05290267616510391,0.698585569858551,-0.4439378082752228
1.3192563273314233,-3.050811803550543,2.522850719482528,-1.7104222774505615,-0.053328223526477814,-4.399809837341309,-0.02256392315030098,-0.9685302972793579,0.24787060916423798,0.0660209059715271,0.6712738871574402,-0.44225239753723145
1.3362512716636186,3.0545955581549347,2.706544411608927,-1.6532047986984253,0.16322317719459534,-4.441335678100586,0.02019268274307251,-0.9726201891899109,0.23152169585227966,0.0805610716342926,0.6387883424758911,-0.45457470417022705
1.343672792268491,2.8571015881722324,2.9123245593543374,-1.5179293155670166,0.40756234526634216,-4.506743431091309,0.06319989264011383,-0.9743181467056274,0.21612486243247986,0.08589369058609009,0.6142259836196899,-0.4801478385925293
1.3396734783015176,2.6573309828316454,3.122847964068712,-1.3088487386703491,0.6421470046043396,-4.6186137199401855,0.10664509236812592,-0.9734097719192505,0.20273204147815704,0.0818924605846405,0.5928555727005005,-0.5085029602050781
1.32400900078994,2.4759264045867093,-2.966012541587896,-1.0604890584945679,0.8321720361709595,-4.7578606605529785,0.1508694589138031,-0.9697022438049316,0.19213548302650452,0.08371913433074951,0.5719361305236816,-0.5283477306365967
1.2981842693093342,2.326693727671694,-2.8023090587854704,-0.7963308691978455,0.963579535484314,-4.8814239501953125,0.1959199607372284,-0.9630708694458008,0.18468846380710602,0.10783672332763672,0.5496034622192383,-0.5295066833496094
1.2646207887388603,2.2129537715814136,-2.6729859326220993,-0.5376343727111816,1.0751312971115112,-4.956228733062744,0.24137401580810547,-0.9534932971000671,0.18052425980567932,0.15990155935287476,0.5341207981109619,-0.516294002532959
1.2259224695477913,2.130536532326363,-2.5741518639438654,-0.3059203326702118,1.159779667854309,-4.948581218719482,0.2864849269390106,-0.9411181211471558,0.17950792610645294,0.2384173572063446,0.5216082334518433,-0.491260290145874
1.1846850918901124,2.073097370111567,-2.499903780691175,-0.09717351198196411,1.20872962474823,-4.791312217712402,0.33007127046585083,-0.9263805150985718,0.18130618333816528,0.3828650414943695,0.518986165523529,-0.4529125690460205
1.1435260131419134,2.035063320754512,-2.445451735804089,0.09800659120082855,1.1679942607879639,-4.445934295654297,0.37052488327026367,-0.9101002812385559,0.18554940819740295,0.6044048070907593,0.5156911611557007,-0.3998286724090576
1.104875963940884,2.010758857826219,-2.4060457100829136,0.20890673995018005,1.069586157798767,-3.951746702194214,0.4064624309539795,-0.893408477306366,0.191335991024971,0.7996227145195007,0.45613741874694824,-0.3363097906112671
1.070290354476074,1.995776099694078,-2.3777117441287534,0.3011470437049866,0.9445494413375854,-3.403007984161377,0.437183678150177,-0.8773398995399475,0.19785131514072418,0.9438282251358032,0.38315343856811523,-0.28095078468322754
1.0403355104888727,1.987967801913092,-2.3585707717805646,0.42770445346832275,0.8209731578826904,-2.817736864089966,0.4625416100025177,-0.86257404088974,0.2049911469221115,1.0398235321044922,0.3264259099960327,-0.269917368888855
1.015058694269759,1.9861834765883495,-2.347637791675517,0.5765489339828491,0.6849206686019897,-2.251810312271118,0.4827052354812622,-0.8495115041732788,0.2128976732492447,1.1016299724578857,0.27616268396377563,-0.2609325051307678
0.9940935322251898,1.9885788541525122,-2.343452431362362,0.7009824514389038,0.4935610592365265,-1.7575663328170776,0.4983656406402588,-0.838265061378479,0.22123222053050995,1.1103532314300537,0.21465343236923218,-0.23659786581993103
0.9769625576368288,1.993256113183867,-2.3444917445049516,0.7933334708213806,0.26377612352371216,-1.3209435939788818,0.5103496313095093,-0.8288016319274902,0.22941549122333527,1.0868488550186157,0.15819299221038818,-0.19457969069480896
0.9633077675487195,1.9989831173359198,-2.349792949310233,0.8756954669952393,0.008585629053413868,-0.9162828922271729,0.5192749500274658,-0.8210841417312622,0.23701174557209015,1.0668456554412842,0.13332462310791016,-0.15922245383262634
0.9529048962551754,2.005562591166937,-2.3590979743354636,0.9629653096199036,-0.20552048087120056,-0.5219539999961853,0.5254230499267578,-0.8151018023490906,0.24400776624679565,1.0648937225341797,0.1231003999710083,-0.13974452018737793
0.9455927430314108,2.0135521815169954,-2.3724694401037674,1.0637757778167725,-0.3579028248786926,-0.13984021544456482,0.5288280844688416,-0.8108440041542053,0.25074464082717896,1.0611834526062012,0.12010914087295532,-0.12792673707008362
0.9411514267691454,2.023719921334242,-2.3899296315484344,1.1601628065109253,-0.4216589033603668,0.2256821095943451,0.5294840335845947,-0.8082366585731506,0.25768184661865234,1.0367237329483032,0.12241518497467041,-0.11185365915298462
0.9394371947366945,2.036395441741702,-2.4109611292717874,1.1990036964416504,-0.4298262596130371,0.5583682060241699,0.5274125337600708,-0.8072260618209839,0.2649940848350525,0.9857251644134521,0.12994951009750366,-0.07876065373420715
0.9403122551814832,2.0511551689662064,-2.4343813360037414,1.1654653549194336,-0.3917580246925354,0.8419590592384338,0.5228173136711121,-0.8077422380447388,0.2724228799343109,0.9133397936820984,0.12587285041809082,-0.02288070321083069
0.9435712892931868,2.0674170070119717,-2.458934449400854,1.0684024095535278,-0.3155710995197296,1.0750561952590942,0.5160010457038879,-0.8096592426300049,0.27963268756866455,0.8280234336853027,0.11791741847991943,0.029632389545440674
0.9489564289547963,2.084850711255309,-2.4837027175904525,0.9372097253799438,-0.2151193916797638,1.2565850019454956,0.5072439312934875,-0.8128080368041992,0.2864374816417694,0.7432900071144104,0.11770927906036377,0.06797835230827332
0.9561029799012237,2.1029748427343233,-2.5081157857608716,0.7957953214645386,-0.14178872108459473,1.3816208839416504,0.49695152044296265,-0.8169503211975098,0.2926284968852997,0.6713223457336426,0.10912555456161499,0.09299159049987793
0.9646201959334221,2.1214806740206567,-2.531959427083598,0.6699173450469971,-0.05851904675364494,1.4734399318695068,0.48550400137901306,-0.8218325972557068,0.298122376203537,0.6142579317092896,0.09116548299789429,0.09938427805900574
0.9741323366495871,2.1408571296159495,-2.55552551279929,0.5799229741096497,0.05436888709664345,1.5423569679260254,0.47303420305252075,-0.8272146582603455,0.3032406270503998,0.5665013790130615,0.07727557420730591,0.08344760537147522
0.9843612308132706,2.1617598422120556,-2.5793389709113987,0.5221568942070007,0.17304690182209015,1.6153351068496704,0.4595416486263275,-0.8329187631607056,0.30833038687705994,0.5362621545791626,0.08079791069030762,0.05701074004173279
0.9951691296472833,2.1847419938786445,-2.6039924823065816,0.48209306597709656,0.29953908920288086,1.692685604095459,0.444950670003891,-0.8388510346412659,0.3136048913002014,0.5157121419906616,0.0968008041381836,0.03121328353881836
1.0065247025239337,2.2101706033732027,-2.6299038563909947,0.45271873474121094,0.4224471151828766,1.7854599952697754,0.4291609823703766,-0.8449783325195312,0.31911197304725647,0.500465452671051,0.11186981201171875,0.011667966842651367
1.018422760867098,2.2384576790720128,-2.6576564595444867,0.43788307905197144,0.5256760716438293,1.8916913270950317,0.41203948855400085,-0.851281464099884,0.3248744606971741,0.48861050605773926,0.12111788988113403,-0.007049202919006348
1.030858154104956,2.2698455754208275,-2.687827618243257,0.42100051045417786,0.5856829881668091,2.009432315826416,0.3935072720050812,-0.8577404618263245,0.33080756664276123,0.4554460644721985,0.12672221660614014,-0.027172952890396118
1.0438408611023644,2.303700301651363,-2.7205356994410828,0.38241317868232727,0.5462788343429565,2.128265619277954,0.3737761378288269,-0.864342212677002,0.33645865321159363,0.4057801067829132,0.12928032875061035,-0.03323599696159363
1.0574855988069625,2.339491725585161,-2.7560366405962737,0.3380279839038849,0.44745320081710815,2.272665500640869,0.3529854714870453,-0.8711234927177429,0.34138646721839905,0.36497098207473755,0.13391047716140747,-0.033983081579208374
1.0718390189172287,2.377486683149186,-2.7952049486508774,0.3137791156768799,0.2956666052341461,2.4388632774353027,0.3310769498348236,-0.8780819773674011,0.3454846143722534,0.32914024591445923,0.14306628704071045,-0.043986380100250244
1.0866311861037747,2.4182553156167232,-2.8391827639273157,0.3270200490951538,0.10306670516729355,2.6130616664886475,0.30808961391448975,-0.885063886642456,0.3489163815975189,0.283814013004303,0.15648728609085083,-0.061166197061538696
1.10140264817367,2.4623967647758245,-2.889000038536715,0.3695613741874695,-0.12230569124221802,2.7788758277893066,0.2841489017009735,-0.8918427228927612,0.35196027159690857,0.2388003170490265,0.17008674144744873,-0.07823300361633301
1.1156792589616489,2.510399014058932,-2.9451210248904256,0.4195801913738251,-0.3048175871372223,2.9173176288604736,0.2593928575515747,-0.8982095718383789,0.35487353801727295,0.20069018006324768,0.18742454051971436,-0.09135422110557556
1.128885521357714,2.5631013489760353,-3.007464252053761,0.48676109313964844,-0.36519837379455566,3.0171332359313965,0.23383201658725739,-0.9039361476898193,0.35808101296424866,0.16802343726158142,0.19997191429138184,-0.10527348518371582
1.1404265888478533,2.6217277077382493,-3.07579188811484,0.5556156039237976,-0.27997422218322754,3.093343734741211,0.20725275576114655,-0.9088115692138672,0.36208784580230713,0.15111513435840607,0.20219236612319946,-0.12341001629829407
1.1498849792472599,2.6867575725338155,3.1335916046291428,0.627622663974762,-0.15351109206676483,3.159843683242798,0.1795002967119217,-0.9127169251441956,0.36705195903778076,0.14194129407405853,0.2076846957206726,-0.1383533775806427
1.1568047370141292,2.7579610686810714,3.0546975578583013,0.7091642022132874,-0.028087865561246872,3.2295289039611816,0.15056456625461578,-0.9155224561691284,0.37302640080451965,0.13030391931533813,0.21940141916275024,-0.15026339888572693
1.1609261834029099,2.8345788172608293,2.971512105489241,0.7592225670814514,0.10822523385286331,3.296177625656128,0.12042894214391708,-0.9171725511550903,0.3798564076423645,0.12050727009773254,0.21507012844085693,-0.14035460352897644
1.1625133127613596,2.915613742782776,2.8852547310169436,0.7283809781074524,0.27248814702033997,3.3938193321228027,0.0889597162604332,-0.9178038835525513,0.3869398832321167,0.11941427737474442,0.20015239715576172,-0.08487695455551147
1.162227265413497,3.0006847518540742,2.796504393749838,0.591162919998169,0.46170493960380554,3.5025124549865723,0.05579715222120285,-0.9176902770996094,0.39335888624191284,0.13275566697120667,0.20316696166992188,-0.011660337448120117
1.1608336489834068,3.0899680102729037,2.7049826744662635,0.38017135858535767,0.5735591650009155,3.6963021755218506,0.020567169412970543,-0.9171357154846191,0.39804431796073914,0.13231059908866882,0.26915591955184937,0.06429696083068848
1.1582929177596517,-3.1009531614344,2.6106339237107705,0.1654135286808014,0.5720632672309875,3.8028881549835205,-0.01628803461790085,-0.9161200523376465,0.40057259798049927,0.10771867632865906,0.2462899088859558,0.10313516855239868
1.154422737117229,-3.0091040429606952,2.516158393488757,-0.05214845761656761,0.4816591441631317,3.8064637184143066,-0.053427956998348236,-0.9145616292953491,0.4009022116661072,0.07134175300598145,0.23363816738128662,0.10774946212768555
1.1493345210780253,-2.920572607662807,2.4237021008593005,-0.26270729303359985,0.3402263820171356,3.7451815605163574,-0.08968374878168106,-0.9124919176101685,0.3991430997848511,0.08208484202623367,0.24772757291793823,0.08683392405509949
1.1428794630714854,-2.8359438403568245,2.334435973526786,-0.38678041100502014,0.3338564336299896,3.6668004989624023,-0.12487148493528366,-0.9098321795463562,0.39574339985847473,0.10349388420581818,0.2575035095214844,0.01787668466567993
1.1341614153275208,-2.754918481267213,2.2492912909400284,-0.3626263439655304,0.3955642879009247,3.620213747024536,-0.1594771146774292,-0.9061798453330994,0.39166972041130066,0.10140210390090942,0.26422733068466187,-0.07266950607299805
1.1217871876569614,-2.679369703880461,2.1699463693730765,-0.17929773032665253,0.3862142562866211,3.5521533489227295,-0.19357000291347504,-0.9008776545524597,0.38852280378341675,0.10833439230918884,0.2273547649383545,-0.1554906964302063
1.1058739902696066,-2.6115505203765452,2.0989396773619275,-0.019652143120765686,0.4247664213180542,3.4508769512176514,-0.226673886179924,-0.893856406211853,0.38683292269706726,0.08342435956001282,0.14568746089935303,-0.17058539390563965
1.087529627872719,-2.5506991120885596,2.035574915402669,0.0375739149749279,0.48468002676963806,3.3850603103637695,-0.258871465921402,-0.8854817152023315,0.38588547706604004,0.12393796443939209,0.12423598766326904,-0.12262570858001709
1.0677878225522608,-2.4946888159865064,1.9776795715081095,-0.008578933775424957,0.473884642124176,3.345001220703125,-0.290548712015152,-0.8761362433433533,0.3846644163131714,0.1961883306503296,0.17700904607772827,-0.07074546813964844
1.046994778452773,-2.44437619335393,1.9244348945853076,0.027605090290308,0.33349472284317017,3.329420566558838,-0.3211560547351837,-0.8659240007400513,0.38345104455947876,0.21132323145866394,0.2537565231323242,-0.09286266565322876
1.0241280639852024,-2.3982550351678995,1.875452219003803,0.10172326117753983,0.47522255778312683,3.4268269538879395,-0.35180366039276123,-0.8542612195014954,0.38271617889404297,0.24323740601539612,0.2638988494873047,-0.12551409006118774
0.9992444200410218,-2.3540730848946563,1.8293101456412388,0.08878199011087418,0.5024827718734741,3.5264129638671875,-0.3833114504814148,-0.8410624861717224,0.38168856501579285,0.23914644122123718,0.2253398895263672,-0.04300454258918762
0.9728051522109005,-2.313305816201777,1.785815136340033,0.11772388964891434,0.42632994055747986,3.591792106628418,-0.41479140520095825,-0.8264682292938232,0.38065484166145325,0.17585405707359314,0.2355412244796753,-0.031381189823150635
0.9446837753373385,-2.2774254510811756,1.7458087124580708,0.1598997563123703,0.16057972609996796,3.639357805252075,-0.4456844925880432,-0.8103116750717163,0.38047388195991516,0.13921165466308594,0.2161649465560913,-0.056758761405944824
0.9154020007491542,-2.248252748829517,1.709440849395729,0.2277674823999405,-0.1516285091638565,3.6126980781555176,-0.4748821258544922,-0.7928076386451721,0.3820251524448395,0.07652080059051514,0.23570919036865234,-0.050512731075286865
0.8857298524389053,-2.2258193787119707,1.6769574475006856,0.2546693682670593,-0.4426456093788147,3.5166873931884766,-0.5017720460891724,-0.7743769884109497,0.3854416012763977,0.002946913242340088,0.2736293077468872,-0.03920447826385498
0.8567530858795169,-2.209187080792217,1.6476774661516675,0.22204405069351196,-0.6940783858299255,3.3553385734558105,-0.5259171724319458,-0.7557201385498047,0.3902544677257538,-0.05286407470703125,0.3107737898826599,-0.014186322689056396
0.8291806425376683,-2.19665945007536,1.6210498420317228,0.17230302095413208,-0.7428678870201111,3.163003444671631,-0.5474483370780945,-0.7373781800270081,0.39569440484046936,-0.07990163564682007,0.3460359573364258,-0.002322852611541748
0.8034112123560457,-2.1857750758541727,1.5964753386510004,0.07895229756832123,-0.6450468301773071,2.9707069396972656,-0.5670580267906189,-0.7197285294532776,0.40054458379745483,-0.05659925937652588,0.3247395157814026,0.02717447280883789
0.7794875681527076,-2.1748524565772938,1.573007656622163,-0.0423148088157177,-0.5040788054466248,2.8311209678649902,-0.5854058265686035,-0.7029150128364563,0.40399324893951416,-0.015408992767333984,0.2708929181098938,0.05248856544494629
0.7567942419702184,-2.1631508690753996,1.5501211597287652,-0.11028720438480377,-0.3249495327472687,2.7638092041015625,-0.6031738519668579,-0.6865942478179932,0.40591859817504883,0.017495691776275635,0.2325384020805359,0.04740482568740845
0.7343826618780604,-2.150380739981109,1.5279857491461095,-0.11328766494989395,-0.12849161028862,2.7573530673980713,-0.6210290193557739,-0.6701290607452393,0.4065098464488983,0.037410736083984375,0.22321432828903198,0.027038156986236572
0.7116181240925922,-2.1368727892808397,1.506813149043003,-0.08295559138059616,0.021315189078450203,2.7747180461883545,-0.6391751170158386,-0.6530600190162659,0.4061618447303772,0.0176694393157959,0.2353661060333252,0.023479759693145752
0.6883638307963503,-2.1233436516919464,1.4866599600013866,-0.06815610826015472,0.06940747052431107,2.7814979553222656,-0.6573628187179565,-0.6352744698524475,0.40534016489982605,-0.03851431608200073,0.25119549036026,0.04416847229003906
0.6650288190683681,-2.110780959418536,1.4673371314324555,-0.09081055968999863,0.006295882165431976,2.7450149059295654,-0.6749361753463745,-0.6170818209648132,0.4045626223087311,-0.11968046426773071,0.2539379596710205,0.08037680387496948
0.6423638931867329,-2.100131709547772,1.448684370308556,-0.14953337609767914,-0.14890536665916443,2.643059253692627,-0.6911027431488037,-0.5990898609161377,0.4043120741844177,-0.1938002109527588,0.25675898790359497,0.11686703562736511
0.620902717973686,-2.091505645201967,1.4307343698657895,-0.200351282954216,-0.22595036029815674,2.5021090507507324,-0.7055571675300598,-0.5817696452140808,0.40463992953300476,-0.239801287651062,0.26106029748916626,0.13529226183891296
0.6008816181883905,-2.0838564488991884,1.4138735598015224,-0.2194204181432724,-0.1580178290605545,2.3230366706848145,-0.7186368703842163,-0.5653699040412903,0.404867947101593,-0.25296658277511597,0.265733003616333,0.14246481657028198
0.5824660983777543,-2.075901030379016,1.3982524074965552,-0.25346124172210693,0.02178894728422165,2.149151563644409,-0.7308233380317688,-0.5500850677490234,0.4041082262992859,-0.2612572908401489,0.2413693070411682,0.16650933027267456
0.565514594721418,-2.0666956108697385,1.3833289090547605,-0.3181011378765106,0.1880628764629364,2.0201592445373535,-0.7426081299781799,-0.5358503460884094,0.40174344182014465,-0.27348995208740234,0.20545178651809692,0.1894736886024475
0.5498588792164439,-2.056701907873974,1.3687183654227717,-0.38740482926368713,0.24445825815200806,1.8949147462844849,-0.7539119720458984,-0.5225669145584106,0.3981712758541107,-0.3028506636619568,0.17979353666305542,0.19667717814445496
0.5355555936627431,-2.047158555864919,1.3545576197572746,-0.4305742383003235,0.19794262945652008,1.7454328536987305,-0.7642419338226318,-0.51031893491745,0.3943456709384918,-0.3576146364212036,0.1640055775642395,0.18969959020614624
0.5227358627420948,-2.038629350611934,1.341272838441421,-0.44102075695991516,0.17310625314712524,1.5658013820648193,-0.773353636264801,-0.4992524981498718,0.3907313346862793,-0.4008864760398865,0.1541750431060791,0.17283663153648376
0.5115782568481253,-2.0305462147411406,1.3291831620738823,-0.43787890672683716,0.2588990032672882,1.3638426065444946,-0.7814302444458008,-0.4895540475845337,0.3869152367115021,-0.42804235219955444,0.13876983523368835,0.1647356152534485
0.5020432922352337,-2.02177379748077,1.318186085738023,-0.4459608197212219,0.4358772337436676,1.188761591911316,-0.7889600396156311,-0.4812176823616028,0.382062703371048,-0.4299885034561157,0.1134503185749054,0.16221827268600464
0.49385251198628166,-2.0113412664068226,1.3081005037327065,-0.4384811818599701,0.6830122470855713,1.0451231002807617,-0.7964412569999695,-0.4740215837955475,0.3754793703556061,-0.41432833671569824,0.09258243441581726,0.15250512957572937
0.4868825478203749,-1.9991082272018013,1.2991561204196354,-0.4007125198841095,0.912868082523346,0.8698835968971252,-0.8039605617523193,-0.4678729772567749,0.36707186698913574,-0.40117841958999634,0.09500932693481445,0.13669684529304504
0.4814208089882011,-1.9856239872106147,1.2917674904780934,-0.3416038751602173,1.0790401697158813,0.6584621667861938,-0.8111640214920044,-0.46303895115852356,0.3572227954864502,-0.39840030670166016,0.10061216354370117,0.12214723229408264
0.47750769649771174,-1.971855507978465,1.2861211967483093,-0.26216018199920654,1.130025863647461,0.46179628372192383,-0.8176672458648682,-0.4595670700073242,0.3467254936695099,-0.3993281126022339,0.08946511149406433,0.10343924164772034
0.4747094325855858,-1.9592278511954926,1.2822204209640438,-0.1563764363527298,1.0091004371643066,0.32997801899909973,-0.8231673240661621,-0.45708003640174866,0.3368586599826813,-0.3734118342399597,0.07785329222679138,0.06916239857673645
0.47237645802452993,-1.9491329857084487,1.2800725031648872,-0.019284360110759735,0.8089511394500732,0.24855348467826843,-0.8275144100189209,-0.4550037682056427,0.3289248049259186,-0.3411409854888916,0.06270033121109009,0.03879666328430176
0.4701193909040618,-1.941613999809866,1.2797344242785753,0.12302102893590927,0.6715164184570312,0.19589635729789734,-0.8309190273284912,-0.4529927372932434,0.32306477427482605,-0.32044804096221924,0.02591457962989807,0.008813798427581787
0.4677789924190037,-1.935680743916085,1.280743041217252,0.20439711213111877,0.6129383444786072,0.17801909148693085,-0.8338096141815186,-0.4509049952030182,0.3185065984725952,-0.289054274559021,-0.0246046781539917,-0.018488258123397827
0.46532958858967755,-1.930291162804087,1.282269879560896,0.21559108793735504,0.5937176942825317,0.1785057932138443,-0.8365452885627747,-0.4487173557281494,0.3143956661224365,-0.24923962354660034,-0.04998558759689331,-0.029086977243423462
0.4629917108522336,-1.924932371583207,1.2838101850603236,0.20679013431072235,0.6222077012062073,0.15881463885307312,-0.8391996622085571,-0.44662684202194214,0.3102712035179138,-0.2296784520149231,-0.0363442599773407,-0.02937224507331848
0.46097004348212944,-1.9187702411179401,1.2855838769422685,0.2368486374616623,0.7803067564964294,0.10775283724069595,-0.8419427275657654,-0.44481709599494934,0.30540135502815247,-0.22121334075927734,-0.019614607095718384,-0.014752060174942017
0.4593120738619261,-1.9107818817405648,1.2880475824498878,0.28454533219337463,1.0374786853790283,0.06134485825896263,-0.8450497984886169,-0.4433315694332123,0.29891154170036316,-0.2179538607597351,-0.0032016336917877197,0.01082661747932434
0.45796097568160443,-1.9007244039317288,1.2908837194322846,0.27346667647361755,1.2082417011260986,0.025825995951890945,-0.8485789895057678,-0.44212010502815247,0.29059121012687683,-0.21031981706619263,0.008679032325744629,0.056073158979415894
0.45740732747483615,-1.8892702133061543,1.2933530505454929,0.17021778225898743,1.2616279125213623,-0.06621258705854416,-0.8520842790603638,-0.4416234493255615,0.28092923760414124,-0.22250080108642578,0.032199591398239136,0.12376430630683899
0.4581015890683741,-1.8781060576009596,1.294515108313586,-0.02151382528245449,1.0461870431900024,-0.11673391610383987,-0.8548750281333923,-0.4422462284564972,0.2713063359260559,-0.20223867893218994,0.04127579927444458,0.18203222751617432
0.45961123938676485,-1.8680720646047384,1.293475725066762,-0.2472585290670395,0.8914768695831299,-0.11426463723182678,-0.8569148182868958,-0.44359973073005676,0.26251912117004395,-0.15231674909591675,0.026882201433181763,0.218392014503479
0.4620760809186326,-1.857464357895046,1.2897513340477293,-0.5424809455871582,0.9154459834098816,-0.17822259664535522,-0.8585999608039856,-0.44580742716789246,0.25310471653938293,-0.17745667695999146,0.007376611232757568,0.2418750822544098
0.46627729138509794,-1.8444229958292122,1.2828632015377215,-0.8687573075294495,1.083382487297058,-0.2868686318397522,-0.8600167036056519,-0.4495640993118286,0.24137790501117706,-0.20735085010528564,0.0180608332157135,0.2357947826385498
0.47223313624854957,-1.82820485325099,1.2727478313493263,-1.1667269468307495,1.2348039150238037,-0.3857482671737671,-0.8612135052680969,-0.4548761546611786,0.22671322524547577,-0.19060534238815308,0.029705315828323364,0.21963678300380707
0.47944724234507646,-1.8095175427687118,1.2598528448132562,-1.390862226486206,1.299006700515747,-0.44080111384391785,-0.8620887994766235,-0.46128880977630615,0.20979945361614227,-0.16108942031860352,0.025253623723983765,0.18729522824287415
0.4871323029063152,-1.7897394065631254,1.2450616564935553,-1.479597806930542,1.2664495706558228,-0.4574143886566162,-0.862583339214325,-0.4680936932563782,0.19193334877490997,-0.1304587721824646,0.022002965211868286,0.13077476620674133
0.4945961316399448,-1.7705276905806657,1.2300165964884582,-1.3947103023529053,1.1379514932632446,-0.4434112310409546,-0.8626627326011658,-0.4746762216091156,0.17462915182113647,-0.09682512283325195,0.033971935510635376,0.053428635001182556
0.5011267278831789,-1.7540016012771296,1.2167523559754843,-1.1158020496368408,0.8827739357948303,-0.39158013463020325,-0.8623643517494202,-0.4804140329360962,0.159781351685524,-0.05330038070678711,0.05783715844154358,-0.033041954040527344
0.5064587648913023,-1.7417087348015752,1.2067081966264313,-0.8071571588516235,0.6206243634223938,-0.3508686423301697,-0.8617269992828369,-0.48508360981941223,0.14873085916042328,-0.024564683437347412,0.06355947256088257,-0.09575232863426208
0.5110050694897423,-1.7326739799203505,1.1994984090751144,-0.5958390235900879,0.4954560697078705,-0.33423125743865967,-0.8608497977256775,-0.4890541732311249,0.14058245718479156,-0.02243560552597046,0.04694610834121704,-0.09775103628635406
0.515041344185201,-1.725259389349923,1.1938902666888593,-0.5084433555603027,0.43654265999794006,-0.3067125678062439,-0.8599110841751099,-0.49257081747055054,0.1338910311460495,-0.014814198017120361,0.0430012047290802,-0.06849195063114166
0.5187430032175588,-1.7186138942836844,1.1887979934167237,-0.47703367471694946,0.3925355076789856,-0.2947566509246826,-0.8589727282524109,-0.49578890204429626,0.12790419161319733,-0.015447556972503662,0.04620391130447388,-0.05249534547328949
0.5223704990338724,-1.7123229713867107,1.1840338404724007,-0.4386764168739319,0.39640507102012634,-0.303284615278244,-0.8579740524291992,-0.49893590807914734,0.12224345654249191,-0.033078134059906006,0.04318642616271973,-0.06259691715240479
0.5259880280391904,-1.7061003894858635,1.1799076931127472,-0.3622184097766876,0.43519267439842224,-0.3157888352870941,-0.8569241762161255,-0.5020677447319031,0.11665808409452438,-0.03637111186981201,0.043174922466278076,-0.08597266674041748
0.5296422868925824,-1.7000770826731153,1.1769417954598216,-0.23933963477611542,0.4640147387981415,-0.3442628085613251,-0.8557862043380737,-0.5052246451377869,0.11125721037387848,-0.020709216594696045,0.05081796646118164,-0.09987425804138184
0.5333941715098087,-1.6946721224125236,1.175459779131038,-0.11022598296403885,0.46362408995628357,-0.3632233738899231,-0.8544877767562866,-0.5084589123725891,0.10639513283967972,0.010554790496826172,0.07044023275375366,-0.08291186392307281
0.5369853357585476,-1.689815048079834,1.1752967957368468,-0.012683182023465633,0.4887019991874695,-0.3443562090396881,-0.8531760573387146,-0.5115479826927185,0.10202612727880478,0.037502169609069824,0.062359750270843506,-0.05403733253479004
0.5402829712702796,-1.6851379406270341,1.175880951366894,0.028871433809399605,0.49924108386039734,-0.31728747487068176,-0.8519633412361145,-0.5143786668777466,0.09784162789583206,0.0477946400642395,0.04039502143859863,-0.020525343716144562
0.5432247121443013,-1.6806159632377526,1.1765528665190501,0.02017701230943203,0.46600645780563354,-0.28177157044410706,-0.850889265537262,-0.5168991684913635,0.09382183104753494,0.04728519916534424,0.034416377544403076,0.009815804660320282
0.5459625106919785,-1.676412916823795,1.1769303939452482,-0.01866752654314041,0.41449347138404846,-0.27225252985954285,-0.849865734577179,-0.5192409157752991,0.0900951698422432,0.029476940631866455,0.03785669803619385,0.01764702796936035
0.5487340305159757,-1.672357230805988,1.1768171729183317,-0.05366545915603638,0.3803354799747467,-0.2748701572418213,-0.8487892150878906,-0.521607518196106,0.08650141209363937,0.01138681173324585,0.03476065397262573,0.019547104835510254
0.5514674917262372,-1.6685867005021433,1.1763600941579957,-0.06974583864212036,0.31676048040390015,-0.26090511679649353,-0.8476870059967041,-0.5239377617835999,0.0831608846783638,0.012588858604431152,0.02640974521636963,0.0069880411028862
0.554051531889888,-1.665678397816426,1.1759326825275243,-0.04523410275578499,0.21418136358261108,-0.24618661403656006,-0.8465747833251953,-0.5261369347572327,0.08056668192148209,0.019136428833007812,0.022780120372772217,-0.01298559457063675
0.5565060699373524,-1.664184331024372,1.1759925912025007,0.013076740317046642,0.09079602360725403,-0.24405443668365479,-0.8454056978225708,-0.5282227396965027,0.07918107509613037,0.023063957691192627,0.030282795429229736,-0.038104549050331116
0.5589162050898658,-1.6643651918432267,1.176898295570439,0.09583606570959091,-0.0277378149330616,-0.24660733342170715,-0.8441215753555298,-0.5302676558494568,0.07921481132507324,0.026616692543029785,0.03901094198226929,-0.05847811698913574
0.5611857459622183,-1.6662313384523657,1.1787663434790994,0.1786731481552124,-0.1510494351387024,-0.23949339985847473,-0.8427721261978149,-0.5321904420852661,0.08067503571510315,0.02810537815093994,0.03341120481491089,-0.07481575757265091
0.5634061770374588,-1.6696920181867483,1.1817353824844785,0.277707040309906,-0.197401225566864,-0.2540856599807739,-0.8413097858428955,-0.5340690016746521,0.08347422629594803,0.02662789821624756,0.025722503662109375,-0.0896846130490303
0.565608029508523,-1.6734740352799014,1.185684510093759,0.3348943591117859,-0.1254231482744217,-0.2493048459291458,-0.8398164510726929,-0.535929262638092,0.08653474599123001,0.02046525478363037,0.014582216739654541,-0.09903180599212646
0.5676195682224221,-1.6766573303731604,1.190092818898584,0.35541829466819763,-0.0410507470369339,-0.227527916431427,-0.8384629487991333,-0.5376264452934265,0.08909358829259872,0.0345231294631958,0.002668619155883789,-0.08337164670228958
0.56942650466553,-1.6791351366394724,1.194543844705283,0.347149521112442,0.020617466419935226,-0.21460652351379395,-0.837272584438324,-0.5391491055488586,0.09106568247079849,0.0392378568649292,0.008234858512878418,-0.05664193630218506
0.5711767186403441,-1.6809748734502357,1.1988661054029697,0.3336433172225952,0.082317054271698,-0.21206507086753845,-0.8361644744873047,-0.540622353553772,0.09250199049711227,0.022733628749847412,0.014941811561584473,-0.03403043746948242
0.5729073124915992,-1.6819172999328853,1.2027778650998462,0.26477140188217163,0.13715869188308716,-0.20278990268707275,-0.8351457118988037,-0.5420774221420288,0.09318606555461884,0.019975483417510986,0.008874356746673584,-0.007416494190692902
0.5746673009179999,-1.6819078710909383,1.2051928230113946,0.09569717943668365,0.1362878382205963,-0.18971271812915802,-0.8341971635818481,-0.5435555577278137,0.09307227283716202,0.040785908699035645,0.0004342794418334961,0.1406618356704712
0.5765154133544859,-1.680328521509751,1.2054560011204167,-0.09390885382890701,0.2181568294763565,-0.18056297302246094,-0.8333432078361511,-0.5451058745384216,0.09164469689130783,0.030334115028381348,0.006913185119628906,0.1409449577331543
0.5785064212562897,-1.6768088779789725,1.2037671141926414,-0.21707604825496674,0.2908550202846527,-0.18817028403282166,-0.8325796723365784,-0.5467740297317505,0.08859604597091675,0.007155478000640869,-0.006235003471374512,0.11333870887756348
0.5806073405229374,-1.6725922370050283,1.2013052704432647,-0.21772877871990204,0.27029094099998474,-0.18288667500019073,-0.8318013548851013,-0.5485318303108215,0.08496766537427902,0.005247890949249268,0.012475311756134033,0.0330742672085762
0.5825225933262249,-1.6694254265047856,1.1996033978362397,-0.08331264555454254,0.16931426525115967,-0.1687077432870865,-0.831019401550293,-0.5501322746276855,0.08222950249910355,0.020457088947296143,0.013068556785583496,-0.08572373539209366
0.584026116655786,-1.6685967133341666,1.200180166197143,0.15600666403770447,0.07232114672660828,-0.1352379024028778,-0.830263078212738,-0.5513871908187866,0.08145993202924728,0.041536152362823486,-0.0025221705436706543,-0.16932010650634766
0.5849100752299812,-1.6698138751738134,1.203459509075958,0.35415464639663696,0.049209173768758774,-0.0882623940706253,-0.8296777606010437,-0.5521243810653687,0.08242220431566238,0.0584222674369812,0.005997180938720703,-0.15513038635253906
0.5850218985610505,-1.6720311155894776,1.2082727955081956,0.4264589846134186,0.041430339217185974,-0.013394057750701904,-0.8294315934181213,-0.5522176623344421,0.08425536006689072,0.08925819396972656,-0.005369007587432861,-0.08903133869171143
0.5844444680180928,-1.6745666817378655,1.213269379974565,0.3972957730293274,-0.0020225970074534416,0.036784954369068146,-0.829532265663147,-0.5517361164093018,0.08639117330312729,0.0837436318397522,-0.014059722423553467,0.0053598880767822266
0.5836644313749035,-1.6769356275903766,1.2171993764154654,0.2551015615463257,-0.033849749714136124,0.04610886052250862,-0.8297529816627502,-0.5510854125022888,0.08840161561965942,0.035426199436187744,-0.02189737558364868,0.0965043306350708
0.5830430163396896,-1.678433611533704,1.218955467067723,0.04448786377906799,-0.07444857805967331,0.044258229434490204,-0.8299599289894104,-0.5505667924880981,0.0896812453866005,0.0029183030128479004,-0.022202372550964355,0.15049207210540771
0.582815985803666,-1.6790396507204794,1.2181527020198848,-0.17063020169734955,-0.12918758392333984,0.017076563090085983,-0.8300297260284424,-0.5503772497177124,0.09019771963357925,-0.021563291549682617,-0.018439829349517822,0.17463386058807373
0.5830711720044751,-1.6786664852836182,1.2149341831671399,-0.3610379695892334,-0.1426037847995758,-0.013289332389831543,-0.8299237489700317,-0.5505902767181396,0.08987285941839218,-0.05099678039550781,-0.017723381519317627,0.15072762966156006
0.5838320321316556,-1.6774351470577527,1.2099264161059855,-0.4755869209766388,-0.16313624382019043,-0.0490739606320858,-0.8296170830726624,-0.5512252449989319,0.08880627155303955,-0.06126749515533447,-0.016661107540130615,0.091048963367939
0.5849794074433331,-1.6760680781745443,1.2041580066085247,-0.4869605004787445,-0.2020346224308014,-0.0743313804268837,-0.8291081786155701,-0.5521821975708008,0.08760552853345871,-0.05767172574996948,-0.016497671604156494,0.015421755611896515
0.5862311435799319,-1.6756241945795367,1.1989225871547486,-0.3897612392902374,-0.2884475290775299,-0.08199956268072128,-0.828458845615387,-0.5532253980636597,0.08716508746147156,-0.03401374816894531,-0.013104557991027832,-0.062171220779418945
0.5873397738285884,-1.6769830258382425,1.1953757224999126,-0.2132173329591751,-0.36727339029312134,-0.07308995723724365,-0.8277292847633362,-0.5541485548019409,0.08822569251060486,-0.01022249460220337,-0.0035449862480163574,-0.12232910841703415
0.5881382898860293,-1.6801806136463902,1.1941150926971822,-0.01138627715408802,-0.40539810061454773,-0.06292662024497986,-0.8270026445388794,-0.5548130869865417,0.09082361310720444,0.00234144926071167,-0.004635035991668701,-0.15459012985229492
0.5885975228880129,-1.6848138213839197,1.1951195832617802,0.1600925326347351,-0.40601274371147156,-0.04975835606455803,-0.826319694519043,-0.5551950931549072,0.09462530165910721,0.00803673267364502,-0.009914100170135498,-0.15083874762058258
0.5887994076616173,-1.6903175804723765,1.1978097652413628,0.270685076713562,-0.3926772475242615,-0.045219797641038895,-0.8256750106811523,-0.5553629994392395,0.09915833920240402,0.0065680742263793945,-0.008647501468658447,-0.11510385572910309
0.5889022457811197,-1.695975175443032,1.2013901865032879,0.30499058961868286,-0.3360954523086548,-0.05070963874459267,-0.8250445127487183,-0.5554485321044922,0.10382097214460373,0.005159139633178711,-0.005846083164215088,-0.06402610242366791
0.5891204104163738,-1.7009969085528467,1.204961331191869,0.270925909280777,-0.2667251229286194,-0.0673380196094513,-0.8243923783302307,-0.5556299090385437,0.10794703662395477,-0.003015458583831787,-0.009479284286499023,-0.010824918746948242
0.5895680934894009,-1.7049690618123752,1.2079407840646772,0.20244859158992767,-0.19644378125667572,-0.08700866252183914,-0.823710560798645,-0.5560020804405212,0.11118751019239426,-0.009160041809082031,-0.01164013147354126,0.030581846833229065
0.590285958270539,-1.7077773048346363,1.2100022684844605,0.11768032610416412,-0.1383877992630005,-0.0971091166138649,-0.8229993581771851,-0.5565986037254333,0.1134456992149353,0.0001996755599975586,-0.0141410231590271,0.055346958339214325
0.5911582432817986,-1.7095438339600102,1.211115822343894,0.045046597719192505,-0.09616365283727646,-0.09927958995103836,-0.8223165273666382,-0.5573230981826782,0.11483218520879745,0.005574584007263184,-0.022037804126739502,0.05931627005338669
0.5921404692446032,-1.7106862892711392,1.2115535422890191,0.0029262988828122616,-0.08823524415493011,-0.10188046842813492,-0.8216423392295837,-0.558138370513916,0.11569518595933914,0.00663989782333374,-0.02728027105331421,0.04162286967039108
0.5931193064364438,-1.7117092911789842,1.2116363805539792,-0.013387160375714302,-0.11158370971679688,-0.09077508747577667,-0.8209821581840515,-0.5589502453804016,0.11645887792110443,0.015257179737091064,-0.025156080722808838,0.01659773290157318
0.5939236246543561,-1.713097001528809,1.2116937425039769,0.007591817528009415,-0.15941651165485382,-0.0685679167509079,-0.8203744888305664,-0.5596170425415039,0.11753425002098083,0.02722269296646118,-0.02123922109603882,-0.01188243180513382
0.5944635257414579,-1.7151940562824448,1.2122115454608864,0.06484392285346985,-0.20164360105991364,-0.05154285579919815,-0.8198270797729492,-0.5600643754005432,0.1192108616232872,0.027972280979156494,-0.018365681171417236,-0.040811315178871155
0.594756921263122,-1.7181614932068872,1.2134838255458902,0.13479237258434296,-0.24886757135391235,-0.03659666329622269,-0.819307267665863,-0.5603074431419373,0.12161900848150253,0.021394670009613037,-0.016108572483062744,-0.05933272838592529
0.594740935179379,-1.7218048676370212,1.215546398827738,0.19718678295612335,-0.23958885669708252,-0.015212014317512512,-0.8188676238059998,-0.5602942109107971,0.12460459023714066,0.01466834545135498,-0.01738828420639038,-0.06532418727874756
0.594584316521086,-1.7253821719635996,1.2180774098564675,0.21676191687583923,-0.18623308837413788,-0.019356003031134605,-0.818503201007843,-0.5601644515991211,0.12754660844802856,0.003287196159362793,-0.02124112844467163,-0.055006399750709534
0.5944945116119311,-1.7282530334653314,1.2207290218600915,0.21600663661956787,-0.08351895958185196,-0.031571920961141586,-0.818183422088623,-0.5600900650024414,0.12990379333496094,0.0010142326354980469,-0.008070886135101318,-0.03473472595214844
0.5945583488329371,-1.7299283886886876,1.2232613374870387,0.19400599598884583,0.03238846734166145,-0.04807952791452408,-0.817929208278656,-0.5601429343223572,0.1312686800956726,0.006863653659820557,0.0054097771644592285,-0.016476884484291077
0.5948099077489117,-1.7303754422690074,1.225508368299752,0.16631151735782623,0.12501934170722961,-0.06230853125452995,-0.817731499671936,-0.5603513121604919,0.13161195814609528,0.00391918420791626,0.007906913757324219,-0.0011494159698486328
0.5953852376390453,-1.7299137530565707,1.2275026614910562,0.15039663016796112,0.18004192411899567,-0.09172546863555908,-0.8174735903739929,-0.5608277320861816,0.13118328154087067,-0.013336896896362305,0.007238924503326416,0.0032770633697509766
0.5963637207524701,-1.7288815765092231,1.2294019872292048,0.1434130221605301,0.2139061540365219,-0.13622182607650757,-0.8170663118362427,-0.5616375803947449,0.13025300204753876,-0.037227511405944824,0.013557195663452148,0.0021932125091552734
0.5977303786593606,-1.7277800723155374,1.2312881745796886,0.139470636844635,0.18541257083415985,-0.16943518817424774,-0.8164503574371338,-0.5627678036689758,0.12923277914524078,-0.04469466209411621,0.017510294914245605,0.00881338119506836
0.5993231077301135,-1.727133394677907,1.2330743630227807,0.12036911398172379,0.11724337935447693,-0.1818082332611084,-0.8156473636627197,-0.5640836954116821,0.12856505811214447,-0.03843283653259277,0.014141738414764404,0.023839697241783142
0.6010332125623473,-1.7270419156016579,1.2346518007750096,0.09960778057575226,0.06177346408367157,-0.18872477114200592,-0.8147050142288208,-0.5654948949813843,0.12834013998508453,-0.0198744535446167,0.017048358917236328,0.036714062094688416
0.6028286631198554,-1.7272654129030618,1.235942156890455,0.06138422712683678,0.027550779283046722,-0.1973307728767395,-0.8136720657348633,-0.5669748187065125,0.12836378812789917,-0.011477410793304443,0.014667749404907227,0.04761575162410736
0.6047090213225228,-1.7275932079939045,1.2368103069998722,0.024920323863625526,0.007330597378313541,-0.1924314796924591,-0.8125754594802856,-0.5685227513313293,0.12846378982067108,-0.0068367719650268555,0.004664778709411621,0.051177844405174255
0.6065059425752959,-1.7277901675879626,1.2372602399017378,-0.00708288187161088,0.007755105383694172,-0.17642109096050262,-0.8115400671958923,-0.5700000524520874,0.1284639537334442,0.001954376697540283,-0.001319587230682373,0.04801918566226959
0.6081859635347109,-1.7277829178369526,1.2374804386236795,-0.015163971111178398,0.018191518262028694,-0.1696155071258545,-0.8105937838554382,-0.5713796615600586,0.12830813229084015,-0.0027912259101867676,0.0035696029663085938,0.04051506519317627
0.6098534581597395,-1.727722846187592,1.2376385614219214,-0.014462227001786232,0.007603587582707405,-0.17933125793933868,-0.8096591830253601,-0.5727473497390747,0.12811033427715302,-0.022722959518432617,0.009454011917114258,0.029512852430343628
