attitudeX,attitudeY,attitudeZ,gyroX,gyroY,gyroZ,gravityX,gravityY,gravityZ,accX,accY,accZ
0.5571772053332207,0.2907376962409477,0.23656924090023532,-0.4048781096935272,0.1897367686033249,-0.1588621735572815,0.24330219626426697,-0.5287924408912659,-0.8131313920021057,0.022734984755516052,-0.02645963430404663,0.03122532367706299
0.5527956457457643,0.29343763406244594,0.23618822969862838,-0.41685354709625244,0.3291069269180298,-0.1666007936000824,0.24616451561450958,-0.5250685214996338,-0.8146815896034241,0.020132064819335938,-0.007768392562866211,0.009383797645568848
0.548229999267449,0.29820489654519294,0.2353556894865516,-0.41897454857826233,0.519967794418335,-0.23652426898479462,0.2507472336292267,-0.5211774706840515,-0.815781831741333,-0.03013548254966736,-0.02885615825653076,-0.03356814384460449
0.5434241511869827,0.3042236510912176,0.23382544451481502,-0.4192049205303192,0.5056138634681702,-0.2954176664352417,0.2563999891281128,-0.5170698761940002,-0.816638171672821,-0.07390469312667847,-0.047871530055999756,-0.04424738883972168
0.5385701134554745,0.30993923234575865,0.2317639301862814,-0.39844346046447754,0.42527100443840027,-0.33188411593437195,0.2618257701396942,-0.5129090547561646,-0.8175399899482727,-0.066741943359375,-0.056518495082855225,-0.03841698169708252
0.5338425629111511,0.314481224793734,0.2295163737595328,-0.38679400086402893,0.23475301265716553,-0.32619160413742065,0.26628339290618896,-0.5088449716567993,-0.8186390995979309,-0.04770103096961975,-0.044728636741638184,-0.029581665992736816
0.5294138572753845,0.3167395853955707,0.22733894910238775,-0.3295765519142151,0.004280808847397566,-0.30647894740104675,0.2688307762145996,-0.5050275325775146,-0.8201690316200256,-0.021943390369415283,-0.01950860023498535,0.011544883251190186
0.5257668433431167,0.3167022240108453,0.225185705690884,-0.2556101679801941,-0.24703717231750488,-0.27469944953918457,0.26937195658683777,-0.5018764138221741,-0.8219238519668579,-0.008400678634643555,-0.06054729223251343,0.02024245262145996
0.5225549110254057,0.31324641198418307,0.2233057402053145,-0.2639690637588501,-0.6521894335746765,-0.23377585411071777,0.26702529191970825,-0.49909570813179016,-0.8243791460990906,0.03219977021217346,-0.07043862342834473,0.03420281410217285
0.5193459261281047,0.30493097674789704,0.22201333335214188,-0.2751189172267914,-1.1471595764160156,-0.17381371557712555,0.26064056158065796,-0.4963124096393585,-0.828094482421875,0.05909228324890137,-0.05347704887390137,0.10469067096710205
0.5163388102060716,0.29168989381562077,0.22119821587267754,-0.2577786445617676,-1.5623184442520142,-0.14978879690170288,0.25008124113082886,-0.4936995506286621,-0.8328986763954163,0.040049582719802856,-0.05549481511116028,0.12017595767974854
0.5135156603943778,0.27546151558774906,0.21994372756201108,-0.22385051846504211,-1.785569429397583,-0.2335641235113144,0.23691044747829437,-0.49124249815940857,-0.8381850719451904,0.01380687952041626,-0.07928362488746643,0.07707679271697998
0.5105858066490888,0.25852720656704475,0.21718611028464582,-0.22590422630310059,-1.8708609342575073,-0.38913965225219727,0.2230500727891922,-0.4886884093284607,-0.8434644937515259,0.012118563055992126,-0.1119127869606018,-0.003077864646911621
0.5068417377813349,0.24072153525667545,0.21285104457828585,-0.32464757561683655,-2.2420756816864014,-0.520159125328064,0.20843181014060974,-0.4854184687137604,-0.8490731120109558,-0.005443945527076721,-0.10582911968231201,-0.032961130142211914
0.5021465976365789,0.21670882679938216,0.2077508933631721,-0.37022387981414795,-2.98748779296875,-0.5570336580276489,0.18847310543060303,-0.481308251619339,-0.8560492396354675,-0.0599939227104187,-0.03756687045097351,0.020615339279174805
0.4976045544840713,0.1871401065110803,0.202327032918716,-0.3420633375644684,-3.498840808868408,-0.5577250123023987,0.16348716616630554,-0.47732195258140564,-0.8633861541748047,-0.12215094268321991,0.02398332953453064,0.08054929971694946
0.4926215690978267,0.15088499926397184,0.19688082540956814,-0.5032877922058105,-4.297285556793213,-0.5517479181289673,0.13244031369686127,-0.47293737530708313,-0.8710854053497314,-0.13211970031261444,0.11029696464538574,0.23837977647781372
0.48594602998296305,0.10686005935758922,0.19189159210794182,-0.7040629982948303,-4.921696186065674,-0.4845062792301178,0.09430951625108719,-0.4670450687408447,-0.8791897296905518,-0.21093225479125977,0.27600499987602234,0.567193329334259
0.47614785486657296,0.0688271447406225,0.1878383552130769,-1.3115582466125488,-2.4673314094543457,-0.42510688304901123,0.06112302467226982,-0.45835891366004944,-0.8866629004478455,-0.1020621806383133,0.32183852791786194,0.6507925391197205
0.4593270461262685,0.05731498038020473,0.18521615408088446,-1.9311527013778687,-0.3205852806568146,-0.18109644949436188,0.05134622007608414,-0.44334501028060913,-0.8948792219161987,0.1290433555841446,0.16252222657203674,0.15443122386932373
0.439610724134643,0.05589708028665754,0.1874124849895531,-1.990125298500061,0.01233552023768425,0.3569004535675049,0.05055590346455574,-0.4255872368812561,-0.9035040736198425,0.5007138252258301,-0.1018480658531189,-0.1856071949005127
0.42113280984718465,0.051883382461413836,0.19480448496688574,-1.7574044466018677,-0.12830574810504913,0.750870943069458,0.04732890799641609,-0.4087945520877838,-0.9113984107971191,0.5461007952690125,-0.23077762126922607,-0.39904165267944336
0.4054789365295955,0.04850657921606648,0.20449881308656337,-1.462416648864746,0.2526630759239197,0.8279067873954773,0.04455587640404701,-0.39445891976356506,-0.9178327322006226,0.18951411545276642,-0.15459811687469482,-0.34696829319000244
0.39313378856440295,0.047989052651026404,0.21327091349341748,-1.0601533651351929,0.23334184288978577,0.6556748747825623,0.04431110620498657,-0.3830850124359131,-0.9226496815681458,-0.03732240945100784,0.0778176486492157,-0.17926377058029175
0.38580809540322136,0.04546397173464675,0.21980117953263906,-0.43855521082878113,-0.25240740180015564,0.5003027319908142,0.04210761561989784,-0.37630796432495117,-0.9255372881889343,-0.12125478684902191,0.13445612788200378,-0.19134503602981567
0.38528393773229463,0.03899746319564755,0.2247443258057003,0.29245615005493164,-0.6548027992248535,0.4124040901660919,0.03612946718931198,-0.3758222758769989,-0.925987184047699,-0.13424332439899445,0.0448896586894989,-0.29621124267578125
0.39138675592869804,0.029354079352494657,0.22842070896972838,0.873308002948761,-1.0078778266906738,0.30798906087875366,0.027130454778671265,-0.3814706802368164,-0.9239827394485474,-0.13423173129558563,-0.02447417378425598,-0.34243571758270264
0.40194944042499203,0.016042432121476484,0.2309498337913965,1.2053378820419312,-1.460273027420044,0.21090060472488403,0.014763218350708485,-0.39121314883232117,-0.9201816916465759,-0.12554186582565308,-0.01036769151687622,-0.2813258767127991
0.41490097741029347,-0.00032182985626664015,0.23263957743309702,1.3678250312805176,-1.6255526542663574,0.1158953532576561,-0.00029452459421008825,-0.40309929847717285,-0.9151561856269836,-0.07387829571962357,0.02613094449043274,-0.20106995105743408
0.42860937485941236,-0.016415587141940805,0.23364038365616283,1.3537808656692505,-1.4991350173950195,0.05277896299958229,-0.014930037781596184,-0.41560637950897217,-0.9094220399856567,-0.03669028729200363,0.01823696494102478,-0.21859920024871826
0.4413980749896784,-0.03052111829681365,0.23466959687207498,1.2052552700042725,-1.237432837486267,0.08616956323385239,-0.02759154699742794,-0.4272039532661438,-0.9037342071533203,-0.025341030210256577,0.0173071026802063,-0.2014598846435547
0.45266302289141797,-0.04304411409909245,0.2365747884271069,1.0737278461456299,-1.1296288967132568,0.17149244248867035,-0.038697000592947006,-0.4373618960380554,-0.898452639579773,0.0017403699457645416,0.024733692407608032,-0.13044750690460205
0.4630026251911515,-0.054958132461192064,0.23922475896480452,1.02737557888031,-0.9970687031745911,0.18774209916591644,-0.049147140234708786,-0.4466366171836853,-0.8933646082878113,-0.003831222653388977,0.007320791482925415,-0.14580470323562622
0.4730346453616292,-0.06445154016051424,0.2415476964706054,0.9993337392807007,-0.6959744095802307,0.09758663177490234,-0.05733439326286316,-0.45558980107307434,-0.8883415460586548,-0.0900348424911499,-0.019202709197998047,-0.17179334163665771
0.4826726948817051,-0.07152668921567502,0.24253195076223732,0.9406328201293945,-0.6880170702934265,-0.06490397453308105,-0.06330129504203796,-0.4641481935977936,-0.8834927678108215,-0.2021709382534027,-0.04110082983970642,-0.12346524000167847
0.49202985173235547,-0.07899476474428897,0.24132911723713324,0.9204063415527344,-0.9306336641311646,-0.28955599665641785,-0.06955168396234512,-0.4724159240722656,-0.8786272406578064,-0.23809586465358734,-0.08210372924804688,-0.061268389225006104
0.5017465159169396,-0.08771666911902819,0.23779244090454899,0.9786810874938965,-1.1421998739242554,-0.4817271828651428,-0.07680647820234299,-0.4809575080871582,-0.8733731508255005,-0.23348084092140198,-0.13346818089485168,-0.07195460796356201
0.5126260898927593,-0.09709851139826904,0.2327640973129368,1.1199958324432373,-1.2127385139465332,-0.5859252214431763,-0.0844845250248909,-0.49046745896339417,-0.8673546314239502,-0.19295063614845276,-0.12821540236473083,-0.1060950756072998
0.525301666600573,-0.10657544076813556,0.22716069377739687,1.3100587129592896,-1.2500137090682983,-0.6335460543632507,-0.09203170984983444,-0.5014740228652954,-0.8602638840675354,-0.14844664931297302,-0.08562314510345459,-0.14715182781219482
0.5400211455983511,-0.11694517530854497,0.22188832003944212,1.5224826335906982,-1.3675451278686523,-0.5895658135414124,-0.1000751480460167,-0.5141541361808777,-0.8518394827842712,-0.10721535235643387,-0.04445493221282959,-0.16212230920791626
0.5566455971118982,-0.12889643965736206,0.2178408744582799,1.679520606994629,-1.4296669960021973,-0.5127805471420288,-0.10913443565368652,-0.5283411741256714,-0.8419888615608215,-0.024623960256576538,-0.029489636421203613,-0.1724916696548462
0.5739125903181331,-0.14103682112448102,0.21438827986452283,1.6399656534194946,-1.3703557252883911,-0.5460913777351379,-0.11804808676242828,-0.5429219007492065,-0.8314447999000549,-0.018182240426540375,-0.04254257678985596,-0.14325612783432007
0.5899816526576387,-0.15238289896294643,0.20994206111383354,1.4181913137435913,-1.4059574604034424,-0.6680473685264587,-0.12613323330879211,-0.5563457608222961,-0.8213220238685608,-0.09118229150772095,-0.07504773139953613,-0.03275817632675171
0.6037010547155219,-0.16309486044014715,0.20362167718387555,1.1320037841796875,-1.4339675903320312,-0.7924928665161133,-0.13367179036140442,-0.5676932334899902,-0.8123154044151306,-0.13422663509845734,-0.12497955560684204,0.06913608312606812
0.6150102333028519,-0.1724671113038927,0.19581919327600225,0.9003289341926575,-1.3245089054107666,-0.8385383486747742,-0.14016824960708618,-0.5769668817520142,-0.8046503067016602,-0.15092353522777557,-0.14732211828231812,0.11953067779541016
0.6246293725847336,-0.17980670729850923,0.1875996881654272,0.7742903232574463,-1.0887852907180786,-0.8151752352714539,-0.14507094025611877,-0.584796667098999,-0.7981023192405701,-0.13379855453968048,-0.12388259172439575,0.07428640127182007
0.6333231876583236,-0.18470089459137326,0.17971571303029077,0.7115256786346436,-0.8372631072998047,-0.7549020051956177,-0.1480359137058258,-0.5918267369270325,-0.7923550605773926,-0.11479657888412476,-0.09651249647140503,-0.004504680633544922
0.6415268201793345,-0.18854653022211948,0.17249941267878774,0.6983321309089661,-0.8325253129005432,-0.6957870721817017,-0.150166854262352,-0.5984194278717041,-0.7869842648506165,-0.09647609293460846,-0.08265668153762817,-0.04962468147277832
0.6500704998437092,-0.19397139189306642,0.16565809691368663,0.7884663343429565,-1.1098917722702026,-0.7167589664459229,-0.15344277024269104,-0.6052425503730774,-0.7811126112937927,-0.07395884394645691,-0.08585858345031738,-0.04576122760772705
0.6602632175535895,-0.2027365825405801,0.15853191315955314,1.0024631023406982,-1.517297625541687,-0.8017492294311523,-0.159032940864563,-0.613324761390686,-0.7736545205116272,-0.13077712059020996,-0.10090869665145874,-0.0594295859336853
0.6731257789461953,-0.21464274622614926,0.1506306081020733,1.2615896463394165,-1.8273464441299438,-0.9589462280273438,-0.16653849184513092,-0.623432993888855,-0.7639347314834595,-0.17701300978660583,-0.12934410572052002,-0.10909688472747803
0.6889205589146529,-0.2277634169007518,0.1412292143156276,1.4933339357376099,-1.9738889932632446,-1.1611008644104004,-0.1743018478155136,-0.6357042789459229,-0.7519966959953308,-0.23293983936309814,-0.15448737144470215,-0.13908612728118896
0.7069751421712757,-0.24061522242640201,0.12995193808873753,1.6050150394439697,-2.047576427459717,-1.3595571517944336,-0.18118681013584137,-0.6495368480682373,-0.7384262681007385,-0.3269917964935303,-0.21290522813796997,-0.16242218017578125
0.7259787273412004,-0.2524702930318825,0.11652648510405794,1.5772327184677124,-2.0910491943359375,-1.5351862907409668,-0.1868104785680771,-0.663867712020874,-0.7241419553756714,-0.34645354747772217,-0.27195388078689575,-0.1571599245071411
0.7448028085610462,-0.26269705391490517,0.10052687317105123,1.4524527788162231,-2.105938673019409,-1.7235956192016602,-0.19092677533626556,-0.6778268218040466,-0.7099984884262085,-0.3693300485610962,-0.31248384714126587,-0.11332005262374878
0.7624905458078204,-0.2711481434124913,0.08168146333302075,1.2247836589813232,-2.189534902572632,-1.8522342443466187,-0.1936783492565155,-0.6907245516777039,-0.6966982483863831,-0.46350231766700745,-0.35647088289260864,-0.06044292449951172
0.7778088451104188,-0.2789032657056223,0.06104586547565652,0.9192047715187073,-2.214233875274658,-1.8069815635681152,-0.19613933563232422,-0.7017199993133545,-0.6849222779273987,-0.5238007307052612,-0.3928540349006653,-0.015593528747558594
0.7901537825420816,-0.2863813658715677,0.041007653123113955,0.6776813268661499,-2.108978509902954,-1.602810025215149,-0.19879339635372162,-0.7104614973068237,-0.6750746965408325,-0.4804209768772125,-0.39677727222442627,0.015772879123687744
0.8004590758711481,-0.29367783747647647,0.02270548099873348,0.5838708281517029,-1.9791197776794434,-1.471459984779358,-0.20158353447914124,-0.7176758646965027,-0.6665624976158142,-0.4147036075592041,-0.3773711919784546,0.022824645042419434
0.8104225104856561,-0.299962604893226,0.004417977218365064,0.5871720910072327,-1.939297080039978,-1.5697681903839111,-0.20364567637443542,-0.7245784401893616,-0.6584182977676392,-0.4132212996482849,-0.3744969367980957,-0.02189481258392334
0.8212411202596451,-0.3047419150746642,-0.016574714519538753,0.6325094103813171,-2.11337947845459,-1.8399134874343872,-0.20442600548267365,-0.7319920063018799,-0.6499214172363281,-0.4850117564201355,-0.3592403531074524,-0.03890615701675415
0.8337652470162142,-0.30908396789273546,-0.04173798493147413,0.732481837272644,-2.484499931335449,-2.1746442317962646,-0.20444123446941376,-0.7404671907424927,-0.6402438282966614,-0.5277668833732605,-0.3568838834762573,-0.03735321760177612
0.8484157425406632,-0.3135095235228813,-0.07159315873529641,0.8376518487930298,-2.838984966278076,-2.5182509422302246,-0.20390498638153076,-0.7502338886260986,-0.6289452314376831,-0.5170116424560547,-0.35087090730667114,-0.07564473152160645
0.8650789656868416,-0.31672970016761687,-0.10637235388017528,0.9184969067573547,-3.0680153369903564,-2.855837345123291,-0.20200712978839874,-0.7611464858055115,-0.6163190603256226,-0.5051918625831604,-0.323707640171051,-0.07887136936187744
0.883573825465008,-0.31797135792587317,-0.1463651131284586,1.002061128616333,-3.329228639602661,-3.18310284614563,-0.19833669066429138,-0.7730110287666321,-0.6025915741920471,-0.49778443574905396,-0.2936241626739502,-0.037301063537597656
0.9040718858583596,-0.3164573242340657,-0.19215933799976917,1.1016966104507446,-3.50179386138916,-3.5701241493225098,-0.19245192408561707,-0.7858515381813049,-0.5877071619033813,-0.5013651251792908,-0.25142568349838257,-0.014755666255950928
0.9262556885634209,-0.3095569050136571,-0.24538168741081545,1.1022390127182007,-3.5615391731262207,-3.9722893238067627,-0.1830352246761322,-0.7993758320808411,-0.5722729563713074,-0.5388885140419006,-0.17514193058013916,-0.04004698991775513
0.9482678720873253,-0.29682764089579794,-0.3060902039194274,0.938217043876648,-3.7197024822235107,-4.180217266082764,-0.1705472618341446,-0.8124067187309265,-0.5575923323631287,-0.5513306856155396,-0.10765254497528076,-0.03684437274932861
0.9682026844657041,-0.2814383990786499,-0.3718554140409948,0.7353603839874268,-3.9676008224487305,-4.210906505584717,-0.15741653740406036,-0.8238683342933655,-0.5444823503494263,-0.4817892909049988,-0.044356703758239746,0.023150503635406494
0.985957601813794,-0.2640395389758751,-0.4414631363703361,0.5960376262664795,-4.0876145362854,-4.269458293914795,-0.14407914876937866,-0.8338011503219604,-0.532932460308075,-0.44588661193847656,0.046722233295440674,0.07818996906280518
1.0020873679620594,-0.24264141656580196,-0.5157602225678615,0.4972200095653534,-4.095510959625244,-4.4016618728637695,-0.12939482927322388,-0.8425969481468201,-0.5227690935134888,-0.5120998620986938,0.10526174306869507,0.06683635711669922
1.016613022574165,-0.21624246937665423,-0.5954660775989633,0.39976322650909424,-4.158369064331055,-4.531625747680664,-0.1129126325249672,-0.8503305315971375,-0.5139932036399841,-0.5894341468811035,0.10222256183624268,0.07215964794158936
1.0291792334450895,-0.18660474881694086,-0.6802816536143604,0.29554134607315063,-4.438593864440918,-4.641991138458252,-0.0956416204571724,-0.8568761348724365,-0.506572961807251,-0.5834659934043884,0.10684561729431152,0.10447323322296143
1.0395991131375169,-0.15600204273233362,-0.7701244922354495,0.19402749836444855,-4.917486667633057,-4.782138347625732,-0.07870519906282425,-0.8622012138366699,-0.5004144906997681,-0.5103297829627991,0.14497703313827515,0.1641107201576233
1.047798992698579,-0.1253225288297528,-0.865308141777211,0.0842931717634201,-5.414846897125244,-4.937570095062256,-0.06243227422237396,-0.8663259744644165,-0.49556198716163635,-0.47768306732177734,0.193764328956604,0.2073844075202942
1.0533307459836987,-0.09541680107851677,-0.9647954982594972,-0.08278663456439972,-5.877838611602783,-5.010210990905762,-0.04712913557887077,-0.8690757155418396,-0.4924292266368866,-0.47972631454467773,0.23319613933563232,0.22366082668304443
1.055450277504816,-0.06841731180679468,-1.0654256058489133,-0.3095470368862152,-6.235040187835693,-4.917565822601318,-0.033692218363285065,-0.8701222538948059,-0.4916830360889435,-0.44035255908966064,0.2643330693244934,0.2577352225780487
1.0539608263757572,-0.04744492647880602,-1.162755693918295,-0.5406215190887451,-6.5111823081970215,-4.655423641204834,-0.023435240611433983,-0.8693872094154358,-0.49357548356056213,-0.36377179622650146,0.3332238793373108,0.29513487219810486
1.049558344874018,-0.033940535373039475,-1.2541767805065867,-0.6883384585380554,-6.6845221519470215,-4.402075290679932,-0.01689758710563183,-0.867203414440155,-0.4976674020290375,-0.2915130853652954,0.39474552869796753,0.2955951988697052
1.0442201898119932,-0.026483687486733385,-1.3411027135317144,-0.6053066849708557,-6.90022087097168,-4.277097702026367,-0.013308517634868622,-0.8645328879356384,-0.5024000406265259,-0.34078696370124817,0.4597324728965759,0.2356153130531311
1.0404122430091567,-0.02242997440518888,-1.424524254973907,-0.37318724393844604,-6.574080944061279,-4.12598991394043,-0.011345581151545048,-0.8626128435134888,-0.5057374835014343,-0.4914163053035736,0.5101958513259888,0.09460461139678955
1.0375222384891583,-0.013553789373392041,-1.503981546148137,-0.38105902075767517,-5.415115833282471,-3.93524169921875,-0.006889933720231056,-0.8611472845077515,-0.5083088874816895,-0.5062784552574158,0.41227954626083374,-0.13243818283081055
1.0327159916676656,-0.00021794877758768338,-1.5797857931499255,-0.6869743466377258,-5.100335597991943,-3.8187522888183594,-0.00011169630306540057,-0.8586940765380859,-0.5124887824058533,-0.4683331847190857,0.32118791341781616,-0.322212815284729
1.0231332791418697,0.009652136986797977,-1.6526576855414703,-1.1856943368911743,-5.434681415557861,-3.7172188758850098,0.005025727208703756,-0.8537436723709106,-0.5206692814826965,-0.41032975912094116,0.43008339405059814,-0.28571200370788574
1.0096589151675406,0.01305957764428508,-1.7207207721767686,-1.3718863725662231,-5.40098237991333,-3.4771597385406494,0.006949450820684433,-0.8466503620147705,-0.5321041941642761,-0.3795691728591919,0.5010235905647278,-0.2792208790779114
0.9964572273396105,0.013253171666539868,-1.7822996662845494,-1.149004340171814,-4.9398112297058105,-3.1931092739105225,0.007199975196272135,-0.839551568031311,-0.5432325005531311,-0.31904393434524536,0.49406200647354126,-0.46165037155151367
0.9863838768018864,0.012560232820317275,-1.8378154405308342,-0.795740008354187,-4.525606632232666,-2.92913556098938,0.006929419003427029,-0.8340364098548889,-0.5516660809516907,-0.34758198261260986,0.5195984840393066,-0.6909487247467041
0.9793374127738346,0.011433354917109277,-1.888572402389342,-0.5701537728309631,-4.147943496704102,-2.739163637161255,0.006374789867550135,-0.8301281332969666,-0.5575364232063293,-0.44103676080703735,0.5196880102157593,-0.8684890270233154
0.9739230351454892,0.012170529406280727,-1.9364216153402198,-0.4592856466770172,-3.6232075691223145,-2.653472900390625,0.006840390153229237,-0.8270970582962036,-0.5620176196098328,-0.5552566051483154,0.4877873659133911,-0.9878175854682922
0.9695016152498991,0.01770083403901864,-1.9831980043124229,-0.3433065712451935,-3.0086331367492676,-2.6509909629821777,0.010013028047978878,-0.8246038556098938,-0.5656220316886902,-0.6464877724647522,0.4246862530708313,-1.0826475620269775
0.9664515694907929,0.029091266439715862,-2.030067500445277,-0.12538692355155945,-2.460949659347534,-2.691575765609741,0.016528001055121422,-0.8228746056556702,-0.5679827332496643,-0.7329282760620117,0.3857712745666504,-1.1462202072143555
0.9659202102220171,0.04594417129161467,-2.0779623746967615,0.2364700883626938,-2.0822925567626953,-2.774442672729492,0.026117440313100815,-0.8225725293159485,-0.5680603384971619,-0.7904608249664307,0.3855454921722412,-1.2042633295059204
0.9688748761914269,0.06766094308736519,-2.128646213997218,0.687147319316864,-1.953159213066101,-2.9542739391326904,0.03828226029872894,-0.8242491483688354,-0.5649318695068359,-0.8292217254638672,0.3868711590766907,-1.255197525024414
0.975568709526781,0.09400107406989891,-2.1839553818973507,1.1490368843078613,-1.9254873991012573,-3.159463405609131,0.05262855812907219,-0.8280208706855774,-0.5582218766212463,-0.8784953951835632,0.37233245372772217,-1.2503108978271484
0.9855026314507932,0.1252964702211335,-2.2444666977494014,1.5556604862213135,-1.8623366355895996,-3.3271636962890625,0.06903834640979767,-0.8335498571395874,-0.5481135249137878,-0.884437620639801,0.3587573766708374,-1.2284215688705444
0.9975358632510074,0.16250008492520884,-2.3102453709040542,1.8468668460845947,-1.7071185111999512,-3.4648475646972656,0.08774849027395248,-0.8401370644569397,-0.535228967666626,-0.8485060334205627,0.3641238212585449,-1.1593663692474365
1.0100945381241442,0.2063820824718372,-2.3812074414397304,2.007955312728882,-1.4812248945236206,-3.5757620334625244,0.10897259414196014,-0.8468821048736572,-0.5204957723617554,-0.8278905749320984,0.38216036558151245,-1.0406309366226196
1.0216394055133298,0.2575982607785344,-2.457031370145948,2.0709805488586426,-1.161476969718933,-3.683697462081909,0.13297605514526367,-0.8529648780822754,-0.5047459006309509,-0.8150593042373657,0.3822922110557556,-0.9037472009658813
1.030991252842347,0.3165876630640345,-2.5374921028213073,2.0820891857147217,-0.8114999532699585,-3.7909657955169678,0.16001169383525848,-0.8578088879585266,-0.4884263575077057,-0.8151937127113342,0.37076354026794434,-0.8049391508102417
1.0374260632247803,0.38256337922698225,-2.6216430492036396,2.0796749591827393,-0.45873358845710754,-3.8623557090759277,0.18979991972446442,-0.8610984086990356,-0.4716837406158447,-0.8166463971138,0.37490761280059814,-0.7406880259513855
1.0407209510677744,0.45461360622921076,-2.708431435450683,2.107598066329956,-0.09984389692544937,-3.924018621444702,0.22201602160930634,-0.8627689480781555,-0.45424532890319824,-0.7964332699775696,0.39328640699386597,-0.6953823566436768
1.0408453282008976,0.5316276122415515,-2.7972528456590284,2.1740951538085938,0.15594340860843658,-3.988370180130005,0.256252259016037,-0.8628318309783936,-0.43572500348091125,-0.7937431931495667,0.42127281427383423,-0.6609699726104736
1.0377216555705804,0.6119233427830171,-2.887880158037666,2.2869527339935303,0.25373995304107666,-4.093667984008789,0.2919226586818695,-0.8612486720085144,-0.4159713089466095,-0.7912819385528564,0.4539914131164551,-0.6054520606994629
1.0312289285466123,0.6940990472991871,-2.9806429813853126,2.4558298587799072,0.225394606590271,-4.2377448081970215,0.3286519944667816,-0.8579310178756714,-0.39489537477493286,-0.8008658289909363,0.5028131008148193,-0.5408193469047546
1.0212087501397646,0.7771020608677869,-3.075268463572915,2.6442599296569824,0.18480710685253143,-4.389486312866211,0.3662703037261963,-0.8527399897575378,-0.3723985254764557,-0.8223403692245483,0.5520806908607483,-0.4955976605415344
1.007193738471196,0.8597201916741668,3.11246451975622,2.807605743408203,0.12370087206363678,-4.562917232513428,0.40476861596107483,-0.8453359603881836,-0.34866830706596375,-0.827193021774292,0.5980671644210815,-0.4422557055950165
0.9886190786778015,0.9402026371329734,3.0178036990034562,2.9261362552642822,0.06151339411735535,-4.73741340637207,0.44409677386283875,-0.8352674841880798,-0.3242014944553375,-0.8366444110870361,0.6404430270195007,-0.36702170968055725
0.965183495636377,1.0164505656460199,2.925969652392285,2.986248254776001,-0.05420015752315521,-4.901700496673584,0.4840157628059387,-0.8221533894538879,-0.29965442419052124,-0.829947829246521,0.6782780885696411,-0.29505687952041626
0.9368838092461617,1.0855599045620778,2.838911456334841,2.988093137741089,-0.3119316101074219,-5.043740272521973,0.523929238319397,-0.8057162761688232,-0.2762598991394043,-0.8255345821380615,0.7260348200798035,-0.23208662867546082
0.9042545730913331,1.1460654146889344,2.757767938810907,2.9837238788604736,-0.4781682789325714,-5.147793769836426,0.5633381605148315,-0.7859644889831543,-0.2547747492790222,-0.8338765501976013,0.7722772359848022,-0.160416841506958
0.8680638415674274,1.1995799232886601,2.682666940660035,2.977264642715454,-0.43271374702453613,-5.224562644958496,0.6022835373878479,-0.763079047203064,-0.23444683849811554,-0.8265877366065979,0.7894306778907776,-0.13957658410072327
0.8287591406032804,1.247943168948439,2.6138449887403725,2.907489538192749,-0.20304860174655914,-5.278126239776611,0.6408757567405701,-0.7370933890342712,-0.2144106924533844,-0.8097600340843201,0.7946187853813171,-0.1370297372341156
0.7865424658398971,1.2923449197510697,2.551993880050059,2.7590835094451904,0.14518389105796814,-5.339894771575928,0.679092288017273,-0.7079154849052429,-0.194137841463089,-0.7801971435546875,0.8128805160522461,-0.08152739703655243
0.741471122058964,1.3332761742963033,2.4974161576882503,2.565027952194214,0.48098665475845337,-5.398046016693115,0.7167708277702332,-0.6753735542297363,-0.17352300882339478,-0.7207229733467102,0.8167155981063843,-0.005126819014549255
0.6941815409404257,1.370467431280546,2.4501617928919437,2.331599712371826,0.723564624786377,-5.390990734100342,0.7532070875167847,-0.6397566199302673,-0.1529405564069748,-0.6442440748214722,0.834611177444458,0.07571583986282349
0.6456138959122603,1.4035187581832853,2.40997274942334,2.098655939102173,0.8897876739501953,-5.322748184204102,0.787581741809845,-0.6016888618469238,-0.13298748433589935,-0.5255578756332397,0.8570903539657593,0.18976552784442902
0.5965619512586057,1.432749844190879,2.3760101702021474,1.8783659934997559,0.9968587160110474,-5.228306770324707,0.8194021582603455,-0.5618016123771667,-0.11383964866399765,-0.40141814947128296,0.8666567206382751,0.28646236658096313
0.547640749507675,1.4583315160532586,2.3475486093462954,1.6498558521270752,1.0231014490127563,-5.0819854736328125,0.8483616709709167,-0.520674467086792,-0.09581514447927475,-0.2421301007270813,0.8832231760025024,0.34924840927124023
0.49976104056103987,1.4801117609304122,2.3240447942966487,1.439100742340088,0.9798224568367004,-4.865604400634766,0.8740907907485962,-0.4792158305644989,-0.07948455214500427,-0.08098471164703369,0.9055461883544922,0.40246742963790894
0.45385262387795966,1.4984246740362983,2.3045688638003488,1.272646427154541,0.8900230526924133,-4.572515964508057,0.8964121341705322,-0.43843138217926025,-0.06498833000659943,0.08776456117630005,0.9025577902793884,0.4509289264678955
0.4108298492518579,1.5135889910878169,2.2882410866547582,1.1354289054870605,0.7820706367492676,-4.216363430023193,0.915290117263794,-0.3993702530860901,-0.052418503910303116,0.23844224214553833,0.8833025693893433,0.475727915763855
0.37115832032531243,1.5262690695505066,2.2744889342439887,1.0019211769104004,0.7093951106071472,-3.8546946048736572,0.9309844374656677,-0.3626951277256012,-0.04148159921169281,0.3683779239654541,0.8492977023124695,0.4838187098503113
0.3345860204746647,1.536971448115485,2.2631247405515102,0.8452156186103821,0.646914541721344,-3.5612008571624756,0.9440061450004578,-0.32837817072868347,-0.031943075358867645,0.45302754640579224,0.795922577381134,0.460684597492218
0.30029253517435084,1.5458670519052407,2.254004508319592,0.693691074848175,0.5583596229553223,-3.365753650665283,0.9549533724784851,-0.2957996726036072,-0.023811226710677147,0.5130490064620972,0.7401964664459229,0.4318313002586365
0.2677580629441784,1.5528488441589106,2.246591751082545,0.6018117070198059,0.4181649684906006,-3.176778554916382,0.9642113447189331,-0.26457005739212036,-0.01730702444911003,0.604346513748169,0.691785454750061,0.4042699933052063
0.2374407760445074,1.5578188466223526,2.2400591772943215,0.5795897245407104,0.2516356408596039,-2.9015586376190186,0.9718613624572754,-0.23521597683429718,-0.012613019905984402,0.7285475730895996,0.6783310174942017,0.38059407472610474
0.21031779303972356,1.5611380389093958,2.233805799605884,0.5784937739372253,0.1487794667482376,-2.536498785018921,0.9779191613197327,-0.20877070724964142,-0.009445318020880222,0.8400893807411194,0.6771695613861084,0.3635103106498718
0.18707359996215503,1.5635624094417795,2.227860884722804,0.5418872833251953,0.10097387433052063,-2.12532901763916,0.9825271964073181,-0.18598435819149017,-0.0071076443418860435,0.9450852274894714,0.6729531288146973,0.3556489944458008
0.16800550571549364,1.5652009042151587,2.222661039665337,0.4523634910583496,0.043827030807733536,-1.6977287530899048,0.9859049320220947,-0.16721627116203308,-0.005516612436622381,1.0316731929779053,0.6638133525848389,0.3548972010612488
0.15327614073537738,1.5659944053231072,2.2186730013121623,0.3167731463909149,-0.013308428227901459,-1.2572089433670044,0.9882650375366211,-0.15267667174339294,-0.004745607264339924,1.0938884019851685,0.6514710783958435,0.3405763506889343
0.14294900645063524,1.5660066961512424,2.2161536652334943,0.17477048933506012,-0.05554269999265671,-0.8127853870391846,0.9897890090942383,-0.14246265590190887,-0.004740760196000338,1.1487761735916138,0.6390597820281982,0.334025502204895
0.13709477834118802,1.5654827075209663,2.2149278217275272,0.06970717757940292,-0.08470325171947479,-0.3587062954902649,0.9906033277511597,-0.1366657316684723,-0.0052637383341789246,1.1799900531768799,0.6362535953521729,0.3279871940612793
0.1358840395242103,1.5645184022531835,2.2145143565601533,0.018084077164530754,-0.11868007481098175,0.118813157081604,0.99076247215271,-0.13546624779701233,-0.006220013834536076,1.2066709995269775,0.6433243751525879,0.30265259742736816
0.13952849548441748,1.5630504655897783,2.2144571193463656,0.0030161780305206776,-0.1856018453836441,0.6115565896034241,0.9902520775794983,-0.13907620310783386,-0.007670508697628975,1.2349371910095215,0.6555250287055969,0.2822677493095398
0.14805688817275509,1.5605922639431355,2.2144477142769086,0.018515488132834435,-0.3104671835899353,1.0926191806793213,0.9890081286430359,-0.14751656353473663,-0.010092251002788544,1.2306268215179443,0.6682530641555786,0.2709413170814514
0.16118779552278573,1.5568367458045165,2.214187780818442,0.06664573401212692,-0.4483880400657654,1.5314191579818726,0.9869413375854492,-0.1604907214641571,-0.013778182677924633,1.1853915452957153,0.6769394874572754,0.2552638649940491
0.17843311603709316,1.5518635446571403,2.2135458068357696,0.11656177043914795,-0.5682222247123718,1.9138718843460083,0.9839468002319336,-0.1774877905845642,-0.01863107644021511,1.105820655822754,0.6707584857940674,0.24353045225143433
0.19925583740663613,1.5458415448883451,2.2126070187940368,0.15816619992256165,-0.6709480881690979,2.2496511936187744,0.9799090623855591,-0.1979399472475052,-0.024458494037389755,1.012446403503418,0.6532315015792847,0.24792355298995972
0.22325348000034456,1.5388754490579617,2.211549716656036,0.18264682590961456,-0.7697885632514954,2.5463762283325195,0.9746856093406677,-0.22140352427959442,-0.031123392283916473,0.9138489961624146,0.6423475742340088,0.25219279527664185
0.2500780663957497,1.5309125935272132,2.2106841840528832,0.17330339550971985,-0.868355929851532,2.8167405128479004,0.9681227207183838,-0.2474796026945114,-0.0386328361928463,0.821855366230011,0.6339540481567383,0.27010875940322876
0.2795637157313751,1.5217294226470333,2.2104004812916447,0.14115716516971588,-0.98752361536026,3.082068920135498,0.9600192904472351,-0.2759363353252411,-0.04714301601052284,0.7453182935714722,0.6346855163574219,0.3082667589187622
0.3115673171225167,1.5111340948053802,2.21098405539514,0.09416649490594864,-1.1007750034332275,3.3237698078155518,0.9501608610153198,-0.30655086040496826,-0.05675607919692993,0.6713144183158875,0.6486679911613464,0.3463069200515747
0.34588286189266715,1.4991041608906257,2.2126560280590346,0.038221221417188644,-1.1965233087539673,3.5550758838653564,0.9383600354194641,-0.33902737498283386,-0.06738855689764023,0.5916235446929932,0.6579205989837646,0.3737393617630005
0.38234220474572045,1.485744398370316,2.2157262246782214,-0.04341452196240425,-1.2526108026504517,3.77038311958313,0.9244396686553955,-0.3730945587158203,-0.0788155198097229,0.510878324508667,0.666124165058136,0.3990975618362427
0.42072207434727926,1.4712187319838312,2.22066039822843,-0.15516826510429382,-1.2657489776611328,3.9664745330810547,0.9082726240158081,-0.408419668674469,-0.09074373543262482,0.4207373857498169,0.6734646558761597,0.4260099530220032
0.46070556126946455,1.455540564787882,2.2278348731651847,-0.2783256471157074,-1.259140133857727,4.133656024932861,0.8897963166236877,-0.44458022713661194,-0.10301068425178528,0.33427906036376953,0.6723021864891052,0.43183767795562744
0.502021148575073,1.4385933480700765,2.237504251521791,-0.4022473692893982,-1.2354689836502075,4.289731979370117,0.8689625263214111,-0.4811982810497284,-0.11555341631174088,0.24836236238479614,0.6805388927459717,0.41853201389312744
0.544404590493145,1.4202335337782888,2.24986403712771,-0.5233306288719177,-1.2054418325424194,4.412339687347412,0.8457581996917725,-0.5179088711738586,-0.12831075489521027,0.17169779539108276,0.6995950937271118,0.40241968631744385
0.587432195188692,1.4000059456065994,2.26497136950303,-0.6149346232414246,-1.2307182550430298,4.504772186279297,0.8202563524246216,-0.554225504398346,-0.14147011935710907,0.09594237804412842,0.7096970677375793,0.39475083351135254
0.6308738627297167,1.3771806650311602,2.282714025813595,-0.6709927916526794,-1.312316656112671,4.581155776977539,0.7924239635467529,-0.589850664138794,-0.1553720384836197,0.02468407154083252,0.7061529755592346,0.38336890935897827
0.6744749719694757,1.3512917479416362,2.302986474775833,-0.6924148201942444,-1.4059613943099976,4.623019695281982,0.7622945308685303,-0.6244873404502869,-0.17006735503673553,-0.04661154747009277,0.7159178256988525,0.367653489112854
0.7177299128970038,1.322273880150767,2.3256628605338334,-0.6866815686225891,-1.4941093921661377,4.6080803871154785,0.7301569581031799,-0.6576763391494751,-0.18529093265533447,-0.13832968473434448,0.7187723517417908,0.34076279401779175
0.7601131592671224,1.290096364603883,2.3506386039331164,-0.6629796624183655,-1.577094316482544,4.550096035003662,0.6963923573493958,-0.6890034675598145,-0.20077849924564362,-0.23316609859466553,0.6993182301521301,0.3060184121131897
0.8012763159000057,1.2548651541669684,2.3780183317795216,-0.6396706104278564,-1.6093662977218628,4.475620746612549,0.6613543033599854,-0.718244731426239,-0.2161833643913269,-0.3125384449958801,0.6788616180419922,0.2758605480194092
0.8410895576921206,1.21684531932442,2.4082123693607542,-0.6357182264328003,-1.5695537328720093,4.41428804397583,0.6253258585929871,-0.7453699111938477,-0.23106567561626434,-0.38725829124450684,0.6683586835861206,0.2442341148853302
0.8795457338266058,1.1759807019777384,2.4420596185597745,-0.6681443452835083,-1.4691115617752075,4.377561092376709,0.5884567499160767,-0.7704493403434753,-0.24520725011825562,-0.4589250087738037,0.6653466820716858,0.22111369669437408
0.9164920561258276,1.1317818098599421,2.480696351697545,-0.7518002986907959,-1.3254259824752808,4.34166145324707,0.5508938431739807,-0.7934715747833252,-0.25868716835975647,-0.5017300844192505,0.6468802094459534,0.20132946968078613
0.9513492335631302,1.0837186937312784,2.5250803381062523,-0.8620436787605286,-1.152402639389038,4.268563747406006,0.513065755367279,-0.8141995668411255,-0.27174022793769836,-0.5290417671203613,0.6030330061912537,0.18940389156341553
0.983507691226309,1.031929204043485,2.575384058175086,-0.9568657279014587,-0.9114382266998291,4.152215957641602,0.4755840003490448,-0.8324460983276367,-0.284347265958786,-0.6023846864700317,0.5601376891136169,0.15153488516807556
1.012526080607719,0.9771761846241583,2.6313019411419467,-1.0477173328399658,-0.6501773595809937,4.005906105041504,0.4390961825847626,-0.848172664642334,-0.29630714654922485,-0.6911867260932922,0.49895983934402466,0.08889448642730713
1.0378564837198228,0.919443356625316,2.692229308395794,-1.1389917135238647,-0.4969448745250702,3.8027429580688477,0.40404820442199707,-0.8613171577453613,-0.30802270770072937,-0.7629808187484741,0.4087870717048645,0.04427456855773926
1.058997494015208,0.85860755368363,2.7569170360797917,-1.2079342603683472,-0.4709353744983673,3.554727077484131,0.37070536613464355,-0.8718649744987488,-0.3200453817844391,-0.8334740400314331,0.32015281915664673,0.013191252946853638
1.075943442540967,0.7953512823551232,2.8234273882406113,-1.2135252952575684,-0.534883975982666,3.2949023246765137,0.3391323685646057,-0.8800385594367981,-0.3324478566646576,-0.8644468188285828,0.22644346952438354,-0.04358971118927002
1.0893499433546219,0.7309857108587566,2.8896735910763214,-1.1391652822494507,-0.6405867338180542,3.0612893104553223,0.3091418743133545,-0.8863260746002197,-0.3447572886943817,-0.8712605237960815,0.1405373215675354,-0.12556427717208862
1.10011303663429,0.6670885152827943,2.9537325457022368,-0.990463376045227,-0.7512834668159485,2.8226916790008545,0.28057825565338135,-0.8912586569786072,-0.35627803206443787,-0.8880918025970459,0.06699395179748535,-0.22230464220046997
1.1088072327703982,0.6057788990150338,3.013530630855973,-0.8098475337028503,-0.8242066502571106,2.535557746887207,0.2537996768951416,-0.8951676487922668,-0.3664161264896393,-0.9476016759872437,-0.009556591510772705,-0.32628709077835083
1.1156598109568385,0.5495997220570913,3.0669613889063307,-0.6278632879257202,-0.8226870894432068,2.1743810176849365,0.2296154946088791,-0.898201048374176,-0.37484902143478394,-1.037492275238037,-0.1135636568069458,-0.4154493808746338
1.120797017021881,0.5010710712044285,3.1120820100634057,-0.46670418977737427,-0.7679980397224426,1.7573304176330566,0.20894210040569305,-0.900447428226471,-0.3814942240715027,-1.1321446895599365,-0.22938978672027588,-0.49390244483947754
1.124416679813492,0.461699511480997,-3.1355768732770604,-0.31969189643859863,-0.7096784710884094,1.306214451789856,0.19231079518795013,-0.9020159244537354,-0.38650214672088623,-1.2108961343765259,-0.3281171917915344,-0.5502805709838867
1.1267924436212886,0.43263760761824543,-3.110794359869998,-0.17643088102340698,-0.6233209371566772,0.8264960646629333,0.1800997406244278,-0.9030389785766602,-0.3899804949760437,-1.2736057043075562,-0.4010534882545471,-0.5756261348724365
1.1281489525338884,0.4148400143045713,-3.097304692033384,-0.05384596437215805,-0.5003655552864075,0.3410908877849579,0.17263703048229218,-0.9036208987236023,-0.39200258255004883,-1.3212883472442627,-0.44931501150131226,-0.5947527289390564
1.128596896984319,0.40859647883577194,-3.0951081952133377,0.06091737002134323,-0.34752196073532104,-0.13194483518600464,0.17002534866333008,-0.9038126468658447,-0.39270129799842834,-1.3463255167007446,-0.4724997282028198,-0.5889880657196045
1.1282385735851759,0.4139797547403305,-3.1038454512473086,0.17063894867897034,-0.15332916378974915,-0.5798431038856506,0.17226718366146088,-0.9036592841148376,-0.39207684993743896,-1.3491319417953491,-0.4710967540740967,-0.5622535347938538
1.1269756720809974,0.43060794000401503,-3.1227568505132637,0.2613845765590668,0.06593447178602219,-1.0014874935150146,0.17923875153064728,-0.9031177163124084,-0.3901948630809784,-1.3274627923965454,-0.4575849771499634,-0.5340909361839294
1.1245623262169842,0.4576338564961134,3.132472435701801,0.3384632170200348,0.28974243998527527,-1.3762521743774414,0.1906798779964447,-0.9020788073539734,-0.3871631324291229,-1.2720246315002441,-0.4358273148536682,-0.48225218057632446
1.1208903473874858,0.4933703185563579,3.0970140666564214,0.4176248610019684,0.46049660444259644,-1.6873282194137573,0.2059582620859146,-0.900488018989563,-0.38301771879196167,-1.1776533126831055,-0.39727210998535156,-0.41436073184013367
1.1159813911056748,0.5359240139065324,3.0555871483768735,0.5128133893013,0.599616527557373,-1.9504659175872803,0.22432026267051697,-0.8983423709869385,-0.37770551443099976,-1.0844125747680664,-0.3247870206832886,-0.3564710319042206
1.1097432456319867,0.5842461216071526,3.0091167242316974,0.6158415079116821,0.7314824461936951,-2.2007622718811035,0.2453891783952713,-0.8955844640731812,-0.3710966110229492,-1.0055516958236694,-0.2630612850189209,-0.308316171169281
1.1018824340016151,0.6375413447576689,2.9583910017321884,0.7062707543373108,0.860028862953186,-2.4352805614471436,0.2689912021160126,-0.8920596241950989,-0.36314377188682556,-0.9472140073776245,-0.2271878719329834,-0.26118478178977966
1.0919527440869274,0.6944569801608133,2.904545589832612,0.7674819231033325,0.9358442425727844,-2.6652441024780273,0.2948674261569977,-0.8875283598899841,-0.3540433645248413,-0.9041510224342346,-0.18707197904586792,-0.21365979313850403
1.079452961087865,0.7533229271493228,2.848795437350548,0.8025963306427002,0.9750232100486755,-2.897376775741577,0.3227499723434448,-0.8816998600959778,-0.3441482484340668,-0.8782615661621094,-0.14185988903045654,-0.15592801570892334
1.064005494961411,0.812868351554519,2.7922835116115676,0.8243842124938965,1.0123194456100464,-3.131467819213867,0.3525087535381317,-0.8743066787719727,-0.3336549699306488,-0.8493808507919312,-0.09839552640914917,-0.09214144945144653
1.045277101609331,0.8721917379189426,2.7359342797498543,0.8376352787017822,1.0535829067230225,-3.381798028945923,0.384143203496933,-0.8650636076927185,-0.32264411449432373,-0.8330111503601074,-0.03711247444152832,-0.040316641330718994
1.0230511331697087,0.930677223959993,2.6803582700040254,0.8662567734718323,1.090289831161499,-3.6399338245391846,0.41766539216041565,-0.8537009358406067,-0.3110474944114685,-0.8234119415283203,0.017229199409484863,-0.004717826843261719
0.9973998477239493,0.9874948062424675,2.6262913847136136,0.8955474495887756,1.1192553043365479,-3.8677074909210205,0.45278748869895935,-0.8400632739067078,-0.2987932562828064,-0.7850324511528015,0.06427574157714844,0.018123149871826172
0.96858022918724,1.0416519850991934,2.5747765737596047,0.9188863039016724,1.135581612586975,-4.05123233795166,0.4889993667602539,-0.8240823149681091,-0.28595128655433655,-0.7301493883132935,0.1414039134979248,0.044175803661346436
0.937013052045408,1.0923526147692446,2.5264806435896334,0.9370137453079224,1.1359081268310547,-4.185904502868652,0.5257014036178589,-0.8057928085327148,-0.27264681458473206,-0.6877192854881287,0.22304415702819824,0.07176491618156433
0.903043191882715,1.1393424669430647,2.4817906567685792,0.9451406598091125,1.157846450805664,-4.310844421386719,0.5624770522117615,-0.7852149605751038,-0.2589542269706726,-0.6361923217773438,0.28956353664398193,0.10282635688781738
0.866672226763649,1.1830820349537412,2.4404883262813675,0.9624117016792297,1.1990036964416504,-4.462090015411377,0.5993161797523499,-0.762178897857666,-0.24475204944610596,-0.6175963282585144,0.3524191975593567,0.12008781731128693
0.8278340283350202,1.2238537546995698,2.4021661048906835,0.9890115857124329,1.209208607673645,-4.622508525848389,0.6361662149429321,-0.7364678978919983,-0.2300170361995697,-0.5988890528678894,0.3897879719734192,0.12561649084091187
0.786709391264907,1.2614046905316882,2.3666273961655753,1.0184131860733032,1.159665822982788,-4.756587982177734,0.6726489663124084,-0.7080333232879639,-0.21501685678958893,-0.5408589243888855,0.4304300546646118,0.1400047093629837
0.7437707299934212,1.2952608845614921,2.3338423197229186,1.035306692123413,1.0711172819137573,-4.842955112457275,0.7081617116928101,-0.6770676970481873,-0.20021626353263855,-0.47708266973495483,0.48778223991394043,0.1567593365907669
0.6994698170836814,1.3253298418439328,2.3038343854144507,1.0411380529403687,0.9737018942832947,-4.890345573425293,0.742246687412262,-0.6438121199607849,-0.18594641983509064,-0.40209776163101196,0.5316597819328308,0.183627188205719
0.6542863124842586,1.3516653277268054,2.2765008424783426,1.0262409448623657,0.879909336566925,-4.890467166900635,0.7745077013969421,-0.6085931062698364,-0.17248840630054474,-0.3071311116218567,0.5686759948730469,0.21504522860050201
0.6088541894305242,1.3748395685681145,2.252004381177494,0.969290018081665,0.8675784468650818,-4.829189777374268,0.8046048283576965,-0.5719279050827026,-0.15971733629703522,-0.2327512502670288,0.6318490505218506,0.23736943304538727
0.5635850233237109,1.3952733394775534,2.2305434110285134,0.872690737247467,0.8453232049942017,-4.745254039764404,0.8323571681976318,-0.5342202186584473,-0.14761687815189362,-0.15378350019454956,0.6576788425445557,0.253024697303772
0.5186718863156405,1.4131279490684634,2.212116015078973,0.7569427490234375,0.8294078707695007,-4.651262283325195,0.8577058911323547,-0.49572715163230896,-0.13636495172977448,-0.10259419679641724,0.6606744527816772,0.25822174549102783
0.47435400420393614,1.4289353408658843,2.1964027540882425,0.6566534638404846,0.8404054045677185,-4.540337085723877,0.8806518316268921,-0.4567638635635376,-0.12577499449253082,-0.04653012752532959,0.6581339240074158,0.24764704704284668
0.43088434184279406,1.4432744197088707,2.1829809646912404,0.5718076229095459,0.8553189635276794,-4.409919261932373,0.9012191891670227,-0.4176744818687439,-0.11555223166942596,0.02761387825012207,0.6575882434844971,0.22538506984710693
0.38860447935402953,1.456436009937408,2.171600994837847,0.47992372512817383,0.8741315007209778,-4.249081134796143,0.9193939566612244,-0.3788973093032837,-0.10560294985771179,0.09562075138092041,0.6651061773300171,0.21551209688186646
0.34772111637376757,1.4686339278214549,2.162193003304675,0.38285356760025024,0.8881089091300964,-4.0825700759887695,0.9352499842643738,-0.34075620770454407,-0.09588118642568588,0.16912031173706055,0.6557431221008301,0.21053580939769745
0.3083103093600716,1.4800284974613478,2.1544783464075934,0.3175952136516571,0.8925198912620544,-3.9160306453704834,0.9489253759384155,-0.3034490644931793,-0.08636921644210815,0.23427176475524902,0.6422855257987976,0.19971156120300293
0.2706055174342522,1.4907744687291138,2.1479395319399877,0.2941504120826721,0.8865607380867004,-3.713108777999878,0.9605258107185364,-0.26731497049331665,-0.07702754437923431,0.30923449993133545,0.638942539691925,0.17541629076004028
0.23508868948959838,1.5010032675625116,2.1422299140546586,0.27552878856658936,0.8775520324707031,-3.458763360977173,0.9701263308525085,-0.23292922973632812,-0.06781823188066483,0.4131135940551758,0.639240026473999,0.15866917371749878
0.20219489213791753,1.5107036261658546,2.137422731122729,0.23239682614803314,0.8504691123962402,-3.175762176513672,0.9778600931167603,-0.2008199840784073,-0.05883308872580528,0.5232539772987366,0.6377552151679993,0.16575151681900024
0.17209183558489388,1.5196703633576498,2.133634116852048,0.17690347135066986,0.8022158145904541,-2.884643793106079,0.9839416742324829,-0.17124365270137787,-0.05034884065389633,0.6200624704360962,0.6261231899261475,0.1802164912223816
0.1449575010407255,1.5278709405414277,2.1307398308705534,0.14534831047058105,0.7480274438858032,-2.5671825408935547,0.9886006712913513,-0.144450381398201,-0.042462147772312164,0.703522801399231,0.612788200378418,0.18108832836151123
0.12113464808609967,1.5353342602255255,2.1283451310305654,0.14720159769058228,0.6821192502975464,-2.2177300453186035,0.9920480251312256,-0.12083861976861954,-0.03519482910633087,0.7901632189750671,0.600391685962677,0.16899925470352173
0.10089748521509123,1.5420184998568605,2.126141029237407,0.15982791781425476,0.6096821427345276,-1.8495146036148071,0.9945023655891418,-0.10072638094425201,-0.02862752042710781,0.8592727780342102,0.5901671051979065,0.15056061744689941
0.08418901394354467,1.547830659482567,2.1241077605046956,0.1569000482559204,0.5125084519386292,-1.5133675336837769,0.9961955547332764,-0.08408959954977036,-0.02288231812417507,0.9140828847885132,0.5739117860794067,0.1460360884666443
0.0706544573019786,1.5524018687223682,2.122255700348496,0.15831328928470612,0.3679691553115845,-1.2040833234786987,0.9973364472389221,-0.07059568911790848,-0.01834753341972828,0.9589472413063049,0.5554587841033936,0.1484898328781128
0.060364062593378155,1.555294838352856,2.120361046407167,0.18912552297115326,0.18668615818023682,-0.8519694209098816,0.9980589151382446,-0.06032741069793701,-0.015472638420760632,1.03346586227417,0.5480286478996277,0.15257292985916138
0.05399616179729179,1.5563467444919907,2.1181328199874576,0.23916974663734436,-0.0003058752045035362,-0.4184134006500244,0.9984384775161743,-0.05396992713212967,-0.014428023248910904,1.1373496055603027,0.5616754293441772,0.14646244049072266
0.05227710715293935,1.5557350169193873,2.1154944779161533,0.2787781357765198,-0.1398259550333023,0.0708359107375145,0.9985206127166748,-0.052253298461437225,-0.01504016574472189,1.2145836353302002,0.584037184715271,0.13685119152069092
0.05552311591840838,1.5541440863953622,2.112830625199966,0.25692442059516907,-0.20124340057373047,0.5696312785148621,0.9983206391334534,-0.05549459159374237,-0.016625812277197838,1.244462013244629,0.5967084169387817,0.14096975326538086
0.06370620709344373,1.552046335733968,2.1107723951279986,0.17748604714870453,-0.24117004871368408,1.063225269317627,0.9977961182594299,-0.06366312503814697,-0.01871086098253727,1.2411260604858398,0.5869020819664001,0.16336429119110107
0.07678279393135898,1.5496343594083344,2.1097452718588516,0.08212724328041077,-0.25141096115112305,1.5493441820144653,0.9968304634094238,-0.0767073705792427,-0.021098043769598007,1.2053332328796387,0.5760510563850403,0.18595409393310547
0.09456984510687867,1.5471071519864164,2.109721105532974,0.007821053266525269,-0.25716763734817505,2.0102319717407227,0.9952523708343506,-0.09442894160747528,-0.023581119254231453,1.1452505588531494,0.5728986263275146,0.18881863355636597
0.1166635906193686,1.544289449372989,2.1103994019934023,-0.028502847999334335,-0.29752132296562195,2.409148931503296,0.9928537011146545,-0.1163991317152977,-0.02632361650466919,1.0610098838806152,0.5694323778152466,0.17347949743270874
0.1423505138623586,1.5409040928351239,2.111523782523224,-0.046859752386808395,-0.35523521900177,2.73358416557312,0.9894430637359619,-0.14187024533748627,-0.029585476964712143,0.9549539089202881,0.5637755990028381,0.1592090129852295
0.17099911422190808,1.53665609365717,2.1129958879656274,-0.059549689292907715,-0.4559805691242218,3.0079774856567383,0.9848411679267883,-0.1701669692993164,-0.03363577648997307,0.839911699295044,0.5552375912666321,0.17003417015075684
0.20226297516734637,1.5311196356913663,2.1147929779752626,-0.06199047714471817,-0.5878626704216003,3.263275384902954,0.9788437485694885,-0.20088668167591095,-0.03885767608880997,0.7497330904006958,0.5503585338592529,0.19664889574050903
0.2360043341230263,1.524155812216584,2.116932452267725,-0.06724860519170761,-0.7124178409576416,3.5055465698242188,0.9712228178977966,-0.2338196039199829,-0.0453312061727047,0.6679373979568481,0.5640501379966736,0.22282153367996216
0.27202714566549385,1.5157697777992543,2.1196486057896724,-0.09535960108041763,-0.8299682140350342,3.7275986671447754,0.9617702960968018,-0.26868459582328796,-0.05297638103365898,0.5848605036735535,0.581794798374176,0.25013530254364014
0.3100845818632421,1.5058902664514844,2.1233438442593684,-0.1624497026205063,-0.9285991191864014,3.9263525009155273,0.9503027200698853,-0.3051391839981079,-0.06176716834306717,0.5004724860191345,0.5904935598373413,0.2893521189689636
0.3499876650587494,1.494530203221091,2.128626197611134,-0.2769501805305481,-1.0050522089004517,4.117272853851318,0.936646580696106,-0.34288620948791504,-0.07157322764396667,0.42585664987564087,0.6029415130615234,0.33776289224624634
0.39157425796878526,1.4813934816934569,2.1360061165158912,-0.4062040448188782,-1.0873839855194092,4.2995100021362305,0.9206181764602661,-0.38164398074150085,-0.08252587169408798,0.3618527054786682,0.6209626197814941,0.38042330741882324
0.4347662269886552,1.4664179187169806,2.1456658716871786,-0.51970374584198,-1.1291029453277588,4.4863691329956055,0.9020325541496277,-0.42119839787483215,-0.09449614584445953,0.2911742925643921,0.6511023640632629,0.3979325294494629
0.4795287088537102,1.449720876388239,2.1577215711021047,-0.6246547102928162,-1.1462574005126953,4.661166667938232,0.8807176351547241,-0.4613610804080963,-0.10715741664171219,0.23035109043121338,0.6904868483543396,0.39799004793167114
0.5254189664563746,1.431247054987575,2.1723585950571227,-0.7294954061508179,-1.1389381885528564,4.783664703369141,0.8567041754722595,-0.5015755295753479,-0.12033458799123764,0.16281187534332275,0.7258031964302063,0.3910103440284729
0.5719140572743605,1.4107180874717338,2.1897430909765703,-0.8173244595527649,-1.1640348434448242,4.8685503005981445,0.8301161527633667,-0.5412424802780151,-0.1340303272008896,0.08818835020065308,0.7416512370109558,0.38412195444107056
0.61872831083947,1.3874321022981277,2.2100279064476047,-0.8931829929351807,-1.2182445526123047,4.944964408874512,0.8009604215621948,-0.5799996852874756,-0.14853595197200775,0.037067532539367676,0.7577949166297913,0.3767617344856262
0.6655645769133346,1.3611213655084127,2.233401519839949,-0.9491558074951172,-1.242957592010498,4.9851155281066895,0.7693415284156799,-0.61750328540802,-0.16371792554855347,-0.02256113290786743,0.7913007140159607,0.36817049980163574
0.7120670763723099,1.3317438775164425,2.259942581794764,-0.9781922101974487,-1.2665095329284668,5.017144680023193,0.7354855537414551,-0.6533999443054199,-0.17924712598323822,-0.06986677646636963,0.8181184530258179,0.3598502278327942
0.7584231864878317,1.2986497291546646,2.2900187402605545,-0.9990785717964172,-1.321241021156311,5.1049323081970215,0.6992048621177673,-0.6877776384353638,-0.195127472281456,-0.08136123418807983,0.8452481627464294,0.35239988565444946
0.8049097223738098,1.2609453723839452,2.324426265272502,-1.0163451433181763,-1.3759615421295166,5.220784664154053,0.6601667404174805,-0.7207680940628052,-0.2113610804080963,-0.08782488107681274,0.8903845548629761,0.3534815311431885
0.8513658668262518,1.2177485854908598,2.3641622807090585,-1.0508204698562622,-1.4065062999725342,5.3277130126953125,0.6183143258094788,-0.7521811723709106,-0.22784027457237244,-0.12054210901260376,0.9163197875022888,0.3504599928855896
0.8970590366112712,1.168201439448875,2.410485975827237,-1.1091843843460083,-1.392019271850586,5.364704132080078,0.5740278363227844,-0.7814953923225403,-0.2444528043270111,-0.1886671781539917,0.8926860094070435,0.33573096990585327
0.9407330650579626,1.1117534525206396,2.4642697127769932,-1.178955316543579,-1.3434439897537231,5.305897235870361,0.5282008051872253,-0.8079902529716492,-0.26106709241867065,-0.2932918071746826,0.8377752304077148,0.30330348014831543
0.9812248013131804,1.0479771548786945,2.5261105433174142,-1.2545435428619385,-1.2759854793548584,5.192089557647705,0.4817310869693756,-0.8311789631843567,-0.27762705087661743,-0.39715173840522766,0.7577230334281921,0.2629634439945221
1.0177940175322775,0.9763521342475245,2.5963192225342264,-1.312808871269226,-1.2526590824127197,5.058961868286133,0.4351440668106079,-0.8509514331817627,-0.2941623628139496,-0.4783875644207001,0.6806326508522034,0.22304123640060425
1.0500164066592328,0.8960760032860811,2.6748319497733344,-1.3363174200057983,-1.3186330795288086,4.902702331542969,0.38853317499160767,-0.8674314022064209,-0.31081339716911316,-0.5345140695571899,0.6041408181190491,0.16820484399795532
1.0773451704749926,0.8075351251370512,2.760463358067013,-1.3257449865341187,-1.4157463312149048,4.693648815155029,0.34226587414741516,-0.8807033896446228,-0.32743823528289795,-0.6072043180465698,0.5087245106697083,0.10475152730941772
1.0992704278998506,0.7129218225519439,2.8509906217615573,-1.289859652519226,-1.465133786201477,4.4176716804504395,0.2970983684062958,-0.8908761739730835,-0.3436165153980255,-0.7181037664413452,0.40639424324035645,0.035312771797180176
1.1155020127169235,0.6157569446411522,2.9430523095992775,-1.2312208414077759,-1.4963864088058472,4.065094470977783,0.2539759576320648,-0.8981316685676575,-0.35896506905555725,-0.8560726642608643,0.30667030811309814,-0.044919729232788086
1.1262242486384577,0.5202230220137626,3.0325084629787913,-1.150604248046875,-1.4974557161331177,3.6524624824523926,0.2137773185968399,-0.9027947783470154,-0.37317681312561035,-1.0175341367721558,0.19442063570022583,-0.13777893781661987
1.132109624228138,0.43055577840702347,3.1153291791905513,-1.0458488464355469,-1.4581633806228638,3.1802690029144287,0.17728084325790405,-0.9053102731704712,-0.3859856426715851,-1.1719251871109009,0.07005935907363892,-0.23910579085350037
1.1341292648869445,0.3512467553235502,-3.0958254463556814,-0.9056463837623596,-1.3496451377868652,2.6169207096099854,0.1455141305923462,-0.9061662554740906,-0.397100031375885,-1.3370578289031982,-0.048026978969573975,-0.3446449041366577
1.1336236799378774,0.28633888710975575,-3.0380758430682318,-0.7218284010887146,-1.1652367115020752,1.9926114082336426,0.11958026140928268,-0.9059523344039917,-0.40614157915115356,-1.5154544115066528,-0.17044848203659058,-0.4673324525356293
1.1319882095348526,0.23819425151060714,-2.996672812427138,-0.5034478902816772,-0.9661738872528076,1.3151525259017944,0.1002451702952385,-0.9052587151527405,-0.41286516189575195,-1.6552075147628784,-0.2861781120300293,-0.569175124168396
1.1304345452707605,0.20781788269524742,-2.972546026106747,-0.25171083211898804,-0.743198573589325,0.6219111680984497,0.08794959634542465,-0.9045975208282471,-0.41709503531455994,-1.7628765106201172,-0.3637436628341675,-0.6385536193847656
1.1298676169859527,0.1952387340666288,-2.96556861164935,0.02322007715702057,-0.5157747268676758,-0.058555785566568375,0.08279555290937424,-0.9043557047843933,-0.4186713695526123,-1.8113571405410767,-0.40132367610931396,-0.6809531450271606
1.130727545776014,0.19986260059994224,-2.9751737298986134,0.30474913120269775,-0.29796114563941956,-0.707612156867981,0.08457612246274948,-0.9047223925590515,-0.41752171516418457,-1.7966734170913696,-0.41023439168930054,-0.6955305933952332
1.1328325535455532,0.22095318226867697,-3.0003510815085668,0.5489077568054199,-0.036123134195804596,-1.2919083833694458,0.09294486045837402,-0.9056171178817749,-0.41378623247146606,-1.737247347831726,-0.40529608726501465,-0.6736313104629517
1.1354673404515938,0.25720765106626586,-3.039273809044702,0.7362107038497925,0.22970925271511078,-1.7729917764663696,0.10727475583553314,-0.906731367111206,-0.407836377620697,-1.6235255002975464,-0.378867506980896,-0.6072087287902832
1.1376859768005605,0.30620581279422515,-3.089375967650617,0.8579856157302856,0.4813700020313263,-2.1481447219848633,0.12651444971561432,-0.9076647162437439,-0.4001734256744385,-1.4760935306549072,-0.3203168511390686,-0.5093265771865845
1.1385428923323824,0.3656030486980031,3.1349897450066138,0.9272677898406982,0.7143118977546692,-2.453639030456543,0.14976851642131805,-0.9080240726470947,-0.3912312090396881,-1.321781039237976,-0.2620962858200073,-0.3992502987384796
1.1372186198491232,0.43299931216681026,3.069570512875184,0.9613653421401978,0.8830791115760803,-2.708651304244995,0.17628048360347748,-0.9074684977531433,-0.38134798407554626,-1.1889606714248657,-0.20237964391708374,-0.2991939187049866
1.1330606343627783,0.5058066310140055,2.999716518086652,0.9650309681892395,1.0109241008758545,-2.9362449645996094,0.20538029074668884,-0.9057137966156006,-0.3708121180534363,-1.0841951370239258,-0.13394391536712646,-0.20947954058647156
1.1255147858515762,0.5820262645169717,2.927017399076161,0.9609949588775635,1.0817625522613525,-3.1731340885162354,0.23677018284797668,-0.902489423751831,-0.3597957491874695,-0.9957576990127563,-0.083854079246521,-0.11940646171569824
1.1141887747558619,0.6597355794370013,2.8529228855881157,0.9573463797569275,1.125597357749939,-3.40712571144104,0.2702347934246063,-0.8975533843040466,-0.3483837842941284,-0.9296587109565735,-0.03900068998336792,-0.05827814340591431
1.0988604640542337,0.7371727928685292,2.7790609724914184,0.9552826881408691,1.1517912149429321,-3.641292095184326,0.30558887124061584,-0.8906899094581604,-0.336581826210022,-0.874161958694458,0.009158849716186523,-0.01726946234703064
1.0795544664708536,0.8126642717602125,2.7069010592018303,0.9704720973968506,1.160715937614441,-3.8425731658935547,0.34252721071243286,-0.8817477226257324,-0.3243398368358612,-0.8168772459030151,0.049807846546173096,0.005415976047515869
1.0566002675177886,0.8848474145882955,2.6379016706714786,0.9905505180358887,1.1829391717910767,-4.006122589111328,0.3805912435054779,-0.8706884384155273,-0.31153225898742676,-0.7599705457687378,0.11870449781417847,0.022286683320999146
1.0303105967322932,0.9527625771700351,2.5730535191077304,1.0115288496017456,1.1913343667984009,-4.14405632019043,0.41937047243118286,-0.8574588298797607,-0.2981492578983307,-0.7117747068405151,0.19158035516738892,0.041496455669403076
1.0009198410275202,1.0158037122195587,2.5129228737657257,1.0153942108154297,1.203059434890747,-4.275585651397705,0.45854753255844116,-0.8419676423072815,-0.28429749608039856,-0.6774959564208984,0.24937701225280762,0.061565011739730835
0.9684325756106414,1.0740134321679498,2.457714403096648,1.0063140392303467,1.2446510791778564,-4.42204475402832,0.498102605342865,-0.8239986300468445,-0.2700376510620117,-0.6543068885803223,0.29596805572509766,0.0921812653541565
0.9330035628380083,1.1275019825771762,2.4076584231208957,0.9685341119766235,1.3068854808807373,-4.540733337402344,0.5378721952438354,-0.8034119606018066,-0.2553877830505371,-0.6198729872703552,0.3309844136238098,0.11786037683486938
0.8948563766140091,1.1761513008678552,2.3630622718076317,0.9051649570465088,1.3557413816452026,-4.660282135009766,0.5775408148765564,-0.7801192402839661,-0.24054297804832458,-0.5835527777671814,0.3805980682373047,0.15715375542640686
0.8541744435781142,1.2199703347242823,2.3237180495158642,0.8348891735076904,1.3682805299758911,-4.769162178039551,0.6168326139450073,-0.7540289163589478,-0.2257390320301056,-0.5638083815574646,0.4160770773887634,0.19044554233551025
0.8113591549221918,1.2590661365126514,2.289331139007921,0.7580072283744812,1.3635214567184448,-4.84564208984375,0.6553303003311157,-0.7252236604690552,-0.2111711949110031,-0.5199695825576782,0.4474982023239136,0.21700012683868408
0.7667839408094226,1.2939032150937877,2.2594311596880803,0.694271445274353,1.3618566989898682,-4.926025867462158,0.6927151679992676,-0.6938228011131287,-0.19686517119407654,-0.47637611627578735,0.5012108683586121,0.2490808367729187
0.7206839793200043,1.3252035177429444,2.233155005865863,0.6669331192970276,1.3419348001480103,-4.99037504196167,0.7288091778755188,-0.6598987579345703,-0.18267793953418732,-0.4302404522895813,0.5328691005706787,0.2531126141548157
0.6736028263799173,1.353372971013099,2.209852787027908,0.6564189791679382,1.2989099025726318,-5.003491401672363,0.763178288936615,-0.6238059401512146,-0.16859790682792664,-0.3527626395225525,0.5506246089935303,0.2424200177192688
0.6261982260875306,1.3786839196887866,2.1890985531106457,0.6551015377044678,1.2597635984420776,-4.963512420654297,0.7953552007675171,-0.5860685706138611,-0.15470555424690247,-0.28540658950805664,0.5837491154670715,0.22922958433628082
0.5788225823914593,1.401760942330003,2.1706590121316545,0.6329625248908997,1.2766482830047607,-4.923908233642578,0.8251765966415405,-0.5470386743545532,-0.14082789421081543,-0.24155843257904053,0.5889086723327637,0.2141159325838089
0.5313321945238412,1.4233499158999245,2.154499624376932,0.5790756344795227,1.3429704904556274,-4.9082207679748535,0.8527783751487732,-0.5066823363304138,-0.12665832042694092,-0.2129773497581482,0.5708910822868347,0.2131299376487732
0.48351557856137095,1.4436822800720417,2.140723310662943,0.4994058310985565,1.3820773363113403,-4.9117560386657715,0.8782228827476501,-0.4648946225643158,-0.11223963648080826,-0.17628806829452515,0.5538836717605591,0.22228610515594482
0.435435011011038,1.462643450400834,2.129251199826651,0.42027372121810913,1.3934334516525269,-4.89068603515625,0.9013892412185669,-0.42180484533309937,-0.09786973148584366,-0.12288570404052734,0.5516721606254578,0.23135368525981903
0.3876474922626921,1.4801659984668913,2.119774334200707,0.36211639642715454,1.352001667022705,-4.795378684997559,0.9220014810562134,-0.3780114948749542,-0.0837908387184143,-0.025883197784423828,0.5708060264587402,0.23634833097457886
0.3411972185645556,1.496107921485637,2.11202487088571,0.31477391719818115,1.2850921154022217,-4.587547302246094,0.9397277235984802,-0.3346155285835266,-0.07031756639480591,0.10952770709991455,0.6074424982070923,0.24219268560409546
0.2969371578167171,1.5105903928117423,2.105824824147256,0.26411446928977966,1.2309843301773071,-4.339145660400391,0.9545049071311951,-0.2925927937030792,-0.05753639340400696,0.24266940355300903,0.6423850059509277,0.24624192714691162
0.25507031200857155,1.5240613820442208,2.100937822738983,0.2279123216867447,1.2011501789093018,-4.084929466247559,0.9665891528129578,-0.25231343507766724,-0.04520640894770622,0.330407977104187,0.6417633295059204,0.2364906668663025
0.21579008453653356,1.5368473691930156,2.097151756313452,0.19015057384967804,1.1836766004562378,-3.806734800338745,0.9762449264526367,-0.21411925554275513,-0.03315523639321327,0.4074222445487976,0.6155625581741333,0.21124064922332764
0.1791484512143867,1.5491627479844516,2.0943849112390707,0.14979320764541626,1.1753088235855103,-3.550391435623169,0.9837658405303955,-0.17819172143936157,-0.02128569595515728,0.4819784164428711,0.6021875143051147,0.2005765438079834
0.1450286108543744,1.561067583401782,2.092434199196794,0.13195481896400452,1.139749526977539,-3.284670352935791,0.9894550442695618,-0.14452074468135834,-0.009626458398997784,0.548569917678833,0.5951278209686279,0.1938764452934265
0.11389350434117504,1.5721690935872945,2.091005851776461,0.12486936897039413,1.0364995002746582,-2.942666530609131,0.9935204386711121,-0.11364743113517761,0.0013638727832585573,0.6720375418663025,0.5879056453704834,0.19094276428222656
0.08652097331527211,1.5818647499041745,2.089929039576476,0.12765957415103912,0.8827685117721558,-2.5373551845550537,0.9961985349655151,-0.08641306310892105,0.011026796884834766,0.8209860324859619,0.595369815826416,0.19093859195709229
0.06327026832477682,1.5899892086947816,2.088895439889422,0.1506461799144745,0.7295767068862915,-2.116617441177368,0.9978155493736267,-0.0632280632853508,0.019153308123350143,0.9433315396308899,0.6118729114532471,0.18449056148529053
0.044263950599075765,1.5965183758171866,2.087678457598733,0.1777382493019104,0.5624343156814575,-1.6846845149993896,0.9986902475357056,-0.04424949735403061,0.025694025680422783,1.0392889976501465,0.6115253567695618,0.1755847930908203
0.029554607046241285,1.6013507432268954,2.0862898460898434,0.18132992088794708,0.39962533116340637,-1.2545928955078125,0.9990970492362976,-0.029550304636359215,0.030536329373717308,1.1071653366088867,0.5963073372840881,0.17020845413208008
0.019189745160705915,1.6046970464526416,2.0848403765335006,0.17503073811531067,0.2673514485359192,-0.8089466094970703,0.9992416501045227,-0.019188567996025085,0.033887993544340134,1.1509814262390137,0.5847554206848145,0.1759815216064453
0.013438619536036464,1.6067639299726135,2.083374566678396,0.156560480594635,0.1423279345035553,-0.330739289522171,0.9992631077766418,-0.013438215479254723,0.03595660626888275,1.188755750656128,0.5801647305488586,0.1707848310470581
0.01247064674699546,1.6076331249038565,2.081953644098065,0.1364898383617401,0.030691681429743767,0.1461617350578308,0.9992441534996033,-0.012470323592424393,0.03682561218738556,1.2071311473846436,0.5684546232223511,0.1457916498184204
0.016091109561491818,1.6073584598957342,2.0805061921594943,0.12686805427074432,-0.08823926746845245,0.5846357941627502,0.9992024898529053,-0.01609041541814804,0.03654926270246506,1.1843913793563843,0.5495985746383667,0.11471116542816162
0.02379808509599492,1.6060502952192117,2.0789772421594757,0.12673410773277283,-0.17740614712238312,0.9598871469497681,0.9990958571434021,-0.02379583939909935,0.03523669391870499,1.1313822269439697,0.5160747170448303,0.08184409141540527
0.034934426419225444,1.6038906294531656,2.077176610576369,0.1645999401807785,-0.2673264443874359,1.2765488624572754,0.998842716217041,-0.03492731973528862,0.03306807577610016,1.070065975189209,0.4884488880634308,0.06266570091247559
0.04911581274074599,1.6007863036045975,2.074712299698584,0.24271444976329803,-0.37516528367996216,1.5797632932662964,0.9983450770378113,-0.04909606650471687,0.02994932420551777,1.011542797088623,0.48146894574165344,0.051593780517578125
0.0663368530849912,1.5966929225331612,2.0713473033014096,0.3311833441257477,-0.4852428436279297,1.8884727954864502,0.9974662065505981,-0.06628821045160294,0.025836754590272903,0.9682780504226685,0.490940123796463,0.056621912866830826
0.08666320502278886,1.591626921951652,2.0672525165072058,0.3849879801273346,-0.5918965935707092,2.2005059719085693,0.9960310459136963,-0.08655476570129395,0.020750921219587326,0.919633686542511,0.5124121308326721,0.07945370674133301
0.11009881159603165,1.5856495513512845,2.062976178207204,0.375306636095047,-0.6868319511413574,2.5087392330169678,0.9938356876373291,-0.10987651348114014,0.014762749895453453,0.8738859295845032,0.5312172770500183,0.12641167640686035
0.13661842105528488,1.5788139424342222,2.059255443250967,0.2952512204647064,-0.7703369855880737,2.8140757083892822,0.990650475025177,-0.13619382679462433,0.007942825555801392,0.8243520259857178,0.5445340871810913,0.18334150314331055
0.16623386597036197,1.5712238269205485,2.0568238145832196,0.15417753159999847,-0.8196747899055481,3.120781660079956,0.9862148761749268,-0.16546931862831116,0.0004216069937683642,0.7667300701141357,0.5559110641479492,0.24925804138183594
0.19890872661142914,1.5630158567376982,2.0562930404227457,-0.025456681847572327,-0.842395544052124,3.42415452003479,0.980253279209137,-0.19759969413280487,-0.00762698519974947,0.7097645401954651,0.5698224306106567,0.31423717737197876
0.23450666902363126,1.554165818111111,2.05785746776331,-0.1874367594718933,-0.8650210499763489,3.70729398727417,0.972494900226593,-0.23236317932605743,-0.016174575313925743,0.6443724036216736,0.5910513401031494,0.34846532344818115
0.2726648559000761,1.5445443172667632,2.061239640274617,-0.29698193073272705,-0.8895098567008972,3.9457011222839355,0.962725043296814,-0.269298791885376,-0.025279274210333824,0.5659158229827881,0.6147423386573792,0.3461717367172241
0.3129601429005243,1.5341699516686618,2.065953224056068,-0.34724846482276917,-0.9172260761260986,4.150208473205566,0.9507882595062256,-0.3078763484954834,-0.034839507192373276,0.47917377948760986,0.6375118494033813,0.3273811340332031
0.3551976298323574,1.5229868002164744,2.0716551290849017,-0.37328779697418213,-0.9475237727165222,4.3503594398498535,0.9365065097808838,-0.3477756679058075,-0.044808078557252884,0.4002854824066162,0.6593294143676758,0.29877549409866333
0.3992572628831537,1.510858507959295,2.0783251567888,-0.3907332122325897,-0.9948886036872864,4.525912284851074,0.9196955561637878,-0.3887341320514679,-0.05519065260887146,0.33541613817214966,0.6918193101882935,0.2825924754142761
0.4448055956111867,1.4974762093982934,2.0860005570221674,-0.40191397070884705,-1.0536478757858276,4.672023773193359,0.9002690315246582,-0.4302824139595032,-0.06612636893987656,0.25981080532073975,0.7236172556877136,0.2764993906021118
0.4916786140296622,1.4827401154251254,2.0948734326679865,-0.42686209082603455,-1.0924161672592163,4.8140130043029785,0.8781261444091797,-0.47210630774497986,-0.07752493768930435,0.18901240825653076,0.7412254214286804,0.2802990674972534
0.5397315231758554,1.4664829550247223,2.1054301724057396,-0.48399782180786133,-1.1188075542449951,4.94281005859375,0.8531838059425354,-0.5139057040214539,-0.08932269364595413,0.1341056227684021,0.7657670974731445,0.3006875514984131
0.5888143062419929,1.4484868155571216,2.118318798901045,-0.5765565037727356,-1.0957244634628296,5.0714240074157715,0.8253874182701111,-0.5553753972053528,-0.10145916044712067,0.07294321060180664,0.7931071519851685,0.3279759883880615
0.6387222993428072,1.4286364195774153,2.134220282496743,-0.6858180165290833,-1.0452958345413208,5.182999134063721,0.7947591543197632,-0.5961701273918152,-0.11375019699335098,0.011576175689697266,0.8130125999450684,0.34801846742630005
0.6892307828189248,1.4064232417345002,2.153560222026501,-0.7839062809944153,-1.0153164863586426,5.278342247009277,0.7613334059715271,-0.6359437108039856,-0.12628208100795746,-0.049373626708984375,0.818133533000946,0.3420261740684509
0.739981578943893,1.3812704460323408,2.17663691433999,-0.8609512448310852,-0.9955361485481262,5.337680816650391,0.7252575755119324,-0.6742743253707886,-0.13912487030029297,-0.10590338706970215,0.8144108653068542,0.31908708810806274
0.7904664376622407,1.3525921423005542,2.203687832283118,-0.917026162147522,-0.9976527094841003,5.349604606628418,0.6868321895599365,-0.7106814980506897,-0.15229442715644836,-0.1831701397895813,0.8003267049789429,0.286648154258728
0.8400251619760996,1.3198053571130761,2.2349675561080122,-0.9522283673286438,-1.0071206092834473,5.297588348388672,0.6465309262275696,-0.7446599006652832,-0.1657690852880478,-0.26768583059310913,0.7704166173934937,0.24535901844501495
0.8878933533639005,1.2825342012109107,2.2706423737690256,-0.9646790623664856,-1.0277847051620483,5.171783924102783,0.6050102710723877,-0.7757440805435181,-0.1793983429670334,-0.35690248012542725,0.7285943031311035,0.20465172827243805
0.9332778478451981,1.2403853582366506,2.310628783945678,-0.9447586536407471,-1.0918920040130615,4.979310035705566,0.5630082488059998,-0.8035752177238464,-0.1931028962135315,-0.4377795457839966,0.6673751473426819,0.15936578810214996
0.9756619748988331,1.1930846341944477,2.354780633537738,-0.9076440930366516,-1.1608984470367432,4.757178783416748,0.5211026668548584,-0.8280732035636902,-0.20675361156463623,-0.4982298016548157,0.5900359153747559,0.1169862151145935
1.0149018095641833,1.1404561559673185,2.4034369578296166,-0.8849521279335022,-1.2017301321029663,4.561201572418213,0.479589581489563,-0.8494287133216858,-0.22014735639095306,-0.531728982925415,0.5177329778671265,0.09052401781082153
1.0510667396464293,1.0819255423281,2.457457775037661,-0.8724769353866577,-1.226020097732544,4.396271705627441,0.4384704530239105,-0.8679535388946533,-0.2332393378019333,-0.53940749168396,0.4521512985229492,0.07724881172180176
1.084097590993867,1.0171330474321532,2.5175409431887514,-0.8693538308143616,-1.2023323774337769,4.24200963973999,0.39783668518066406,-0.883881688117981,-0.24592548608779907,-0.5463811159133911,0.38610929250717163,0.05525171756744385
1.1138272335942274,0.9461470585025652,2.584225466990958,-0.8728926777839661,-1.1118934154510498,4.08630895614624,0.35791224241256714,-0.8973939418792725,-0.2580372989177704,-0.5603659749031067,0.30983883142471313,0.012706577777862549
1.1399198925968956,0.8695297076557232,2.657562375731694,-0.8859390020370483,-0.9610847234725952,3.913688898086548,0.31910866498947144,-0.9086000323295593,-0.26947319507598877,-0.5891740918159485,0.2338104248046875,-0.03103327751159668
1.1620152087462445,0.7883086067179796,2.736954825025957,-0.9030438661575317,-0.7867708206176758,3.728471040725708,0.2818855941295624,-0.917605996131897,-0.2802495062351227,-0.6315866708755493,0.1776614785194397,-0.05999085307121277
1.1799994300139698,0.703541901283467,2.8211810045860317,-0.9080747961997986,-0.6583617329597473,3.538064956665039,0.24642938375473022,-0.9246057868003845,-0.2904769480228424,-0.6809998154640198,0.14007502794265747,-0.07657313346862793
1.193941822164336,0.6166415496252461,2.9082463242555376,-0.8887537121772766,-0.5811571478843689,3.3274338245391846,0.2128126174211502,-0.9298267960548401,-0.3002219498157501,-0.7301009893417358,0.11103999614715576,-0.08526074886322021
1.2040084520420877,0.5302210637778837,2.9949520423202225,-0.8385549783706665,-0.5543588399887085,3.0550122261047363,0.18136240541934967,-0.9334840774536133,-0.3093791902065277,-0.797817587852478,0.07450556755065918,-0.10009035468101501
1.2104927450546703,0.4478711052833641,3.077141608334803,-0.7647473812103271,-0.5542665123939514,2.713595390319824,0.15267471969127655,-0.9357898235321045,-0.31778624653816223,-0.8877517580986023,0.007307648658752441,-0.1306694746017456
1.2138754487781132,0.37300601233932285,-3.1319778399660696,-0.6936207413673401,-0.5475109219551086,2.3239452838897705,0.12732379138469696,-0.9369770884513855,-0.32536548376083374,-0.9928025007247925,-0.06746333837509155,-0.1648992896080017
1.2146801117968689,0.3085250051850923,-3.0689837111411764,-0.6235376000404358,-0.545864462852478,1.8729947805404663,0.10586484521627426,-0.9372579455375671,-0.3321751058101654,-1.1048274040222168,-0.12376207113265991,-0.18346503376960754
1.2136610638203016,0.2570592563733324,-3.0198873300612874,-0.5279852151870728,-0.5430939793586731,1.3622125387191772,0.08887942135334015,-0.9369021654129028,-0.33810508251190186,-1.2210359573364258,-0.17412090301513672,-0.20144563913345337
1.211695504557659,0.22054021146264885,-2.986488710848759,-0.4069591462612152,-0.4978336691856384,0.8208819627761841,0.07687828689813614,-0.9362131953239441,-0.34292080998420715,-1.33281409740448,-0.22014367580413818,-0.2413228452205658
1.209506488256676,0.20021227998897007,-2.969520171629499,-0.27017733454704285,-0.3843560814857483,0.25552430748939514,0.0702994093298912,-0.9354416728019714,-0.34642016887664795,-1.4206260442733765,-0.25330960750579834,-0.2829742729663849
1.20757270965062,0.1971378616278926,-2.9694934983136556,-0.10944809019565582,-0.22168993949890137,-0.3307911157608032,0.06958826631307602,-0.934756338596344,-0.34840819239616394,-1.480126142501831,-0.27087122201919556,-0.3225054144859314
1.2060094134814268,0.21164011764217194,-2.9863570536366457,0.04568769782781601,-0.02631165273487568,-0.9063175320625305,0.07494035363197327,-0.9341998100280762,-0.34879070520401,-1.4974868297576904,-0.2801557779312134,-0.3522742986679077
1.2045534713307666,0.2427092737045378,-3.0189722274750608,0.19618745148181915,0.14041225612163544,-1.4245555400848389,0.08606583625078201,-0.9336794018745422,-0.3476141393184662,-1.4528415203094482,-0.2647460103034973,-0.34492117166519165
1.2028369402036234,0.28762064410622434,-3.064934279996434,0.33789265155792236,0.25542140007019043,-1.8431570529937744,0.10204015672206879,-0.9330633282661438,-0.3449360728263855,-1.348942756652832,-0.19923049211502075,-0.3017618656158447
1.2004179812554612,0.34305783722594974,-3.121221644220857,0.4600832760334015,0.3296704888343811,-2.164504289627075,0.12175464630126953,-0.932190477848053,-0.3408765494823456,-1.2076770067214966,-0.1125636100769043,-0.25101175904273987
1.1967626792194976,0.4058713881503954,3.098333203428434,0.5510821342468262,0.38120532035827637,-2.4143476486206055,0.14425654709339142,-0.9308611154556274,-0.3356899917125702,-1.063278317451477,-0.04232931137084961,-0.20740073919296265
1.1913420085569906,0.47404287729279593,3.0295799470722544,0.6235188841819763,0.47514480352401733,-2.628511905670166,0.16908913850784302,-0.9288669228553772,-0.3295683264732361,-0.9623785018920898,0.022387921810150146,-0.16480109095573425
1.183811950524829,0.5462564841753903,2.9575634580417596,0.6936162114143372,0.616470992565155,-2.8139967918395996,0.19605523347854614,-0.9260513782501221,-0.32247716188430786,-0.876765251159668,0.058085501194000244,-0.13774311542510986
1.173885504607504,0.6210985543703693,2.884122805699183,0.7430031299591064,0.7731885313987732,-2.9704883098602295,0.2249571830034256,-0.9222595691680908,-0.3143753707408905,-0.7825592160224915,0.08044719696044922,-0.11996600031852722
1.1613378174028952,0.6964479457988116,2.8111209242237973,0.7808064222335815,0.8641581535339355,-3.1013407707214355,0.2553882300853729,-0.9173365235328674,-0.3054026663303375,-0.7042714357376099,0.1229332685470581,-0.08792304992675781
1.1461339028283095,0.7703002470486274,2.740184331602929,0.8080794215202332,0.9330213665962219,-3.2095558643341064,0.28690585494041443,-0.9111778736114502,-0.2957026958465576,-0.6560161113739014,0.16255104541778564,-0.05296054482460022
1.128253055188741,0.8410685874750009,2.6726971277003773,0.8030468225479126,0.9717139005661011,-3.3083105087280273,0.3191908597946167,-0.9036654829978943,-0.28549301624298096,-0.5919265747070312,0.17609572410583496,-0.008208096027374268
1.1075197368941643,0.9073779674533561,2.60993264840697,0.7513428330421448,1.0085800886154175,-3.4089512825012207,0.3520946800708771,-0.8945930600166321,-0.2751961052417755,-0.5487042665481567,0.19523680210113525,0.043872952461242676
1.0839416902896317,0.9686870321981615,2.552456895369526,0.7061468362808228,1.0279531478881836,-3.5156967639923096,0.3855740427970886,-0.8838087916374207,-0.26498106122016907,-0.5204312801361084,0.20770692825317383,0.08660590648651123
1.057801753089561,1.0248618193269607,2.5000050997220162,0.6820038557052612,0.9983687996864319,-3.6117169857025146,0.4194487929344177,-0.871278703212738,-0.25482577085494995,-0.47612008452415466,0.21106135845184326,0.09987291693687439
1.0295543769123547,1.075750381152478,2.4524301104727613,0.6652461886405945,0.9625048041343689,-3.6779186725616455,0.45334962010383606,-0.8570694923400879,-0.24475766718387604,-0.43526801466941833,0.23652487993240356,0.1094123125076294
0.9996200061412386,1.1217396464782872,2.409545173010196,0.6448782682418823,0.9542410969734192,-3.723057508468628,0.4870232939720154,-0.8412656188011169,-0.23469270765781403,-0.39116767048835754,0.2640254497528076,0.12040448188781738
0.9682988426561169,1.1630356701238662,2.371452320047311,0.5865070819854736,0.970463752746582,-3.7393510341644287,0.5202388763427734,-0.823922872543335,-0.22472834587097168,-0.3449307680130005,0.27845150232315063,0.13276368379592896
0.935714007592515,1.200036050291514,2.338440824797377,0.48317399621009827,1.0627212524414062,-3.760266065597534,0.5529342889785767,-0.8050228357315063,-0.21494661271572113,-0.3245713710784912,0.2980188727378845,0.1559714674949646
0.9018502843675061,1.2337929226785622,2.310231579156394,0.38319894671440125,1.2047382593154907,-3.790586233139038,0.5852755308151245,-0.7844757437705994,-0.20506232976913452,-0.3281039595603943,0.30234360694885254,0.1653437614440918
0.8669443529816644,1.2649205475579588,2.2861629784171194,0.3104724884033203,1.2919470071792603,-3.8083322048187256,0.6171203851699829,-0.7623550295829773,-0.1948780119419098,-0.3086335062980652,0.29326921701431274,0.15616658329963684
0.8313253890966459,1.2936961473208897,2.2653748501541457,0.2815348207950592,1.3421653509140015,-3.8163106441497803,0.6481900215148926,-0.7388252019882202,-0.1843564808368683,-0.2883114814758301,0.3151646852493286,0.14912401139736176
0.7952631401693342,1.3206985447334807,2.2469110346665815,0.2934356927871704,1.3778592348098755,-3.8186419010162354,0.6783159971237183,-0.7140478491783142,-0.17327316105365753,-0.262315571308136,0.3379184603691101,0.1270543783903122
0.7589022560243769,1.3462724764076917,2.23017818775669,0.31955039501190186,1.3894513845443726,-3.8243930339813232,0.7073797583580017,-0.6881253719329834,-0.16154737770557404,-0.21539074182510376,0.3608852028846741,0.11232264339923859
0.7222409127249643,1.370582387344786,2.21473443136206,0.368356317281723,1.3885174989700317,-3.839717388153076,0.7353377938270569,-0.6610677242279053,-0.1492241472005844,-0.18296974897384644,0.3945118188858032,0.11321349442005157
0.6853353849655868,1.3936162858372232,2.2001640125181128,0.4297320544719696,1.3293421268463135,-3.834120512008667,0.7620864510536194,-0.632932722568512,-0.1364574283361435,-0.10344088077545166,0.39794719219207764,0.11721618473529816
0.6487252394062826,1.4149216814261072,2.1865125984685085,0.469014436006546,1.2491710186004639,-3.7411904335021973,0.7871936559677124,-0.604171097278595,-0.12370705604553223,0.019889354705810547,0.4113456606864929,0.1328929364681244
0.613432289134758,1.4342506153014132,2.1742516626299215,0.45441633462905884,1.170322299003601,-3.5314552783966064,0.810066282749176,-0.5756773352622986,-0.11130367964506149,0.15424340963363647,0.45139431953430176,0.16742557287216187
0.5803350211007743,1.4512732767231704,2.1639865360508743,0.3798201382160187,1.0867794752120972,-3.2567737102508545,0.8303127884864807,-0.5483041405677795,-0.09971681982278824,0.3018283247947693,0.46827155351638794,0.2194983959197998
0.5498360197989681,1.4661210312858965,2.156062004383152,0.26438140869140625,1.0421205759048462,-2.962725877761841,0.8479437828063965,-0.5225474238395691,-0.08908436447381973,0.42486828565597534,0.465692937374115,0.2597692608833313
0.522222654158946,1.4792994790147385,2.150580434938717,0.13140279054641724,1.044014811515808,-2.6308646202087402,0.8630874752998352,-0.49880775809288025,-0.07919089496135712,0.5158951282501221,0.44985735416412354,0.2554757595062256
0.49779880888683375,1.491520208200233,2.147471081207586,-0.006006195675581694,1.1014764308929443,-2.296144962310791,0.8758763670921326,-0.47749266028404236,-0.06958191096782684,0.5765162110328674,0.43577492237091064,0.2306690216064453
0.4763094413381007,1.503395771835841,2.146374998861899,-0.11133552342653275,1.1761826276779175,-2.0194647312164307,0.8866754770278931,-0.45850253105163574,-0.05985308066010475,0.5867742896080017,0.41791394352912903,0.195137619972229
0.45728480085744405,1.5152978873194927,2.1466763238496798,-0.1727200448513031,1.228868842124939,-1.782347321510315,0.8958733677864075,-0.4415135085582733,-0.04977068305015564,0.5914008617401123,0.377487450838089,0.1546902060508728
0.44070269678301216,1.5270511547532963,2.147783983172135,-0.18671318888664246,1.2146542072296143,-1.5232300758361816,0.9035871028900146,-0.4265751242637634,-0.039552804082632065,0.6099932789802551,0.3524782359600067,0.12100428342819214
0.42682128783000833,1.5383582317515254,2.1491545131865566,-0.1663362681865692,1.1672641038894653,-1.248928189277649,0.9098074436187744,-0.41397935152053833,-0.02952277660369873,0.6240670084953308,0.3469473123550415,0.09118366241455078
0.4155127509752469,1.5492332662700017,2.150518843866109,-0.1439698040485382,1.1209295988082886,-1.0170496702194214,0.9146970510482788,-0.4036591053009033,-0.019726725295186043,0.614981472492218,0.3405790328979492,0.06661707162857056
0.40624357445261156,1.5595043850881376,2.1518066308487045,-0.12213189154863358,1.0357606410980225,-0.841192364692688,0.9185532331466675,-0.3951614201068878,-0.010372689925134182,0.5783034563064575,0.3044325113296509,0.05576765537261963
0.3986183597060647,1.5689345726752715,2.1529167706609966,-0.09246447682380676,0.9408725500106812,-0.6829277873039246,0.9215967059135437,-0.388145387172699,-0.0017157885013148189,0.5601385235786438,0.25821661949157715,0.053107500076293945
0.39275761715973206,1.5776338830114403,2.1538190339849947,-0.07480692118406296,0.878730058670044,-0.4853667616844177,0.9238357543945312,-0.38273751735687256,0.00631687743589282,0.5373460650444031,0.24684250354766846,0.05104100704193115
0.3890449303642983,1.585993089303456,2.1547610349872732,-0.09773920476436615,0.8757860064506531,-0.2619667947292328,0.9251651763916016,-0.3793048858642578,0.014060597866773605,0.5184995532035828,0.2484147548675537,0.05548906326293945
0.38747170181657475,1.594366387750753,2.156181125539909,-0.16331793367862701,0.9093838930130005,-0.06089865416288376,0.9256104230880737,-0.377848744392395,0.021820735186338425,0.4892457127571106,0.23719298839569092,0.06605470180511475
0.38783141968481,1.602785359243394,2.1582702978644424,-0.22037407755851746,0.9341033697128296,0.1192796379327774,0.9252577424049377,-0.3781817853450775,0.02960819937288761,0.449971079826355,0.21448537707328796,0.06707155704498291
0.3898964973791753,1.6113676555281553,2.160629604038875,-0.22563807666301727,0.9688855409622192,0.2766346335411072,0.9241873621940613,-0.38009268045425415,0.03751609846949577,0.4037392735481262,0.19698703289031982,0.04929124936461449
0.39354300683171717,1.6204550416432129,2.1628341983313057,-0.21800850331783295,1.0225671529769897,0.43485406041145325,0.9224177598953247,-0.3834629952907562,0.04584376886487007,0.348471462726593,0.1906222701072693,0.01604592427611351
0.39880701780765904,1.6300817074529448,2.1650361872564323,-0.2533819377422333,1.0758782625198364,0.5943214893341064,0.919905960559845,-0.3883192539215088,0.05460095778107643,0.29892027378082275,0.18647584319114685,0.006449572741985321
0.4056354337415425,1.6400542007366372,2.1677359210140494,-0.3346850574016571,1.1335759162902832,0.7347318530082703,0.9166491627693176,-0.3946027159690857,0.06358686834573746,0.25371527671813965,0.17879745364189148,0.028728842735290527
0.4138244243038621,1.650359635481856,2.1712094117212204,-0.423420250415802,1.2121634483337402,0.8513638973236084,0.9126932621002197,-0.4021138548851013,0.07277051359415054,0.204112708568573,0.17155340313911438,0.052061669528484344
0.42316716685480654,1.6612737776719522,2.1755183816734713,-0.5234887599945068,1.3334903717041016,0.9452823996543884,0.9080634713172913,-0.4106503129005432,0.08238419890403748,0.16665875911712646,0.1561182737350464,0.05186270922422409
0.4335740170124706,1.6732761859342256,2.180813111422341,-0.63563072681427,1.516281008720398,1.037739872932434,0.9027091860771179,-0.4201167821884155,0.0928347259759903,0.13125687837600708,0.1452142596244812,0.05967699736356735
0.4452852503730972,1.6868430993685073,2.186942903326026,-0.7221294045448303,1.7268083095550537,1.1853981018066406,0.8964179158210754,-0.43071532249450684,0.10449589788913727,0.13962334394454956,0.141118586063385,0.06216072291135788
0.4590558842164725,1.7022249254359898,2.1937098599399483,-0.8323349952697754,1.9421213865280151,1.4076868295669556,0.8887398838996887,-0.4431019425392151,0.11748306453227997,0.19704502820968628,0.14898860454559326,0.049783818423748016
0.47529235358289224,1.718684749869431,2.2012860626695736,-0.9627220630645752,2.0095508098602295,1.6191953420639038,0.8794535398483276,-0.45759841799736023,0.1310175508260727,0.25906580686569214,0.1924615204334259,0.06376099586486816
0.49367417247852063,1.734482014390907,2.2096529768506294,-1.0717259645462036,1.9278078079223633,1.783488154411316,0.8688275218009949,-0.4738645553588867,0.1434985101222992,0.24999290704727173,0.22735849022865295,0.08549025654792786
0.513819065021713,1.7488534600046488,2.218798341227301,-1.1997451782226562,1.8418781757354736,1.9155956506729126,0.8571051359176636,-0.49150675535202026,0.1542472392320633,0.21091854572296143,0.21846577525138855,0.09668362140655518
0.5354962821483537,1.7621302949402877,2.2291992232302626,-1.3848857879638672,1.8950990438461304,2.022705316543579,0.8443218469619751,-0.5102679133415222,0.16354809701442719,0.14978837966918945,0.20129239559173584,0.10148192942142487
0.558912389627036,1.775789233861172,2.2420993019087487,-1.7267876863479614,2.213463306427002,2.144740581512451,0.8300811052322388,-0.5302643775939941,0.17258499562740326,0.10007953643798828,0.18575119972229004,0.10637630522251129
0.5847593960032917,1.7909412652700563,2.2595149650003417,-2.250720500946045,2.7389533519744873,2.3021373748779297,0.8137210011482239,-0.5519987940788269,0.18208765983581543,0.09429901838302612,0.1561092734336853,0.14023911952972412
0.6140112452757202,1.80853127065565,2.283011877989383,-2.8683583736419678,3.458850383758545,2.5340847969055176,0.7943549156188965,-0.57615065574646,0.1924859583377838,0.06979608535766602,0.14866024255752563,0.18236148357391357
0.6477828534813949,1.8290142840275596,2.3129783801381945,-3.487360954284668,4.16798734664917,2.839550495147705,0.7709863781929016,-0.6034198999404907,0.2036285102367401,0.09243214130401611,0.16274595260620117,0.17933663725852966
0.68660387798814,1.8513749695803752,2.348799571238053,-3.9977757930755615,4.737330436706543,3.1535441875457764,0.7431598901748657,-0.6339142918586731,0.21416451036930084,0.15221059322357178,0.222476065158844,0.14629387855529785
0.7300576928831957,1.8748642520757626,2.3889848985621427,-4.345149040222168,5.186783790588379,3.4052653312683105,0.710953950881958,-0.6669126152992249,0.22309669852256775,0.17321652173995972,0.2826046347618103,0.06384488940238953
0.7768791133536354,1.8986556072943357,2.4320329679842887,-4.528258323669434,5.4558186531066895,3.540574550628662,0.6751209497451782,-0.7010573148727417,0.22963207960128784,0.16844600439071655,0.2957836389541626,-0.06039676070213318
0.8256085255971504,1.9218586186394708,2.4765337103640084,-4.555518627166748,5.585496425628662,3.589637279510498,0.6367504596710205,-0.7349605560302734,0.23319889605045319,0.12037527561187744,0.29964250326156616,-0.17773322761058807
0.8750608051382555,1.9445397544349248,2.5213982177366563,-4.498502731323242,5.718923568725586,3.5692636966705322,0.5967037677764893,-0.7675824761390686,0.2340129166841507,0.07305020093917847,0.30376094579696655,-0.2708628177642822
0.9248500137117815,1.9673849935876266,2.5664164549388246,-4.452293872833252,5.93392276763916,3.571894407272339,0.5552331209182739,-0.7985304594039917,0.23251934349536896,0.0434148907661438,0.27095770835876465,-0.3362031579017639
0.975195819238403,1.9905279601827919,2.6123250152495094,-4.467469692230225,6.177905082702637,3.5575289726257324,0.5123097896575928,-0.8278117775917053,0.22861860692501068,0.02734774351119995,0.25331825017929077,-0.3338890075683594
1.0260466876501988,2.012472083679207,2.6606926570830063,-4.545555591583252,6.365843296051025,3.5139083862304688,0.46847590804100037,-0.8552570343017578,0.2215091437101364,0.01248118281364441,0.24301308393478394,-0.30599698424339294
1.0775683513254466,2.0308791296379263,2.7136018037518843,-4.692887783050537,6.5252909660339355,3.485522985458374,0.4242381155490875,-0.8808090686798096,0.21023200452327728,0.0266743004322052,0.2185623049736023,-0.27680614590644836
1.1301529032619995,2.0430043062948293,2.773889325076925,-4.9040608406066895,6.69756555557251,3.4818882942199707,0.3798457086086273,-0.9044774174690247,0.19400495290756226,0.060126155614852905,0.20841717720031738,-0.22025015950202942
1.1842430145460228,2.0458579025204573,2.8454490638441756,-5.17171049118042,7.036299705505371,3.5366756916046143,0.33525145053863525,-0.9262139797210693,0.17243658006191254,0.07020506262779236,0.20544970035552979,-0.16195382177829742
1.2404024154665352,2.0349657572164825,2.9349753268848455,-5.541195392608643,7.601505279541016,3.6461029052734375,0.2900905907154083,-0.945914626121521,0.14523455500602722,0.10311314463615417,0.195609450340271,-0.1255355030298233
1.2988172619566942,1.9980893978590166,3.0563582340517415,-6.01242208480835,8.239133834838867,3.792476177215576,0.2444862723350525,-0.9632411599159241,0.11132653057575226,0.16583791375160217,0.22637861967086792,-0.08355554938316345
1.358080946252788,1.906443144949778,-3.0450230003712027,-6.488208770751953,8.744165420532227,3.926176071166992,0.19933554530143738,-0.9774612784385681,0.06953750550746918,0.2487999051809311,0.31251341104507446,-0.04594741761684418
1.4124070398332067,1.696150311356322,-2.740997944267723,-6.8565874099731445,8.980252265930176,3.9762558937072754,0.15649183094501495,-0.9874826073646545,0.019720274955034256,0.307863712310791,0.36559516191482544,-0.06682419776916504
1.44669470374412,1.2675220118389834,-2.2180954049423116,-7.0633392333984375,8.873128890991211,3.9190237522125244,0.118135005235672,-0.9923092722892761,-0.036967694759368896,0.3226151764392853,0.34904444217681885,-0.11174452304840088
1.440044336933889,0.7171708791888838,-1.5761753240982403,-7.055859565734863,8.464061737060547,3.7944421768188477,0.08569322526454926,-0.9914641380310059,-0.09826361387968063,0.3137056231498718,0.3431333899497986,-0.12678831815719604
1.398281474287751,0.35615782287364994,-1.1281968384076049,-6.810298919677734,7.985724925994873,3.579383373260498,0.05985394865274429,-0.9851561784744263,-0.1608879268169403,0.3142000734806061,0.3623533844947815,-0.15902787446975708
1.3433153320670534,0.18277673886527346,-0.8719666733308254,-6.421976089477539,7.628482818603516,3.321178674697876,0.040991563349962234,-0.9742375612258911,-0.22176821529865265,0.29165011644363403,0.32460981607437134,-0.24209904670715332
1.2861285868726775,0.10369059593291909,-0.712726653444916,-6.045148849487305,7.425834655761719,3.039374828338623,0.029068194329738617,-0.959755003452301,-0.27933046221733093,0.26409903168678284,0.24187469482421875,-0.27334290742874146
1.229798865880208,0.07276513902530882,-0.6023875839895875,-5.802338600158691,7.437980651855469,2.7448270320892334,0.02431320957839489,-0.942421555519104,-0.33354273438453674,0.19410119950771332,0.20676469802856445,-0.22193825244903564
1.1741919322512757,0.06988226416475785,-0.5194984299496371,-5.750058650970459,7.466822624206543,2.436626434326172,0.026972774416208267,-0.9223780035972595,-0.38534602522850037,0.11108887195587158,0.22328126430511475,-0.15762275457382202
1.1183221334457727,0.08378050157215729,-0.45327724340886966,-5.836902141571045,7.406047344207764,2.151597261428833,0.03658534958958626,-0.899368166923523,-0.4356587529182434,0.04013596847653389,0.2665861248970032,-0.07511395215988159
1.0614452985516794,0.10878718987639602,-0.39838190755143627,-6.00028657913208,7.35838508605957,1.8009226322174072,0.05294124782085419,-0.8730611205101013,-0.4847283661365509,0.03629228100180626,0.2821645140647888,-0.015393733978271484
1.0030056813642707,0.14251965232305355,-0.3532468618789584,-6.191220760345459,7.130575656890869,1.3216183185577393,0.07638370245695114,-0.8430911302566528,-0.5323184132575989,0.1109943762421608,0.25594818592071533,-0.0273892879486084
0.9431126814007216,0.1805703741085757,-0.3160989417169552,-6.30707311630249,6.608607292175293,0.9012723565101624,0.1054685190320015,-0.8093900084495544,-0.5777233839035034,0.12776222825050354,0.23732268810272217,-0.05913269519805908
0.8832117994721496,0.21692767764465937,-0.28313137599982746,-6.207398891448975,5.913607597351074,0.7110604047775269,0.1366007775068283,-0.7727813124656677,-0.619797945022583,0.14522923529148102,0.24693280458450317,-0.09399300813674927
0.8268730647526751,0.24922243641419944,-0.2515157566228984,-5.693546295166016,5.3604302406311035,0.762079656124115,0.16702678799629211,-0.7358174920082092,-0.656258225440979,0.1810111105442047,0.25862938165664673,-0.1723092794418335
0.777851209196963,0.27877985456815674,-0.21911775466170272,-4.951682090759277,5.2956671714782715,1.0474815368652344,0.1960466206073761,-0.7017502188682556,-0.6849179267883301,0.22527924180030823,0.24888455867767334,-0.4191164970397949
0.7376045516692669,0.3089682797479071,-0.18535155882412493,-4.20217752456665,5.359028339385986,1.320762038230896,0.22504104673862457,-0.6725170016288757,-0.7050372362136841,0.31685978174209595,0.22471731901168823,-0.4878491163253784
0.7053384856507018,0.3381136872608561,-0.1507096228223996,-3.608675479888916,5.001077175140381,1.558639407157898,0.252560019493103,-0.6482915878295898,-0.7182837724685669,0.2291296124458313,0.23059749603271484,-0.4255455732345581
0.6792381372830676,0.3621824305621584,-0.1159289667080506,-3.1542956829071045,4.224360942840576,1.664454460144043,0.27567607164382935,-0.6282004117965698,-0.7275761365890503,0.13844764232635498,0.22513949871063232,-0.2810755968093872
0.6579004652569078,0.3789192425625183,-0.08272091426805735,-2.718424081802368,3.241255283355713,1.641577959060669,0.29270678758621216,-0.6114568710327148,-0.7351484894752502,-0.015088200569152832,0.20777034759521484,-0.14928138256072998
0.6409649955786065,0.3884071886890985,-0.05259632994219664,-2.2192466259002686,2.3341281414031982,1.5327084064483643,0.30354708433151245,-0.5979691743850708,-0.7418166995048523,-0.170322448015213,0.16291064023971558,-0.11069172620773315
0.6287062885309451,0.3927806470574513,-0.026868953980831813,-1.62116277217865,1.6202031373977661,1.362863302230835,0.30957111716270447,-0.5880988836288452,-0.7471984028816223,-0.19824278354644775,0.07981336116790771,-0.1337219476699829
0.6214621570987187,0.3941942776824283,-0.006601621010915092,-0.9839620590209961,1.057425856590271,1.111957311630249,0.3122551143169403,-0.5822245478630066,-0.7506739497184753,-0.12092497944831848,-0.018880188465118408,-0.18237042427062988
0.6186598989196606,0.39428716037471045,0.007581675508929573,-0.4419909715652466,0.6210313439369202,0.8065103888511658,0.31295037269592285,-0.5799439549446106,-0.7521483302116394,-0.07257845997810364,-0.0760466456413269,-0.20268559455871582
0.6188522144901497,0.393374313721188,0.016370129332301996,-0.10203871876001358,0.20784270763397217,0.5439026951789856,0.31222090125083923,-0.5801005959510803,-0.7523307204246521,-0.06750026345252991,-0.06530040502548218,-0.15103530883789062
0.6203281744035859,0.38966060523734447,0.021745704782449457,0.014812363311648369,-0.3441987633705139,0.3954145908355713,0.3090992271900177,-0.5813022255897522,-0.7526921629905701,-0.038514912128448486,-0.015835225582122803,-0.046151161193847656
0.6217390141962232,0.3811692478667406,0.026184016477300696,-0.055482037365436554,-0.7885565757751465,0.41128677129745483,0.30239138007164,-0.5824496150016785,-0.7545276284217834,0.0007704198360443115,0.029974639415740967,0.04519236087799072
0.621890463018671,0.36879948821780856,0.032364501738032896,-0.2946726381778717,-0.9517498016357422,0.5406710505485535,0.2930033802986145,-0.5825727581977844,-0.7581280469894409,0.008968234062194824,0.06531500816345215,0.0627393126487732
0.6199665507785518,0.35413742810453713,0.04132620569650581,-0.5811747312545776,-0.9179548025131226,0.6829285621643066,0.2822447121143341,-0.5810079574584961,-0.7633922696113586,0.00851169228553772,0.07347005605697632,0.03864562511444092
0.6160138080060402,0.3391517994705677,0.052475281164438364,-0.7569182515144348,-0.774707019329071,0.7495169043540955,0.2715354561805725,-0.5777862668037415,-0.7696957588195801,-0.020238250494003296,0.044781506061553955,-0.027560651302337646
0.611236761055141,0.32620386021018033,0.06424352938558686,-0.7544130086898804,-0.43168678879737854,0.7573532462120056,0.26242849230766296,-0.5738807320594788,-0.7757527232170105,-0.06789401173591614,-0.02919238805770874,-0.08958840370178223
0.6071575203106393,0.31757859974748237,0.07579780884800201,-0.6096774935722351,0.025267180055379868,0.7912075519561768,0.2564566135406494,-0.5705353021621704,-0.7802047729492188,-0.08368116617202759,-0.06888419389724731,-0.16797631978988647
0.6048323329702683,0.3131812708391114,0.08721455510189785,-0.4095097482204437,0.3745247721672058,0.8525569438934326,0.2534313499927521,-0.5686241388320923,-0.7825849056243896,-0.05204567313194275,-0.056192755699157715,-0.2740098834037781
0.6049927065074906,0.31158523342790484,0.09858035434265235,-0.12471137195825577,0.5809109807014465,0.9471818208694458,0.25215405225753784,-0.568756103515625,-0.7829016447067261,-0.009050816297531128,-0.038879454135894775,-0.2844201326370239
0.6082868274640226,0.3108596356980558,0.11029044354626055,0.14833533763885498,0.5672878623008728,1.0931203365325928,0.251011461019516,-0.5714623928070068,-0.7812963724136353,0.049312204122543335,-0.007013559341430664,-0.27891480922698975
0.6139908541026262,0.30766965967679694,0.12286399575474548,0.2942162752151489,0.2125963568687439,1.2093853950500488,0.24752670526504517,-0.5761339664459229,-0.7789738178253174,0.07826389372348785,0.01752495765686035,-0.21719616651535034
0.620597846958525,0.3002849543735327,0.13593552201771655,0.3146222233772278,-0.16047149896621704,1.2083408832550049,0.24063630402088165,-0.5815216302871704,-0.7771272659301758,0.05109669268131256,0.01770937442779541,-0.09126561880111694
0.6267799900369619,0.2903644859996968,0.14861651920560223,0.26938119530677795,-0.3163962662220001,1.114511251449585,0.23188140988349915,-0.5865398645401001,-0.7760168313980103,0.0016545504331588745,-0.024025380611419678,-0.00794917345046997
0.6321243727649256,0.28020992926867455,0.16016478794965025,0.23633402585983276,-0.3449445366859436,0.9818424582481384,0.2231193631887436,-0.5908599495887756,-0.7753078937530518,-0.02536526322364807,-0.08521121740341187,0.019723236560821533
0.6368945174831157,0.27074358608331744,0.17051049556867764,0.22608904540538788,-0.3179505467414856,0.8920934796333313,0.21501389145851135,-0.5947016477584839,-0.774660587310791,-0.052278727293014526,-0.1345311403274536,-0.021924495697021484
0.6410461116750612,0.2620785090189248,0.1803421025597237,0.14616519212722778,-0.23606741428375244,0.8603198528289795,0.20765192806720734,-0.5980342030525208,-0.7741032242774963,-0.054087281227111816,-0.13850760459899902,-0.04366099834442139
0.6437967403735716,0.25405077878912236,0.19061912206860177,-0.04489271342754364,-0.14412014186382294,0.8811610341072083,0.2010168433189392,-0.6002364754676819,-0.7741501927375793,-0.03846478462219238,-0.10336160659790039,-0.004597306251525879
0.6443600511988358,0.24572730893045755,0.20221266810903252,-0.3136807680130005,-0.14300347864627838,0.9489832520484924,0.19448404014110565,-0.6006869077682495,-0.7754683494567871,-0.0033980458974838257,-0.06600010395050049,0.053575098514556885
0.6421809150412117,0.23576493044531702,0.21555295729800786,-0.6227676868438721,-0.26135510206222534,1.0205227136611938,0.1870543360710144,-0.598943293094635,-0.7786383032798767,0.026629939675331116,-0.04912799596786499,0.12400579452514648
0.63704935840955,0.22326617823984757,0.23029106762244744,-0.9092884063720703,-0.49843794107437134,1.0439035892486572,0.17798615992069244,-0.5948261618614197,-0.7839023470878601,0.03710190951824188,-0.0445781946182251,0.19416546821594238
0.6294630884047515,0.2077156567241585,0.24538658373611194,-1.077620267868042,-0.8375479578971863,1.0077555179595947,0.1667008399963379,-0.5887108445167542,-0.7909680008888245,0.02313391864299774,-0.041294097900390625,0.21369755268096924
0.6208036064145317,0.1892989412005038,0.259826531405333,-1.060563325881958,-1.143871545791626,0.9466205835342407,0.1530599296092987,-0.5816890001296997,-0.7988808155059814,-0.02349737286567688,-0.05232900381088257,0.12544947862625122
0.6127614858334248,0.16964568008946446,0.27278368360697985,-0.8943377733230591,-1.2703258991241455,0.8410078287124634,0.13811612129211426,-0.5751287341117859,-0.8063193559646606,-0.06958873569965363,-0.08980357646942139,-0.04426652193069458
0.6060183251572726,0.15094266127658934,0.2833536031208903,-0.7244429588317871,-1.2546100616455078,0.6480234265327454,0.12359260767698288,-0.5695993304252625,-0.8125770688056946,-0.14478689432144165,-0.14197903871536255,-0.16851723194122314
0.6000899467449384,0.13438250234133514,0.2907639396862603,-0.6369867920875549,-1.2255933284759521,0.3920917212963104,0.11057034879922867,-0.5647166967391968,-0.8178442716598511,-0.24406930804252625,-0.181102454662323,-0.18380361795425415
0.5941974956062126,0.11987395066833735,0.29496258304288586,-0.6327164173126221,-1.2049897909164429,0.15799370408058167,0.099089615046978,-0.5598439574241638,-0.8226518034934998,-0.27995187044143677,-0.19775491952896118,-0.13918590545654297
0.5877366826974199,0.10724868923402242,0.2968008640590721,-0.6904364228248596,-1.0834630727767944,0.012706980109214783,0.08908112347126007,-0.5544789433479309,-0.8274163007736206,-0.22991956770420074,-0.19477343559265137,-0.08528810739517212
0.5817196502288261,0.10215262838191272,0.297105978765446,-0.493717759847641,0.1262647807598114,-0.07443618029356003,0.08520210534334183,-0.5494615435600281,-0.8311634659767151,-0.1489684283733368,-0.1626051664352417,-0.029661118984222412
0.5777637830419068,0.10940876620719762,0.296827954206997,-0.3082587718963623,1.3121364116668701,-0.043286822736263275,0.0914674699306488,-0.5461520552635193,-0.83267742395401,-0.12270203232765198,-0.08577549457550049,-0.041452765464782715
0.5749202592798424,0.1308579112243411,0.29713014004398336,-0.2682535648345947,3.0320000648498535,0.03339703381061554,0.1095074713230133,-0.5437678694725037,-0.8320605158805847,-0.08194993436336517,-0.05446827411651611,-0.023240387439727783
0.5728260829998632,0.16834047350480705,0.2987179821701625,-0.16668158769607544,4.623627662658691,0.17616486549377441,0.14080150425434113,-0.542009174823761,-0.8284932374954224,-0.1352013349533081,-0.02837967872619629,0.06477558612823486
0.5729721888523143,0.21694292450757025,0.30158966981634316,0.11709154397249222,5.064797878265381,0.2916925251483917,0.18086913228034973,-0.5421319603919983,-0.8205969333648682,-0.1407078206539154,0.024553775787353516,0.01549750566482544
0.5753166167670795,0.24697666460396783,0.30426925495589535,0.11722153425216675,0.797412633895874,0.23437044024467468,0.20511816442012787,-0.5441004633903503,-0.8135608434677124,-0.14223651587963104,0.06598156690597534,-0.23317670822143555
0.5742449451610979,0.23551606078121606,0.30680915508072126,-0.41740140318870544,-2.377485990524292,0.14226101338863373,0.19591696560382843,-0.5432010293006897,-0.8164247274398804,-0.0956818014383316,0.07171964645385742,-0.37548506259918213
0.5694847501933809,0.2077862006749164,0.31011971780019254,-0.5852028131484985,-2.5546274185180664,0.20875278115272522,0.17373666167259216,-0.5391981601715088,-0.8240636587142944,0.05583201348781586,-0.05859541893005371,-0.03212219476699829
0.564668906454025,0.18334914244637288,0.31472889236755386,-0.48501336574554443,-1.8196271657943726,0.37500861287117004,0.154020756483078,-0.5351361632347107,-0.8306064009666443,0.16392682492733002,-0.16295349597930908,-0.16565513610839844
0.5618571623142975,0.16607590625803592,0.32071166974559456,-0.2360033541917801,-0.997330367565155,0.5130615234375,0.13989941775798798,-0.5327587723731995,-0.8346234560012817,0.02533818781375885,-0.16487306356430054,-0.286943256855011
0.5616890447504251,0.15651085372927193,0.32701277886505703,0.027834152802824974,-0.27901002764701843,0.5167875289916992,0.1319238841533661,-0.5326164960861206,-0.8360118865966797,-0.10880663990974426,-0.07961195707321167,-0.3101978302001953
0.5637980832428411,0.15304213532471805,0.3322046309620825,0.24653476476669312,0.09224992990493774,0.4079606235027313,0.12885166704654694,-0.5344002842903137,-0.8353524208068848,-0.1333223283290863,0.014350175857543945,-0.33873510360717773
0.5675983986881395,0.15276961780744758,0.33561668794173805,0.40954312682151794,0.2096378058195114,0.2787826657295227,0.1283140331506729,-0.5376085638999939,-0.8333742022514343,-0.14781460165977478,0.07723557949066162,-0.3157498836517334
0.5724005159137332,0.15427340610587628,0.33752085751071537,0.4797181487083435,0.2937222421169281,0.19240762293338776,0.12916891276836395,-0.5416514873504639,-0.8306196928024292,-0.11703799664974213,0.07871502637863159,-0.260292112827301
0.5772181764410815,0.15661010288365354,0.33865918463837713,0.42729833722114563,0.28242114186286926,0.15003779530525208,0.130700945854187,-0.5456949472427368,-0.8277284502983093,-0.03713385760784149,0.01772552728652954,-0.19206219911575317
0.5809000750373543,0.15841047476535358,0.3395893461096364,0.26945748925209045,0.16818812489509583,0.12035847455263138,0.13187310099601746,-0.5487765669822693,-0.8255020976066589,0.03400534391403198,-0.05830961465835571,-0.11910837888717651
0.582895709151748,0.15874098672885795,0.34057368841612273,0.10584671050310135,0.008103109896183014,0.10935163497924805,0.1319725662469864,-0.5504437685012817,-0.8243755102157593,0.07139676809310913,-0.12545961141586304,-0.08094370365142822
0.5836805132223544,0.15767695459760447,0.3417248556174084,0.03390011191368103,-0.07875905185937881,0.10496753454208374,0.1310274451971054,-0.5510988235473633,-0.8240885734558105,0.08161921799182892,-0.1518736481666565,-0.09845775365829468
0.5842015646488576,0.1564607023289309,0.3427585126467493,0.049029529094696045,-0.03629734739661217,0.07780542224645615,0.12998028099536896,-0.5515335202217102,-0.8239635229110718,0.06415745615959167,-0.1399642825126648,-0.14406919479370117
0.5849860209518345,0.1562987623879064,0.34321907579946004,0.09491058439016342,0.05179215222597122,0.02074706181883812,0.12977947294712067,-0.5521877408027649,-0.8235569596290588,0.02425818145275116,-0.11166119575500488,-0.1773737668991089
0.5861356602941878,0.15729522028163082,0.3429084489955332,0.14065197110176086,0.10853132605552673,-0.03452977538108826,0.13050051033496857,-0.5531458258628845,-0.8227996826171875,-0.01097823679447174,-0.08584654331207275,-0.17939752340316772
0.5876521245143326,0.15912874916598105,0.3419563710882785,0.1829117387533188,0.15507061779499054,-0.07005377858877182,0.13187584280967712,-0.5544085502624512,-0.8217298984527588,-0.02297370135784149,-0.0758557915687561,-0.1677110195159912
0.5895215850975796,0.16176254189898587,0.3405799274643962,0.22461044788360596,0.22053006291389465,-0.09272153675556183,0.13387249410152435,-0.555963397026062,-0.8203553557395935,-0.024283677339553833,-0.07631510496139526,-0.14805889129638672
0.5918073664707575,0.16513573106145565,0.33892357262696,0.27223700284957886,0.26402363181114197,-0.10172294080257416,0.13642968237400055,-0.5578619241714478,-0.8186434507369995,-0.025269225239753723,-0.07031196355819702,-0.11324125528335571
0.5945781409593959,0.16881808616003025,0.3371620235347544,0.32433587312698364,0.2728826403617859,-0.09387141466140747,0.13918304443359375,-0.5601593255996704,-0.8166086077690125,-0.01508311927318573,-0.048864781856536865,-0.07128500938415527
0.5978657240898889,0.17250017974642076,0.3354661112909594,0.37155890464782715,0.27330416440963745,-0.06784462928771973,0.14187204837799072,-0.5628796815872192,-0.8142719864845276,0.0003553032875061035,-0.017824113368988037,-0.030546069145202637
0.601574091261129,0.17589555826574887,0.33410393658314824,0.3964267075061798,0.24942518770694733,-0.022357041016221046,0.14426973462104797,-0.5659409165382385,-0.8117247819900513,0.018495947122573853,0.00775909423828125,0.0003082156181335449
0.6055099992086099,0.17854234905432514,0.33331582022260414,0.39876511693000793,0.187482550740242,0.034081485122442245,0.14602096378803253,-0.569181501865387,-0.8091417551040649,0.0414639413356781,0.020750105381011963,0.030729949474334717
0.6093833558540966,0.18029863290348325,0.3330936255230793,0.36596056818962097,0.1493958830833435,0.06187023967504501,0.14704537391662598,-0.572361946105957,-0.8067090511322021,0.05937570333480835,0.025654733180999756,0.0553969144821167
0.6127117856724356,0.18194914394742454,0.3330495556620312,0.2863287329673767,0.1785539835691452,0.04690111428499222,0.1480311155319214,-0.5750880837440491,-0.804587185382843,0.04488594830036163,0.018020153045654297,0.06275069713592529
0.6151737953736721,0.1838666514342267,0.33295467477890583,0.2057316154241562,0.19295288622379303,0.0281966719776392,0.14931432902812958,-0.5771004557609558,-0.802907407283783,0.008492231369018555,0.004468560218811035,0.07069921493530273
0.6170134846611401,0.18616502529426832,0.33277452667980134,0.16647188365459442,0.25881779193878174,0.00947842001914978,0.15096254646778107,-0.5786018967628479,-0.8015174269676208,0.0010914653539657593,0.008441925048828125,0.06355667114257812
0.6185710838954864,0.18957126868890847,0.33242736964012126,0.1537584811449051,0.384696364402771,-0.0026631979271769524,0.1535218209028244,-0.5798715949058533,-0.8001124858856201,-0.009966939687728882,0.023398756980895996,0.024325191974639893
0.6200468256685022,0.1939628879564085,0.3321559831489076,0.14145606756210327,0.4394524395465851,0.021162232384085655,0.15686899423599243,-0.5810732841491699,-0.7985900044441223,-0.030037760734558105,0.042422711849212646,0.0015624761581420898
0.6213233021799007,0.19719098161622686,0.33254204984348257,0.09868784248828888,0.20954254269599915,0.0944012925028801,0.15930065512657166,-0.582111656665802,-0.7973514795303345,-0.009398132562637329,0.05756020545959473,0.05636948347091675
0.6223156102393567,0.1965396276360166,0.333843148094194,0.05054735392332077,-0.17636407911777496,0.14531855285167694,0.1586683839559555,-0.5829182267189026,-0.7968881726264954,0.08901247382164001,0.03466987609863281,0.17658793926239014
0.6228499667074654,0.19266647928674846,0.33554578427523674,0.0063940086401999,-0.3727959096431732,0.14527355134487152,0.15552107989788055,-0.5833523273468018,-0.7971909046173096,0.11814548075199127,-0.005087673664093018,0.14588481187820435
0.6232159366490764,0.18781541065482732,0.3372580456962769,0.018077585846185684,-0.37642478942871094,0.13621309399604797,0.15161216259002686,-0.5836495161056519,-0.7977261543273926,0.05630427598953247,-0.01394575834274292,0.09234291315078735
0.6237488320948739,0.18403998187099888,0.33850821047983937,0.04801923781633377,-0.21568332612514496,0.07615189254283905,0.1485423892736435,-0.5840821862220764,-0.7979869842529297,0.011232569813728333,-0.006967067718505859,-0.004869401454925537
0.6243902407803796,0.18293092367200267,0.3386941666572025,0.07052408903837204,0.01609698124229908,-0.028133032843470573,0.14758910238742828,-0.5846026539802551,-0.7977826595306396,-0.04642316699028015,-0.013251960277557373,-0.0785142183303833
0.6249665339600075,0.18473157880854973,0.33754369890599595,0.07202478498220444,0.19878292083740234,-0.13060028851032257,0.14896348118782043,-0.5850701332092285,-0.7971843481063843,-0.0839150995016098,-0.029233455657958984,-0.11098819971084595
0.6252444713544822,0.18829077542882444,0.33544935516684665,0.03906695172190666,0.2368587702512741,-0.18372249603271484,0.15176942944526672,-0.5852954983711243,-0.7964893579483032,-0.07709275186061859,-0.04213070869445801,-0.084125816822052
0.6250056124722994,0.19089833198058614,0.3334144262300487,-0.025052912533283234,0.024380328133702278,-0.13992734253406525,0.1538723111152649,-0.585101842880249,-0.7962281107902527,-0.043917328119277954,-0.011928796768188477,0.010415792465209961
0.6241676278283144,0.19051430059944363,0.3323952143433823,-0.11222592741250992,-0.20829279720783234,-0.05527731776237488,0.15365932881832123,-0.5844220519065857,-0.796768307685852,0.026745513081550598,0.012431025505065918,0.09106463193893433
0.6225645326307626,0.18763258590029733,0.3325430585469744,-0.2056107372045517,-0.3406093120574951,0.013480971567332745,0.1515371948480606,-0.5831204652786255,-0.7981271743774414,0.047941118478775024,0.008901715278625488,0.12683212757110596
0.6202407667344526,0.18331431668610437,0.3334448355591533,-0.27202025055885315,-0.41567468643188477,0.0388505794107914,0.14833587408065796,-0.5812311172485352,-0.8001043200492859,0.04578661918640137,-0.01698976755142212,0.10933899879455566
0.6175925947289979,0.17853461712879798,0.3344260416676454,-0.2702375054359436,-0.4124290943145752,0.016798272728919983,0.14478278160095215,-0.5790741443634033,-0.8023161292076111,0.031212270259857178,-0.03887629508972168,0.05271291732788086
