attitudeX,attitudeY,attitudeZ,gyroX,gyroY,gyroZ,gravityX,gravityY,gravityZ,accX,accY,accZ
0.2930564454952724,-0.06587951003623176,-1.4328390579103027,-2.0230941772460938,-1.0667043924331665,-0.8253428339958191,-0.06302515417337418,-0.2888796925544739,-0.9552885890007019,0.4204774796962738,-0.4041745066642761,-0.06308293342590332
0.27225887098674245,-0.0765263533695899,-1.4423373688713221,-2.2247202396392822,-1.5890133380889893,-0.7135550379753113,-0.07363565266132355,-0.2689077854156494,-0.9603469967842102,0.4413723945617676,-0.4418923854827881,-0.24218285083770752
0.2504186365540015,-0.09207731607515424,-1.4518449841458125,-2.2433831691741943,-1.9672775268554688,-0.7638469338417053,-0.08907931298017502,-0.24780955910682678,-0.9647047519683838,0.35189664363861084,-0.47545701265335083,-0.5628067851066589
0.22924521180798724,-0.1102457573080482,-1.4628153321138984,-2.1674046516418457,-2.162311315536499,-0.9295821189880371,-0.10714417695999146,-0.22724254429340363,-0.9679260849952698,0.18461298942565918,-0.48284047842025757,-0.895400881767273
0.2095324450036815,-0.12975973197845145,-1.475810278506467,-2.025543212890625,-2.2819302082061768,-1.1103994846343994,-0.12656578421592712,-0.20800259709358215,-0.9699051380157471,0.05173662304878235,-0.43938204646110535,-1.161106824874878
0.1921965743831302,-0.15024087176837547,-1.4906949745574585,-1.787358045578003,-2.4067819118499756,-1.2873121500015259,-0.146920308470726,-0.19101548194885254,-0.9705294966697693,-0.03116506338119507,-0.38559889793395996,-1.400991439819336
0.1785969057662967,-0.172987832966509,-1.5069335383414613,-1.3683245182037354,-2.7549240589141846,-1.4049917459487915,-0.16938850283622742,-0.17764897644519806,-0.9694061875343323,0.009064361453056335,-0.34844353795051575,-1.647811770439148
0.1710694923865729,-0.2006518648688788,-1.523026710850311,-0.6630244255065918,-3.349926710128784,-1.4110344648361206,-0.19639891386032104,-0.17023633420467377,-0.965632975101471,0.11050714552402496,-0.31311631202697754,-1.9406627416610718
0.17205593956693999,-0.23498606891469948,-1.537210867719416,0.29378244280815125,-3.927311658859253,-1.3576010465621948,-0.2293916791677475,-0.17120829224586487,-0.9581581950187683,0.14409500360488892,-0.20376120507717133,-2.1801626682281494
0.18381072079030206,-0.2732565021331739,-1.548231604118926,1.4334691762924194,-4.037807464599609,-1.3446178436279297,-0.26532241702079773,-0.18277741968631744,-0.94667649269104,0.060885101556777954,-0.09545134007930756,-2.35080885887146
0.20641500425260248,-0.3114568448343051,-1.5559372506205082,2.4050278663635254,-3.842393398284912,-1.409248948097229,-0.29994046688079834,-0.20495232939720154,-0.9316813945770264,-0.07856908440589905,0.03889092803001404,-2.4213459491729736
0.2370993445471178,-0.34679265573395707,-1.5607751508581555,3.0351414680480957,-3.367483139038086,-1.453758716583252,-0.3303743898868561,-0.234884113073349,-0.9141565561294556,-0.1995023787021637,0.2138117104768753,-2.29272198677063
0.2724142294850448,-0.37638816237556433,-1.562900046358419,3.3702964782714844,-2.619586229324341,-1.4203063249588013,-0.35400962829589844,-0.26905742287635803,-0.8957037925720215,-0.29833415150642395,0.33206093311309814,-2.080721378326416
0.3097704800372422,-0.3991928386352187,-1.562597003889085,3.530684471130371,-1.948823094367981,-1.322449803352356,-0.37017524242401123,-0.3048400580883026,-0.8775208592414856,-0.37481993436813354,0.4019164741039276,-1.8675200939178467
0.3481454557094307,-0.416733572176696,-1.5606482251533678,3.6449742317199707,-1.4406991004943848,-1.4521459341049194,-0.38049203157424927,-0.34115511178970337,-0.8595574498176575,-0.4025127589702606,0.40315157175064087,-1.6979224681854248
0.38935971675541303,-0.4295167775965349,-1.559986862176954,3.9287500381469727,-1.1050009727478027,-1.8045564889907837,-0.3852625787258148,-0.37959614396095276,-0.8411180377006531,-0.48856252431869507,0.6160005331039429,-1.5632855892181396
0.4350366476261864,-0.4403827250790395,-1.5597681761807318,4.34475040435791,-1.0774681568145752,-1.9679691791534424,-0.38657915592193604,-0.4214436411857605,-0.8203303217887878,-0.5376152396202087,0.634532630443573,-1.5258762836456299
0.48468146334421774,-0.45227001608686995,-1.5583717686325187,4.67067813873291,-1.16998291015625,-2.089972734451294,-0.38667529821395874,-0.46592652797698975,-0.7958609461784363,-0.5271888971328735,0.6313470602035522,-1.373389482498169
0.5375328601886412,-0.46524682757422425,-1.5563737726430293,4.928212642669678,-1.2101068496704102,-2.266512393951416,-0.38537323474884033,-0.5120183229446411,-0.7676748037338257,-0.6190365552902222,0.7344456911087036,-1.1741585731506348
0.593512022200285,-0.4783766229439875,-1.5542167131012736,5.172595977783203,-1.167762041091919,-2.4918105602264404,-0.38161227107048035,-0.5592758655548096,-0.7359229326248169,-0.7212167978286743,0.8111679553985596,-1.011757731437683
0.6525800998655772,-0.49063131075667926,-1.5525669866935465,5.363156795501709,-1.0826480388641357,-2.7571146488189697,-0.37436404824256897,-0.6072383522987366,-0.7007946372032166,-0.7990063428878784,0.8886714577674866,-0.8795123100280762
0.7142774412843447,-0.5015279832088004,-1.551944338633477,5.494819164276123,-1.011222004890442,-3.011843204498291,-0.3632507622241974,-0.6550716757774353,-0.6625180244445801,-0.822357177734375,0.974239706993103,-0.7520937919616699
0.7782080929668189,-0.5109857059749177,-1.5525153418496724,5.6162638664245605,-0.9546256065368652,-3.235045909881592,-0.3482789397239685,-0.7020043730735779,-0.6212016940116882,-0.8181639909744263,1.0519342422485352,-0.648878812789917
0.8442646587108278,-0.5191579644208721,-1.5539088826586491,5.744136810302734,-0.8739587068557739,-3.418292284011841,-0.3295825719833374,-0.7474828362464905,-0.5767536163330078,-0.7927929759025574,1.1335759162902832,-0.5744914412498474
0.9121848799447623,-0.5257209989869667,-1.5561233926970575,5.841324329376221,-0.7728903889656067,-3.5858609676361084,-0.3071337938308716,-0.7908428311347961,-0.5293737053871155,-0.7724865674972534,1.2372233867645264,-0.500457227230072
0.9815617648364651,-0.5295807995176952,-1.5600369133532976,5.868167400360107,-0.6283222436904907,-3.7735178470611572,-0.28073641657829285,-0.8313663005828857,-0.47960102558135986,-0.7604166269302368,1.3385379314422607,-0.42068272829055786
1.0517428628383234,-0.5291438321303699,-1.567371347244917,5.807736396789551,-0.5397791862487793,-3.9544973373413086,-0.25040754675865173,-0.8682891130447388,-0.4282172918319702,-0.7412154078483582,1.4136534929275513,-0.3344627022743225
1.1219445053359047,-0.5230216915805362,-1.5802600427395317,5.691742897033691,-0.5230824947357178,-4.10203218460083,-0.21674880385398865,-0.9009459018707275,-0.37592077255249023,-0.696352481842041,1.458669900894165,-0.2606911063194275
1.1915980045627796,-0.5094668473455162,-1.6009975665969263,5.569313049316406,-0.5771658420562744,-4.192192077636719,-0.18053923547267914,-0.9289616942405701,-0.3231653869152069,-0.6660794615745544,1.5063848495483398,-0.2230687141418457
1.2604538610829004,-0.48642112624986067,-1.6325164708271038,5.480443000793457,-0.7633152008056641,-4.223978519439697,-0.1427568644285202,-0.9522290229797363,-0.26996392011642456,-0.6384931802749634,1.5648694038391113,-0.20629334449768066
1.3284515686647198,-0.44916021425667324,-1.6804301729590763,5.446822166442871,-0.9957162141799927,-4.2093682289123535,-0.10420133173465729,-0.9707779288291931,-0.21617648005485535,-0.6150064468383789,1.636671543121338,-0.20813989639282227
1.3954957857679346,-0.3813657703956265,-1.7605735857377212,5.439791679382324,-1.1247631311416626,-4.211455821990967,-0.0649113729596138,-0.9846741557121277,-0.16187486052513123,-0.5785213112831116,1.6935975551605225,-0.2253168821334839
1.460443619123417,-0.22382780933031834,-1.9316976066935134,5.425961017608643,-1.2563039064407349,-4.269193172454834,-0.024444444105029106,-0.9939173460006714,-0.10738103091716766,-0.5536958575248718,1.713094711303711,-0.24325066804885864
1.5146349013982314,0.3197097353273888,-2.4901386885620966,5.3811821937561035,-1.3905770778656006,-4.367535591125488,0.01764247752726078,-0.9984233379364014,-0.05328970402479172,-0.5598330497741699,1.7091470956802368,-0.2585999369621277
1.5091783050127099,1.5638056910459555,2.53250770078154,5.281951904296875,-1.5684398412704468,-4.4846906661987305,0.06157873198390007,-0.9981021881103516,-0.00043048150837421417,-0.5833377838134766,1.693826675415039,-0.27479225397109985
1.4520118382795084,2.008116592515822,2.069821073089925,5.129122257232666,-1.7702996730804443,-4.592855930328369,0.10735392570495605,-0.9929534196853638,0.05018913745880127,-0.6070945262908936,1.6706113815307617,-0.2966337203979492
1.3866557469050782,2.133509539138894,1.9242523276424546,4.941579818725586,-1.9141957759857178,-4.715367794036865,0.15486948192119598,-0.9830939769744873,0.09768170118331909,-0.6128926277160645,1.6563880443572998,-0.3168894052505493
1.319574170824139,2.1781280881612815,1.85912342897242,4.799467086791992,-1.842086672782898,-4.884288311004639,0.20413395762443542,-0.9686093330383301,0.1418638378381729,-0.6295948028564453,1.653210163116455,-0.31379973888397217
1.2510542278733507,2.1945950636425624,1.8233223684666096,4.727238655090332,-1.7281723022460938,-5.103671550750732,0.25512412190437317,-0.9493165016174316,0.1836024820804596,-0.6929140686988831,1.6206269264221191,-0.3424159288406372
1.1812037844277574,2.198769713409376,1.801197807114535,4.668740749359131,-1.5710362195968628,-5.279367446899414,0.30735111236572266,-0.9250639081001282,0.223141610622406,-0.7893915176391602,1.643218755722046,-0.31976020336151123
1.1104054216662809,2.1975640864479487,1.7860628342033245,4.626331329345703,-1.4232139587402344,-5.412164211273193,0.3598495125770569,-0.8958789110183716,0.26059430837631226,-0.8027817010879517,1.594166874885559,-0.31609049439430237
1.0390068366730019,2.193856083995925,1.7746600205492167,4.574974536895752,-1.3153212070465088,-5.494204998016357,0.4117955267429352,-0.861901044845581,0.2958908677101135,-0.8398808240890503,1.555733323097229,-0.30808255076408386
0.9674521270808454,2.188983402849403,1.7657376219032845,4.496184349060059,-1.1522700786590576,-5.554742336273193,0.4623909592628479,-0.8234426975250244,0.3288411796092987,-0.8657113313674927,1.5450462102890015,-0.2854147255420685
0.8960589813418183,2.1837152308227816,1.7587446149991073,4.400383472442627,-1.0277827978134155,-5.5828423500061035,0.5109809637069702,-0.7808710336685181,0.35935887694358826,-0.87716144323349,1.5215785503387451,-0.2687826156616211
0.825060786484243,2.1780195479006244,1.753223827668479,4.296196937561035,-0.9431473612785339,-5.6074137687683105,0.5572185516357422,-0.7345890402793884,0.38715189695358276,-0.8708019256591797,1.4802556037902832,-0.2584134340286255
0.7544091324597182,2.1717275709991117,1.749067846506013,4.187001705169678,-0.904961347579956,-5.662744522094727,0.6010192632675171,-0.6848582625389099,0.4120015799999237,-0.8607085943222046,1.4310129880905151,-0.23600655794143677
0.6839632620605237,2.1644139155619517,1.7463225584464104,4.068211078643799,-0.9170724153518677,-5.736934185028076,0.6424767971038818,-0.6318697929382324,0.43354833126068115,-0.8829401135444641,1.3853793144226074,-0.2197878360748291
0.613561520431695,2.1560494834349697,1.7448097292846836,3.936094284057617,-0.9246914386749268,-5.794925689697266,0.6815307140350342,-0.5757830142974854,0.45165207982063293,-0.9063079953193665,1.3192827701568604,-0.22450977563858032
0.5435611815738766,2.147348156482319,1.7442760061880997,3.795501708984375,-0.8583123683929443,-5.824953556060791,0.717518150806427,-0.5171871781349182,0.4665670692920685,-0.929081380367279,1.2601072788238525,-0.23493871092796326
0.4741255257426994,2.139060469497833,1.744707193517928,3.637369394302368,-0.7531766891479492,-5.854186534881592,0.7498652935028076,-0.4565606117248535,0.47880569100379944,-0.9580866098403931,1.2238487005233765,-0.2306671142578125
0.4052821834206574,2.131441768173275,1.7462409406587016,3.469944953918457,-0.6355178356170654,-5.891069412231445,0.7783046364784241,-0.3942781090736389,0.48865780234336853,-0.9787289500236511,1.1772828102111816,-0.1944378912448883
0.3370116207344535,2.124439741236585,1.74902483964978,3.287787675857544,-0.5715604424476624,-5.938864231109619,0.802764892578125,-0.33066830039024353,0.49621260166168213,-0.9764862656593323,1.1319836378097534,-0.14555040001869202
0.26916361119278676,2.1174852395204153,1.753223524776849,3.1039037704467773,-0.5744631886482239,-6.0114312171936035,0.8234921097755432,-0.26592525839805603,0.5011433362960815,-0.9565945863723755,1.1097973585128784,-0.09112429618835449
0.20155900557811746,2.1098630640006357,1.7588377285903043,2.929553985595703,-0.6989795565605164,-6.084785461425781,0.8408147096633911,-0.2001970112323761,0.502943217754364,-0.9251042008399963,1.0800950527191162,-0.04592710733413696
0.13440963991905955,2.1009173556026495,1.765543822003456,2.7568984031677246,-0.8564066290855408,-6.09994649887085,0.8549643158912659,-0.13400529325008392,0.5010771155357361,-0.8791191577911377,1.0449244976043701,0.0021424293518066406
0.06823831236930046,2.0911867115089797,1.7730686815737269,2.5645670890808105,-0.9203920364379883,-6.052178382873535,0.8656056523323059,-0.06818536669015884,0.4960615634918213,-0.8054710030555725,1.0218749046325684,0.03674471378326416
0.0038168808436045334,2.0817167685849536,1.781254888102088,2.3468570709228516,-0.8892998695373535,-5.9117207527160645,0.8722885251045227,-0.0038168716710060835,0.4889768362045288,-0.7366225719451904,1.0044119358062744,0.05397671461105347
-0.05797231022812179,2.0737798675574437,1.7900136326528338,2.1016674041748047,-0.7220869064331055,-5.7012763023376465,0.8746764063835144,0.05793984234333038,0.4812318980693817,-0.6672484278678894,0.9759041666984558,0.0499570369720459
-0.11657360742086449,2.0689351598802794,1.7996866020567108,1.810057520866394,-0.3981766402721405,-5.475253582000732,0.8725109696388245,0.1163097620010376,0.4745485186576843,-0.6019118428230286,0.9339069128036499,0.054900914430618286
-0.17191854823759783,2.0684104725941785,1.8114375717343933,1.388134241104126,-0.06389693170785904,-5.346339225769043,0.865770161151886,0.17107293009757996,0.470293790102005,-0.558000385761261,0.9115991592407227,0.07395672798156738
-0.22397244177158912,2.0718576834149607,1.827856002283438,0.7516811490058899,0.08363424241542816,-5.304510116577148,0.8551665544509888,0.22210459411144257,0.4683588147163391,-0.541995108127594,0.8978753089904785,0.11719733476638794
-0.2725013379878885,2.078933024987305,1.8501121030681986,0.1828155815601349,0.25271061062812805,-5.23057746887207,0.841415286064148,0.2691413164138794,0.46859675645828247,-0.47262585163116455,0.8788383603096008,0.16426149010658264
-0.31725366689886486,2.0908264092630717,1.8766131760776064,-0.17344088852405548,0.6027552485466003,-4.996818542480469,0.8244972229003906,0.3119584619998932,0.4721085727214813,-0.3646429777145386,0.8711622953414917,0.14401084184646606
-0.3573890224732202,2.1085218115395383,1.9050698506765729,-0.4125298857688904,1.0451314449310303,-4.596312522888184,0.8046062588691711,0.34982943534851074,0.4798205494880676,-0.24933910369873047,0.875008761882782,0.10755124688148499
-0.3918680281395575,2.131737454854877,1.934477625323135,-0.6591042280197144,1.419037938117981,-4.111534595489502,0.7825684547424316,0.38191550970077515,0.4916574954986572,-0.15115982294082642,0.8630796074867249,0.12726950645446777
-0.4201641222668821,2.1592179911971194,1.9647271232955663,-0.9244880080223083,1.6585650444030762,-3.6477837562561035,0.7594679594039917,0.4079103171825409,0.5067718029022217,-0.08165735006332397,0.8222379684448242,0.14964604377746582
-0.4429295673010224,2.189700621998122,1.995892987903908,-1.1308021545410156,1.8096836805343628,-3.3137898445129395,0.735913872718811,0.4285881519317627,0.5241591930389404,-0.09608238935470581,0.7957923412322998,0.13943028450012207
-0.46212964812765545,2.222467292838786,2.0277227567868725,-1.1726257801055908,1.9514973163604736,-3.1771585941314697,0.711672306060791,0.44585537910461426,0.5428951978683472,-0.17866766452789307,0.7526460886001587,0.07771015167236328
-0.48025150962576174,2.25719002852092,2.059889934347332,-1.0520507097244263,2.0391666889190674,-3.2182979583740234,0.6860330104827881,0.4620022475719452,0.5620608329772949,-0.26905614137649536,0.7293886542320251,-0.0031161904335021973
-0.499310968437755,2.292449533635145,2.092152358622652,-0.8030855059623718,1.9377931356430054,-3.362504005432129,0.6590620875358582,0.4788207411766052,0.5799726843833923,-0.33789491653442383,0.7470247149467468,-0.05354440212249756
-0.5205353783606702,2.3262542292764046,2.124372905859817,-0.48632633686065674,1.652733564376831,-3.5382626056671143,0.631541907787323,0.4973446726799011,0.5948135256767273,-0.3555867075920105,0.8009799122810364,-0.044261157512664795
-0.5442171705321689,2.3573323922779004,2.1563138315677937,-0.1600656658411026,1.2988063097000122,-3.6583213806152344,0.6042641997337341,0.5177485346794128,0.6056409478187561,-0.2913370728492737,0.8696568012237549,0.026179730892181396
-0.5698551746774029,2.3847773259472347,2.1873648006020026,0.16850699484348297,0.8982978463172913,-3.651233434677124,0.5781111121177673,0.5395101308822632,0.6121411919593811,-0.13707101345062256,0.9536998271942139,0.12198984622955322
-0.59670151436149,2.4079366501535646,2.216431238911337,0.48101112246513367,0.5379087328910828,-3.5209953784942627,0.5538800954818726,0.5619170665740967,0.6143825054168701,0.07061624526977539,1.0221741199493408,0.2102176547050476
-0.62381123606513,2.4274395021310404,2.243180281807319,0.653961718082428,0.3161986172199249,-3.3237485885620117,0.5316179394721985,0.5841327905654907,0.6133279204368591,0.28808408975601196,1.0639994144439697,0.34724336862564087
-0.6495722286618415,2.445268961036086,2.2683997103438776,0.610393762588501,0.27198347449302673,-3.076092481613159,0.5107754468917847,0.6048458218574524,0.6109583973884583,0.5109835863113403,1.0843937397003174,0.520587682723999
-0.6724244561838707,2.4637322459446214,2.293199900292482,0.420227974653244,0.39536193013191223,-2.83385968208313,0.49061083793640137,0.6228845119476318,0.6093569993972778,0.6760303378105164,1.1269629001617432,0.6616544723510742
-0.6917536001364831,2.4850161665224064,2.3187267313461057,0.15968024730682373,0.6496447920799255,-2.6698155403137207,0.4700930416584015,0.6378886699676514,0.6100083589553833,0.7382351160049438,1.186253547668457,0.7762067317962646
-0.7079730206665727,2.510289582266192,2.3459611988473594,-0.05613541603088379,0.8774473071098328,-2.601590394973755,0.44836196303367615,0.6502952575683594,0.6132599115371704,0.738512396812439,1.2611885070800781,0.8567108511924744
-0.7221520838137222,2.5386265859587933,2.3748000125147937,-0.12779948115348816,0.9731171131134033,-2.5723161697387695,0.42553430795669556,0.6610010862350464,0.6180599927902222,0.7769955396652222,1.3828678131103516,0.8920719027519226
-0.7356132869360525,2.566890901117784,2.403713066173381,-0.005550491623580456,0.779497504234314,-2.4814727306365967,0.40302401781082153,0.6710419654846191,0.6223135590553284,0.8925691843032837,1.5525908470153809,0.9047096371650696
-0.7493546636341403,2.5904356581441177,2.430205353741365,0.25195586681365967,0.32604455947875977,-2.2490322589874268,0.3833962082862854,0.681166410446167,0.6237145066261292,1.0856436491012573,1.7121899127960205,0.9171333312988281
-0.7631619774306371,2.6056009852498976,2.4515570633051973,0.4907264709472656,-0.224504292011261,-1.7935857772827148,0.3690551221370697,0.6912099123001099,0.6213111281394958,1.337213158607483,1.8369578123092651,0.9541895389556885
-0.7754370476111783,2.610429434572026,2.4651856344846106,0.6081265807151794,-0.6789311766624451,-1.105405330657959,0.36172550916671753,0.7000282406806946,0.6157233119010925,1.6071313619613647,1.9173424243927002,0.961959183216095
-0.7842166048535592,2.6052470786572792,2.4693874822030697,0.5776852965354919,-0.9040534496307373,-0.2917898893356323,0.3617568612098694,0.7062708139419556,0.6085337400436401,1.8266128301620483,1.9493229389190674,0.9060078859329224
-0.7879715955126123,2.592800814874083,2.464465550062998,0.4107178747653961,-0.8554595708847046,0.48420196771621704,0.3679165244102478,0.7089241147041321,0.6017173528671265,1.86751127243042,1.9058828353881836,0.7932869791984558
-0.7863206304911554,2.576592285824444,2.4522890588429522,0.22261157631874084,-0.64420485496521,1.1260353326797485,0.37824705243110657,0.7077587842941284,0.5966631770133972,1.7490265369415283,1.8084766864776611,0.6343854069709778
-0.7801225824318717,2.5587781084147223,2.434324732037355,0.13529716432094574,-0.3795875310897827,1.669355034828186,0.3912222385406494,0.7033665776252747,0.5934816598892212,1.585111379623413,1.705294132232666,0.4480527639389038
-0.7705856401944652,2.539226280112196,2.4106303100162925,0.18459945917129517,-0.24247299134731293,2.1931939125061035,0.40653279423713684,0.6965555548667908,0.5912203788757324,1.459678053855896,1.624748706817627,0.29522383213043213
-0.7584102208384799,2.5157105822898775,2.38074229785883,0.31678810715675354,-0.3434422016143799,2.715735912322998,0.4252590835094452,0.6877682209014893,0.5883280038833618,1.34065580368042,1.5720889568328857,0.21863311529159546
-0.7438135063062271,2.4868632259847376,2.3449078652775803,0.4673619270324707,-0.5328900814056396,3.2059359550476074,0.44811761379241943,0.6770991683006287,0.5837190747261047,1.1948878765106201,1.5195105075836182,0.20235300064086914
-0.7265097010229151,2.4532259042779527,2.3041090637940678,0.579638659954071,-0.7143269777297974,3.658336639404297,0.47486773133277893,0.6642646789550781,0.5772808194160461,1.0074472427368164,1.4580955505371094,0.21288037300109863
-0.705977015836747,2.4157036391773934,2.2595511667810224,0.6590032577514648,-0.945003867149353,4.093182563781738,0.50513756275177,0.6487776041030884,0.5691426396369934,0.8288772106170654,1.417598009109497,0.23986303806304932
-0.6817167887981229,2.3746240155574476,2.212157478215197,0.7217281460762024,-1.1984704732894897,4.521351337432861,0.5388513803482056,0.6301270127296448,0.5590881705284119,0.6692938804626465,1.4046783447265625,0.26915907859802246
-0.6533631707899646,2.331144943730293,2.162931816306118,0.7587267160415649,-1.3795511722564697,4.918665409088135,0.575360894203186,0.6078603267669678,0.5472344756126404,0.4850180745124817,1.3852427005767822,0.3001013398170471
-0.6205191735747965,2.2870058779743405,2.11293625136531,0.7548177242279053,-1.4740231037139893,5.313579559326172,0.6136807203292847,0.5814576148986816,0.5341377854347229,0.33109772205352783,1.3572630882263184,0.3257255554199219
-0.5827114486636379,2.2441055709217745,2.0631874479393995,0.6979815363883972,-1.454774022102356,5.707004547119141,0.6527509689331055,0.5502899289131165,0.5206698775291443,0.19498157501220703,1.3587065935134888,0.3667813539505005
-0.5398270876839715,2.2040405988303764,2.0146229187904905,0.6141505837440491,-1.3698866367340088,6.05653715133667,0.6914809346199036,0.51398766040802,0.5076130032539368,0.025453269481658936,1.352909803390503,0.386185884475708
-0.4922176961795105,2.1678552806831064,1.9677488763784505,0.5419664978981018,-1.2431094646453857,6.377310752868652,0.728817880153656,0.4725814759731293,0.49547070264816284,-0.13490009307861328,1.3431075811386108,0.37057241797447205
-0.44007898859884864,2.1355751740080398,1.9230912007858696,0.39879733324050903,-1.1863477230072021,6.669605255126953,0.7642217874526978,0.42601093649864197,0.48423144221305847,-0.2904515862464905,1.3586113452911377,0.39438503980636597
-0.38358582534586094,2.107088720283418,1.8812882291257282,0.21947278082370758,-1.164518117904663,6.915761947631836,0.7971398830413818,0.37424811720848083,0.4738207161426544,-0.41687577962875366,1.3751415014266968,0.4316815733909607
-0.3230484680867392,2.081477901213838,1.8424992980711399,0.03194122388958931,-1.271384358406067,7.1618218421936035,0.8272835612297058,0.3174588084220886,0.4634888172149658,-0.5311867594718933,1.4049837589263916,0.4668395519256592
-0.2585816510116881,2.057718682613603,1.8067123292406868,-0.1783064603805542,-1.4108418226242065,7.391988754272461,0.8543948531150818,0.25570961833000183,0.45235198736190796,-0.6244142651557922,1.4594087600708008,0.5197703242301941
-0.19034378778747202,2.03573899628316,1.7741146265594465,-0.4222344160079956,-1.518478512763977,7.594684600830078,0.8777037858963013,0.18919648230075836,0.4402736723423004,-0.7168455719947815,1.5187960863113403,0.5601994395256042
-0.11885795788120776,2.0154316821892566,1.744922826908346,-0.6702271103858948,-1.6327672004699707,7.723620891571045,0.8963982462882996,0.11857829988002777,0.4270940124988556,-0.8222863674163818,1.5585914850234985,0.5610957145690918
-0.044965120448245945,1.996271236934639,1.7190773555705112,-0.8800338506698608,-1.7494536638259888,7.790823459625244,0.9099221229553223,0.044949971139431,0.41233620047569275,-0.9419656991958618,1.5911736488342285,0.5411703586578369
0.030538638943027798,1.9783171254724927,1.6963447211881466,-1.0578744411468506,-1.7847650051116943,7.8060455322265625,0.91767817735672,-0.030533893033862114,0.39614957571029663,-1.0244743824005127,1.612488865852356,0.4944906234741211
0.10718159836433455,1.9617534028355283,1.6762884069756256,-1.1971396207809448,-1.7797383069992065,7.826300144195557,0.919239342212677,-0.10697650164365768,0.37888669967651367,-1.0829508304595947,1.6314210891723633,0.4393048882484436
0.18496804174776585,1.9468996171360222,1.6582885124456583,-1.3112447261810303,-1.6938858032226562,7.890560626983643,0.914237380027771,-0.1839151233434677,0.3610335886478424,-1.1279672384262085,1.6697702407836914,0.3786057233810425
0.26420332343814923,1.9340571880190645,1.6419672796763127,-1.4441535472869873,-1.5934723615646362,7.98922872543335,0.9023082852363586,-0.2611403167247772,0.34299471974372864,-1.1337231397628784,1.721177577972412,0.33873745799064636
0.3451817452099865,1.9226195876349212,1.6273988484406536,-1.6131384372711182,-1.5580508708953857,8.105055809020996,0.8833731412887573,-0.3383677005767822,0.32428279519081116,-1.1213490962982178,1.7847483158111572,0.3498810827732086
0.4280349563116243,1.9120398150940299,1.6147035533305494,-1.7909334897994995,-1.4892723560333252,8.227437973022461,0.8573243021965027,-0.4150838553905487,0.30446723103523254,-1.129037618637085,1.8593130111694336,0.34526726603507996
0.512728580954406,1.902549945574044,1.6038172659579126,-1.9521385431289673,-1.377548336982727,8.346221923828125,0.8238935470581055,-0.4905567765235901,0.283819317817688,-1.1635236740112305,1.9134999513626099,0.28608131408691406
0.5989429434880849,1.8942349456894234,1.5945868588443086,-2.097622871398926,-1.253964900970459,8.419852256774902,0.7831061482429504,-0.5637697577476501,0.26250502467155457,-1.2086889743804932,1.9424316883087158,0.21318787336349487
0.6861677622558464,1.8867181655604406,1.5872138173629902,-2.2460455894470215,-1.1182613372802734,8.452146530151367,0.7353906035423279,-0.6335769295692444,0.24037674069404602,-1.2464380264282227,1.9777541160583496,0.16790282726287842
0.7739565351426275,1.8797428641849065,1.5820106581742337,-2.3970816135406494,-0.9671845436096191,8.438358306884766,0.681291401386261,-0.6989701986312866,0.2174452841281891,-1.2645434141159058,1.9805560111999512,0.11608132719993591
0.8619174826062374,1.8725508685615055,1.5794835404717031,-2.5452609062194824,-0.8386752009391785,8.384825706481934,0.6215692758560181,-0.7590922117233276,0.19346947968006134,-1.2749660015106201,1.9688549041748047,0.07563456892967224
0.9495405830122968,1.8635252061589331,1.5806088137905812,-2.7042222023010254,-0.7963818311691284,8.268827438354492,0.5572961568832397,-0.8131482005119324,0.16796188056468964,-1.2514946460723877,1.967536449432373,0.05046774446964264
1.0364036448912246,1.8498109407933618,1.5871855388343388,-2.8687617778778076,-0.8441445231437683,8.150904655456543,0.4896220862865448,-0.8605781197547913,0.14027073979377747,-1.2096996307373047,1.9588141441345215,0.06573833525180817
1.1227759606498031,1.827803244778912,1.6020384726557766,-3.0376839637756348,-0.9234234094619751,8.095756530761719,0.41895434260368347,-0.9013063907623291,0.11010923981666565,-1.1401000022888184,1.9697725772857666,0.10542118549346924
1.2090814451581942,1.7923539517299993,1.6301081311667187,-3.173535108566284,-0.987628698348999,8.111392974853516,0.34522828459739685,-0.9352913498878479,0.07776457071304321,-1.0555554628372192,1.9996225833892822,0.13175390660762787
1.2954314885329414,1.7338411409930425,1.6812021162230393,-3.2369208335876465,-0.9832416772842407,8.173274993896484,0.26829224824905396,-0.9623260498046875,0.0441354475915432,-0.9601256847381592,2.0198516845703125,0.125649094581604
1.3807016365140463,1.6262676085984755,1.782041814349197,-3.2132678031921387,-0.8682175874710083,8.194436073303223,0.18866069614887238,-0.9819863438606262,0.010475997813045979,-0.8763285875320435,2.0473856925964355,0.0977698564529419
1.4607926383027616,1.3681090173686052,2.035023209218907,-3.1184730529785156,-0.6825385689735413,8.180438995361328,0.10753479599952698,-0.993955671787262,-0.02209939993917942,-0.8335326910018921,2.0567150115966797,0.050023019313812256
1.511837091154698,0.4503505138129479,2.949419822804688,-2.9920167922973633,-0.503494918346405,8.148784637451172,0.025650033727288246,-0.9982624053955078,-0.05305211991071701,-0.798553466796875,2.049654006958008,-0.016207464039325714
1.4712457055052863,-0.5962108172192737,-2.2888759443492326,-2.854973077774048,-0.34326958656311035,8.068244934082031,-0.055806487798690796,-0.9950489401817322,-0.08223906904459,-0.7760568857192993,2.0510334968566895,-0.07741355150938034
1.395510861957986,-0.8906099993907464,-1.9947973438503972,-2.7263941764831543,-0.23267795145511627,7.926898956298828,-0.1355801522731781,-0.9846767783164978,-0.10968022793531418,-0.7660006880760193,2.0509610176086426,-0.11466969549655914
1.31578758744401,-1.0030497279936537,-1.8819985399344867,-2.6588165760040283,-0.20701946318149567,7.756526947021484,-0.21267901360988617,-0.9676610827445984,-0.13564538955688477,-0.7657450437545776,2.041177988052368,-0.09258031845092773
1.2359605320509777,-1.0600595901216832,-1.8249568979086292,-2.6844794750213623,-0.2749764621257782,7.592719554901123,-0.2866780459880829,-0.9444642663002014,-0.16063326597213745,-0.7539103031158447,2.0193848609924316,-0.0021474361419677734
1.156596842833711,-1.0930139147513378,-1.7931237740006438,-2.780259609222412,-0.39256539940834045,7.433174133300781,-0.3573887348175049,-0.9154387712478638,-0.1850542575120926,-0.6973140239715576,1.9869873523712158,0.09774352610111237
1.0780859182071547,-1.1145475023732059,-1.775125861993928,-2.8564412593841553,-0.7051014304161072,7.244801998138428,-0.4246315360069275,-0.8810540437698364,-0.20840297639369965,-0.6488699913024902,1.9549065828323364,0.12042081356048584
1.0011434747346153,-1.1333948789554293,-1.7647240013130439,-2.810436487197876,-1.2783130407333374,7.030893325805664,-0.4885637164115906,-0.8420882821083069,-0.2284572422504425,-0.6537702083587646,1.928910732269287,0.06460846960544586
0.9270554642257977,-1.1549392341894322,-1.7577924058220187,-2.560924530029297,-1.8755073547363281,6.721701145172119,-0.5490375757217407,-0.7998561263084412,-0.2424618899822235,-0.6283915638923645,1.914876937866211,-0.057190150022506714
0.8576195913740967,-1.1815904270815183,-1.7512583209092858,-2.0812249183654785,-2.4182348251342773,6.32522439956665,-0.6053096055984497,-0.7562873363494873,-0.24825377762317657,-0.6278752684593201,1.8777166604995728,-0.17766478657722473
0.7940828888416555,-1.2150810919839923,-1.7420637910723675,-1.3554679155349731,-2.8973312377929688,5.926675319671631,-0.6570586562156677,-0.7132210731506348,-0.24410969018936157,-0.663726806640625,1.8051705360412598,-0.24752843379974365
0.736375627406511,-1.255380799268895,-1.7281461694264313,-0.5429356694221497,-3.180609941482544,5.603709697723389,-0.704356849193573,-0.6716070175170898,-0.22983810305595398,-0.680042564868927,1.7099065780639648,-0.27765393257141113
0.6831332471087973,-1.2999357037132773,-1.7088546203921031,0.2595709264278412,-3.1576592922210693,5.417365074157715,-0.7473211884498596,-0.6312262415885925,-0.20751981437206268,-0.6540611982345581,1.6039130687713623,-0.21073877811431885
0.6320537130704863,-1.344809919494603,-1.6848449469168447,0.8773702383041382,-2.836007833480835,5.4009599685668945,-0.7863015532493591,-0.5908029675483704,-0.18078148365020752,-0.5806266069412231,1.468137502670288,-0.040104687213897705
0.5805333487937433,-1.386111536086723,-1.658732262774619,1.1747078895568848,-2.4386672973632812,5.53916072845459,-0.8219504952430725,-0.5484699606895447,-0.15355154871940613,-0.4917854070663452,1.346397876739502,0.22935724258422852
0.5265441156855215,-1.4220581629932543,-1.634187273994381,1.107730507850647,-2.1697866916656494,5.767504692077637,-0.8550032377243042,-0.5025485754013062,-0.12811779975891113,-0.47594451904296875,1.2443089485168457,0.5419971942901611
0.46950551435385696,-1.4524958144872382,-1.6145564113883264,0.7622132897377014,-2.0445523262023926,5.951395511627197,-0.88555908203125,-0.4524453580379486,-0.10525356233119965,-0.5410308837890625,1.124015212059021,0.8071883916854858
0.4101429343262578,-1.4787968312438864,-1.6016359635491777,0.3118181526660919,-2.1217429637908936,6.048925399780273,-0.913185715675354,-0.39874041080474854,-0.08425045013427734,-0.6627116203308105,1.0012030601501465,0.9393835067749023
0.34970785691752415,-1.5034462642511157,-1.5952470867429036,-0.07555310428142548,-2.3135623931884766,6.04394006729126,-0.9373430013656616,-0.34262335300445557,-0.06322573870420456,-0.8522840738296509,0.8606287240982056,0.9005671143531799
0.28954336070573466,-1.5277711934352138,-1.5938015170934072,-0.29306891560554504,-2.4164838790893555,5.932376384735107,-0.9574874639511108,-0.28551462292671204,-0.04122146591544151,-1.0718246698379517,0.6655194759368896,0.7433394193649292
0.23112396631794024,-1.5511714398326168,-1.595518078102505,-0.3963797688484192,-2.3196473121643066,5.681759834289551,-0.9732221364974976,-0.2290717512369156,-0.01910182647407055,-1.330870270729065,0.4802008867263794,0.5780618190765381
0.17614600010235917,-1.5730952516487915,-1.599702725216454,-0.5220075249671936,-2.2327468395233154,5.242188453674316,-0.9845237135887146,-0.1752365231513977,0.0022633501794189215,-1.5801734924316406,0.3043106198310852,0.44347643852233887
0.1267373133663096,-1.5949087209597543,-1.6064970789739232,-0.6936996579170227,-2.3488917350769043,4.602179050445557,-0.9916913509368896,-0.12639831006526947,0.023916687816381454,-1.8494800329208374,0.14270992577075958,0.3400512933731079
0.08477892943015612,-1.6187726352097749,-1.615798217151988,-0.840575098991394,-2.613241672515869,3.804680347442627,-0.9952619075775146,-0.08467740565538406,0.04778566211462021,-2.0918352603912354,-0.0009549260139465332,0.17821228504180908
0.05169747609156326,-1.645936739056248,-1.626542993782433,-0.8716709613800049,-2.9459476470947266,2.900024175643921,-0.9958460927009583,-0.05167445167899132,0.07496943324804306,-2.2885777950286865,-0.14282934367656708,-0.06744682788848877
0.02802810736171643,-1.6764695213049772,-1.63685328574388,-0.7316201329231262,-3.1997222900390625,1.9890738725662231,-0.9940312504768372,-0.02802443690598011,0.10543521493673325,-2.4856135845184326,-0.26987290382385254,-0.3599517345428467
0.01289395825943538,-1.7085949337702073,-1.6446899557202554,-0.44299858808517456,-3.194065570831299,1.2221590280532837,-0.9904383420944214,-0.012893601320683956,0.13735149800777435,-2.6690311431884766,-0.33839425444602966,-0.6132882833480835
0.003767248259622641,-1.7388548217096078,-1.6488708116266226,-0.10476382076740265,-2.79191517829895,0.7455552220344543,-0.985904335975647,-0.0037672393955290318,0.1672673225402832,-2.767711877822876,-0.3760087788105011,-0.7605899572372437
-0.0026203661726653445,-1.7633148634998719,-1.649733519355795,0.14464318752288818,-2.051508903503418,0.5639917254447937,-0.9815220832824707,0.0026203631423413754,0.19133085012435913,-2.820525646209717,-0.3812214434146881,-0.7668160200119019
-0.008025203884751848,-1.7794772599753181,-1.648954232465092,0.19247090816497803,-1.1785821914672852,0.44932425022125244,-0.9782733917236328,0.00802511814981699,0.20716293156147003,-2.8887460231781006,-0.3914785087108612,-0.6618137359619141
-0.011578643470258327,-1.7876958980280802,-1.6484906446470653,0.028333645313978195,-0.5012029409408569,0.20341373980045319,-0.9765036702156067,0.011578384786844254,0.2151883989572525,-3.0051703453063965,-0.40653690695762634,-0.5626310706138611
-0.011469790772038196,-1.790611777923693,-1.649344430213231,-0.19455190002918243,-0.11005784571170807,-0.20879033207893372,-0.975873589515686,0.011469539254903793,0.21803519129753113,-3.1165337562561035,-0.4141489863395691,-0.533769965171814
-0.006111362440129031,-1.7902016222795707,-1.6507244043498654,-0.2793847322463989,0.19416764378547668,-0.7907842993736267,-0.9760088920593262,0.0061113242991268635,0.21764516830444336,-3.1565136909484863,-0.4424974322319031,-0.6201109886169434
0.005256791560057486,-1.7865612112171105,-1.650486743222558,-0.13649921119213104,0.5413048267364502,-1.4336538314819336,-0.9767994284629822,-0.005256767384707928,0.2140916883945465,-3.147468090057373,-0.4705885946750641,-0.7362474203109741
0.02233790786058442,-1.779240595464514,-1.6467784047201295,0.15483692288398743,0.9315956830978394,-2.0434792041778564,-0.9781098365783691,-0.022336050868034363,0.2068864405155182,-3.0707943439483643,-0.45448586344718933,-0.8087540864944458
0.04448068581799189,-1.7681165966845482,-1.6389697500897824,0.47239863872528076,1.340298056602478,-2.5845441818237305,-0.9796254634857178,-0.04446601867675781,0.19584839046001434,-2.9325602054595947,-0.4094982147216797,-0.7700823545455933
0.07114341879977437,-1.7535149359625606,-1.6277531879990867,0.7013453841209412,1.6841895580291748,-3.046602964401245,-0.9808658361434937,-0.0710834190249443,0.18124395608901978,-2.747649669647217,-0.3363567590713501,-0.610641598701477
0.10199517374237452,-1.7364463363858258,-1.614535114069156,0.8052254319190979,1.9346928596496582,-3.4624791145324707,-0.9811856150627136,-0.10181841999292374,0.16403654217720032,-2.546692132949829,-0.22700849175453186,-0.39310145378112793
0.13697560209944,-1.7179038957476787,-1.6006872424871956,0.8090927600860596,2.0808396339416504,-3.8488638401031494,-0.9799339771270752,-0.13654766976833344,0.14520466327667236,-2.359421491622925,-0.10359518229961395,-0.17683599889278412
0.1759819437182691,-1.6987000274612456,-1.5872462750886134,0.7363538146018982,2.1498374938964844,-4.210787296295166,-0.9765128493309021,-0.1750749945640564,0.1255851835012436,-2.1750528812408447,0.02630177140235901,0.013712301850318909
0.21877055938531198,-1.6794194813844232,-1.5749524087487912,0.6423666477203369,2.1755363941192627,-4.541438102722168,-0.9704118371009827,-0.2170296460390091,0.10582572966814041,-1.989274501800537,0.1572304517030716,0.16555190086364746
0.2650552825636711,-1.6598448403366926,-1.5640965956789095,0.5429529547691345,2.246939182281494,-4.845215797424316,-0.9612541198730469,-0.2619626224040985,0.08582522720098495,-1.802066683769226,0.2859494388103485,0.26918578147888184
0.31452226111804044,-1.639720853565681,-1.5546698628472504,0.4762360453605652,2.289684772491455,-5.127529621124268,-0.9486862421035767,-0.3093622028827667,0.06549149006605148,-1.6271803379058838,0.419729083776474,0.3410027027130127
0.3670212188510437,-1.6195208280071174,-1.546538396722849,0.4365216791629791,2.274667739868164,-5.410468578338623,-0.9322925806045532,-0.3588366210460663,0.04546147212386131,-1.4908792972564697,0.5518298149108887,0.38022828102111816
0.42243234513288175,-1.5996383537317032,-1.5395346636882568,0.4283110201358795,2.2207624912261963,-5.672277450561523,-0.9117149710655212,-0.4099801778793335,0.02630300261080265,-1.389951229095459,0.698783278465271,0.41911637783050537
0.4802852096390203,-1.5803212637916415,-1.5335020195733489,0.43430739641189575,2.1540942192077637,-5.872763156890869,-0.8868229389190674,-0.46203213930130005,0.008447187952697277,-1.2702662944793701,0.8106344938278198,0.45363473892211914
0.5400402401054326,-1.5614413132592904,-1.5285070564802026,0.4312162399291992,2.094454526901245,-6.035200119018555,-0.8576505184173584,-0.5141705274581909,-0.008023565635085106,-1.145385980606079,0.9089306592941284,0.49493157863616943
0.6013595099175614,-1.5427969999188276,-1.524791916238114,0.42114415764808655,2.0085461139678955,-6.173900127410889,-0.8242442011833191,-0.5657640099525452,-0.02308431640267372,-1.0408377647399902,1.0061936378479004,0.5482766628265381
0.6642257333106565,-1.5246952984309081,-1.5225624420096262,0.4026135802268982,1.8584561347961426,-6.341070175170898,-0.7865579128265381,-0.6164496541023254,-0.036286838352680206,-0.956957221031189,1.1054937839508057,0.5772567391395569
0.7289234068309395,-1.5072077139316666,-1.522106651659192,0.37207111716270447,1.6789673566818237,-6.526093482971191,-0.7443844079971313,-0.6660670042037964,-0.04739827662706375,-0.8943026661872864,1.2208307981491089,0.6037337779998779
0.7952440667643146,-1.4904810850729897,-1.5237861942960655,0.3384162485599518,1.4153259992599487,-6.674771785736084,-0.6978536248207092,-0.7140344977378845,-0.05616911128163338,-0.806937575340271,1.3153986930847168,0.6115127801895142
0.8630332763502223,-1.4748739437115204,-1.5278349011757943,0.3127814531326294,1.0937477350234985,-6.8357157707214355,-0.6471469402313232,-0.7598180770874023,-0.06226696819067001,-0.7452480792999268,1.3786383867263794,0.577281653881073
0.9323411597451015,-1.460440506611854,-1.534335430190807,0.3105878531932831,0.7693156599998474,-6.988306045532227,-0.5923303365707397,-0.8030173778533936,-0.06563375145196915,-0.7158514261245728,1.4404685497283936,0.5284023284912109
1.0030266278649151,-1.4466474805400444,-1.5433992521019977,0.32690370082855225,0.5028197765350342,-7.117361545562744,-0.5336141586303711,-0.8431023955345154,-0.06659004837274551,-0.6777811050415039,1.4867181777954102,0.4609992504119873
1.0746445751763354,-1.4323145733275244,-1.555330976643838,0.3508617579936981,0.30785781145095825,-7.187227725982666,-0.471487432718277,-0.8794209957122803,-0.06571301072835922,-0.6415954232215881,1.5251272916793823,0.3798152208328247
1.1466849989294918,-1.4158266928031926,-1.5710357228874037,0.37320995330810547,0.18455132842063904,-7.213898181915283,-0.40657979249954224,-0.9114047884941101,-0.06351680308580399,-0.613088846206665,1.5597352981567383,0.30108094215393066
1.2184492754983345,-1.3942268491958847,-1.5926651914168275,0.3750689923763275,0.13465429842472076,-7.156493663787842,-0.33973637223243713,-0.9385653138160706,-0.06061834841966629,-0.5971838235855103,1.6029787063598633,0.24439525604248047
1.2890544854367416,-1.3624461942021642,-1.6247299804296749,0.35821568965911865,0.12513083219528198,-7.0316996574401855,-0.2720162570476532,-0.9605726003646851,-0.057509198784828186,-0.5677359104156494,1.6376357078552246,0.20634347200393677
1.357794259457276,-1.310081817423853,-1.677356760693203,0.3252098560333252,0.1317155808210373,-6.889183044433594,-0.20425082743167877,-0.9774007201194763,-0.05449141561985016,-0.5650667548179626,1.666274070739746,0.16095197200775146
1.4239561275396462,-1.2096027107518987,-1.7781174771471515,0.2807843089103699,0.11910603940486908,-6.753396987915039,-0.13687224686145782,-0.9892383217811584,-0.05170570686459541,-0.5942679047584534,1.6927752494812012,0.11437362432479858
1.4850912096624858,-0.9589594707389146,-2.029482784727746,0.24924826622009277,0.03922635316848755,-6.655482769012451,-0.07007237523794174,-0.9963295459747314,-0.049166738986968994,-0.6395680904388428,1.7024757862091064,0.07982170581817627
1.52394101441022,-0.07742990523040072,-2.9126916788169956,0.2519780099391937,-0.06360682100057602,-6.624826431274414,-0.0036230257246643305,-0.9989024996757507,-0.04669748991727829,-0.7076653838157654,1.6918957233428955,0.04187578335404396
1.4940807982881834,0.9591306819772464,2.3313314853663454,0.2987654209136963,-0.13549254834651947,-6.639440536499023,0.0627441480755806,-0.9970588088035583,-0.04400881379842758,-0.7884979248046875,1.6722145080566406,0.0016504526138305664
1.434989779995344,1.2648735328214378,2.0226045846798146,0.37947705388069153,-0.13319051265716553,-6.677239418029785,0.12910346686840057,-0.990792453289032,-0.04077575355768204,-0.8557422757148743,1.6466152667999268,-0.027263164520263672
1.3706622044185062,1.384824203281055,1.899814782996173,0.47278788685798645,-0.10196352750062943,-6.7391557693481445,0.19537308812141418,-0.9800398945808411,-0.036758702248334885,-0.9209284782409668,1.6316970586776733,-0.029128670692443848
1.3041145192312744,1.4491813365299908,1.8324976087348246,0.5626218914985657,-0.14084221422672272,-6.844642162322998,0.2615857422351837,-0.9646506309509277,-0.031970519572496414,-0.9857221245765686,1.6161246299743652,-0.019939839839935303
1.2356971998929618,1.4895808616228778,1.7883444083106543,0.6487665176391602,-0.21353307366371155,-6.992856025695801,0.3277791738510132,-0.9443777203559875,-0.026679422706365585,-1.0670369863510132,1.5891683101654053,-0.01929521933197975
1.165375237020606,1.517311946856433,1.756265550675923,0.7138062119483948,-0.21062332391738892,-7.146152496337891,0.3938416540622711,-0.9189363718032837,-0.021084485575556755,-1.1440095901489258,1.5758883953094482,-0.02409672550857067
1.0934707314678573,1.5375927860328402,1.7317779483144264,0.7459378838539124,-0.15994785726070404,-7.25885534286499,0.4591521620750427,-0.8882267475128174,-0.015251083299517632,-1.19232177734375,1.5693790912628174,-0.021354734897613525
1.0204287100008311,1.552796722928371,1.7127588173966406,0.7377417087554932,-0.11160589754581451,-7.347113132476807,0.5229158401489258,-0.8523322939872742,-0.009413294494152069,-1.2192049026489258,1.5465919971466064,-0.008149504661560059
0.9462543092955987,1.5641451251958132,1.698140096172156,0.6894485354423523,-0.05485669896006584,-7.463706970214844,0.5847127437591553,-0.8112310171127319,-0.0038890994619578123,-1.2432668209075928,1.5342841148376465,0.04366880655288696
0.8706988483748307,1.5724287628246594,1.6872323377760061,0.6060748100280762,-0.016666702926158905,-7.6054277420043945,0.6442912817001343,-0.7647793889045715,0.0010517651680856943,-1.2378734350204468,1.5096524953842163,0.09983944892883301
0.7936904798651873,1.5779018891270868,1.6794981271530653,0.49539807438850403,-0.04745563119649887,-7.741300106048584,0.7012012004852295,-0.7129459381103516,0.0049825129099190235,-1.215788722038269,1.4911136627197266,0.14075422286987305
0.7154598293309433,1.5802488147454736,1.674566030215709,0.3487588167190552,-0.16323469579219818,-7.845097064971924,0.7547577619552612,-0.6559645533561707,0.007134551182389259,-1.1902284622192383,1.493626356124878,0.1973637342453003
0.6367180116085798,1.5794418191620054,1.6721444862844288,0.18133987486362457,-0.2849217653274536,-7.881844520568848,0.8040214776992798,-0.5945597887039185,0.00695133488625288,-1.1437889337539673,1.4857646226882935,0.25205135345458984
0.5579095999382925,1.5765192909998762,1.6716219338046978,0.022699901834130287,-0.3523244857788086,-7.81982946395874,0.8483496904373169,-0.5294139385223389,0.00485512800514698,-1.064368486404419,1.4628398418426514,0.28274261951446533
0.4802434274305717,1.5722717480100796,1.672564006881303,-0.12950989603996277,-0.39590832591056824,-7.653906345367432,0.8868814706802368,-0.46199509501457214,0.001308524631895125,-0.9933268427848816,1.414402961730957,0.2934913635253906
0.40477778907207224,1.5673085653654057,1.674697000421544,-0.270443856716156,-0.40611010789871216,-7.380610942840576,0.9191842675209045,-0.3938145041465759,-0.0032059084624052048,-0.9445749521255493,1.3565373420715332,0.29193276166915894
0.3322850255671456,1.5624429762535654,1.6779055431263168,-0.40969476103782654,-0.322174996137619,-7.0656046867370605,0.9452664256095886,-0.3262039124965668,-0.007896325550973415,-0.9071804881095886,1.2907425165176392,0.28208160400390625
0.26299259449786366,1.558736478536857,1.6821529265749915,-0.5376993417739868,-0.1636575162410736,-6.74306583404541,0.965546190738678,-0.25997141003608704,-0.011644904501736164,-0.8743748068809509,1.2135388851165771,0.2615380883216858
0.19691856335356808,1.5568361731642766,1.6873301386802015,-0.640211284160614,0.02147984504699707,-6.417466640472412,0.9805786609649658,-0.19564837217330933,-0.013689917512238026,-0.8300505876541138,1.138229489326477,0.22761821746826172
0.13403949715849844,1.5568981244502218,1.693411006195923,-0.7344547510147095,0.18570606410503387,-6.102045059204102,0.9909346103668213,-0.13363848626613617,-0.013773095794022083,-0.7924633622169495,1.0749226808547974,0.2083989977836609
0.07425123563909579,1.5586426043556836,1.700553071683749,-0.8386849761009216,0.3060356378555298,-5.799689769744873,0.99717116355896,-0.07418302446603775,-0.012119938619434834,-0.7415863275527954,1.0210824012756348,0.19699549674987793
0.017361984241361973,1.5619255955634732,1.708884291829205,-0.9444769024848938,0.4357187747955322,-5.527007579803467,0.9998098611831665,-0.0173611119389534,-0.008869277313351631,-0.6691672205924988,0.9613308310508728,0.19331759214401245
-0.0367377771642757,1.5673379660902735,1.718637596176492,-1.0665937662124634,0.6289695501327515,-5.241950035095215,0.999319314956665,0.036729514598846436,-0.0034560204949229956,-0.60005784034729,0.8995802998542786,0.20000457763671875
-0.08767259887172339,1.5755048402716236,1.7300747528638885,-1.2050597667694092,0.8628499507904053,-4.905941009521484,0.9961482882499695,0.08756032586097717,0.0046904124319553375,-0.5285426378250122,0.8438513875007629,0.21604323387145996
-0.1349498844635866,1.587050189171675,1.7435331432448058,-1.3691353797912598,1.1468688249588013,-4.543720245361328,0.9907771348953247,0.1345406472682953,0.016105374321341515,-0.463235080242157,0.8046530485153198,0.2386859655380249
-0.17832236939185261,1.6025429884283777,1.7594806718028426,-1.5727382898330688,1.4397335052490234,-4.180853366851807,0.9836467504501343,0.1773787885904312,0.031237995252013206,-0.40121883153915405,0.766560435295105,0.28651106357574463
-0.21793406642241062,1.6220300309678393,1.7784438056533591,-1.8070855140686035,1.694303274154663,-3.8654043674468994,0.9750649333000183,0.21621301770210266,0.04999994486570358,-0.34269511699676514,0.743076503276825,0.33105790615081787
-0.2538508602305305,1.645280033254998,1.800684194957009,-2.047713279724121,1.888026237487793,-3.552841901779175,0.9652686715126038,0.2511332631111145,0.07203004509210587,-0.2855965495109558,0.7328907251358032,0.3352118730545044
-0.285972429227532,1.671550464782323,1.8260694611591337,-2.241206169128418,1.9880180358886719,-3.2571041584014893,0.9545223712921143,0.28209051489830017,0.09649883210659027,-0.23241543769836426,0.7335649728775024,0.2801644802093506
-0.31437537859438897,1.6997893676262499,1.8537591094571657,-2.336135149002075,2.005028486251831,-2.9759035110473633,0.943088948726654,0.3092225193977356,0.1223311647772789,-0.1789591908454895,0.7321135997772217,0.19454814493656158
-0.33940665013624527,1.7293482196621042,1.8824913930918308,-2.302032470703125,2.0560648441314697,-2.7480597496032715,0.9311248660087585,0.3329276442527771,0.14888127148151398,-0.12488102912902832,0.7275734543800354,0.11509585380554199
-0.36181638468165295,1.7600851363879482,1.9109075678355203,-2.1539711952209473,2.1262271404266357,-2.584451913833618,0.9185501933097839,0.3539735972881317,0.17597809433937073,-0.08902138471603394,0.7224271297454834,0.07792830467224121
-0.3825775231633468,1.7914827078184337,1.9380802699113993,-1.9395027160644531,2.1502082347869873,-2.5015504360198975,0.9052062630653381,0.37331289052963257,0.20307418704032898,-0.040628015995025635,0.7162408828735352,0.07988488674163818
-0.40255389022710436,1.8223619302832434,1.963618957014491,-1.7022736072540283,2.0437755584716797,-2.479447603225708,0.8911033868789673,0.3917693495750427,0.22902272641658783,0.02553778886795044,0.7238922119140625,0.10865424573421478
-0.42243197630450957,1.8514229906818112,1.9876083051130782,-1.4842941761016846,1.814409613609314,-2.501802444458008,0.8764153122901917,0.40997985005378723,0.25261175632476807,0.10142886638641357,0.7629022598266602,0.16750860214233398
-0.44262252748894243,1.8774173927037094,2.010318701768947,-1.2836992740631104,1.4589811563491821,-2.5366294384002686,0.8614853620529175,0.42831072211265564,0.2727513313293457,0.21555638313293457,0.814014196395874,0.23445099592208862
-0.4628307309249142,1.8994283274109125,2.031732250869676,-1.1067731380462646,1.0613306760787964,-2.4619157314300537,0.8469071984291077,0.4464828073978424,0.2887928783893585,0.40942519903182983,0.8921402096748352,0.29181933403015137
-0.4812803777303851,1.9173553461197457,2.051152469092011,-0.9274017810821533,0.776242733001709,-2.1147830486297607,0.8337036967277527,0.46291449666023254,0.3010786473751068,0.6899932026863098,1.0183172225952148,0.3149644136428833
-0.4957539135942719,1.9325775383502124,2.0673445698078825,-0.7508388757705688,0.7848353385925293,-1.563787817955017,0.8226714134216309,0.4756949245929718,0.3113299608230591,0.9733492136001587,1.115018606185913,0.2893323004245758
-0.505136202293958,1.9476654633619566,2.0798958314874736,-0.6381949186325073,1.03022038936615,-0.9826202392578125,0.8136945366859436,0.4839266240596771,0.32204964756965637,1.158381700515747,1.1438045501708984,0.27427908778190613
-0.5099097715279195,1.9642348103560998,2.0900101084337037,-0.6538144946098328,1.2842553853988647,-0.593501091003418,0.8061043620109558,0.48809850215911865,0.3345978558063507,1.2427237033843994,1.1409450769424438,0.2975890636444092
-0.5118932471987845,1.9825160662076036,2.0998508502458164,-0.7732543349266052,1.3702877759933472,-0.4754311740398407,0.7989643216133118,0.4898287057876587,0.34888961911201477,1.303361177444458,1.1460050344467163,0.3542506694793701
-0.5130846054566478,2.0011040228299137,2.111049959500156,-0.8952556252479553,1.2090460062026978,-0.5566701292991638,0.7918105125427246,0.4908669888973236,0.36343586444854736,1.3742051124572754,1.181069016456604,0.3972911834716797
-0.5147202973292767,2.0174670714210654,2.1233652876360978,-0.8780569434165955,0.8259782195091248,-0.6340368390083313,0.7850325107574463,0.4922914206981659,0.3759956657886505,1.4871535301208496,1.2389860153198242,0.4193076491355896
-0.5166963294289485,2.0290204044317353,2.134425527329758,-0.654640257358551,0.4152276813983917,-0.5437594056129456,0.779762327671051,0.49401044845581055,0.38460907340049744,1.6657483577728271,1.3303302526474,0.41641634702682495
-0.5183014460528919,2.0350033274976678,2.14147201298318,-0.2882004678249359,0.08770973980426788,-0.2639424502849579,0.7767374515533447,0.495405375957489,0.38891202211380005,1.8951985836029053,1.4311540126800537,0.4194681644439697
-0.5183484194714228,2.03512024765873,2.1427917561172856,0.0806434154510498,-0.1856919676065445,0.167425736784935,0.7766711711883545,0.49544617533683777,0.38899239897727966,2.0678722858428955,1.5135869979858398,0.4715423583984375
-0.5155160099370867,2.029991698658602,2.1384978069007112,0.31330808997154236,-0.406168133020401,0.6720330119132996,0.7799108028411865,0.492983877658844,0.38562455773353577,2.1299707889556885,1.5645418167114258,0.5488390922546387
-0.5087753090022753,2.0209360889144823,2.130264899949105,0.35907936096191406,-0.5897167921066284,1.153552532196045,0.7863450050354004,0.487108051776886,0.379983514547348,2.1023879051208496,1.5814039707183838,0.6049867272377014
-0.4979209043967513,2.0093571775291075,2.1202562212847997,0.2752646207809448,-0.7507101893424988,1.539233922958374,0.7954320311546326,0.4775999188423157,0.3730764091014862,1.9896783828735352,1.5671693086624146,0.6148539781570435
-0.4832772423317781,1.9963279616795613,2.1099058623213387,0.15928950905799866,-0.875221848487854,1.8751301765441895,0.806509256362915,0.4646835923194885,0.36552923917770386,1.8492522239685059,1.5393599271774292,0.5805919766426086
-0.46503517713044606,1.9819606094574393,2.0991188949002173,0.12520582973957062,-1.0069702863693237,2.223281145095825,0.8193124532699585,0.44845423102378845,0.3572334349155426,1.708305835723877,1.519212245941162,0.5303093194961548
-0.4435284657192981,1.9659431420479712,2.0870153734582986,0.20209059119224548,-1.1263617277145386,2.572554588317871,0.8336393237113953,0.4291291832923889,0.34769779443740845,1.5689027309417725,1.4852231740951538,0.48338747024536133
-0.4189968249548322,1.9481454114523848,2.0727097205987626,0.3616107404232025,-1.223041296005249,2.9406793117523193,0.8492280840873718,0.40684425830841064,0.3365848958492279,1.420654058456421,1.4331825971603394,0.45786404609680176
-0.3911108108873452,1.9289106653202261,2.0558020162675987,0.5238355398178101,-1.278895378112793,3.3680574893951416,0.8658362627029419,0.38121557235717773,0.32404059171676636,1.2623682022094727,1.3899941444396973,0.46341970562934875
-0.359138040396763,1.9088728272012465,2.0367014665623517,0.6229735612869263,-1.3223719596862793,3.834263801574707,0.8832059502601624,0.35146740078926086,0.31051239371299744,1.1063417196273804,1.359821081161499,0.4964182376861572
-0.32256085348538216,1.888471488358108,2.01637897679144,0.6345490217208862,-1.3947569131851196,4.2970290184021,0.900971531867981,0.31699636578559875,0.2962495684623718,0.9226216673851013,1.3339741230010986,0.5415037870407104
-0.28104185924034486,1.867908299087001,1.995888029321428,0.5766732096672058,-1.484236478805542,4.768420696258545,0.9186717867851257,0.2773567736148834,0.28127405047416687,0.6976457834243774,1.310976266860962,0.6024388074874878
-0.2346197269478618,1.847775388306985,1.9759682805870304,0.4805607199668884,-1.5059086084365845,5.181771278381348,0.9355329275131226,0.23247314989566803,0.2659592926502228,0.47256332635879517,1.2734167575836182,0.6516585350036621
-0.18398463414661523,1.8288371745089032,1.957389622306106,0.3411407768726349,-1.4990754127502441,5.502183437347412,0.950573205947876,0.18294839560985565,0.2508798837661743,0.2510718107223511,1.2280471324920654,0.6992850303649902
-0.12974367520653804,1.8110087730653712,1.9407675600705827,0.1622960865497589,-1.5396344661712646,5.7840447425842285,0.9631237983703613,0.1293799728155136,0.2359093576669693,0.051066815853118896,1.2119286060333252,0.7378607988357544
-0.07212177312691205,1.793770716013827,1.9264600743107219,-0.03740716725587845,-1.609474778175354,6.041811943054199,0.9727088212966919,0.072059266269207,0.22055649757385254,-0.1210547685623169,1.2365039587020874,0.7517030239105225
-0.01160952194729708,1.7766397098816555,1.914760030891466,-0.2500396966934204,-1.7120052576065063,6.234048366546631,0.9788229465484619,0.01160926092416048,0.20437902212142944,-0.2924521565437317,1.2725856304168701,0.7594271898269653
0.051041884183707795,1.7588979249645995,1.9057922906527778,-0.44071802496910095,-1.8683559894561768,6.3578290939331055,0.9810816645622253,-0.05101972445845604,0.18675078451633453,-0.46274060010910034,1.293619155883789,0.7590501308441162
0.11520291216747063,1.7395419065409599,1.8994755218851798,-0.5898706316947937,-2.094777822494507,6.455446720123291,0.9792619347572327,-0.11494825780391693,0.16683267056941986,-0.6090226173400879,1.3306312561035156,0.7521584033966064
0.1807017286632897,1.718080545455939,1.895492627868231,-0.6833422183990479,-2.2851195335388184,6.563031196594238,0.9730674028396606,-0.1797199249267578,0.14436286687850952,-0.7297202348709106,1.3757953643798828,0.7320867776870728
0.2473983673135941,1.6951484632462088,1.8935389942009333,-0.7363685965538025,-2.3556458950042725,6.659831523895264,0.9620662927627563,-0.24488237500190735,0.1202554926276207,-0.8371119499206543,1.403146505355835,0.6848745346069336
0.3151142826849147,1.671472228694724,1.8936097419351134,-0.7898155450820923,-2.349036455154419,6.746016979217529,0.9459466934204102,-0.3099251389503479,0.09555710107088089,-0.9478083848953247,1.4288978576660156,0.6351100206375122
0.38341753631173486,1.6474007764100438,1.8959060562429377,-0.8435072302818298,-2.285093069076538,6.7719926834106445,0.9246718883514404,-0.3740920424461365,0.07097285985946655,-1.046879529953003,1.4406204223632812,0.5795551538467407
0.45160876262261085,1.623038379626068,1.9006937540858835,-0.9016597270965576,-2.178936004638672,6.728382110595703,0.898518443107605,-0.43641358613967896,0.04698319733142853,-1.128010869026184,1.4436768293380737,0.5247788429260254
0.5189188660196056,1.5981835994938676,1.908255290972458,-0.9652886986732483,-2.0742862224578857,6.6214280128479,0.8680301904678345,-0.4959416091442108,0.023778924718499184,-1.1875035762786865,1.4449772834777832,0.47855567932128906
0.5846732224295976,1.5722109179989587,1.9189406548259171,-1.0379128456115723,-1.9816718101501465,6.454202651977539,0.8338916897773743,-0.5519269108772278,0.00117961666546762,-1.2249438762664795,1.434067964553833,0.44575035572052
0.6482610600667875,1.5445108889405499,1.9332260312350562,-1.1284534931182861,-1.899558424949646,6.248372554779053,0.7968596816062927,-0.6038011312484741,-0.02095063030719757,-1.223968505859375,1.4159959554672241,0.42332494258880615
0.709331509863699,1.5138159376008529,1.9517199846529982,-1.2298022508621216,-1.9150772094726562,6.033723831176758,0.7575660347938538,-0.6513266563415527,-0.04321318864822388,-1.1669594049453735,1.4069571495056152,0.3984835743904114
0.7676880306814221,1.478304107174526,1.9749228620016042,-1.309883713722229,-2.0581696033477783,5.8263678550720215,0.7164427638053894,-0.6944735646247864,-0.06645499169826508,-1.1200225353240967,1.4329073429107666,0.38138121366500854
0.8233108753987414,1.4370424477632098,2.0028588682036457,-1.3001983165740967,-2.169142723083496,5.635066032409668,0.6737249493598938,-0.7334005832672119,-0.09065457433462143,-1.0773504972457886,1.4471304416656494,0.3517019748687744
0.8764556810535279,1.3912641915671347,2.0347109307701006,-1.177520513534546,-2.1768720149993896,5.487484931945801,0.6295944452285767,-0.7684757709503174,-0.11426271498203278,-1.0143753290176392,1.4404423236846924,0.26924628019332886
0.9274981182040579,1.3419172320947117,2.0697873837030376,-0.9978334307670593,-2.1791532039642334,5.35847282409668,0.5841946601867676,-0.8001217246055603,-0.13609474897384644,-0.9564175605773926,1.466869831085205,0.1995408535003662
0.9767766980024127,1.2888235540614756,2.1078976759989447,-0.7751218676567078,-2.218691349029541,5.264023303985596,0.5375933647155762,-0.8286976218223572,-0.15573619306087494,-0.9426531791687012,1.476478934288025,0.15181469917297363
1.0247093477597402,1.2316619842346133,2.1491487265352376,-0.5310170650482178,-2.237516403198242,5.187048435211182,0.48976677656173706,-0.854563295841217,-0.17277169227600098,-0.9094903469085693,1.4675850868225098,0.10880686342716217
1.0713835593972978,1.1705196853173077,2.194218778832389,-0.2938896417617798,-2.1524362564086914,5.106649875640869,0.4410535991191864,-0.8778639435768127,-0.18661831319332123,-0.8619674444198608,1.437373399734497,0.08972510695457458
1.1167602077348249,1.1046943683194712,2.2447346617586055,-0.11170411854982376,-2.0241432189941406,5.050389766693115,0.3918099105358124,-0.8986842036247253,-0.19710849225521088,-0.7821907997131348,1.4098842144012451,0.10029149055480957
1.1609588352614075,1.030835463251486,2.304121128816011,0.008230499923229218,-1.9456003904342651,5.066129684448242,0.34177085757255554,-0.9171856045722961,-0.20484939217567444,-0.7021377086639404,1.4109141826629639,0.1341402679681778
1.2039987088520603,0.9437187129038268,2.3774970108827453,0.09259651601314545,-1.8787457942962646,5.150026798248291,0.2903974652290344,-0.9334806203842163,-0.21043603122234344,-0.6340559720993042,1.4286130666732788,0.1550619751214981
1.2452823433096074,0.836808843478436,2.47145651922809,0.14304876327514648,-1.8064078092575073,5.2430853843688965,0.23745107650756836,-0.9474864602088928,-0.2142103761434555,-0.5728393197059631,1.4340436458587646,0.15639488399028778
1.2833113500263675,0.7021368909190414,2.594195725307755,0.15227368474006653,-1.6991138458251953,5.322810649871826,0.18312540650367737,-0.9589599967002869,-0.21647362411022186,-0.52330482006073,1.4148011207580566,0.16160303354263306
1.315638892135872,0.5307412569356768,2.754999630451948,0.12725970149040222,-1.5740323066711426,5.396398067474365,0.12775710225105286,-0.9676235914230347,-0.2176763266324997,-0.48176097869873047,1.4002559185028076,0.18209287524223328
1.3392107063776542,0.31678726849687633,2.959745287076298,0.09929037094116211,-1.4517854452133179,5.480423450469971,0.07149933278560638,-0.9733036756515503,-0.2181003838777542,-0.4633145034313202,1.3894566297531128,0.1996830701828003
1.3508100254544777,0.06659391715476894,-3.0812407962870303,0.10714000463485718,-1.359804391860962,5.5405592918396,0.014521133154630661,-0.975900411605835,-0.2177325040102005,-0.44616174697875977,1.3946778774261475,0.20201601088047028
1.3485363538551236,-0.19562106622399772,-2.826374679462872,0.17122231423854828,-1.3384467363357544,5.579231262207031,-0.04284709319472313,-0.975401759147644,-0.21622999012470245,-0.43731650710105896,1.394484519958496,0.20239032804965973
1.3331405275981334,-0.44041161584450284,-2.588961204174595,0.307317316532135,-1.3700696229934692,5.5955939292907715,-0.10036434978246689,-0.9718925356864929,-0.21295961737632751,-0.4242938160896301,1.3876030445098877,0.2029956877231598
1.3073317806095137,-0.6503300146724234,-2.3868268610787795,0.49279263615608215,-1.4305307865142822,5.58738374710083,-0.15767517685890198,-0.9654935002326965,-0.20726953446865082,-0.41219478845596313,1.3602995872497559,0.2067965418100357
1.273972579297011,-0.8229033964546223,-2.222547145074895,0.6683527231216431,-1.489286184310913,5.564816951751709,-0.21442700922489166,-0.9562703371047974,-0.19891716539859772,-0.39386460185050964,1.3220692873001099,0.2400701642036438
1.2352184999994964,-0.9626253224157005,-2.0917397328423286,0.7968220114707947,-1.5769721269607544,5.521698474884033,-0.27026668190956116,-0.9442201852798462,-0.18815962970256805,-0.36704713106155396,1.2955691814422607,0.2891271114349365
1.1925740041542887,-1.0758020859904465,-1.9884211939267844,0.8744551539421082,-1.6853855848312378,5.477028846740723,-0.32494616508483887,-0.9293225407600403,-0.17541258037090302,-0.35229992866516113,1.2892011404037476,0.328885555267334
1.1472839895160802,-1.1688319656768165,-1.90657521357861,0.9552871584892273,-1.8346225023269653,5.4101715087890625,-0.37820887565612793,-0.9116511344909668,-0.16078060865402222,-0.35869911313056946,1.2997584342956543,0.3311755657196045
1.1007152438704502,-1.247671211875177,-1.8403656177266268,1.0890567302703857,-1.9768917560577393,5.280885696411133,-0.42951664328575134,-0.8915315866470337,-0.14382851123809814,-0.3896513283252716,1.2945010662078857,0.2937767207622528
1.0539231710641432,-1.3167366787614299,-1.7851841242359687,1.2550557851791382,-2.0988097190856934,5.1499738693237305,-0.4783017635345459,-0.8693686127662659,-0.1242009848356247,-0.4465639889240265,1.288741111755371,0.28420472145080566
1.0069388075505121,-1.3794125643105954,-1.7374541280415539,1.454157829284668,-2.2417449951171875,5.068437099456787,-0.5246923565864563,-0.8451997637748718,-0.10166185349225998,-0.4632226228713989,1.2834017276763916,0.32671380043029785
0.9596026075824982,-1.438265596936632,-1.6948407551887292,1.6730132102966309,-2.4215307235717773,5.000150203704834,-0.5688132643699646,-0.8189635872840881,-0.07582972198724747,-0.4590644836425781,1.2357573509216309,0.38620883226394653
0.9120646621125705,-1.4945447971290042,-1.656218305251109,1.877026081085205,-2.5969457626342773,4.890904426574707,-0.6103357672691345,-0.7907692193984985,-0.046629443764686584,-0.4499364495277405,1.157025933265686,0.48139816522598267
0.8649073430434147,-1.548640489178964,-1.6214340250086154,2.0164191722869873,-2.814558744430542,4.705345153808594,-0.6485514640808105,-0.761035144329071,-0.014371552504599094,-0.46884965896606445,1.0794556140899658,0.5972573757171631
0.8186738578172078,-1.6013806690427093,-1.590746942098781,2.0894174575805664,-3.144172191619873,4.4961066246032715,-0.6828708052635193,-0.7302404642105103,0.020891670137643814,-0.5637264251708984,1.0329748392105103,0.7420172691345215
0.7732984710349067,-1.653486702459049,-1.564064594723396,2.135542154312134,-3.4239697456359863,4.33169412612915,-0.7131655216217041,-0.6984994411468506,0.05910670384764671,-0.7144315242767334,1.000211477279663,0.878286600112915
0.7283092119161483,-1.7040955741689885,-1.5411933221403258,2.139680862426758,-3.523021697998047,4.240570545196533,-0.7396804094314575,-0.6656087636947632,0.09918701648712158,-0.8646286725997925,0.9225209355354309,0.9492596387863159
0.6829290516985786,-1.7509498313135334,-1.5225696949227858,2.0504088401794434,-3.3720383644104004,4.265333652496338,-0.7631735801696777,-0.6310678720474243,0.13899536430835724,-0.9821573495864868,0.798624575138092,0.9709595441818237
0.6369285726365633,-1.7912444301121502,-1.509107708815527,1.8383738994598389,-2.994886875152588,4.293002605438232,-0.7844706773757935,-0.5947290658950806,0.17579202353954315,-1.056044340133667,0.6294886469841003,0.9177443981170654
0.5914613330488778,-1.8234752987815102,-1.5012265916242735,1.5248445272445679,-2.5124690532684326,4.199948787689209,-0.8037669658660889,-0.5575746893882751,0.20753063261508942,-1.1318103075027466,0.4501833915710449,0.7907909154891968
0.5483006437968224,-1.847567929151169,-1.4985908511140202,1.1497842073440552,-2.015018939971924,3.979675769805908,-0.8209328055381775,-0.5212377309799194,0.2331959754228592,-1.1904959678649902,0.3129705786705017,0.6393626928329468
0.5086593459799127,-1.865085580230967,-1.5004163857372754,0.7788559794425964,-1.689098596572876,3.689023971557617,-0.8358496427536011,-0.4870067536830902,0.25333768129348755,-1.179485559463501,0.24614670872688293,0.5026590824127197
0.4727454446813315,-1.8790024958058986,-1.5056794991323121,0.47368988394737244,-1.6044913530349731,3.4348366260528564,-0.8483688831329346,-0.45533233880996704,0.2700788676738739,-1.1620069742202759,0.24111422896385193,0.3974626958370209
0.43966335802438933,-1.8919342628032019,-1.5131766888409344,0.3138197958469391,-1.6351337432861328,3.263788938522339,-0.858633816242218,-0.42563486099243164,0.28562694787979126,-1.1069726943969727,0.28839734196662903,0.33670279383659363
0.40805104911309176,-1.9051136750603062,-1.521461095394724,0.307647168636322,-1.6718759536743164,3.1986804008483887,-0.8670760989189148,-0.39682114124298096,0.3011839985847473,-1.0569044351577759,0.32786673307418823,0.2656037509441376
0.37666417424706067,-1.9190960233244416,-1.529342145872895,0.4365188479423523,-1.7154911756515503,3.181546926498413,-0.8740606904029846,-0.3678205609321594,0.3173739016056061,-1.0459222793579102,0.34702280163764954,0.19161370396614075
0.3449707987132306,-1.93422336507395,-1.5356671176639376,0.6649579405784607,-1.7415584325790405,3.1494646072387695,-0.8796175718307495,-0.3381691873073578,0.3345365822315216,-1.1029417514801025,0.2860298752784729,0.08585837483406067
0.31289264088396923,-1.9500407536420352,-1.539902442328364,0.9056365489959717,-1.6616345643997192,3.099327325820923,-0.8838416337966919,-0.3078121244907379,0.35224348306655884,-1.1791770458221436,0.14661827683448792,-0.03000834584236145
0.28022787516611675,-1.9646930153654123,-1.5424750834929826,1.0808449983596802,-1.3915290832519531,3.126518487930298,-0.8874001502990723,-0.27657464146614075,0.36881890892982483,-1.2448476552963257,0.0006652474403381348,-0.08480694890022278
0.24662264339792386,-1.9762270874484253,-1.5446473378748635,1.1210190057754517,-1.0100418329238892,3.2039051055908203,-0.8911280035972595,-0.2441301941871643,0.382480651140213,-1.2891697883605957,-0.1599530577659607,-0.07799148559570312
0.21271607167428133,-1.9836021624810074,-1.5479059240022996,0.9635698795318604,-0.6134244203567505,3.247291088104248,-0.8953532576560974,-0.2111155241727829,0.39213889837265015,-1.3515186309814453,-0.3048909306526184,0.007565140724182129
0.1793425779519512,-1.987016048420067,-1.5538282061384427,0.6372436881065369,-0.3011259138584137,3.3069286346435547,-0.8999543190002441,-0.1783827394247055,0.39782118797302246,-1.4311461448669434,-0.3923569917678833,0.13904401659965515
0.14725467772376646,-1.987558332140411,-1.5634010688085125,0.2331172078847885,-0.14223623275756836,3.2839548587799072,-0.9045082330703735,-0.14672307670116425,0.40042075514793396,-1.5156422853469849,-0.42593926191329956,0.22792094945907593
0.11774631475437812,-1.9873161843318836,-1.5757796283148278,-0.06948579847812653,-0.1462022215127945,3.0599148273468018,-0.9081704616546631,-0.11747442930936813,0.4017789959907532,-1.7159751653671265,-0.47049251198768616,0.2530673146247864
0.09187539445322755,-1.9873382657693948,-1.5889016832915592,-0.20489467680454254,-0.12054957449436188,2.6967480182647705,-0.9106366634368896,-0.09174619615077972,0.40289410948753357,-1.9681017398834229,-0.5509539842605591,0.1823110580444336
0.069970543753591,-1.9868917538798125,-1.6009194522089498,-0.20401637256145477,0.0360456258058548,2.2549610137939453,-0.9124360680580139,-0.06991346180438995,0.40320315957069397,-2.196053981781006,-0.6508507132530212,0.0797376036643982
0.052208482868283584,-1.984400409418045,-1.610884202117954,-0.19367553293704987,0.3440774381160736,1.7610266208648682,-0.9144307374954224,-0.05218476802110672,0.4013645350933075,-2.4086437225341797,-0.7354434132575989,-0.0028811097145080566
0.039369743628657264,-1.9786836531982444,-1.6188347897624287,-0.24487532675266266,0.7252857685089111,1.2114108800888062,-0.9172497391700745,-0.039359573274850845,0.3963635563850403,-2.5701770782470703,-0.7834248542785645,-0.07170218229293823
0.032182442176988374,-1.9696316407157572,-1.625161804103003,-0.35386353731155396,1.0107195377349854,0.5864304900169373,-0.9210368394851685,-0.03217688575387001,0.38814428448677063,-2.6765127182006836,-0.7676125764846802,-0.13788485527038574
0.03165619837346473,-1.9588111763627727,-1.6297357921182714,-0.4387664496898651,1.0930907726287842,-0.15358932316303253,-0.925197958946228,-0.03165091201663017,0.3781619369983673,-2.7656280994415283,-0.7298542261123657,-0.19583475589752197
0.038461096002527076,-1.947863763623616,-1.6317536155089283,-0.4230559766292572,1.0695314407348633,-0.9566764235496521,-0.9290608763694763,-0.03845161572098732,0.36792322993278503,-2.8129894733428955,-0.676514208316803,-0.24942347407341003
0.0523436236486375,-1.9372863680889196,-1.6302335186684664,-0.2885090708732605,1.0621241331100464,-1.716551661491394,-0.9323121309280396,-0.0523197241127491,0.35784998536109924,-2.762359380722046,-0.6029689908027649,-0.31164637207984924
0.07221267436408317,-1.9266685644051469,-1.6247641234520034,-0.08884235471487045,1.1341828107833862,-2.3572609424591064,-0.9349000453948975,-0.07214993238449097,0.3475000560283661,-2.6501524448394775,-0.5058682560920715,-0.3307305872440338
0.09696815208665358,-1.9150981797447755,-1.615644190622524,0.087382473051548,1.3414371013641357,-2.8858702182769775,-0.9368892908096313,-0.09681626409292221,0.3359539210796356,-2.520202875137329,-0.3957679569721222,-0.27850452065467834
0.12589157124541303,-1.9016696629070846,-1.6039555296228034,0.17694462835788727,1.5908710956573486,-3.310121774673462,-0.9382742643356323,-0.12555930018424988,0.3222981095314026,-2.3690223693847656,-0.25891637802124023,-0.1790790855884552
0.15863157553587404,-1.8865050636457716,-1.5909465899930761,0.1764087975025177,1.7960079908370972,-3.691784381866455,-0.938641369342804,-0.15796710550785065,0.30659180879592896,-2.191988945007324,-0.11827798187732697,-0.07989197969436646
0.19521109738898004,-1.8699358178855348,-1.5774937036057959,0.1297822892665863,1.971097707748413,-4.0542473793029785,-0.9374408721923828,-0.1939736306667328,0.2891007959842682,-2.0218794345855713,0.03490069508552551,0.015891969203948975
0.23544138296409955,-1.852380319691925,-1.5640791466860562,0.07896412163972855,2.0919735431671143,-4.372872829437256,-0.9341143369674683,-0.23327220976352692,0.2702113389968872,-1.8567028045654297,0.1919972002506256,0.1150120198726654
0.27889667142577695,-1.8343033994003382,-1.5508119864676198,0.054588738828897476,2.178858757019043,-4.654961109161377,-0.9281759262084961,-0.27529510855674744,0.25040358304977417,-1.710068702697754,0.3368643522262573,0.21575245261192322
0.3251261957097784,-1.815902208725196,-1.537692059399202,0.041880931705236435,2.270035743713379,-4.887976169586182,-0.919287919998169,-0.31942838430404663,0.22994624078273773,-1.5855491161346436,0.47503748536109924,0.3153114318847656
0.373665980139222,-1.797029645001182,-1.5248407666083583,0.03855759650468826,2.3624699115753174,-5.080136775970459,-0.9072719216346741,-0.3650308847427368,0.2088301032781601,-1.4505466222763062,0.5940195322036743,0.40468013286590576
0.4241978556411329,-1.777848987432288,-1.5124083725528603,0.025465233251452446,2.4142918586730957,-5.248664379119873,-0.8919033408164978,-0.4115898609161377,0.18735601007938385,-1.334384560585022,0.7022544741630554,0.47698116302490234
0.47664355297038175,-1.7588241786371706,-1.5006244119722567,-0.0056321024894714355,2.392591714859009,-5.421156883239746,-0.8728792667388916,-0.45879942178726196,0.1660875529050827,-1.224242925643921,0.803281843662262,0.5224043130874634
0.531160562590143,-1.7403873629539575,-1.4896357479460118,-0.038422539830207825,2.3325228691101074,-5.618309497833252,-0.8498502373695374,-0.5065343379974365,0.14552481472492218,-1.1176484823226929,0.9045445919036865,0.5355360507965088
0.5878727248666656,-1.7230057993336647,-1.4793191943515074,-0.048938967287540436,2.217628002166748,-5.820911407470703,-0.8225019574165344,-0.5545921325683594,0.12616844475269318,-1.0316393375396729,1.0031700134277344,0.5302342176437378
0.6467858681884872,-1.7071592447940211,-1.46940958743533,-0.03667537868022919,2.0851781368255615,-6.037662982940674,-0.7906165719032288,-0.6026245951652527,0.10848402976989746,-0.9673331379890442,1.10013747215271,0.5275633335113525
0.7080292942782318,-1.6931290348725638,-1.4594563121721567,0.0014224578626453876,1.9535421133041382,-6.268211841583252,-0.753967821598053,-0.6503379940986633,0.09269780665636063,-0.90754634141922,1.1959465742111206,0.5255883932113647
0.77163623570829,-1.6814262876326773,-1.4489559607459512,0.06511728465557098,1.7872769832611084,-6.502959251403809,-0.712388813495636,-0.6973089575767517,0.07913465052843094,-0.854200541973114,1.2773566246032715,0.5098546743392944
0.8374844921451764,-1.6727064791293489,-1.4373957134435746,0.1282527595758438,1.6130452156066895,-6.714738368988037,-0.665861189365387,-0.7429617643356323,0.0680939108133316,-0.7968310117721558,1.3451956510543823,0.47223520278930664
0.9052722563554344,-1.6671571638314153,-1.4245499224919735,0.1731581836938858,1.4580878019332886,-6.891368865966797,-0.6146066784858704,-0.7865933179855347,0.059408001601696014,-0.7372456789016724,1.4227933883666992,0.45089173316955566
0.974678399419076,-1.664863249374445,-1.4101460518906777,0.19287896156311035,1.320539951324463,-7.036218643188477,-0.5589519739151001,-0.8275213837623596,0.05273452401161194,-0.6888964772224426,1.501364827156067,0.43475329875946045
1.0453340866318699,-1.6659617506814843,-1.394052605720565,0.17381632328033447,1.175203800201416,-7.143660545349121,-0.49934303760528564,-0.8650921583175659,0.04766416922211647,-0.6542976498603821,1.576807975769043,0.41576051712036133
1.1169037591606552,-1.671064212473592,-1.3758824390932538,0.1319369226694107,1.0034739971160889,-7.216023921966553,-0.43626469373703003,-0.8987471461296082,0.04389052465558052,-0.6379692554473877,1.6511276960372925,0.40664052963256836
1.188953248096357,-1.6814353495502947,-1.354360022865875,0.09069281816482544,0.8516713976860046,-7.2445855140686035,-0.37035271525382996,-0.9279794096946716,0.04114347696304321,-0.6193475723266602,1.7123271226882935,0.36641883850097656
1.2609744174789668,-1.700048506298046,-1.3263848375806973,0.07131991535425186,0.6881721019744873,-7.233476638793945,-0.30234551429748535,-0.9523878693580627,0.03929789736866951,-0.6080548763275146,1.765681505203247,0.32041287422180176
1.332488957720984,-1.7339388823294772,-1.2846780842798373,0.08522747457027435,0.5773611664772034,-7.196105003356934,-0.23292328417301178,-0.9717389345169067,0.038340456783771515,-0.6096670627593994,1.7885267734527588,0.25998425483703613
1.4028545218450859,-1.8019862115650804,-1.2096245038405715,0.1317484825849533,0.5281123518943787,-7.136366367340088,-0.16270609200000763,-0.985930860042572,0.03830082714557648,-0.6224501729011536,1.7911219596862793,0.1900622844696045
1.4702543436169213,-1.9722746546807925,-1.0325037768215257,0.19116228818893433,0.5479227900505066,-7.05288553237915,-0.09239158779382706,-0.9949499368667603,0.03922363743185997,-0.6332095861434937,1.7747198343276978,0.12941646575927734
1.5239911077808956,-2.6420802296839474,-0.3553478894698211,0.241757333278656,0.6257801055908203,-6.986515045166016,-0.022412383928894997,-0.998904824256897,0.04107318073511124,-0.6449002623558044,1.74629545211792,0.09642386436462402
1.5064934965696752,2.3188759129688665,0.9750296208169559,0.26309165358543396,0.7082244157791138,-6.946628093719482,0.04710141941905022,-0.9979332685470581,0.043710857629776,-0.6620764136314392,1.7144402265548706,0.09328258037567139
1.4453099091836008,1.9553565607870136,1.3474726678991222,0.25991004705429077,0.7738229632377625,-6.92681360244751,0.11601769924163818,-0.9921368956565857,0.04695354029536247,-0.6850942373275757,1.6880748271942139,0.10221649706363678
1.3785869677912528,1.8391694807962549,1.4731616908255043,0.24794764816761017,0.8075058460235596,-6.915897369384766,0.1841895878314972,-0.9815846085548401,0.05065351352095604,-0.7051398754119873,1.6726245880126953,0.12998008728027344
1.3105992473563188,1.7855815140680282,1.536205230575625,0.2596624791622162,0.7546955943107605,-6.914777755737305,0.25135940313339233,-0.9663392901420593,0.05483409762382507,-0.7203535437583923,1.648071527481079,0.15540146827697754
1.242064505495877,1.7560731182866143,1.5743801689695,0.2929091155529022,0.6468039751052856,-6.909964084625244,0.3173176050186157,-0.9464524984359741,0.0594736784696579,-0.7333332300186157,1.6169085502624512,0.17056787014007568
1.1734301588434441,1.738161985730156,1.5999123152786154,0.32955294847488403,0.548805832862854,-6.876027584075928,0.38158345222473145,-0.9220834374427795,0.06446702778339386,-0.7346107959747314,1.5815227031707764,0.1799788475036621
1.105078549166235,1.7268318179184752,1.6181211821519095,0.36481770873069763,0.49632877111434937,-6.814270973205566,0.4436084032058716,-0.893499493598938,0.069785937666893,-0.7417194843292236,1.5502684116363525,0.19245171546936035
1.0373231228406294,1.719620226388347,1.6319946004593753,0.3707003593444824,0.5037219524383545,-6.742123603820801,0.5029056072235107,-0.8610460758209229,0.07540187984704971,-0.758627712726593,1.5032579898834229,0.19846296310424805
0.9701528967579649,1.7150268337877397,1.6437096440319632,0.3364744782447815,0.5456057786941528,-6.690314292907715,0.5593051910400391,-0.8249721527099609,0.08123292773962021,-0.7872562408447266,1.4532527923583984,0.20381653308868408
0.9033741499867546,1.7117358320698917,1.65465742546323,0.27232345938682556,0.5613133311271667,-6.675841808319092,0.6128259301185608,-0.7854198813438416,0.08694785833358765,-0.8343378305435181,1.4092755317687988,0.19907820224761963
0.8366794947737157,1.7092722401543134,1.6655012400690676,0.19946525990962982,0.6053282022476196,-6.6901140213012695,0.6635187268257141,-0.7424226999282837,0.09247319400310516,-0.8825435042381287,1.3745028972625732,0.17508971691131592
0.7698248976113587,1.7078940612546827,1.6763506558237788,0.15076932311058044,0.683769941329956,-6.726430892944336,0.7112951278686523,-0.6960095167160034,0.09813255071640015,-0.9170904755592346,1.337794303894043,0.13473188877105713
0.7025134407726071,1.707963796105941,1.6870067112137943,0.13698720932006836,0.761332094669342,-6.805502891540527,0.7560520172119141,-0.6461380124092102,0.10436107963323593,-0.9480074644088745,1.309361219406128,0.1061340719461441
0.6340840704290746,1.7095888522066007,1.6972163625801624,0.16161136329174042,0.8189787268638611,-6.938147068023682,0.7978676557540894,-0.5924398899078369,0.11145465075969696,-0.9688424468040466,1.278414011001587,0.10352646559476852
0.5641754017439315,1.7123582817927476,1.7067522537748931,0.2366619110107422,0.7928224802017212,-7.082904815673828,0.8365768790245056,-0.5347191691398621,0.11922494322061539,-0.9738450050354004,1.2610833644866943,0.12335944175720215
0.49272115406927364,1.7154895906869483,1.7151937071563352,0.3590647876262665,0.6703287363052368,-7.22401237487793,0.8718421459197998,-0.4730251133441925,0.12703748047351837,-0.9636543393135071,1.2432887554168701,0.1414257138967514
0.4197766485540318,1.7180417359366302,1.7222416857149463,0.5130982995033264,0.4413951337337494,-7.3344950675964355,0.9032984972000122,-0.4075565040111542,0.13397622108459473,-0.9464198350906372,1.217294692993164,0.15824496746063232
0.34608876294849866,1.7193687607649686,1.7276118999033903,0.6665554046630859,0.2503410875797272,-7.3218994140625,0.9303433299064636,-0.3392210900783539,0.13924947381019592,-0.9115140438079834,1.1804076433181763,0.16176080703735352
0.2733916197037038,1.7211306282601182,1.731608770923814,0.7210602164268494,0.40019476413726807,-7.089967250823975,0.9520007371902466,-0.2699986398220062,0.14420638978481293,-0.8146563768386841,1.1325322389602661,0.18188929557800293
0.20410845993391416,1.726523247101378,1.7355289366974713,0.6067671775817871,0.8785815238952637,-6.661671161651611,0.9673923254013062,-0.20269420742988586,0.1518787443637848,-0.6819614171981812,1.0835840702056885,0.22963690757751465
0.13974805193531636,1.7371843868728778,1.741169785863008,0.3352307677268982,1.4422988891601562,-6.183391094207764,0.9765753149986267,-0.1392936259508133,0.1640067845582962,-0.6086857914924622,1.0376394987106323,0.28003931045532227
0.08024214990378369,1.7536344823119348,1.7501304686640484,-0.04085423797369003,2.025571584701538,-5.833837509155273,0.9801674485206604,-0.08015606552362442,0.18123608827590942,-0.5629922747612,1.0019853115081787,0.31336236000061035
0.024098131760426866,1.775521371497465,1.7637210223948774,-0.463171124458313,2.440702438354492,-5.695740699768066,0.9788325428962708,-0.024095799773931503,0.20323890447616577,-0.5131954550743103,0.9919608235359192,0.3509756028652191
-0.030070311601955453,1.8005552131419265,1.782406412485566,-0.8362868428230286,2.483825922012329,-5.653199195861816,0.9732809662818909,0.030065780505537987,0.22763976454734802,-0.4228508472442627,1.00968337059021,0.3911040425300598
-0.08228927974233709,1.8254439317864353,1.805347549195581,-1.0731990337371826,2.190446376800537,-5.530210971832275,0.9644774198532104,0.0821964368224144,0.25105199217796326,-0.25784289836883545,1.0557582378387451,0.40875327587127686
-0.13161211636086778,1.8481132272197613,1.830359680916897,-1.0983678102493286,1.793642282485962,-5.236278533935547,0.9534754157066345,0.13123248517513275,0.2714082896709442,-0.03808552026748657,1.0935142040252686,0.372878760099411
-0.17693463725033856,1.8680852130066774,1.854764856940656,-0.9315146207809448,1.458055019378662,-4.769719123840332,0.9412069320678711,0.17601290345191956,0.28835588693618774,0.16888529062271118,1.0740939378738403,0.3012132942676544
-0.2173781582362244,1.8860196951837265,1.8764101485049518,-0.6726439595222473,1.292874813079834,-4.174694538116455,0.9283530712127686,0.21567022800445557,0.3027327358722687,0.318045973777771,1.0354284048080444,0.2455766499042511
-0.25228193821167305,1.9031274987853992,1.8946147297579141,-0.47833171486854553,1.2951483726501465,-3.5551440715789795,0.9153617024421692,0.24961431324481964,0.31592026352882385,0.40012896060943604,0.9924052953720093,0.23447954654693604
-0.28203556173554534,1.9208050044188631,1.9106305556247964,-0.4671628475189209,1.3776551485061646,-3.0872833728790283,0.9022562503814697,0.2783113718032837,0.3293581008911133,0.4174917936325073,0.9431394338607788,0.2649870216846466
-0.3075830535189894,1.9391876178345935,1.926698101187608,-0.6278499960899353,1.3325097560882568,-2.7745957374572754,0.8891246318817139,0.30275601148605347,0.3432141840457916,0.3820391893386841,0.9141170978546143,0.3125017583370209
-0.3298449638625312,1.9568898271213215,1.9444266139424942,-0.8483725786209106,1.0738760232925415,-2.62060809135437,0.8764479160308838,0.3238963484764099,0.35627228021621704,0.3548293709754944,0.9169330596923828,0.35249850153923035
-0.35079112152359876,1.9732493632827297,1.964017364051593,-0.9222212433815002,0.9065663814544678,-2.660112142562866,0.8640698194503784,0.34364086389541626,0.36782392859458923,0.2986193895339966,0.9043754935264587,0.3267103433609009
-0.3718635641920938,1.9896759830366033,1.984305948311691,-0.8521601557731628,0.9574372172355652,-2.69448184967041,0.8511062264442444,0.3633522689342499,0.3789375424385071,0.33625656366348267,0.8871360421180725,0.26234370470046997
-0.3929639944510559,2.0066788481654383,2.003933610003229,-0.7018505334854126,0.9385634064674377,-2.6200404167175293,0.8374029994010925,0.38292816281318665,0.3900289833545685,0.5197900533676147,0.9237735271453857,0.27729910612106323
-0.41305128208163466,2.021758126454494,2.021815181939065,-0.5440303087234497,0.6338633894920349,-2.3839361667633057,0.8243361711502075,0.40140587091445923,0.39917805790901184,0.7645767331123352,1.005301833152771,0.35434672236442566
-0.43107354643293067,2.0319203562161134,2.0372361078264523,-0.3850899338722229,0.11427401751279831,-2.0768167972564697,0.813625693321228,0.4178463816642761,0.40424951910972595,1.0405460596084595,1.137603998184204,0.4345872402191162
-0.44715222995440806,2.0358177369730495,2.0498227993998093,-0.21475663781166077,-0.3798989951610565,-1.8099911212921143,0.8059342503547668,0.4323995113372803,0.404352068901062,1.1905409097671509,1.2473185062408447,0.5058194398880005
-0.46151249472336314,2.0349363676340637,2.059682820559183,-0.09037663787603378,-0.6277940273284912,-1.5341510772705078,0.8006550669670105,0.4453028738498688,0.4008204936981201,1.2425425052642822,1.3036900758743286,0.5432256460189819
-0.47335873011111296,2.031514672158584,2.0671372404893122,-0.05440327525138855,-0.7119817137718201,-1.1586291790008545,0.7972403764724731,0.45587825775146484,0.39570531249046326,1.3611915111541748,1.4001703262329102,0.5310220718383789
-0.4812274472574777,2.026402277722861,2.0722793872433565,-0.06950312852859497,-0.7759881019592285,-0.6310582756996155,0.7960069179534912,0.4628675580024719,0.3900338113307953,1.5254955291748047,1.5579758882522583,0.4732474684715271
-0.4836411932047541,2.0195559687839304,2.0745026889632654,-0.06691642850637436,-0.7820570468902588,0.04372226446866989,0.7976498603820801,0.4650058150291443,0.38408929109573364,1.6717716455459595,1.665258526802063,0.3966115117073059
-0.47945175257358275,2.0114529107705303,2.07290596285703,-0.036378756165504456,-0.6696093082427979,0.8424583077430725,0.8024906516075134,0.4612928032875061,0.37844085693359375,1.7819361686706543,1.694178819656372,0.351722776889801
-0.46778468232192755,2.002968543236086,2.0672348723323832,-0.04451589286327362,-0.510635495185852,1.6920400857925415,0.8105049729347229,0.4509100615978241,0.373847633600235,1.8261528015136719,1.676912784576416,0.3533252775669098
-0.4483883938024064,1.9942101017518985,2.0583796367293856,-0.1328366994857788,-0.47837501764297485,2.471251964569092,0.8215681314468384,0.4335137903690338,0.3702588975429535,1.7824357748031616,1.649493932723999,0.40409421920776367
-0.4220121860693983,1.9843649151123557,2.0479051861996793,-0.27760758996009827,-0.6214953660964966,3.076456308364868,0.8353558778762817,0.40959692001342773,0.3666214048862457,1.6109027862548828,1.5992836952209473,0.46064916253089905
-0.3903235403053348,1.972555858106863,2.037033278724622,-0.3916718661785126,-0.8882541060447693,3.493192195892334,0.8511492609977722,0.3804876506328583,0.3616268038749695,1.349015474319458,1.5170037746429443,0.4817264974117279
-0.3550400583227255,1.9582264799220528,2.0260271764657425,-0.4128011465072632,-1.161329746246338,3.7704663276672363,0.8681378960609436,0.3476279377937317,0.35424715280532837,1.1012375354766846,1.4264198541641235,0.4589393734931946
-0.31750392752641426,1.9415169403149937,2.014493524618847,-0.3279925286769867,-1.4103608131408691,3.982830762863159,0.8854795694351196,0.3121962249279022,0.3441792130470276,0.8985474109649658,1.3505845069885254,0.3878459632396698
-0.2783036273350408,1.922473558968876,2.001743311161847,-0.15152589976787567,-1.6302992105484009,4.182703495025635,0.90267413854599,0.27472493052482605,0.33121854066848755,0.74081951379776,1.302377700805664,0.3086740970611572
-0.23760880062203057,1.9014781625709578,1.9872394575734775,0.07317034155130386,-1.8203428983688354,4.401822566986084,0.9192470908164978,0.23537929356098175,0.31556546688079834,0.5993077158927917,1.2808103561401367,0.25702062249183655
-0.19505868190136208,1.8788364150360237,1.9708752190804582,0.28355133533477783,-1.9921284914016724,4.658720970153809,0.9348587393760681,0.19382409751415253,0.2974419891834259,0.48811501264572144,1.260460615158081,0.25716927647590637
-0.1499794909678295,1.8550676559003174,1.9530272474940822,0.437642902135849,-2.129152774810791,4.961447715759277,0.949090838432312,0.14941784739494324,0.27730968594551086,0.38080406188964844,1.2436332702636719,0.30681201815605164
-0.10174058233069447,1.831127010369717,1.9345044700798788,0.49356475472450256,-2.163750171661377,5.289973735809326,0.9613081216812134,0.1015651524066925,0.2560690939426422,0.2485155463218689,1.2210209369659424,0.37700286507606506
-0.04976464917310602,1.8082401587368016,1.9163696582830063,0.43660691380500793,-2.1105728149414062,5.641481399536133,0.9707391262054443,0.04974411055445671,0.23492774367332458,0.10367792844772339,1.1992182731628418,0.4439816474914551
0.006312310456970302,1.787161717147206,1.8997385446219093,0.26719287037849426,-2.015897750854492,5.996605396270752,0.976664662361145,-0.006312268320471048,0.2146769016981125,-0.03908848762512207,1.1970165967941284,0.4953603446483612
0.06656077307670416,1.7678410606536274,1.885647705179903,0.011988021433353424,-1.9458330869674683,6.32843017578125,0.978477954864502,-0.06651163846254349,0.19533860683441162,-0.16878557205200195,1.215803623199463,0.5349013805389404
0.13050596108277168,1.749362755458427,1.8748063601476719,-0.27687790989875793,-1.9515740871429443,6.5836029052734375,0.9757307171821594,-0.13013581931591034,0.17610853910446167,-0.3068464398384094,1.2405025959014893,0.5511711835861206
0.19706136790851692,1.730714583120865,1.8673697243499,-0.507109522819519,-2.010370969772339,6.728597640991211,0.968133270740509,-0.1957884281873703,0.15615563094615936,-0.46854543685913086,1.2607755661010742,0.5249814987182617
0.2650587913684685,1.7113307984849937,1.8628529765492376,-0.6421303749084473,-2.0465691089630127,6.803159236907959,0.9555626511573792,-0.2619660198688507,0.13518059253692627,-0.6356774568557739,1.2795441150665283,0.47463691234588623
0.33399975152222394,1.6917413369533494,1.8602543311916784,-0.6427850127220154,-1.998353123664856,6.887576103210449,0.9378373622894287,-0.32782435417175293,0.11398306488990784,-0.7595232725143433,1.303074598312378,0.3896181583404541
0.40378899546350394,1.6728650632948057,1.8583405666803485,-0.5399001836776733,-1.9048383235931396,6.9775238037109375,0.9147929549217224,-0.39290544390678406,0.09369736909866333,-0.8187693953514099,1.344702959060669,0.29503560066223145
0.47429321373140004,1.6547153427593306,1.856266817772222,-0.3886971175670624,-1.9048694372177124,7.048247814178467,0.8864850997924805,-0.4567098021507263,0.07456808537244797,-0.8450575470924377,1.3810415267944336,0.2640397548675537
0.5452567560418391,1.6363903738521228,1.853909294055407,-0.2638457119464874,-1.9829517602920532,7.087538242340088,0.8531555533409119,-0.5186376571655273,0.056042324751615524,-0.8582824468612671,1.4133367538452148,0.3031802177429199
0.6165784830711485,1.6171057807884803,1.8517893521334987,-0.18576928973197937,-2.0849974155426025,7.12562894821167,0.8149871826171875,-0.5782470703125,0.037768613547086716,-0.860732913017273,1.4368896484375,0.3484923839569092
0.6882161242741054,1.596659186375361,1.8507189450281056,-0.1655729115009308,-2.110340118408203,7.148309230804443,0.7721219658851624,-0.6351603865623474,0.019973736256361008,-0.8684660196304321,1.4537791013717651,0.37684643268585205
0.759920876718085,1.5751415793502856,1.8516932738898193,-0.2009064108133316,-2.0339436531066895,7.137928485870361,0.7248837351799011,-0.6888641119003296,0.0031498228199779987,-0.8881375193595886,1.4490569829940796,0.37635159492492676
0.8313619517088399,1.5526035143879702,1.8557492173848193,-0.26716864109039307,-1.8668146133422852,7.107850074768066,0.6737584471702576,-0.7388498187065125,-0.012258914299309254,-0.9071722626686096,1.4389383792877197,0.34631961584091187
0.9024066276737238,1.5288780871279,1.8638869671527112,-0.35439062118530273,-1.6141732931137085,7.0765485763549805,0.6191784739494324,-0.7848206162452698,-0.025970082730054855,-0.9183576107025146,1.4243624210357666,0.27917444705963135
0.9727080963496318,1.503559073082879,1.8772361337737027,-0.4534273147583008,-1.2771990299224854,7.000552177429199,0.561791181564331,-0.8264135718345642,-0.03783031925559044,-0.9120109677314758,1.4125494956970215,0.20494461059570312
1.041778953922064,1.475331264353244,1.897245247450516,-0.5509288311004639,-0.9872185587882996,6.89540433883667,0.5023870468139648,-0.8633034229278564,-0.048106640577316284,-0.8879309296607971,1.403830885887146,0.14391660690307617
1.1093120812508874,1.4412348731668865,1.9259183777919853,-0.6343178749084473,-0.7873563766479492,6.78911828994751,0.44154560565948486,-0.8953925967216492,-0.05752955377101898,-0.8440877199172974,1.4024879932403564,0.10605257749557495
1.1751849186846053,1.3973003007146436,1.9662898514955138,-0.6833791732788086,-0.6560132503509521,6.696200370788574,0.3795870840549469,-0.9227611422538757,-0.06652568280696869,-0.791437029838562,1.403733491897583,0.08356976509094238
1.2391839259677677,1.337774564668205,2.0231467478481973,-0.6874015927314758,-0.6269959211349487,6.610833168029785,0.316768616437912,-0.9455186128616333,-0.07517966628074646,-0.7397575378417969,1.4042894840240479,0.062224991619586945
1.3007315993068826,1.252515698651907,2.105666995009604,-0.6593483686447144,-0.6505512595176697,6.529534339904785,0.25339382886886597,-0.9637536406517029,-0.08348877727985382,-0.6829593181610107,1.4144830703735352,0.066826231777668
1.358870182237528,1.1225188013288492,2.232584445783884,-0.6110942363739014,-0.6870390772819519,6.4632697105407715,0.18956051766872406,-0.9776275753974915,-0.09116579592227936,-0.6258703470230103,1.4262664318084717,0.08046948909759521
1.4108992980969803,0.9073784673223921,2.4440629741653224,-0.55328768491745,-0.7460198402404785,6.405128479003906,0.12544608116149902,-0.9872437119483948,-0.09804815798997879,-0.591998815536499,1.4423675537109375,0.09682750701904297
1.449896527867895,0.53224691539034,2.8149278731581178,-0.47984886169433594,-0.8006078004837036,6.377008438110352,0.061203423887491226,-0.9927005171775818,-0.10392145067453384,-0.5769352316856384,1.465951919555664,0.10440982133150101
1.4621068603733924,-0.03114673049343879,-2.9095827446099856,-0.371732234954834,-0.826659619808197,6.414300441741943,-0.003378096269443631,-0.9940991401672363,-0.1084224134683609,-0.5553529858589172,1.4866833686828613,0.07875937968492508
1.4397529618391114,-0.5528646826771634,-2.3924151053691363,-0.2437353879213333,-0.762759804725647,6.503998756408691,-0.06861762702465057,-0.9914261102676392,-0.11120203882455826,-0.5437023639678955,1.4972244501113892,0.048946261405944824
1.394681033942638,-0.8742088670813416,-2.074218211534547,-0.14231367409229279,-0.577073872089386,6.611627101898193,-0.13438934087753296,-0.9845317602157593,-0.11241285502910614,-0.5256600379943848,1.4956555366516113,0.037385471165180206
1.3388381110529044,-1.058668780622784,-1.8911169492360491,-0.09018820524215698,-0.4506851136684418,6.703238010406494,-0.2003902941942215,-0.9732180833816528,-0.11265045404434204,-0.5251345634460449,1.4961826801300049,0.05842079222202301
1.2779832578911123,-1.1708430789065352,-1.7798241024681558,-0.07994195818901062,-0.502632200717926,6.684168815612793,-0.26586633920669556,-0.957435667514801,-0.11239182949066162,-0.5747250914573669,1.5060044527053833,0.110835500061512
1.215955521432514,-1.2450092312930743,-1.708175598318041,-0.05254998803138733,-0.7524094581604004,6.457918643951416,-0.3291652500629425,-0.9377018213272095,-0.11120006442070007,-0.6814548373222351,1.4683263301849365,0.14530348777770996
1.155564001797283,-1.29938233155448,-1.6592666889445802,0.013598940335214138,-1.0410950183868408,6.1212005615234375,-0.3886353373527527,-0.915022611618042,-0.10814984887838364,-0.8064788579940796,1.36752188205719,0.15006576478481293
1.097485770277528,-1.3428672861772561,-1.623662973735235,0.0794074684381485,-1.198728084564209,5.871331691741943,-0.44404587149620056,-0.8900641202926636,-0.10300084948539734,-0.8399354219436646,1.290531039237976,0.1394084095954895
1.0405626216850208,-1.3789382580043692,-1.5962119679211586,0.12874546647071838,-1.1657861471176147,5.791934490203857,-0.4964556097984314,-0.8626888990402222,-0.09643517434597015,-0.7974591851234436,1.2450436353683472,0.12155121564865112
0.9838468849201645,-1.4083893673882388,-1.5742188222537055,0.16901886463165283,-0.9806972146034241,5.740122318267822,-0.5465360283851624,-0.8326340317726135,-0.0895499661564827,-0.7687716484069824,1.2052230834960938,0.09897994250059128
0.9277253466876396,-1.4321707022526753,-1.5560120133486766,0.23148223757743835,-0.7983508706092834,5.6258087158203125,-0.5939032435417175,-0.8002579808235168,-0.08286167681217194,-0.8031304478645325,1.1109575033187866,0.05020797252655029
0.873003151117533,-1.4521108580314612,-1.540038968242818,0.3344785273075104,-0.6939815282821655,5.438174724578857,-0.6380081176757812,-0.7662619948387146,-0.0760798528790474,-0.8375014662742615,1.0027580261230469,-0.01748698204755783
0.8203873388594877,-1.4702748747924548,-1.5251076815828144,0.4792011082172394,-0.7158937454223633,5.1953606605529785,-0.6784955263137817,-0.731410026550293,-0.06843400746583939,-0.8308275938034058,0.9313154220581055,-0.07006996870040894
0.7703492590262327,-1.4886466213373895,-1.5104174714576715,0.652882993221283,-0.86222243309021,4.921567440032959,-0.715247392654419,-0.69638592004776,-0.05888989567756653,-0.8017051815986633,0.8524222373962402,-0.0942624881863594
0.7228971119781119,-1.5080224288769304,-1.495643391803881,0.8110843300819397,-0.9873989820480347,4.677316188812256,-0.7484152317047119,-0.6615599393844604,-0.04704274982213974,-0.7786538004875183,0.7565001845359802,-0.06866461038589478
0.6775156440776298,-1.5273191115488465,-1.4811192567168567,0.9109385013580322,-0.981386661529541,4.477575778961182,-0.7783962488174438,-0.6268593072891235,-0.033863842487335205,-0.7265933752059937,0.629315972328186,-0.02816307544708252
0.6338688428358968,-1.5449904079203605,-1.467662948335457,0.8993553519248962,-0.9058979749679565,4.29680871963501,-0.8054739832878113,-0.5922664999961853,-0.02079061232507229,-0.709983229637146,0.5222590565681458,0.035729050636291504
0.591684717765534,-1.5603330814406289,-1.4564521097994456,0.7641333341598511,-0.8749626278877258,4.1470794677734375,-0.8299568295478821,-0.5577601194381714,-0.00868435949087143,-0.7027122378349304,0.4508570432662964,0.14093232154846191
0.5506708859737834,-1.573609677822313,-1.448328097946124,0.56508469581604,-0.8993827700614929,4.031442165374756,-0.8521703481674194,-0.5232590436935425,0.0023974606301635504,-0.6889673471450806,0.41264808177948,0.23542606830596924
0.5107765034493513,-1.5853693164569234,-1.4434353405416076,0.34601739048957825,-0.9535959959030151,3.9175236225128174,-0.8722724914550781,-0.4888547956943512,0.012712517753243446,-0.7074698805809021,0.3897184729576111,0.2920818328857422
0.47179449820934244,-1.5959116295134685,-1.4416278174738988,0.12679104506969452,-0.9682832956314087,3.8547022342681885,-0.8904731869697571,-0.4544854760169983,0.022369207814335823,-0.7318564653396606,0.3452783524990082,0.3288118839263916
0.43330329957686764,-1.6050066360910655,-1.442582263472167,-0.06794426590204239,-0.9248552322387695,3.822368621826172,-0.9070526957511902,-0.41987112164497375,0.031042663380503654,-0.7369749546051025,0.28689077496528625,0.30564260482788086
0.3951411942222933,-1.6125630065765313,-1.4458040318887744,-0.2223234623670578,-0.8319916129112244,3.810072898864746,-0.9221372604370117,-0.384938508272171,0.03853702172636986,-0.785519540309906,0.2244618535041809,0.2331610918045044
0.35708790735831897,-1.6184625440533902,-1.4506150816563286,-0.3203372061252594,-0.7022747993469238,3.8056187629699707,-0.9358544945716858,-0.3495473265647888,0.044642459601163864,-0.8370488882064819,0.1705007255077362,0.10780811309814453
0.3194669962353027,-1.623300951532023,-1.4562815978713477,-0.36141884326934814,-0.6499679088592529,3.723398447036743,-0.9480947256088257,-0.3140605688095093,0.04982515051960945,-0.9093729853630066,0.09224355220794678,-0.057652831077575684
0.28315343038065177,-1.628138751290486,-1.462198268914608,-0.3569919168949127,-0.6715273857116699,3.5587728023529053,-0.9586011171340942,-0.27938488125801086,0.05502884089946747,-1.0182971954345703,-0.0016362667083740234,-0.1959894895553589
0.24875176906378244,-1.6336988618305115,-1.4677384646849303,-0.29140543937683105,-0.7315249443054199,3.344209909439087,-0.9673035144805908,-0.24619434773921967,0.06092622131109238,-1.1248441934585571,-0.09781502187252045,-0.3033730983734131
0.2166456522534072,-1.640154146141539,-1.472469533716455,-0.19858074188232422,-0.7646872401237488,3.103909969329834,-0.9742758274078369,-0.2149548977613449,0.06768221408128738,-1.244001030921936,-0.1891893595457077,-0.334771990776062
0.1867982314239569,-1.6469889778323432,-1.4762492813158872,-0.1103278398513794,-0.7410234808921814,2.888869047164917,-0.9797531962394714,-0.1857137829065323,0.07479478418827057,-1.3788743019104004,-0.2447366863489151,-0.2965811491012573
0.15899059186778325,-1.6533907242055554,-1.4794434108204733,-0.08727718889713287,-0.6371505260467529,2.6809258460998535,-0.984021782875061,-0.15832160413265228,0.08146000653505325,-1.535341739654541,-0.3069036304950714,-0.2295616865158081
0.1336699027403393,-1.6586750650877378,-1.4828720209814823,-0.16877871751785278,-0.5150965452194214,2.392301321029663,-0.9872551560401917,-0.1332722008228302,0.08698276430368423,-1.7115821838378906,-0.3875102996826172,-0.16989898681640625
0.11194262768161968,-1.6626850305879721,-1.4872627759462356,-0.3114878237247467,-0.3964162766933441,1.9847607612609863,-0.9895486235618591,-0.11170897632837296,0.09118512272834778,-1.9242849349975586,-0.45707762241363525,-0.1442551612854004
0.09506428364832989,-1.6655307392655896,-1.4927119662939135,-0.44956153631210327,-0.280607134103775,1.4515419006347656,-0.991020917892456,-0.09492116421461105,0.09416565299034119,-2.1348485946655273,-0.5386084914207458,-0.19830693304538727
0.08414229652295371,-1.6669882522045414,-1.4988501955068487,-0.5485407710075378,-0.11837057769298553,0.8182429075241089,-0.9918556809425354,-0.08404304832220078,0.09570387005805969,-2.315319061279297,-0.6152825355529785,-0.2888343334197998
0.07990874934574577,-1.6666185957946738,-1.5049815463114127,-0.5726130604743958,0.09974311292171478,0.13464276492595673,-0.9922361373901367,-0.07982373237609863,0.09537038952112198,-2.4389467239379883,-0.6596324443817139,-0.39644157886505127
0.08242823385673949,-1.6638972851423528,-1.5102818739834472,-0.518695056438446,0.3596433997154236,-0.5319643020629883,-0.9922885894775391,-0.08233492076396942,0.09265086054801941,-2.5039730072021484,-0.6580672860145569,-0.5110163688659668
0.09115979795195098,-1.658514009070757,-1.5143221332151642,-0.43286535143852234,0.6414234042167664,-1.1219247579574585,-0.99201899766922,-0.09103359282016754,0.08724147826433182,-2.4986424446105957,-0.5848087072372437,-0.568640947341919
0.1055213411872255,-1.6505195722898636,-1.5169249635737017,-0.31747353076934814,0.8939436674118042,-1.6868733167648315,-0.9912792444229126,-0.1053256243467331,0.07919585704803467,-2.432823419570923,-0.4704495072364807,-0.5869168043136597
0.12533793323021625,-1.6404997893473496,-1.518100026893423,-0.21133483946323395,1.065068006515503,-2.2267401218414307,-0.9897461533546448,-0.12501002848148346,0.06910067796707153,-2.3588407039642334,-0.35753393173217773,-0.5720150470733643
0.15038609705960013,-1.6293670060848304,-1.518150581065704,-0.12146016955375671,1.1483930349349976,-2.759990692138672,-0.9870177507400513,-0.14981988072395325,0.05787649750709534,-2.238507032394409,-0.21539920568466187,-0.500289797782898
0.18079420373076072,-1.6177903866858465,-1.5173884458384594,-0.050042442977428436,1.1787474155426025,-3.298755168914795,-0.9826152324676514,-0.17981089651584625,0.04621110111474991,-2.1216633319854736,-0.06510795652866364,-0.39192938804626465
0.21637089569894033,-1.6062264157336004,-1.5161788533524672,-0.011523207649588585,1.178560733795166,-3.797447443008423,-0.9760700464248657,-0.2146865576505661,0.034596726298332214,-2.0167124271392822,0.0712081789970398,-0.25380444526672363
0.25689734512169227,-1.594647127724851,-1.5150018763938635,-0.002242091577500105,1.1796464920043945,-4.283044815063477,-0.9669080376625061,-0.25408095121383667,0.023065904155373573,-1.9260821342468262,0.19487681984901428,-0.08939576148986816
0.30224191531275507,-1.5830367473314322,-1.514160708513812,0.0016063065268099308,1.1845604181289673,-4.755415439605713,-0.9546002149581909,-0.2976612448692322,0.011685291305184364,-1.8663380146026611,0.3030933439731598,0.05189812183380127
0.3523023759790389,-1.5709956433720298,-1.5136853276566682,0.03277434781193733,1.2508941888809204,-5.230268955230713,-0.9385808706283569,-0.34505969285964966,0.00018707472190726548,-1.7734706401824951,0.39298751950263977,0.08127963542938232
0.40736148551178575,-1.558215049609154,-1.5132466420740196,0.12591581046581268,1.3256356716156006,-5.7501630783081055,-0.918096661567688,-0.3961881101131439,-0.01155143789947033,-1.680185079574585,0.4789365530014038,0.012253404594957829
0.46763112048213473,-1.5448088863000147,-1.5123052259625742,0.2823757231235504,1.4276163578033447,-6.252707481384277,-0.8923372626304626,-0.4507730007171631,-0.023194782435894012,-1.6100735664367676,0.5880410671234131,-0.06980752944946289
0.5326859107055675,-1.53083333456569,-1.510484164893781,0.46314629912376404,1.5306504964828491,-6.690025806427002,-0.860758364200592,-0.5078489184379578,-0.0344168022274971,-1.5101675987243652,0.7276365160942078,-0.10538417100906372
0.6019239413038366,-1.5165827655573443,-1.5078604345413211,0.6237652897834778,1.5791401863098145,-7.068201065063477,-0.8230367302894592,-0.5662293434143066,-0.04466351494193077,-1.4122233390808105,0.8819337487220764,-0.053023215383291245
0.674620302152675,-1.5028331312857917,-1.504744211092341,0.7576432228088379,1.523232102394104,-7.3549933433532715,-0.7791411876678467,-0.6246008276939392,-0.05303460359573364,-1.3142424821853638,1.014859676361084,0.042597658932209015
0.7499815522022903,-1.4900815723896266,-1.5014665300504866,0.8469422459602356,1.4372711181640625,-7.586755275726318,-0.7293192744255066,-0.681625247001648,-0.058994997292757034,-1.1958363056182861,1.1347349882125854,0.1366775631904602
0.827459917955217,-1.4782067432520802,-1.4987298833570228,0.8653820753097534,1.3126180171966553,-7.755843162536621,-0.6738491654396057,-0.7362147569656372,-0.06257031857967377,-1.084436297416687,1.2421810626983643,0.26374220848083496
0.9061691597455449,-1.4666247961907928,-1.4975648587715462,0.8207110166549683,1.1686437129974365,-7.838566303253174,-0.613422155380249,-0.787146806716919,-0.06413327902555466,-0.9547082781791687,1.333777666091919,0.37416136264801025
0.9852850791501974,-1.4543211194437722,-1.4992413695260998,0.7204915881156921,1.0119549036026,-7.851937294006348,-0.5488810539245605,-0.8334296941757202,-0.06422171741724014,-0.8422932028770447,1.4052376747131348,0.4393133521080017
1.064096962791446,-1.4399721248864996,-1.5050468702608095,0.6240699887275696,0.8578374981880188,-7.814507007598877,-0.48114722967147827,-0.8743510246276855,-0.06330728530883789,-0.7276845574378967,1.4550089836120605,0.4463334083557129
1.1424815485069302,-1.4222764029721089,-1.5161084404940992,0.5752357840538025,0.6992602944374084,-7.801811218261719,-0.4107661247253418,-0.9096669554710388,-0.06145951524376869,-0.653229296207428,1.499998927116394,0.39106470346450806
1.220753497738187,-1.3994262090926517,-1.5339076331302857,0.5902462005615234,0.5762262344360352,-7.817998886108398,-0.33791443705558777,-0.9393580555915833,-0.058482054620981216,-0.6437749862670898,1.520534873008728,0.2925060987472534
1.298959004294113,-1.367207640686879,-1.5620807405243886,0.6287117600440979,0.504322350025177,-7.814831256866455,-0.2629562318325043,-0.9632791876792908,-0.054287031292915344,-0.6508620977401733,1.5352091789245605,0.18761837482452393
1.3768256352071857,-1.3131742709030756,-1.6123690977628737,0.6679859161376953,0.5151475667953491,-7.828733921051025,-0.18639476597309113,-0.9812465906143188,-0.049110718071460724,-0.6470097303390503,1.563598394393921,0.0994647815823555
1.453910274352662,-1.1927660380584932,-1.728628972549457,0.7200279235839844,0.5791425704956055,-7.863194465637207,-0.10838571190834045,-0.9931765794754028,-0.04304328188300133,-0.6685765385627747,1.5975468158721924,0.01994156837463379
1.5241938046712673,-0.6859498505962409,-2.2303232591934243,0.7626051902770996,0.7188488245010376,-7.857109546661377,-0.02950911596417427,-0.9989143013954163,-0.03605048730969429,-0.6986861228942871,1.6239447593688965,-0.04770499840378761
1.5140909050877656,1.0506447964584984,2.3233676522360414,0.7889032363891602,0.9651958346366882,-7.779040336608887,0.04917984455823898,-0.9983927011489868,-0.02816839888691902,-0.6963966488838196,1.6701761484146118,-0.0783989429473877
1.4425822088631095,1.4203902272222677,1.96329580395504,0.8198469877243042,1.2088204622268677,-7.62640380859375,0.12641963362693787,-0.991791844367981,-0.019158972427248955,-0.6712652444839478,1.708954930305481,-0.08849173784255981
1.3680622193488503,1.5266369754400617,1.8685096264165928,0.8339840769767761,1.2896130084991455,-7.4416937828063965,0.20115236937999725,-0.9795197248458862,-0.00888853706419468,-0.648402750492096,1.7462279796600342,-0.0869060754776001
1.2945183012831882,1.5787597225762797,1.8275977757269095,0.8351995348930359,1.1497650146484375,-7.248887538909912,0.27276796102523804,-0.9620773792266846,0.0021722051315009594,-0.6497516632080078,1.777552843093872,-0.042211174964904785
1.222640825572928,1.6101013143105045,1.8056610356348604,0.8536471128463745,0.937118411064148,-7.040984630584717,0.3409007787704468,-0.9400035738945007,0.013406004756689072,-0.6507457494735718,1.768326997756958,-0.003350498154759407
1.1527901145771426,1.631851059632032,1.7914732269882974,0.9116624593734741,0.7870136499404907,-6.8103251457214355,0.40518277883529663,-0.9139001369476318,0.024769112467765808,-0.6559457778930664,1.7193353176116943,-0.0065653324127197266
1.0851278535789102,1.649565980414238,1.7803625727703947,0.9996100664138794,0.7704468965530396,-6.582661151885986,0.46535205841064453,-0.8843631148338318,0.036731619387865067,-0.6735888123512268,1.6384525299072266,-0.04600894823670387
1.0193185974915673,1.6663812335228205,1.7705763310272067,1.1067266464233398,0.8982564806938171,-6.409549713134766,0.5215548276901245,-0.8517512083053589,0.050005149096250534,-0.708551287651062,1.5608881711959839,-0.08955585956573486
0.9548333176989571,1.6834817887848377,1.7618256495168365,1.1844488382339478,1.066335678100586,-6.283868312835693,0.5740805864334106,-0.8162174224853516,0.06496574729681015,-0.7714530229568481,1.491769790649414,-0.11161184310913086
0.8912068820533672,1.70131842995765,1.7544454371697935,1.2315117120742798,1.328521490097046,-6.204497814178467,0.6231279969215393,-0.7778307795524597,0.08179700374603271,-0.8357287645339966,1.427046537399292,-0.12227857857942581
0.8281094070267295,1.7205831002977634,1.7488004621658069,1.2510907649993896,1.666412353515625,-6.152764320373535,0.6686974167823792,-0.7366541624069214,0.10091789811849594,-0.8917809724807739,1.3812158107757568,-0.12290573120117188
0.7655900323775253,1.7414468062925341,1.7452232106353218,1.2437399625778198,1.9928340911865234,-6.101492404937744,0.7105010747909546,-0.6929625272750854,0.12243819236755371,-0.9242309927940369,1.3471527099609375,-0.10670638829469681
0.7034029460110532,1.763829023849184,1.7437077149112834,1.2186681032180786,2.247959852218628,-6.053446292877197,0.7484810948371887,-0.6468166708946228,0.14630301296710968,-0.9392006397247314,1.328411340713501,-0.07820294797420502
0.6417970030827801,1.7864188875846958,1.7443130924866734,1.1763044595718384,2.305893898010254,-5.990200519561768,0.7824723124504089,-0.5986358523368835,0.17138299345970154,-0.9364945888519287,1.3079102039337158,-0.01679612696170807
0.5811699043337781,1.807753988559059,1.7470904953217397,1.090622067451477,2.258816719055176,-5.881951808929443,0.8124654293060303,-0.5490021705627441,0.1962059736251831,-0.8742786645889282,1.2846589088439941,0.10451427102088928
0.5222921563588034,1.827486733945382,1.7519284499620373,0.981552243232727,2.1846938133239746,-5.691422462463379,0.8382819294929504,-0.49886801838874817,0.2200329452753067,-0.8027746081352234,1.2552461624145508,0.20828130841255188
0.46589637541595513,1.846177911214527,1.7584327338589452,0.8757008910179138,2.1624233722686768,-5.451971054077148,0.8597564697265625,-0.4492238163948059,0.24293331801891327,-0.768509030342102,1.2015737295150757,0.24061772227287292
0.41209723510482077,1.8649051623961446,1.7661632421043185,0.8007006645202637,2.24320650100708,-5.242550849914551,0.8769384622573853,-0.4005318582057953,0.26561856269836426,-0.772904098033905,1.1376839876174927,0.22534823417663574
0.3603762665134916,1.8850738885423064,1.7748813327930901,0.7543570399284363,2.4401352405548096,-5.084213733673096,0.8899305462837219,-0.35262635350227356,0.28927236795425415,-0.7955243587493896,1.0902819633483887,0.185153990983963
0.31043096682344307,1.9077585221159539,1.784497609322576,0.7129369378089905,2.721303701400757,-4.927241325378418,0.8986533284187317,-0.3054690361022949,0.3148185908794403,-0.8058189749717712,1.0498690605163574,0.14267048239707947
0.2624373153654234,1.9337910014821904,1.7949524902785103,0.6893502473831177,3.0624797344207764,-4.753565311431885,0.9028294086456299,-0.25943517684936523,0.342917799949646,-0.7886020541191101,1.0219016075134277,0.09838178753852844
0.2163242194250962,1.9635718428561546,1.8063614173812146,0.6423954963684082,3.4036192893981934,-4.604565143585205,0.902318000793457,-0.21464097499847412,0.37383314967155457,-0.7509051561355591,0.9792741537094116,0.09648844599723816
0.17234691832796967,1.996571462854834,1.8190320905590553,0.5661747455596924,3.633066177368164,-4.421267032623291,0.8972265720367432,-0.1714949607849121,0.406907856464386,-0.6657202839851379,0.9179549217224121,0.1723616123199463
0.13102080537581948,2.0308001170819,1.833135078656727,0.4478353261947632,3.573082685470581,-4.217223167419434,0.88837069272995,-0.13064627349376678,0.4401463568210602,-0.5438426733016968,0.864410936832428,0.29387766122817993
0.09257363510139505,2.063418719455901,1.8489118307107022,0.29037269949913025,3.2596120834350586,-4.030743598937988,0.8773228526115417,-0.09244146943092346,0.47091299295425415,-0.4245030879974365,0.8199653029441833,0.4414404332637787
0.057006109386559825,2.0928716321308256,1.8662867699947066,0.14054350554943085,2.8740415573120117,-3.852457284927368,0.8653780221939087,-0.056975238025188446,0.49786996841430664,-0.3050602078437805,0.7897480726242065,0.5370727181434631
0.02378279958929718,2.119421721290556,1.8849628686986613,0.04729131609201431,2.5785973072052,-3.7503113746643066,0.8530009388923645,-0.02378055825829506,0.5213673710823059,-0.23711049556732178,0.7790448069572449,0.5327556133270264
-0.008081631332714365,2.1437413749075307,1.9046458474271042,0.015093965455889702,2.304062604904175,-3.7259833812713623,0.8402807116508484,0.008081543259322643,0.5420914888381958,-0.2030888795852661,0.7700251340866089,0.474296510219574
-0.03929919964812874,2.1666261867252543,1.9250668465148348,0.03110150247812271,2.180948257446289,-3.7001311779022217,0.827043890953064,0.03928908333182335,0.5607624650001526,-0.1269555687904358,0.7717002630233765,0.4229258894920349
-0.06950080194940579,2.1894990849461466,1.9453621059044106,0.09194168448448181,2.168271780014038,-3.5226571559906006,0.812664806842804,0.06944486498832703,0.5785786509513855,0.02711784839630127,0.8138101100921631,0.3621867299079895
