attitudeX,attitudeY,attitudeZ,gyroX,gyroY,gyroZ,gravityX,gravityY,gravityZ,accX,accY,accZ
0.5805603954306523,0.33544535915641266,0.395237490586497,0.18481944501399994,0.9567086696624756,-0.640999436378479,0.2752538025379181,-0.5484926104545593,-0.789551317691803,-0.10273775458335876,-0.05570971965789795,-0.17500239610671997
0.5797062522307684,0.34946663634304326,0.38730886634417877,0.0848209485411644,0.9732828140258789,-0.6688907146453857,0.28645721077919006,-0.5477781891822815,-0.7860543131828308,-0.09830087423324585,-0.05039691925048828,-0.10220551490783691
0.5772915184170283,0.363252059565867,0.3794882597974746,-0.08816446363925934,0.9264472723007202,-0.7349563837051392,0.2977348566055298,-0.5457563996315002,-0.7832649946212769,-0.09015408158302307,-0.06111621856689453,-0.02416902780532837
0.5728317626563978,0.3765339964487846,0.37155877716527863,-0.26156073808670044,0.8689895868301392,-0.8377642631530762,0.30900347232818604,-0.542013943195343,-0.7814971804618835,-0.09653991460800171,-0.09467434883117676,0.03526616096496582
0.5662878086985049,0.38914735269520334,0.3630139510197294,-0.412788063287735,0.7650389671325684,-0.9939579963684082,0.32017478346824646,-0.5365030169487,-0.7808026075363159,-0.10557499527931213,-0.13076388835906982,0.017161309719085693
0.5580790034658499,0.40283425422244074,0.35343470094299373,-0.46399638056755066,1.0073354244232178,-1.1292513608932495,0.33254656195640564,-0.5295576453208923,-0.7803727388381958,-0.1373712122440338,-0.14024221897125244,-0.052268803119659424
0.5490700688321931,0.42115704924210323,0.342683810735118,-0.4655022919178009,1.5559412240982056,-1.2864282131195068,0.3487248122692108,-0.5218942165374756,-0.7784712314605713,-0.1587831974029541,-0.1567710041999817,-0.16880953311920166
0.5384748846689933,0.4463600012783192,0.33005611032091864,-0.5674546957015991,2.183331251144409,-1.5762962102890015,0.37059807777404785,-0.5128272771835327,-0.7743805646896362,-0.19142916798591614,-0.17754143476486206,-0.2765836715698242
0.5251919500462845,0.478148436664825,0.31576467209296954,-0.7207373380661011,2.7154712677001953,-1.8005409240722656,0.39812248945236206,-0.5013790726661682,-0.7681910991668701,-0.29332491755485535,-0.11855500936508179,-0.22764313220977783
0.5094529307782166,0.5141648145920624,0.3016486074350529,-0.8825651407241821,3.073646068572998,-1.8349478244781494,0.42935389280319214,-0.4876997172832489,-0.7601343989372253,-0.2661761939525604,-0.021852314472198486,-0.09389990568161011
0.49223956768527083,0.5511582630209588,0.2897265255984217,-1.0197463035583496,3.1495587825775146,-1.7095669507980347,0.46150195598602295,-0.4726007580757141,-0.750775933265686,-0.19837921857833862,0.06291750073432922,0.01841527223587036
0.4745819922021819,0.5857136265935303,0.2807399955640586,-1.0980759859085083,2.8989429473876953,-1.5435588359832764,0.49170151352882385,-0.45696666836738586,-0.7412227392196655,-0.09301966428756714,0.08861947059631348,0.06571626663208008
0.4571685899668472,0.6151741831963625,0.27402216738483687,-1.0865954160690308,2.3651938438415527,-1.4294986724853516,0.5178359746932983,-0.44140923023223877,-0.7328054904937744,0.004915118217468262,0.07216176390647888,0.08307111263275146
0.44073973402626404,0.6379198247633883,0.26802852744640443,-0.9262214303016663,1.684820294380188,-1.3919427394866943,0.5386150479316711,-0.4266086220741272,-0.7265665531158447,0.08156335353851318,0.01610139012336731,0.08850514888763428
0.42636385091044277,0.654274205498862,0.26101232748080855,-0.5946866869926453,0.993218183517456,-1.3420425653457642,0.5541003942489624,-0.41356292366981506,-0.7224531173706055,0.16631299257278442,-0.07194125652313232,0.03640282154083252
0.4154266864426281,0.663097303476989,0.2529163810457438,-0.23530377447605133,0.08107994496822357,-1.1719584465026855,0.563203752040863,-0.40358036756515503,-0.7210578918457031,0.2215712070465088,-0.15507444739341736,-0.018733859062194824
0.4078586777613965,0.6626055126885031,0.24389067445954568,0.0398486964404583,-0.8945567607879639,-1.0946975946426392,0.56471186876297,-0.39664456248283386,-0.7237220406532288,0.13801658153533936,-0.15894320607185364,-0.03418177366256714
0.40121404375045094,0.6539333980002143,0.23317183087823243,0.0803937315940857,-1.5952799320220947,-1.3232015371322632,0.5600054264068604,-0.39053624868392944,-0.7306678295135498,0.040687501430511475,-0.10096460580825806,-0.025130391120910645
0.3931634479532376,0.6430180545695072,0.2200995981177263,0.12431389093399048,-1.5614609718322754,-1.5416854619979858,0.553864061832428,-0.3831124007701874,-0.7392290830612183,-0.12300139665603638,-0.001805812120437622,0.06422615051269531
0.3856266586212316,0.6332357250044772,0.20548480465258567,0.26088079810142517,-1.5372464656829834,-1.5138789415359497,0.5482993721961975,-0.3761398494243622,-0.7469181418418884,-0.13603723049163818,0.08272859454154968,0.01605278253555298
0.3792231221651852,0.6219048001102624,0.19122862747743405,0.23747284710407257,-1.8448715209960938,-1.3776108026504517,0.5411932468414307,-0.37019890546798706,-0.7550249695777893,0.005224168300628662,0.06035390496253967,0.0013477206230163574
0.37342186499081764,0.6059812933113242,0.1785227936931309,0.18586450815200806,-2.263031244277954,-1.2294052839279175,0.5303168296813965,-0.36480361223220825,-0.7652989625930786,0.10888934135437012,-0.012149542570114136,0.036218881607055664
0.3686576135649128,0.5857198061922764,0.16699402929852572,0.24514536559581757,-2.655629873275757,-1.0898727178573608,0.5156578421592712,-0.36036357283592224,-0.7773256301879883,0.18670439720153809,-0.08438438177108765,0.03278839588165283
0.3658637139013474,0.5608005771547665,0.1560244923736929,0.4113314151763916,-3.1019487380981445,-0.9355260729789734,0.4966629445552826,-0.35775598883628845,-0.7907822728157043,0.17873701453208923,-0.08108681440353394,-0.009022295475006104
0.36609299066213363,0.5335372131548506,0.14536269789314296,0.6705617904663086,-3.1172845363616943,-0.7263473868370056,0.4748799502849579,-0.35797005891799927,-0.8039568066596985,0.13946962356567383,0.0030658841133117676,-0.04740726947784424
0.3702168096315446,0.5044904570378366,0.1359107182844309,0.9219517111778259,-3.3407363891601562,-0.414410799741745,0.45061320066452026,-0.3618175685405731,-0.8161101937294006,0.15761759877204895,0.11930963397026062,-0.1409667730331421
0.37747200186938035,0.47563194821666455,0.12755599652898045,1.0571413040161133,-3.040388345718384,-0.3072892129421234,0.42566385865211487,-0.3685716390609741,-0.8264171481132507,0.11144572496414185,0.22333845496177673,-0.127119779586792
0.3851492999095569,0.44835814171780275,0.11949822953009297,0.9857268333435059,-3.057253360748291,-0.36723965406417847,0.40173032879829407,-0.3756974935531616,-0.8351432085037231,0.07150596380233765,0.11808335781097412,-0.22749406099319458
0.39225141912236944,0.42105513505134734,0.1106858067266522,1.0026007890701294,-3.0672905445098877,-0.5176160335540771,0.3776814043521881,-0.38226979970932007,-0.8433425426483154,0.008900195360183716,0.08486074209213257,-0.0949203372001648
0.39925378134694545,0.3946017700504408,0.10053502597951361,1.0210274457931519,-3.0192062854766846,-0.6415762901306152,0.35420486330986023,-0.38873091340065,-0.8505452871322632,-0.0699487030506134,0.07078355550765991,-0.02154022455215454
0.4060037600298833,0.3682942960592251,0.08970214606491939,0.9718914031982422,-3.143918037414551,-0.700206458568573,0.3307569622993469,-0.394941121339798,-0.8571006059646606,-0.04068717360496521,0.08733919262886047,0.00646895170211792
0.4125325130835456,0.3392063509318079,0.07897515718345603,0.9524050354957581,-3.5637238025665283,-0.6879026293754578,0.3048247992992401,-0.4009306728839874,-0.8639076948165894,0.0449831485748291,0.07994678616523743,0.04943937063217163
0.4200487605741683,0.30514653667480923,0.0686492838718824,1.0950114727020264,-4.106400966644287,-0.6253207325935364,0.27431604266166687,-0.4078049659729004,-0.8708879947662354,0.15422722697257996,0.01476907730102539,0.06475090980529785
0.42997301257197623,0.26560739458903904,0.05887520423739832,1.3118611574172974,-4.573601722717285,-0.5189170837402344,0.23860229551792145,-0.41684627532958984,-0.8771021366119385,0.23409990966320038,-0.056572914123535156,-0.024600684642791748
0.4424328075783297,0.2237796691930539,0.05086142105611427,1.4359029531478882,-4.329334735870361,-0.26898226141929626,0.20054888725280762,-0.4281392991542816,-0.8811792731285095,0.2334570288658142,-0.057547956705093384,-0.14938408136367798
0.4546247011510455,0.19415549062816173,0.04654601149047435,1.095875859260559,-1.8050957918167114,-0.007721107453107834,0.17334046959877014,-0.4391251802444458,-0.88154536485672,0.23683123290538788,-0.008735567331314087,-0.32128971815109253
0.46602210157680163,0.18794203308327537,0.04452338322721617,1.293577790260315,0.2011607438325882,0.06283856928348541,0.1669137328863144,-0.44933614134788513,-0.877631425857544,0.08966298401355743,-0.03804484009742737,-0.711571455001831
0.4797449349533303,0.19449357752158622,0.04296255678845209,1.426634430885315,0.7047125101089478,0.20946316421031952,0.17145198583602905,-0.4615529179573059,-0.8703867793083191,-0.16254068911075592,-0.06991070508956909,-0.6873524188995361
0.49463816015106704,0.1983471861212888,0.043158646093567773,1.5074782371520996,0.05398675799369812,0.39500516653060913,0.17343097925186157,-0.47471320629119873,-0.8628841638565063,-0.18542423844337463,-0.11047658324241638,-0.5552065968513489
0.5115989056884194,0.19426628741402185,0.04413585565527517,1.8273444175720215,-0.8071967363357544,0.417957067489624,0.16832952201366425,-0.48957204818725586,-0.855560839176178,-0.02320300042629242,-0.23314523696899414,-0.37678468227386475
0.5327993071749808,0.181753942520033,0.043722606381927195,2.375638723373413,-1.7179070711135864,0.29366210103034973,0.1557002067565918,-0.5079466104507446,-0.8471999764442444,-0.052825286984443665,-0.28682267665863037,-0.3363632559776306
0.5597317189719059,0.1632721567585607,0.04037751702932821,3.0507569313049316,-2.274843692779541,0.04377289116382599,0.1377425491809845,-0.530958890914917,-0.8361278176307678,-0.18469366431236267,-0.3184674382209778,-0.4303669333457947
0.5929202800267848,0.143569519885999,0.03220924175085333,3.709000587463379,-2.5635297298431396,-0.4055781662464142,0.11865537613630295,-0.5587852001190186,-0.8207800984382629,-0.3146696090698242,-0.38367390632629395,-0.5435386896133423
0.6311569740754418,0.12443569440244887,0.017896074126244426,4.168691158294678,-2.9377899169921875,-0.8851338624954224,0.10020352154970169,-0.5900792479515076,-0.801102876663208,-0.35060006380081177,-0.46398264169692993,-0.638899564743042
0.6729958982549502,0.10461041226363771,-0.001539480016258697,4.504205226898193,-3.3985891342163086,-1.2066692113876343,0.08165180683135986,-0.6233314275741577,-0.7776830792427063,-0.3594226539134979,-0.4629265069961548,-0.5962335467338562
0.7181786410236228,0.08262354689244036,-0.023962653839604317,4.832752704620361,-3.8898377418518066,-1.3683595657348633,0.06214521825313568,-0.6580142974853516,-0.7504366636276245,-0.34063321352005005,-0.43128013610839844,-0.4932156205177307
0.7670142775030776,0.057479507902032774,-0.048149481588354026,5.177445411682129,-4.42902135848999,-1.5204317569732666,0.04136165231466293,-0.6939886808395386,-0.7187969088554382,-0.2859598994255066,-0.3840142488479614,-0.41024667024612427
0.8195563566475157,0.030000028341390716,-0.07530385971936573,5.494601249694824,-4.937442779541016,-1.8531923294067383,0.020473316311836243,-0.7308430671691895,-0.6822385191917419,-0.2849232256412506,-0.35124921798706055,-0.32882416248321533
0.8749757265592324,0.0030511993557050267,-0.10793294230483039,5.650756359100342,-5.367327690124512,-2.294013023376465,0.001955863321200013,-0.7675279378890991,-0.6410126686096191,-0.40243789553642273,-0.36349934339523315,-0.26728206872940063
0.9314682197249323,-0.021786580839560563,-0.14775997447577313,5.592544078826904,-5.87393045425415,-2.7481043338775635,-0.012998078018426895,-0.8024968504905701,-0.5965149402618408,-0.44880902767181396,-0.3903133273124695,-0.17481684684753418
0.9869171905537735,-0.0424926726525855,-0.19613818284402798,5.298276901245117,-6.176846981048584,-3.1549739837646484,-0.02341766469180584,-0.8343304991722107,-0.5507671236991882,-0.46612992882728577,-0.3544970750808716,-0.03300362825393677
1.0390502010861142,-0.0558312201998775,-0.2539400916588115,4.810447692871094,-6.3250861167907715,-3.4701499938964844,-0.028293920680880547,-0.8619230389595032,-0.5062493085861206,-0.510707437992096,-0.2973787784576416,0.1300743818283081
1.0863597098567874,-0.05997419484221421,-0.32266421405071505,4.258960247039795,-6.556494235992432,-3.7653400897979736,-0.02791384607553482,-0.8849374651908875,-0.4648727476596832,-0.5287877321243286,-0.2509268522262573,0.25509488582611084
1.1286683017150216,-0.053009509903126466,-0.405422893225075,3.7959859371185303,-6.888826847076416,-4.107567310333252,-0.022670237347483635,-0.9038432240486145,-0.42726293206214905,-0.5426220297813416,-0.20177817344665527,0.30046239495277405
1.1667393551646341,-0.03256144619115416,-0.5051497520664263,3.485417366027832,-7.252007007598877,-4.3937859535217285,-0.01279933750629425,-0.9194735884666443,-0.3929436504840851,-0.5807827115058899,-0.11391276121139526,0.2779991626739502
1.201244108608267,0.0014488467899433288,-0.6227106151167484,3.283850908279419,-7.778288841247559,-4.582226276397705,0.00052332051564008,-0.9324891567230225,-0.36119771003723145,-0.5650984048843384,-0.018545448780059814,0.22655409574508667
1.23177504038771,0.048222276002228615,-0.7587383746642729,3.0387141704559326,-8.4102201461792,-4.698131561279297,0.01603081077337265,-0.9430806040763855,-0.3321780860424042,-0.5141844153404236,0.07307016849517822,0.2236270308494568
1.2565261240203998,0.10754448196624473,-0.9128526320903272,2.647374391555786,-8.931920051574707,-4.783395767211914,0.03318038955330849,-0.951022207736969,-0.3073367476463318,-0.4682084023952484,0.1502562165260315,0.2878054678440094
1.2735614911660638,0.17915307935160693,-1.0832186828408703,2.186265468597412,-9.257546424865723,-4.8873419761657715,0.05218971520662308,-0.9561499953269958,-0.28819018602371216,-0.4613388180732727,0.15652835369110107,0.3832066059112549
1.2819159037344157,0.2595371602510725,-1.2647077664616793,1.7249343395233154,-9.430520057678223,-4.986173629760742,0.07310958951711655,-0.9585634469985962,-0.27533870935440063,-0.5011338591575623,0.16556406021118164,0.46524953842163086
1.281358978374124,0.34102663280305845,-1.448290732850051,1.263907551765442,-9.508820533752441,-5.036713123321533,0.09545784443616867,-0.9584046006202698,-0.2689768671989441,-0.5104358196258545,0.22462469339370728,0.4967142343521118
1.2723283875376965,0.4111778314700242,-1.6212651066417123,0.732817530632019,-9.603902816772461,-4.9255690574646,0.11753122508525848,-0.9557881355285645,-0.26954707503318787,-0.4937824606895447,0.3113941550254822,0.48507747054100037
1.2560594517351944,0.45838343421059674,-1.7710837373336001,0.13117294013500214,-9.524823188781738,-4.631525039672852,0.1369830071926117,-0.950877845287323,-0.2776099145412445,-0.4649096727371216,0.3809314966201782,0.44374752044677734
1.234496260961567,0.4801964442210247,-1.8925706983239519,-0.45002520084381104,-9.130905151367188,-4.246204376220703,0.15244321525096893,-0.9439820647239685,-0.2926756739616394,-0.4426043629646301,0.42281806468963623,0.38424360752105713
1.2095699358999301,0.4814528175806378,-1.987488603646974,-0.9545380473136902,-8.472763061523438,-3.8119254112243652,0.16365812718868256,-0.935464084148407,-0.3132459819316864,-0.435340940952301,0.472115695476532,0.2768537104129791
1.182975746855552,0.4680533986706161,-2.060299060315785,-1.321494221687317,-7.798648834228516,-3.3609609603881836,0.17061221599578857,-0.9257354736328125,-0.33749884366989136,-0.40211862325668335,0.5273742079734802,0.13425174355506897
1.1565109226877146,0.4446396215760058,-2.11601184127458,-1.4868236780166626,-7.182918071746826,-2.8821494579315186,0.1731438785791397,-0.915404200553894,-0.3633957803249359,-0.3657403886318207,0.5720356702804565,-0.03127285838127136
1.132115030099369,0.41484706447346303,-2.159512621565283,-1.4263896942138672,-6.7488203048706055,-2.4406609535217285,0.1711938977241516,-0.9053125381469727,-0.38871824741363525,-0.3391474485397339,0.5759668350219727,-0.23431339859962463
1.1112345734830371,0.3813759618529189,-2.1956842315823932,-1.1910933256149292,-6.506263256072998,-2.1012377738952637,0.16509047150611877,-0.8962469696998596,-0.41168761253356934,-0.34100914001464844,0.5505437850952148,-0.43532782793045044
1.0946889860852194,0.3467654732543755,-2.2288412980923145,-0.8275407552719116,-6.354530334472656,-1.8941328525543213,0.1557645946741104,-0.888785719871521,-0.43104231357574463,-0.38247978687286377,0.532004714012146,-0.6048159003257751
1.08285821520086,0.3134349844268569,-2.2617338356970844,-0.4260147213935852,-6.152989387512207,-1.776491403579712,0.1445460170507431,-0.8833013772964478,-0.4459657073020935,-0.49960288405418396,0.4918370246887207,-0.7549773454666138
1.0753587987104667,0.2831499110376471,-2.2954963642202206,-0.08556631952524185,-5.858338356018066,-1.7270958423614502,0.1328226625919342,-0.8797608017921448,-0.456485778093338,-0.6156108379364014,0.4179381728172302,-0.8738517761230469
1.071073067430975,0.25749918610569117,-2.330331308427311,0.13422435522079468,-5.385941505432129,-1.720442533493042,0.12203015387058258,-0.8777152299880981,-0.4633841812610626,-0.7316493988037109,0.3518362045288086,-0.9596810340881348
1.0688611850043543,0.23871613580880746,-2.3665349757568217,0.2845768332481384,-4.720457077026367,-1.7759230136871338,0.11376411467790604,-0.8766531348228455,-0.4674794673919678,-0.8516029715538025,0.29501861333847046,-1.0173227787017822
1.0680702529260098,0.22925869446074285,-2.4051787366098525,0.4205634295940399,-3.9461119174957275,-1.8880064487457275,0.10949549078941345,-0.8762723803520203,-0.4692096412181854,-0.9804367423057556,0.2218227982521057,-1.0866222381591797
1.068421520585422,0.23072308936089286,-2.4469593863535435,0.5672876238822937,-3.0964443683624268,-2.029930830001831,0.11011209338903427,-0.8764415383338928,-0.46874916553497314,-1.074589729309082,0.13738197088241577,-1.1512459516525269
1.0698866164201597,0.24437184571517248,-2.4932796676485487,0.7741926908493042,-2.3230957984924316,-2.2503135204315186,0.11618869751691818,-0.8771460652351379,-0.46595630049705505,-1.1148459911346436,0.09054005146026611,-1.1974501609802246
1.0725772649200542,0.2708473445412377,-2.546106790079496,1.040446162223816,-1.6808992624282837,-2.5206336975097656,0.12785105407238007,-0.8784350156784058,-0.4604414403438568,-1.1567819118499756,0.06263899803161621,-1.2210619449615479
1.0763277508481033,0.3098037148430797,-2.606551951065151,1.3276021480560303,-1.1793652772903442,-2.7837581634521484,0.1446811556816101,-0.8802210092544556,-0.45197170972824097,-1.1509679555892944,0.03952270746231079,-1.1958706378936768
1.080568802556685,0.35966650791364935,-2.6743637755074685,1.5766711235046387,-0.8199905753135681,-2.995720863342285,0.16571317613124847,-0.882225751876831,-0.44070056080818176,-1.0900602340698242,0.05004185438156128,-1.1060523986816406
1.0845008924474058,0.4182009014634051,-2.7485845505748316,1.790969729423523,-0.6062461137771606,-3.154524087905884,0.18980053067207336,-0.8840702772140503,-0.42707815766334534,-1.0218623876571655,0.09912753105163574,-0.9539795517921448
1.0873667880803308,0.48314609190925034,-2.828252531453253,1.9574432373046875,-0.5089046359062195,-3.290454149246216,0.2159396857023239,-0.8854060173034668,-0.4116145670413971,-0.9650242328643799,0.14692628383636475,-0.807669460773468
1.0881802824379567,0.553269090261811,-2.912541811696135,2.0596559047698975,-0.385928750038147,-3.4440436363220215,0.24387042224407196,-0.885783851146698,-0.3948601186275482,-0.9314467906951904,0.1674761176109314,-0.6853553652763367
1.0858362743556087,0.6281588762262512,-3.000499013694384,2.1061439514160156,-0.21062083542346954,-3.629702091217041,0.273949533700943,-0.8846935629844666,-0.3771858215332031,-0.9442530274391174,0.168873131275177,-0.5912437438964844
1.079265742611946,0.7066450022933463,-3.0907419682396604,2.1048617362976074,-0.03221306949853897,-3.8444840908050537,0.30644744634628296,-0.8816114664077759,-0.358958899974823,-0.9628958702087402,0.16571468114852905,-0.5182079076766968
1.0678091033355892,0.786977150524977,3.1017898283909298,2.0988919734954834,0.15524683892726898,-4.072953224182129,0.34139522910118103,-0.8761464953422546,-0.34031879901885986,-0.9848584532737732,0.1807117462158203,-0.45603740215301514
1.0512703962232297,0.8674622601728224,3.0120865211583108,2.134777545928955,0.28730449080467224,-4.315560817718506,0.3786519169807434,-0.8680546283721924,-0.32109829783439636,-0.9968770742416382,0.21297943592071533,-0.39485931396484375
1.0297260107414286,0.9462673528128477,2.924430832934973,2.203806161880493,0.3335534930229187,-4.554028511047363,0.4178317189216614,-0.8571578860282898,-0.30115994811058044,-0.9917758703231812,0.2521771788597107,-0.34096041321754456
1.003298872734785,1.0215228314179157,2.839784350338642,2.299855947494507,0.3217027187347412,-4.787875175476074,0.4584561884403229,-0.8432487845420837,-0.28062382340431213,-0.9652006030082703,0.30571192502975464,-0.29057368636131287
0.9722890926481672,1.0920531481745166,2.7591437711889397,2.3888485431671143,0.3186608552932739,-4.985838890075684,0.5000685453414917,-0.8261775970458984,-0.2595427632331848,-0.9396742582321167,0.36316460371017456,-0.2404724657535553
0.9370467985927511,1.1567001049828043,2.6837958475381023,2.4264323711395264,0.30599361658096313,-5.1424241065979,0.5421205163002014,-0.8058128356933594,-0.23826734721660614,-0.8750978708267212,0.41430264711380005,-0.17040878534317017
0.897973335885349,1.214522325240641,2.614691367719203,2.4314584732055664,0.2885051667690277,-5.2658257484436035,0.5840614438056946,-0.7820655107498169,-0.21736133098602295,-0.8270729780197144,0.47138112783432007,-0.07617193460464478
0.855793019326335,1.2658040637704704,2.551893040547516,2.435175657272339,0.31253963708877563,-5.330543041229248,0.6253626346588135,-0.7550910711288452,-0.19687336683273315,-0.7845271825790405,0.5117132663726807,-0.011515840888023376
0.8113798771810893,1.3109025399604934,2.4951870835108707,2.4200425148010254,0.3167964220046997,-5.347198009490967,0.6653769016265869,-0.7252379059791565,-0.17692892253398895,-0.7120993733406067,0.5587490797042847,0.03485441207885742
0.7652102715440975,1.3502886448635163,2.4442278124289616,2.36822509765625,0.330623596906662,-5.353727340698242,0.7037732005119324,-0.6926886439323425,-0.15775255858898163,-0.6684033870697021,0.6050267219543457,0.0878521203994751
0.7174205866520429,1.3841653678932075,2.3987002296186577,2.284270763397217,0.2849956750869751,-5.38809061050415,0.7404194474220276,-0.6574432849884033,-0.13981224596500397,-0.6416952013969421,0.624056875705719,0.13627226650714874
0.6680407601238098,1.41254449064741,2.358041341437242,2.198152780532837,0.19178412854671478,-5.432791709899902,0.7752273678779602,-0.6194490790367126,-0.12371564656496048,-0.6228378415107727,0.6322968006134033,0.18884021043777466
0.6174164469232889,1.4359035711354793,2.321449021047587,2.1311686038970947,0.08846838772296906,-5.453885078430176,0.8079699873924255,-0.5789304971694946,-0.10965520888566971,-0.599672257900238,0.6540951132774353,0.2158411741256714
0.5660318942272559,1.454617096038065,2.288131956586777,2.080336809158325,-0.0752275139093399,-5.450699806213379,0.8383460640907288,-0.5362870693206787,-0.09783899784088135,-0.5266852974891663,0.6884322166442871,0.22161835432052612
0.51426006757406,1.4684755451411127,2.2574107124706133,2.0403530597686768,-0.31438446044921875,-5.431435585021973,0.8661033511161804,-0.4918907582759857,-0.08893094211816788,-0.4501335024833679,0.727608323097229,0.22569555044174194
0.46235898381513835,1.4776406220507978,2.228765176504355,1.987736463546753,-0.5432454347610474,-5.410538196563721,0.8911223411560059,-0.4460606575012207,-0.08325409889221191,-0.3683255910873413,0.7351381182670593,0.2142813801765442
0.41050889105694066,1.4822492417761652,2.202035641938248,1.90157151222229,-0.8016367554664612,-5.367652893066406,0.913325846195221,-0.399075984954834,-0.08108437061309814,-0.2683824896812439,0.7494480609893799,0.20999068021774292
0.3592859005033034,1.4822776591475264,2.1772997959712894,1.7591736316680908,-1.045142650604248,-5.244903087615967,0.9324830770492554,-0.3516058325767517,-0.08275842666625977,-0.15579533576965332,0.7876102328300476,0.22675567865371704
0.30972129620786615,1.4783682350153469,2.1550354470946007,1.5297340154647827,-1.1851730346679688,-5.01141357421875,0.9483533501625061,-0.30479320883750916,-0.08790495246648788,-0.008060932159423828,0.8145128488540649,0.24218666553497314
0.2627845463681904,1.4721427254681034,2.135845066824577,1.2378672361373901,-1.1138683557510376,-4.696990013122559,0.9609750509262085,-0.2597705125808716,-0.09511241316795349,0.129982590675354,0.8252000212669373,0.24922627210617065
0.21884386334922395,1.4661747522167434,2.1201225613630266,0.9088220596313477,-0.8167964816093445,-4.37389612197876,0.9708118438720703,-0.21710120141506195,-0.10194006562232971,0.22649967670440674,0.8290852904319763,0.22843551635742188
0.17787312904347485,1.4621839722967873,2.108002605320493,0.5908756852149963,-0.46149882674217224,-4.032637596130371,0.9784228205680847,-0.17693665623664856,-0.10668866336345673,0.32336556911468506,0.8163865804672241,0.1914055347442627
0.14034030128403818,1.460623535540386,2.0990786029663946,0.35441333055496216,-0.1460455358028412,-3.6258602142333984,0.984165370464325,-0.13988007605075836,-0.10886909067630768,0.4535942077636719,0.8268610835075378,0.16216813027858734
0.106964518090911,1.4611323980036357,2.0926041170428706,0.19575385749340057,0.07716765999794006,-3.1541295051574707,0.9883121252059937,-0.1067606657743454,-0.10881876200437546,0.6092068552970886,0.8574929237365723,0.12302476912736893
0.0782621172727114,1.4629298367436947,2.0881078595923235,0.07575926929712296,0.17987965047359467,-2.6611456871032715,0.9911450743675232,-0.07818225026130676,-0.10732792317867279,0.7636920809745789,0.8774222135543823,0.09385448694229126
0.05429036466974416,1.464937393691806,2.0851715299515963,0.0011017527431249619,0.17646613717079163,-2.1766459941864014,0.9929370880126953,-0.05426369979977608,-0.10550566017627716,0.8845500946044922,0.8731874823570251,0.06944926083087921
0.03504129958526245,1.4666005648020035,2.0833387863663413,-0.03831542655825615,0.138778418302536,-1.6967859268188477,0.9939659833908081,-0.03503412753343582,-0.10394348204135895,0.9565039873123169,0.8549649715423584,0.039749875664711
0.020493415399762255,1.4677056814884226,2.082281643020306,-0.04755891114473343,0.07010462135076523,-1.2238467931747437,0.9944820404052734,-0.020491981878876686,-0.10288653522729874,1.016183853149414,0.8386986255645752,0.0191769078373909
0.010585388266220038,1.4679711063733474,2.0815951365967114,-0.014724266715347767,-0.017800994217395782,-0.7663267850875854,0.9946625232696533,-0.01058519072830677,-0.10263838618993759,1.0535858869552612,0.8244888186454773,-0.0025556087493896484
0.00530715951674379,1.4673992502922655,2.0808951457843157,0.049389831721782684,-0.09624126553535461,-0.29822495579719543,0.9946454763412476,-0.005307134706526995,-0.10321150720119476,1.0726765394210815,0.8031280040740967,-0.03102000057697296
0.004754391947200222,1.466054099937716,2.079935784704296,0.1300194263458252,-0.17098446190357208,0.16484390199184418,0.9945085644721985,-0.004754373803734779,-0.10454966127872467,1.083326816558838,0.7883235216140747,-0.058887138962745667
0.008730487640837269,1.4641855253529994,2.0786629879131255,0.2061249017715454,-0.19920594990253448,0.5961758494377136,0.9942846894264221,-0.008730377070605755,-0.10640492290258408,1.0620813369750977,0.7779563069343567,-0.07416749000549316
0.016998620035280628,1.4621847902865783,2.077206040894292,0.2603125274181366,-0.20230107009410858,1.019183874130249,0.9939640760421753,-0.016997801139950752,-0.10838247835636139,1.0134823322296143,0.7568047642707825,-0.07522642612457275
0.029530782729985845,1.4602028742783253,2.0758058703092312,0.29120948910713196,-0.20202626287937164,1.4459446668624878,0.993457555770874,-0.029526490718126297,-0.11032003909349442,0.972835898399353,0.7408300638198853,-0.05784696340560913
0.04628993434293101,1.4582013527207978,2.0746941642233114,0.2988913953304291,-0.20579196512699127,1.863754391670227,0.9926036596298218,-0.046273406594991684,-0.1122368797659874,0.9348866939544678,0.7271814346313477,-0.033026695251464844
0.06710344060063207,1.456231541304783,2.0741560281461497,0.2775520980358124,-0.19276830554008484,2.263786792755127,0.9912089705467224,-0.06705309450626373,-0.11405707895755768,0.8748342394828796,0.7196560502052307,0.0014473199844360352
0.09169321563667053,1.4545127260793267,2.074432522538261,0.2337937206029892,-0.14214400947093964,2.6317999362945557,0.989074170589447,-0.09156478196382523,-0.11553432047367096,0.795471727848053,0.7085995078086853,0.04246009886264801
0.11967529984015529,1.4533697819361067,2.0756096292259154,0.188165545463562,-0.05958351865410805,2.956272602081299,0.9860101342201233,-0.1193898394703865,-0.11631889641284943,0.7002691626548767,0.6981707811355591,0.07512027770280838
0.15061156602341783,1.4528545575292344,2.077597553417285,0.14842131733894348,0.004536877386271954,3.240633249282837,0.9818111062049866,-0.1500428020954132,-0.11633646488189697,0.6001133322715759,0.6961089372634888,0.10123039036989212
0.18415871675606607,1.452612124407557,2.0803679088009988,0.0981229841709137,0.03507182002067566,3.4937613010406494,0.9762330651283264,-0.183119535446167,-0.11591551452875137,0.5097136497497559,0.7022233605384827,0.13060981035232544
0.220059917529918,1.4522690920903174,2.0840435435593982,0.03087470680475235,0.03887348249554634,3.731734037399292,0.9690377116203308,-0.2182880938053131,-0.11539826542139053,0.4341149926185608,0.7020830512046814,0.1773490160703659
0.2580914432353395,1.4513684033636522,2.088880995673056,-0.0646861121058464,0.00876019336283207,3.941655158996582,0.9599919319152832,-0.2552356719970703,-0.11519805341959,0.3677058815956116,0.697313129901886,0.22695350646972656
0.2979170497192106,1.4495486578713135,2.095155951082136,-0.17956477403640747,-0.026993010193109512,4.12003755569458,0.9489320516586304,-0.2935296595096588,-0.11562294512987137,0.2967345118522644,0.6902884840965271,0.2674480080604553
0.3392099140041458,1.4465192527796924,2.103090107711987,-0.30579429864883423,-0.08568617701530457,4.271949291229248,0.9357450008392334,-0.3327421247959137,-0.11689407378435135,0.22711211442947388,0.6711971759796143,0.2958492636680603
0.3816373815447651,1.4419196297250518,2.11276147745764,-0.41448748111724854,-0.14987795054912567,4.383078575134277,0.9203596711158752,-0.37244054675102234,-0.11927399784326553,0.15623944997787476,0.6459083557128906,0.3014335036277771
0.42478907268419125,1.4358170473396623,2.1238795601255074,-0.4753379225730896,-0.1970067173242569,4.451694488525391,0.902838408946991,-0.41212859749794006,-0.12261001020669937,0.07399880886077881,0.6215400695800781,0.28178977966308594
0.468322701551946,1.4283260555434922,2.1361279220808145,-0.5135297775268555,-0.24398541450500488,4.488037109375,0.8832859396934509,-0.45139023661613464,-0.12670040130615234,-0.014358937740325928,0.5976150035858154,0.2535009980201721
0.511873653707394,1.4192848865095222,2.1495771940990664,-0.5616941452026367,-0.3031620979309082,4.487669944763184,0.8618409037590027,-0.48981159925460815,-0.1315871924161911,-0.08628237247467041,0.5678906440734863,0.24741673469543457
0.5550619694331597,1.4082212983563858,2.1644404161259696,-0.6183803081512451,-0.40474066138267517,4.456195831298828,0.8386614322662354,-0.5269959568977356,-0.13755947351455688,-0.13930529356002808,0.5279875993728638,0.25430452823638916
0.5976212617873137,1.3946341761027639,2.1808589995214964,-0.6614757180213928,-0.52216637134552,4.413047790527344,0.8138825297355652,-0.5626776218414307,-0.14487707614898682,-0.17655342817306519,0.49526411294937134,0.2613474726676941
0.6394899120285921,1.3784287519646257,2.1989096458476007,-0.6985405087471008,-0.6261090040206909,4.371752738952637,0.7875995635986328,-0.5967862010002136,-0.1534055769443512,-0.2153950333595276,0.4687953591346741,0.25576162338256836
0.6806144227933786,1.359445092122427,2.2188355790059306,-0.7395110130310059,-0.7242329716682434,4.330554485321045,0.7598925232887268,-0.6292706727981567,-0.16303910315036774,-0.24791455268859863,0.4426097273826599,0.2394704967737198
0.7209206757189416,1.3376791115828217,2.2409473708500727,-0.7838912606239319,-0.772095799446106,4.286726474761963,0.7308794260025024,-0.6600765585899353,-0.1735355406999588,-0.28414785861968994,0.4150354266166687,0.22286729514598846
0.7601510650618961,1.313413183746506,2.2655231053785685,-0.8342514038085938,-0.7637391090393066,4.216915130615234,0.700859010219574,-0.6890309453010559,-0.18448111414909363,-0.33269500732421875,0.3779040575027466,0.19674928486347198
0.7979366786438525,1.286652351299467,2.2928595737447246,-0.8983904719352722,-0.7529911398887634,4.114254951477051,0.6701897978782654,-0.7159170508384705,-0.19572646915912628,-0.3855218291282654,0.3277026414871216,0.16861167550086975
0.8338041108894386,1.2570826151036099,2.323101935111569,-0.9504349827766418,-0.7537340521812439,3.972182035446167,0.6392631530761719,-0.7404933571815491,-0.20739434659481049,-0.4365350008010864,0.28163087368011475,0.14811404049396515
0.8674126303237784,1.2249836343662095,2.3559506299096484,-0.9734883308410645,-0.7300612330436707,3.8008103370666504,0.608511745929718,-0.7626579999923706,-0.2192409783601761,-0.5043400526046753,0.235939621925354,0.11404699087142944
0.8986266176891187,1.1905069657041727,2.3910552504915796,-0.9817975759506226,-0.7464958429336548,3.6342110633850098,0.5781991481781006,-0.7824724912643433,-0.23113413155078888,-0.5478036999702454,0.1814589500427246,0.07119151949882507
0.9274962289095385,1.1531961933658845,2.428547266967025,-1.0048062801361084,-0.7850951552391052,3.479170322418213,0.5482921004295349,-0.8001205921173096,-0.24327565729618073,-0.5626811981201172,0.13891130685806274,0.04864984750747681
0.9538684861112389,1.112989909782095,2.4684366759837832,-1.0189523696899414,-0.8073084950447083,3.3041529655456543,0.5189574956893921,-0.8156596422195435,-0.25570058822631836,-0.5951294302940369,0.10168546438217163,0.035729944705963135
0.977539450473588,1.07080689746796,2.510095434832214,-1.0060772895812988,-0.7786228060722351,3.0977182388305664,0.4906282126903534,-0.8291242718696594,-0.2680246829986572,-0.6640748977661133,0.04613447189331055,-0.011012762784957886
0.9983720329648135,1.0278593123382134,2.5525090735369402,-0.9660704135894775,-0.7290616631507874,2.849130392074585,0.46377652883529663,-0.8405902981758118,-0.27985620498657227,-0.7488565444946289,-0.01941049098968506,-0.07558196783065796
1.016198288039475,0.9855362345109091,2.594237980690602,-0.8932958245277405,-0.6831120252609253,2.5499322414398193,0.43895864486694336,-0.8501121997833252,-0.29090338945388794,-0.8399444818496704,-0.08686918020248413,-0.14322435855865479
1.0309141007479865,0.9453515126536519,2.6335794694266847,-0.798427402973175,-0.6362007260322571,2.207524538040161,0.4167296886444092,-0.857769250869751,-0.3009459376335144,-0.9305695295333862,-0.15120303630828857,-0.20921632647514343
1.0426587004783097,0.9085297466983248,2.6691491912814853,-0.6873650550842285,-0.6088913679122925,1.8514115810394287,0.3973962068557739,-0.8637470602989197,-0.3098669648170471,-1.002300500869751,-0.21796393394470215,-0.2622307538986206
1.051725763086958,0.8762221766919119,2.6995901814843997,-0.5440182089805603,-0.5788502097129822,1.4729849100112915,0.3811463415622711,-0.8682806491851807,-0.3175159692764282,-1.0610933303833008,-0.27046769857406616,-0.309406578540802
1.058275929679753,0.8499726602046057,2.723408941687022,-0.39385828375816345,-0.5252471566200256,1.0503708124160767,0.3684007525444031,-0.8715113401412964,-0.32364973425865173,-1.1289751529693604,-0.31899482011795044,-0.3692518472671509
1.0622407824650257,0.8309081433639863,2.739723563121363,-0.270092636346817,-0.43973395228385925,0.6075204610824585,0.3596092164516449,-0.8734487295150757,-0.3282817006111145,-1.2035424709320068,-0.3743695616722107,-0.4134327471256256
1.0636067780466887,0.8193678455397626,2.7484670879840114,-0.17211627960205078,-0.3386097252368927,0.17505532503128052,0.3549245595932007,-0.8741130828857422,-0.3315947353839874,-1.2527518272399902,-0.41465967893600464,-0.4229370355606079
1.062465824152115,0.8153453742800897,2.7498764969434357,-0.08455555886030197,-0.21670334041118622,-0.2477927953004837,0.3543136715888977,-0.8735582828521729,-0.33370330929756165,-1.278447151184082,-0.4221877455711365,-0.4239717721939087
1.0588821844718854,0.8191208110475648,2.7439832554417314,0.014245858415961266,-0.04957000911235809,-0.6672630310058594,0.35785573720932007,-0.8718084692955017,-0.3344988524913788,-1.2929143905639648,-0.4136073589324951,-0.43155330419540405
1.05294147663455,0.8308175349301887,2.7310831904054864,0.11258107423782349,0.14345301687717438,-1.0669786930084229,0.3655620217323303,-0.8688830733299255,-0.3337766230106354,-1.285789132118225,-0.4003431797027588,-0.44280409812927246
1.0446757872510593,0.8497534216181135,2.7119986689964817,0.2025008499622345,0.3350088894367218,-1.435235857963562,0.3771980404853821,-0.8647617697715759,-0.33152493834495544,-1.2520151138305664,-0.3710934519767761,-0.439715176820755
1.0341226592900534,0.8749303575252444,2.687678997044494,0.29623979330062866,0.5034297704696655,-1.7718393802642822,0.39240700006484985,-0.8594141006469727,-0.3277563452720642,-1.2132536172866821,-0.3293219804763794,-0.4164910316467285
1.0213868342310162,0.9048818557886424,2.659213597332201,0.3843379616737366,0.6092866659164429,-2.0616378784179688,0.4106205403804779,-0.8528330326080322,-0.3225940465927124,-1.1533117294311523,-0.2823600172996521,-0.3881450295448303
1.0064733209184664,0.9379810465003541,2.627825788772833,0.4565049409866333,0.6839048862457275,-2.3304202556610107,0.43127986788749695,-0.8449508547782898,-0.31631597876548767,-1.0785577297210693,-0.22107404470443726,-0.34416067600250244
0.9891414851226501,0.9734085639422018,2.5943257231989367,0.5098496675491333,0.7779709696769714,-2.6067965030670166,0.4542543292045593,-0.8355545997619629,-0.30903321504592896,-1.0372318029403687,-0.16272121667861938,-0.2971068322658539
0.9690797238623877,1.010586412291646,2.559466465111011,0.5514979362487793,0.8681909441947937,-2.8869786262512207,0.47953277826309204,-0.8243651390075684,-0.30078309774398804,-1.0071361064910889,-0.13098770380020142,-0.2550029456615448
0.9462591933784049,1.0485745036142131,2.5240680826250905,0.5927010178565979,0.9391319751739502,-3.1304521560668945,0.5067862868309021,-0.8112338781356812,-0.2916634976863861,-0.9697685241699219,-0.08856183290481567,-0.21949058771133423
0.9208763152779446,1.0865301853045626,2.4887789993427143,0.6426922082901001,0.9785341620445251,-3.3516321182250977,0.5355439186096191,-0.7961322069168091,-0.2817203998565674,-0.9087739586830139,-0.025919973850250244,-0.18202465772628784
0.8929986076134966,1.123948640806002,2.453978267885914,0.6871305108070374,1.0319676399230957,-3.564310312271118,0.5655087232589722,-0.7789556384086609,-0.27097657322883606,-0.8528775572776794,0.03670692443847656,-0.15564388036727905
0.8627075308078926,1.1605745275893389,2.4202858251111414,0.709355354309082,1.1081722974777222,-3.7402782440185547,0.5964227318763733,-0.7596063017845154,-0.2593812346458435,-0.7993493676185608,0.091103196144104,-0.1271696388721466
0.8303146075662565,1.195662083103543,2.3884341597694214,0.7151352167129517,1.1353977918624878,-3.8694188594818115,0.6277278661727905,-0.7381436824798584,-0.24718770384788513,-0.7226376533508301,0.14497333765029907,-0.08588103950023651
0.7961656593182551,1.2287513434025994,2.358643909929698,0.7253410220146179,1.1611287593841553,-3.976309299468994,0.6589334011077881,-0.7146794199943542,-0.23460626602172852,-0.6628397703170776,0.2089114785194397,-0.043713971972465515
0.7604256421977921,1.2600469258946514,2.330823383894697,0.7375902533531189,1.1936975717544556,-4.077624797821045,0.6898406744003296,-0.6892299056053162,-0.22154510021209717,-0.6173920035362244,0.25273674726486206,-0.017239630222320557
0.7232111455473841,1.2895921202623246,2.3049228145767637,0.7426776885986328,1.2160636186599731,-4.167807579040527,0.720238447189331,-0.661795437335968,-0.2080470472574234,-0.5724113583564758,0.2828279733657837,0.008340060710906982
0.6846774129691846,1.3172107433333422,2.2810316410404687,0.7357551455497742,1.218096375465393,-4.239686489105225,0.7498500347137451,-0.6324231624603271,-0.1943347305059433,-0.5167873501777649,0.3259044885635376,0.04550059139728546
0.6450921309818729,1.3428936080580032,2.2591828104403104,0.7164550423622131,1.2256003618240356,-4.280078887939453,0.7783831357955933,-0.6012720465660095,-0.18053209781646729,-0.46484553813934326,0.3643944263458252,0.07942742109298706
0.6046852407359574,1.3666619156853668,2.239431960072732,0.6851801872253418,1.2202627658843994,-4.31404447555542,0.8055998086929321,-0.5685031414031982,-0.16677363216876984,-0.40345442295074463,0.3915925621986389,0.1121777892112732
0.5635937173664336,1.3887379386791943,2.2215330948418446,0.6742703914642334,1.2241171598434448,-4.335719585418701,0.831369936466217,-0.5342275500297546,-0.15305261313915253,-0.34766632318496704,0.4198932647705078,0.1413339376449585
0.5221690380595085,1.4093497510123738,2.2051305180345917,0.6784893870353699,1.203028678894043,-4.316431999206543,0.8554682731628418,-0.49876129627227783,-0.13932503759860992,-0.2844995856285095,0.451840341091156,0.1503114104270935
0.4808827795703452,1.4283178848685283,2.1901475131398915,0.6696599125862122,1.1497797966003418,-4.256351470947266,0.87760329246521,-0.46256202459335327,-0.12589257955551147,-0.20347005128860474,0.49083638191223145,0.16751863062381744
0.4399923094878888,1.445546469856605,2.1766067885666454,0.6419641375541687,1.0979552268981934,-4.186718940734863,0.8976677060127258,-0.42593249678611755,-0.11302439123392105,-0.12096476554870605,0.5210708379745483,0.19401812553405762
0.3996066149180243,1.461204011282388,2.1645398924749655,0.5971451997756958,1.0493998527526855,-4.10612678527832,0.9156877398490906,-0.3890559673309326,-0.10075604170560837,-0.0373612642288208,0.5335260033607483,0.21908801794052124
0.35988881739693207,1.475305192797015,2.1540047151099633,0.539745569229126,0.9936472177505493,-4.0025482177734375,0.9316720366477966,-0.3521701693534851,-0.08923782408237457,0.0651693344116211,0.5472078323364258,0.25050806999206543
0.3213136034636885,1.4880158967540433,2.1449005417617806,0.4858793318271637,0.9423696994781494,-3.839045763015747,0.9455724358558655,-0.31581321358680725,-0.07845418155193329,0.1751399040222168,0.5773487091064453,0.27208828926086426
0.28459839054889907,1.4994221778895382,2.137103564761352,0.4358915388584137,0.8747096657752991,-3.5999228954315186,0.9573309421539307,-0.28077203035354614,-0.06844494491815567,0.30913329124450684,0.6129862070083618,0.28482991456985474
0.25053278810859614,1.509539301090029,2.13050148090782,0.3828132748603821,0.8045335412025452,-3.2873027324676514,0.9669637084007263,-0.24792015552520752,-0.0593075193464756,0.4329999089241028,0.6445263624191284,0.29703956842422485
0.21962355350942409,1.5186420662926883,2.1251858534456285,0.2963271141052246,0.7743737697601318,-2.9559028148651123,0.9746526479721069,-0.21786223351955414,-0.05087842792272568,0.5516536235809326,0.663021981716156,0.29503440856933594
0.1918165290264624,1.5270386034051182,2.121310908899765,0.19569987058639526,0.7509341835975647,-2.6426093578338623,0.9807199835777283,-0.19064241647720337,-0.04294148460030556,0.6445242166519165,0.664091944694519,0.2926058769226074
0.16713101140251022,1.534843775253037,2.118770005028019,0.10969600826501846,0.717140793800354,-2.320103168487549,0.9854288697242737,-0.16635403037071228,-0.035443954169750214,0.7036579847335815,0.6518275141716003,0.2839791774749756
0.14560617673714243,1.541921745107334,2.117251498343024,0.0552581250667572,0.6486185193061829,-1.9997239112854004,0.9890058040618896,-0.1450922191143036,-0.028565067797899246,0.7752001881599426,0.6456260681152344,0.2684028148651123
0.12726449573828094,1.547999647737054,2.1164230162956263,0.016886498779058456,0.5424801111221313,-1.678699254989624,0.9916551113128662,-0.12692123651504517,-0.022610358893871307,0.8320448398590088,0.6462997198104858,0.24512934684753418
0.11214129271670303,1.5528833527496162,2.116081461700623,-0.008814371190965176,0.4277329742908478,-1.3506745100021362,0.9935594201087952,-0.11190640181303024,-0.017799507826566696,0.8879256248474121,0.648298442363739,0.23122429847717285
0.10032326497317694,1.5566297381944167,2.1160378265607904,-0.0174251701682806,0.3253975510597229,-1.013715386390686,0.9948720335960388,-0.1001550629734993,-0.014094886370003223,0.9457560181617737,0.6510429382324219,0.217418372631073
0.09198499604721576,1.5594978245169633,2.116115990883328,-0.01846449263393879,0.25115901231765747,-0.653097927570343,0.9957088232040405,-0.09185533225536346,-0.011250496841967106,0.995151162147522,0.6556521654129028,0.19579041004180908
0.08745056422535186,1.561592377051865,2.1162872375601345,-0.026268620043992996,0.1703168898820877,-0.24954833090305328,0.9961365461349487,-0.0873391404747963,-0.009168650023639202,1.0456573963165283,0.6651740670204163,0.18220341205596924
0.08716409800301611,1.5628560708850472,2.1166009443481784,-0.03876960650086403,0.09317710250616074,0.19590336084365845,0.996172308921814,-0.08705376833677292,-0.007910029031336308,1.1068246364593506,0.6781180500984192,0.1827453374862671
0.09134261694996829,1.5634931514166912,2.117091629889306,-0.05182735249400139,0.04341646656394005,0.6380105018615723,0.9958047270774841,-0.09121564775705338,-0.0072726658545434475,1.1383963823318481,0.6887801885604858,0.17849165201187134
0.09980222505727618,1.563600956757399,2.1176819069638855,-0.05345696955919266,-0.007252771873027086,1.0530927181243896,0.9949983358383179,-0.09963662922382355,-0.0071595050394535065,1.1262786388397217,0.679348349571228,0.16449296474456787
0.11227456811226011,1.5632810011486353,2.1183292565896785,-0.059694092720746994,-0.03644421324133873,1.4394268989562988,0.993675947189331,-0.11203883588314056,-0.007467939052730799,1.084937572479248,0.6543818116188049,0.15157204866409302
0.12835549503257976,1.562633097397531,2.1190916212199182,-0.0657045766711235,-0.07935599982738495,1.7787681818008423,0.9917409420013428,-0.1280033439397812,-0.008095989003777504,1.0343976020812988,0.6332521438598633,0.1511319875717163
0.1476403820784227,1.561443802619077,2.119892770571917,-0.05703279376029968,-0.1390904188156128,2.0836918354034424,0.9890778064727783,-0.14710459113121033,-0.009250643663108349,0.966748058795929,0.6205693483352661,0.15991604328155518
0.16993751985137825,1.5595307254618502,2.1206485273563174,-0.04857105016708374,-0.22295169532299042,2.3836681842803955,0.9855328798294067,-0.16912077367305756,-0.011103089898824692,0.9041460752487183,0.6171796917915344,0.17498260736465454
0.19519919676561842,1.5566396135355995,2.1215090849438725,-0.0598045289516449,-0.3262692987918854,2.6775448322296143,0.9809108972549438,-0.1939619481563568,-0.013887401670217514,0.8451694846153259,0.6236950159072876,0.19978535175323486
0.22330516700648748,1.5525403382006762,2.1227835626406564,-0.10330651700496674,-0.43847933411598206,2.9550983905792236,0.9750084280967712,-0.2214539349079132,-0.017801720649003983,0.7782570123672485,0.621768057346344,0.23089081048965454
0.2541062147832539,1.547253012896156,2.1249065246008993,-0.1854938119649887,-0.5163094401359558,3.218822956085205,0.9676203727722168,-0.25138041377067566,-0.02278519980609417,0.703140914440155,0.6153175830841064,0.2661172151565552
0.28726035330038396,1.5409480009454226,2.1282180196781493,-0.2746782898902893,-0.5673795342445374,3.433276653289795,0.9585967659950256,-0.2833259105682373,-0.0286210086196661,0.6113191843032837,0.6050267219543457,0.2949022054672241
0.32224074277288095,1.5336569582559691,2.1327225606749147,-0.34844598174095154,-0.6206248998641968,3.593430757522583,0.9478741884231567,-0.3166927695274353,-0.035219643265008926,0.5072344541549683,0.587322473526001,0.2961602807044983
0.35856583698518635,1.525367544345285,2.1383193730027013,-0.40604451298713684,-0.6671836376190186,3.719857692718506,0.9354350566864014,-0.35093164443969727,-0.04252493381500244,0.39671826362609863,0.5661872029304504,0.2968432903289795
0.39599411792090505,1.5158574888659617,2.144975643908671,-0.4550762474536896,-0.7502856850624084,3.832864284515381,0.9212216138839722,-0.38572555780410767,-0.05066182464361191,0.30801111459732056,0.5457901358604431,0.29582488536834717
0.4344472343223775,1.5047694869822348,2.1527378740771352,-0.4993599057197571,-0.8404957056045532,3.9397857189178467,0.9051263928413391,-0.42090904712677,-0.059849631041288376,0.2438604235649109,0.5397900938987732,0.30286121368408203
0.4737318865651075,1.4921773329247627,2.1616089041114583,-0.5240634083747864,-0.9010387063026428,4.021960735321045,0.8871232867240906,-0.45621034502983093,-0.06988879293203354,0.18128180503845215,0.5450316071510315,0.3077886700630188
0.5136082282301657,1.478048751109485,2.1716114510066,-0.5537446141242981,-0.9838365912437439,4.089883804321289,0.8672339916229248,-0.4913231134414673,-0.08066528290510178,0.12226790189743042,0.5375266075134277,0.30434393882751465
0.5540107540848516,1.46185703992913,2.1831389579621243,-0.6130955219268799,-1.0878182649612427,4.163227558135986,0.8453800082206726,-0.5261023044586182,-0.09246115386486053,0.07890582084655762,0.5263004899024963,0.312904953956604
0.5948874226500712,1.4430940658204996,2.1966557315389847,-0.6772772073745728,-1.1959373950958252,4.233974933624268,0.8214677572250366,-0.560415506362915,-0.10547728091478348,0.04895460605621338,0.5293484330177307,0.33622080087661743
0.6360141683288766,1.4217874117981422,2.2123565523445103,-0.7285675406455994,-1.2447071075439453,4.276854515075684,0.7955553531646729,-0.5939936637878418,-0.11943008005619049,-0.0005571842193603516,0.5368950963020325,0.33900415897369385
0.6770961870688479,1.398333840008086,2.2303762930463975,-0.7772059440612793,-1.246161937713623,4.3029465675354,0.767833411693573,-0.6265324354171753,-0.13375115394592285,-0.07010990381240845,0.5333315134048462,0.3101122975349426
0.7179444856111465,1.3726076707071724,2.250990421877725,-0.8277886509895325,-1.2536771297454834,4.323049545288086,0.738416314125061,-0.6578379273414612,-0.1482924222946167,-0.11745995283126831,0.5165566802024841,0.280113160610199
0.7583971965108395,1.3443034528058495,2.274447847521751,-0.859986424446106,-1.2486367225646973,4.3320631980896,0.7073987722396851,-0.6877588033676147,-0.16301791369915009,-0.1626448631286621,0.5106194019317627,0.24968793988227844
0.7982404457938929,1.3135172233704024,2.3006859673816282,-0.8567290902137756,-1.227425456047058,4.31064510345459,0.6749950647354126,-0.7161290645599365,-0.17759807407855988,-0.2179027795791626,0.4967532753944397,0.20727652311325073
0.8371454966286216,1.2802768449537083,2.3294988822244953,-0.8342337608337402,-1.2231775522232056,4.2570343017578125,0.6415268778800964,-0.7427347898483276,-0.19180281460285187,-0.2765367031097412,0.4710061550140381,0.1586456000804901
0.8748348806214382,1.2443250450118553,2.360955970523239,-0.8102261424064636,-1.2181497812271118,4.190064430236816,0.6072595119476318,-0.7674376368522644,-0.20561011135578156,-0.3306329846382141,0.4487271308898926,0.12318223714828491
0.9111698408813413,1.205449729699087,2.39531914194525,-0.7813093066215515,-1.2062729597091675,4.121717929840088,0.5723756551742554,-0.7902211546897888,-0.2189447432756424,-0.3726840019226074,0.43710213899612427,0.10206247866153717
0.9460996249165032,1.163509732572305,2.43280132913175,-0.7486259341239929,-1.178604006767273,4.056197643280029,0.5370099544525146,-0.8111405372619629,-0.23167093098163605,-0.4097517728805542,0.4335464835166931,0.07775560021400452
0.9796381697833779,1.1183148599245856,2.4739033389781917,-0.7284994125366211,-1.1086549758911133,4.019677639007568,0.5012367963790894,-0.830295741558075,-0.2436608523130417,-0.4493723511695862,0.4286080598831177,0.046471625566482544
1.0119310040974592,1.0695621037634933,2.5195709290087116,-0.7208060622215271,-0.9744846820831299,4.017068386077881,0.4650019109249115,-0.8478572964668274,-0.2547774016857147,-0.47760576009750366,0.41958868503570557,0.014512598514556885
1.042897125144252,1.0173141357930064,2.57034476426537,-0.6997502446174622,-0.7758539319038391,3.9916703701019287,0.4285142421722412,-0.8638671636581421,-0.26478180289268494,-0.5292528867721558,0.40250223875045776,-0.038334012031555176
1.0721832737732586,0.9623933630574676,2.626059490476674,-0.6598854064941406,-0.4949394464492798,3.9128026962280273,0.39239948987960815,-0.8782466650009155,-0.2733236253261566,-0.6021468639373779,0.3442193865776062,-0.12062770128250122
1.099230762357517,0.9061540079996252,2.6858202880943196,-0.6072481274604797,-0.1788654625415802,3.7500271797180176,0.3575821816921234,-0.8908581733703613,-0.2801908254623413,-0.6893389225006104,0.264942467212677,-0.21526199579238892
1.1233754435364427,0.8501132455878506,2.747981289138129,-0.5538371205329895,0.10208845138549805,3.4838123321533203,0.3250676393508911,-0.9015659093856812,-0.2854994833469391,-0.7949927449226379,0.16835051774978638,-0.29471585154533386
1.1439850917110332,0.7957895369801732,2.8099997678253295,-0.4941529929637909,0.25432267785072327,3.107370615005493,0.2957472503185272,-0.9102904200553894,-0.28966379165649414,-0.8935104608535767,0.053036272525787354,-0.3397611975669861
1.1607264316274482,0.7447818057436575,2.8687948627255166,-0.4303348660469055,0.2727733254432678,2.656790018081665,0.2702255845069885,-0.9170929789543152,-0.2931191623210907,-1.0079729557037354,-0.04460763931274414,-0.36262720823287964
1.1737213630529162,0.6986168528905317,2.9215508228342406,-0.3565821945667267,0.18829385936260223,2.1755497455596924,0.24872441589832306,-0.922196090221405,-0.2961263358592987,-1.1071840524673462,-0.15222114324569702,-0.36795133352279663
1.1833783031048868,0.6588122683636766,2.9658710044503516,-0.2670595049858093,0.037812478840351105,1.6811994314193726,0.23128058016300201,-0.9258875846862793,-0.29873356223106384,-1.1718934774398804,-0.26582396030426025,-0.3834105134010315
1.190192795375133,0.6267748257633877,3.0000321774531526,-0.18003593385219574,-0.10606283694505692,1.1901988983154297,0.21788692474365234,-0.9284406304359436,-0.30087125301361084,-1.229880452156067,-0.35497623682022095,-0.416627436876297
1.1944472188910367,0.6038710426410455,3.0229543947750708,-0.10507408529520035,-0.20686163008213043,0.6870701909065247,0.20869441330432892,-0.9300126433372498,-0.30252811312675476,-1.2738038301467896,-0.4139816164970398,-0.4351426661014557
1.1963389453457969,0.5916647141783345,3.0337863060617343,-0.028189605101943016,-0.205183207988739,0.18577216565608978,0.20400460064411163,-0.9307062029838562,-0.30359211564064026,-1.3214058876037598,-0.4532965421676636,-0.4451107680797577
1.1961498058646018,0.5915528981444518,3.0322013691266494,0.06665860861539841,-0.10084616392850876,-0.3004632592201233,0.2040688544511795,-0.9306370615959167,-0.3037610948085785,-1.3526438474655151,-0.4770321846008301,-0.46966105699539185
1.194183592098825,0.6043054744219999,3.0183680877711456,0.1823611557483673,0.08719809353351593,-0.7546058893203735,0.20896509289741516,-0.929915726184845,-0.30263909697532654,-1.3611716032028198,-0.4647529721260071,-0.4995153546333313
1.190633143393292,0.6293722109431791,2.9935359875558984,0.299919992685318,0.3104724586009979,-1.1482831239700317,0.21842697262763977,-0.9286040663719177,-0.299973726272583,-1.338940978050232,-0.4255372881889343,-0.5094286799430847
1.1854838145229694,0.6648037449330362,2.95975857622461,0.399457722902298,0.5023190975189209,-1.4843355417251587,0.23186305165290833,-0.9266810417175293,-0.29580745100975037,-1.2683316469192505,-0.38119572401046753,-0.47471553087234497
1.1785554905751916,0.7081408670362471,2.919027153061978,0.48894765973091125,0.6224747896194458,-1.7855571508407593,0.24863091111183167,-0.9240548014640808,-0.29035452008247375,-1.1800122261047363,-0.329409122467041,-0.4196826219558716
1.1696950906282821,0.7572647568015148,2.872861784266367,0.582808792591095,0.6810791492462158,-2.058218240737915,0.2682024836540222,-0.9206315875053406,-0.2837344706058502,-1.1051623821258545,-0.2676010727882385,-0.3560665547847748
1.1586747691331831,0.8102469859421526,2.822651068284071,0.6630439758300781,0.6904225945472717,-2.322495937347412,0.29018479585647583,-0.9162730574607849,-0.27611014246940613,-1.0291986465454102,-0.2092459797859192,-0.2936529815196991
1.1450766038743738,0.8654275740651416,2.76974282911234,0.7181234955787659,0.6835169196128845,-2.5883798599243164,0.3144289553165436,-0.9107417464256287,-0.2677386999130249,-0.970663845539093,-0.1688329577445984,-0.23694565892219543
1.1285717351485935,0.9211856816015709,2.71583566145241,0.7471551299095154,0.6923834085464478,-2.8323636054992676,0.3407858908176422,-0.9038018584251404,-0.2588576376438141,-0.9374656677246094,-0.13037794828414917,-0.19278717041015625
1.1091020904583142,0.9759088488620165,2.662753518215122,0.7552580833435059,0.7035420536994934,-3.0428452491760254,0.36893975734710693,-0.8952990770339966,-0.24964585900306702,-0.8984503746032715,-0.0839948058128357,-0.14931032061576843
1.0867602765509783,1.0285174729480022,2.6116763464555444,0.764662504196167,0.7270516157150269,-3.2428102493286133,0.39859330654144287,-0.8851239681243896,-0.24016503989696503,-0.8665957450866699,-0.025459766387939453,-0.119728684425354
1.0615216932320732,1.0789192367660794,2.5628437850265073,0.7935083508491516,0.7746017575263977,-3.4624149799346924,0.42974498867988586,-0.8730983734130859,-0.23025809228420258,-0.8577083349227905,0.02327519655227661,-0.11018067598342896
1.0332836056556016,1.127692781146818,2.5158646029868175,0.8606988191604614,0.843931257724762,-3.7097980976104736,0.4625551104545593,-0.8589848279953003,-0.21951824426651,-0.8633882999420166,0.060949862003326416,-0.1171058714389801
1.002012174289687,1.174933293384062,2.470588054354493,0.9423137307167053,0.8992404937744141,-3.948436737060547,0.4969545304775238,-0.8425564765930176,-0.20768983662128448,-0.8523470759391785,0.10296279191970825,-0.11950427293777466
0.9679731673789329,1.220051205047036,2.427469722792863,1.015167474746704,0.9376075863838196,-4.1401472091674805,0.5324515104293823,-0.8237382769584656,-0.1948097050189972,-0.8102379441261292,0.16268157958984375,-0.10433875024318695
0.9314781956509713,1.262335682876441,2.3871368604697802,1.0664929151535034,0.9593352675437927,-4.293403625488281,0.5684878826141357,-0.8025027513504028,-0.18113788962364197,-0.7514408826828003,0.23939228057861328,-0.07240204513072968
0.892891208976704,1.3013310940648357,2.3499684984834777,1.0970556735992432,0.9607462286949158,-4.4114227294921875,0.6045307517051697,-0.7788882851600647,-0.16696082055568695,-0.6988301277160645,0.3091920018196106,-0.03617936372756958
0.852474758476611,1.336772600540527,2.316151922666533,1.1015862226486206,0.9488114714622498,-4.516561508178711,0.640182375907898,-0.752911388874054,-0.15261416137218475,-0.6403502821922302,0.3616911768913269,0.0030476003885269165
0.8102987314208576,1.3688196522980547,2.2856702506898543,1.0880850553512573,0.9631970524787903,-4.623149394989014,0.6752704977989197,-0.724493145942688,-0.13827429711818695,-0.6086353659629822,0.4063166379928589,0.03898543119430542
0.766460331437937,1.3979429924484295,2.258377701205909,1.0605045557022095,0.9943941831588745,-4.720915794372559,0.7096355557441711,-0.6935896873474121,-0.12389929592609406,-0.5806987881660461,0.4422772526741028,0.07409471273422241
0.7211471753083247,1.4244404506459707,2.234225091502802,1.010557770729065,1.0377085208892822,-4.801609516143799,0.7430195212364197,-0.6602466702461243,-0.10952842980623245,-0.5302815437316895,0.47955191135406494,0.1096963882446289
0.6746995719991618,1.4485763344573812,2.2131058895113442,0.9603927731513977,1.0734373331069946,-4.852348804473877,0.7750698328018188,-0.6246627569198608,-0.09520354121923447,-0.4632563591003418,0.5188427567481995,0.15118812024593353
0.6275248554796464,1.470573092691549,2.1945570624631188,0.9302308559417725,1.0764116048812866,-4.864834785461426,0.8054212927818298,-0.5871429443359375,-0.08099329471588135,-0.37994521856307983,0.5610960125923157,0.17146271467208862
0.5800589485914897,1.4905436032651658,2.1781343741971737,0.9137554168701172,1.0504504442214966,-4.844240665435791,0.8337385654449463,-0.5480732321739197,-0.06705380231142044,-0.29194462299346924,0.6078874468803406,0.1841651201248169
0.5326936980983074,1.5085311296217325,2.163403483024037,0.9101721048355103,0.9916887879371643,-4.7979631423950195,0.8597731590270996,-0.5078556537628174,-0.05360323563218117,-0.19500857591629028,0.642147958278656,0.20295637845993042
0.48561591372965357,1.5246328143777668,2.1501283380967187,0.8979722857475281,0.93888258934021,-4.748788356781006,0.883445680141449,-0.46675315499305725,-0.04081194847822189,-0.1068190336227417,0.658296525478363,0.21447229385375977
0.4386746489887943,1.539041218488302,2.138177542390827,0.8795791864395142,0.8771420121192932,-4.734766483306885,0.9048592448234558,-0.4247399866580963,-0.02874356508255005,-0.015759944915771484,0.6584433317184448,0.2312888503074646
0.3916557628073121,1.55187189661874,2.127359177713561,0.8665416836738586,0.81902676820755,-4.728873252868652,0.9241130948066711,-0.38171932101249695,-0.01749040186405182,0.08351647853851318,0.6503958702087402,0.2532387971878052
0.34480571719720193,1.5631564334724686,2.117470038625792,0.8576935529708862,0.7209891080856323,-4.668012619018555,0.9411138296127319,-0.33801382780075073,-0.007190149277448654,0.21806591749191284,0.6678934097290039,0.2866244316101074
0.29915192327678347,1.5723625976558786,2.1084175081816867,0.8332117199897766,0.5360099077224731,-4.462660312652588,0.9555858373641968,-0.2947098910808563,0.0014967074384912848,0.40441495180130005,0.7218031883239746,0.336195707321167
0.2562435089592623,1.5788293648549432,2.1003105220494893,0.766012966632843,0.3172147274017334,-4.114471912384033,0.9673177599906921,-0.2534485161304474,0.0077706677839159966,0.6232126355171204,0.791580080986023,0.3895225524902344
0.21713820156890043,1.5827341605137433,2.0934245165772807,0.6484603881835938,0.15035229921340942,-3.7002241611480713,0.9764485359191895,-0.2154359072446823,0.011657234281301498,0.7945323586463928,0.8356139659881592,0.42581236362457275
0.18235027171302137,1.5846872402603496,2.0880550993643614,0.4933871924877167,0.030304457992315292,-3.2547545433044434,0.9833255410194397,-0.18134137988090515,0.013660168275237083,0.9064909219741821,0.8337306976318359,0.4324458837509155
0.15204205616390307,1.585185766224587,2.0843315029354845,0.3278964161872864,-0.04625125229358673,-2.809062957763672,0.988361656665802,-0.15145695209503174,0.014222951605916023,0.9776571393013,0.7914103865623474,0.3914167881011963
0.1260424173130611,1.584863204938534,2.082179454244729,0.17839933931827545,-0.07789041101932526,-2.3984556198120117,0.9919692277908325,-0.1257089525461197,0.013954831287264824,1.011723518371582,0.7415687441825867,0.338523268699646
0.10408369452313736,1.5840732613406576,2.0811690191233616,0.09244558215141296,-0.10133270919322968,-1.9966235160827637,0.9945005178451538,-0.10389586538076401,0.013204694725573063,1.0168824195861816,0.7098222374916077,0.27700233459472656
0.08625927124474851,1.5829910355523735,2.080619378158359,0.07048621773719788,-0.1271696239709854,-1.572048544883728,0.9962080121040344,-0.0861523374915123,0.012149068526923656,1.0453569889068604,0.685761570930481,0.20063483715057373
0.07271440782716984,1.5816761738290177,2.0799430810013644,0.1009398102760315,-0.1444675773382187,-1.1397664546966553,0.9972985982894897,-0.07265034317970276,0.010850884951651096,1.0928657054901123,0.6759064197540283,0.13740360736846924
0.06353185368937926,1.5801817181149003,2.0787772488006846,0.15046635270118713,-0.17152875661849976,-0.6968247294425964,0.9979386925697327,-0.06348912417888641,0.009366320446133614,1.119584560394287,0.6811494827270508,0.09590411186218262
0.058829491654368335,1.5784094910112574,2.0771897943875537,0.16974662244319916,-0.20411895215511322,-0.24283765256404877,0.9982412457466125,-0.058795563876628876,0.007599921431392431,1.1323740482330322,0.6783327460289001,0.0872335433959961
0.058646566085053246,1.576227793321804,2.075508517165693,0.16569247841835022,-0.25609132647514343,0.20792286098003387,0.9982661604881287,-0.05861295387148857,0.00542210228741169,1.1367894411087036,0.6724433302879333,0.10651648044586182
0.06294142946837493,1.5733881364360685,2.0738875071280294,0.15391279757022858,-0.3331672251224518,0.6511175632476807,0.9980164766311646,-0.0628998801112175,0.0025866746436804533,1.131530523300171,0.6650267839431763,0.12300848960876465
0.07150351775954336,1.5697820409900372,2.0723978501101943,0.1437496393918991,-0.4051756262779236,1.0603690147399902,0.9974442720413208,-0.0714426040649414,-0.001011693966574967,1.1013870239257812,0.6526802182197571,0.12872785329818726
0.08414098633263008,1.5655577221439472,2.071067609395443,0.12853872776031494,-0.46030306816101074,1.4719592332839966,0.9964486956596375,-0.08404173702001572,-0.0052200485952198505,1.0445518493652344,0.6393547058105469,0.1264817714691162
0.10091610064585982,1.5608441413117515,2.07009772338301,0.08754974603652954,-0.4969862401485443,1.8842514753341675,0.9948632121086121,-0.10074489563703537,-0.00990139041095972,0.995172917842865,0.6339020729064941,0.1269669532775879
0.12166603098637557,1.5558851230243687,2.0697132737711907,0.043324120342731476,-0.5004883408546448,2.2676966190338135,0.9924976229667664,-0.12136609107255936,-0.014800431206822395,0.9318799376487732,0.6327031850814819,0.1316676139831543
0.14609888785291542,1.550966559563957,2.0698706485645273,0.008877729997038841,-0.4787375032901764,2.6207940578460693,0.9891522526741028,-0.14557969570159912,-0.0196172297000885,0.8466785550117493,0.6266586184501648,0.12708497047424316
0.17384122568963348,1.5461119444869043,2.0706755306239772,-0.045574385672807693,-0.46966037154197693,2.9358208179473877,0.9846278429031372,-0.17296694219112396,-0.02430986799299717,0.7564306855201721,0.621575117111206,0.11546599864959717
0.20458652815913542,1.5410518995431246,2.072358260444904,-0.11870159953832626,-0.482726126909256,3.229074478149414,0.9787122011184692,-0.2031623274087906,-0.02911982126533985,0.6779499053955078,0.6173772215843201,0.12669986486434937
0.23817312068773552,1.5354917774031323,2.075154420378942,-0.2094864547252655,-0.5094637870788574,3.5105416774749756,0.9711651802062988,-0.23592771589756012,-0.034300800412893295,0.611629068851471,0.6197471022605896,0.14263832569122314
0.27436298324769903,1.5292752548729436,2.079249460759859,-0.3046209514141083,-0.5263261198997498,3.760251998901367,0.961768388748169,-0.2709338068962097,-0.03995662182569504,0.5440452098846436,0.6317887306213379,0.15183418989181519
0.31279657910040726,1.5222856484114051,2.084696035511611,-0.39393290877342224,-0.5610853433609009,3.9767038822174072,0.9503574967384338,-0.30772072076797485,-0.04613868519663811,0.46587181091308594,0.645840048789978,0.15067672729492188
0.3531699438798927,1.514095556345695,2.0916843837802306,-0.5051289200782776,-0.6255186796188354,4.1674628257751465,0.9367733597755432,-0.3458738327026367,-0.053172767162323,0.3956242799758911,0.6448085308074951,0.15620023012161255
0.39519342844366334,1.5042140676742008,2.1005053729185077,-0.6172273755073547,-0.7064115405082703,4.335561275482178,0.9208773374557495,-0.3849867284297943,-0.06140485778450966,0.34317606687545776,0.6444622278213501,0.16844534873962402
0.43873824335215045,1.4925719641410384,2.1112204250471165,-0.7077293395996094,-0.7482884526252747,4.50866174697876,0.9025201201438904,-0.42479756474494934,-0.07074341177940369,0.2906714081764221,0.6569904088973999,0.16534799337387085
0.48384481705141397,1.4794194474893294,2.123972086088272,-0.8084842562675476,-0.7469950914382935,4.68897008895874,0.8815199136734009,-0.46518608927726746,-0.08077548444271088,0.23517924547195435,0.6835696697235107,0.13756877183914185
0.5303945445904535,1.4646976109981438,2.1391257608090086,-0.9104899764060974,-0.7212918400764465,4.852985858917236,0.8577570915222168,-0.5058737397193909,-0.09134995937347412,0.1909031867980957,0.7186115384101868,0.11829710006713867
0.5782569565738248,1.4486309075790866,2.1567674344626613,-0.9758309125900269,-0.628140926361084,5.017107963562012,0.8311756253242493,-0.5465651154518127,-0.1020490974187851,0.13459903001785278,0.7438610196113586,0.09078817069530487
0.6273832779461053,1.4316372839451899,2.1767663193098916,-1.0127381086349487,-0.5028125643730164,5.169479846954346,0.8017403483390808,-0.5870283842086792,-0.1122952327132225,0.07826447486877441,0.7527081370353699,0.03586406260728836
0.6775294604076021,1.4136498364622663,2.1993745828249445,-1.0639780759811401,-0.34327396750450134,5.293704032897949,0.7695233821868896,-0.6268700957298279,-0.12193327397108078,0.019020140171051025,0.745812177658081,-0.004455193877220154
0.7282423856957867,1.394579455870856,2.22514593899475,-1.1356797218322754,-0.13583315908908844,5.368640422821045,0.7347874641418457,-0.6655588746070862,-0.1308390498161316,-0.06378233432769775,0.7240914106369019,-0.01607249677181244
0.7788381294067193,1.3739300574351956,2.2546751077885396,-1.2248848676681519,0.03843715414404869,5.384561061859131,0.6979827880859375,-0.7024529576301575,-0.13921238481998444,-0.15969854593276978,0.6739645600318909,-0.021660923957824707
0.828627171631994,1.350357260909956,2.288506382312544,-1.305661916732788,0.10392215847969055,5.340615272521973,0.6595330834388733,-0.7370041608810425,-0.14778849482536316,-0.23951959609985352,0.6107527017593384,-0.007484868168830872
0.8769724681997639,1.322286968042847,2.326729360239595,-1.3385047912597656,0.021785272285342216,5.243419647216797,0.6198369860649109,-0.7688063383102417,-0.15728653967380524,-0.31336432695388794,0.5644605159759521,0.020674720406532288
0.9232908602305593,1.288202919756773,2.369239872989303,-1.332573652267456,-0.19026252627372742,5.091440200805664,0.5792732834815979,-0.797590970993042,-0.1682002693414688,-0.3893014192581177,0.5422959923744202,0.04361230134963989
0.9669858913690661,1.247085382353183,2.4159781005900887,-1.2854417562484741,-0.4552135765552521,4.894115447998047,0.5382934808731079,-0.8231781125068665,-0.1806044578552246,-0.45696425437927246,0.5110594630241394,0.06121976673603058
1.0076659517497168,1.198908463678897,2.466851189419066,-1.2179887294769287,-0.675303041934967,4.682392120361328,0.4973444938659668,-0.8455881476402283,-0.1939825713634491,-0.5256496667861938,0.4761117100715637,0.056912973523139954
1.0452310138406384,1.144196472743111,2.522284247935405,-1.157084584236145,-0.7653570175170898,4.486118316650391,0.45673879981040955,-0.8650404810905457,-0.20759330689907074,-0.5929083228111267,0.44514894485473633,0.04951232671737671
1.0796815552948358,1.0838157704900517,2.582720860560473,-1.0882705450057983,-0.740081250667572,4.310622692108154,0.4167849123477936,-0.8818076848983765,-0.22069424390792847,-0.6538302302360535,0.4073048233985901,0.023382872343063354
1.1110592832824633,1.0183413797796157,2.64854813845107,-1.0338269472122192,-0.6455233693122864,4.142520427703857,0.37770551443099976,-0.8961691856384277,-0.23285093903541565,-0.7057848572731018,0.3517811894416809,-0.026670455932617188
1.1389007347067837,0.9479212214466297,2.7199841211343014,-1.0099890232086182,-0.554181694984436,3.9231433868408203,0.3399835228919983,-0.9081739187240601,-0.24419602751731873,-0.7674128413200378,0.28303641080856323,-0.05568492412567139
1.1626274735869826,0.8733457550023984,2.7959860012628273,-0.9764696955680847,-0.4852164089679718,3.6313953399658203,0.30423951148986816,-0.9178491830825806,-0.2549343407154083,-0.8524116277694702,0.20347821712493896,-0.0649661123752594
1.18185882121121,0.7972448404236934,2.8735631595658977,-0.9041832685470581,-0.43934959173202515,3.265303134918213,0.27129656076431274,-0.9253124594688416,-0.26494359970092773,-0.9520675539970398,0.12093007564544678,-0.0982154905796051
1.1967769135930628,0.7230975863746842,2.9487047177723626,-0.7898510694503784,-0.4510461688041687,2.849778175354004,0.24176239967346191,-0.9308663606643677,-0.2739320993423462,-1.040575385093689,0.0295296311378479,-0.14698150753974915
1.20777902260807,0.6542650965461908,3.0174143213061315,-0.6579723954200745,-0.498241126537323,2.3717527389526367,0.2161034643650055,-0.9348296523094177,-0.2817676365375519,-1.1163721084594727,-0.051605403423309326,-0.18933209776878357
1.2154457417511597,0.594425492935597,3.0757886183367664,-0.4961947500705719,-0.5386402010917664,1.8605648279190063,0.19484634697437286,-0.9375245571136475,-0.2882409691810608,-1.201377272605896,-0.11653745174407959,-0.22210443019866943
1.2206484294671296,0.5463493228493724,3.121211094852458,-0.3237593472003937,-0.5464959740638733,1.3486826419830322,0.1782323271036148,-0.9393219947814941,-0.2931002378463745,-1.2557165622711182,-0.18799757957458496,-0.2677212655544281
1.2240992290366222,0.5119072215465991,-3.1309279395420178,-0.15268607437610626,-0.501860499382019,0.8353986740112305,0.16644489765167236,-0.9405001401901245,-0.2962362766265869,-1.283449411392212,-0.24028617143630981,-0.3056771159172058
1.2262990941136587,0.4921138994869593,-3.1147795630540984,0.00919337011873722,-0.41598981618881226,0.3436300456523895,0.15957118570804596,-0.9412453770637512,-0.29764828085899353,-1.2987924814224243,-0.2759941816329956,-0.3339129090309143
1.22756310857602,0.48692148129999996,-3.1130938752208865,0.15923118591308594,-0.3070630431175232,-0.12154607474803925,0.1574666053056717,-0.9416714906692505,-0.2974209189414978,-1.2848318815231323,-0.28556251525878906,-0.3470492362976074
1.2279835809731334,0.4960804655654807,-3.1254451079189325,0.307020902633667,-0.18312405049800873,-0.5732038021087646,0.15999560058116913,-0.9418129324913025,-0.29561808705329895,-1.2780530452728271,-0.26634758710861206,-0.34505265951156616
1.2274236939897305,0.5193923426546109,3.1317134767352446,0.4443871080875397,-0.06103108823299408,-1.0089836120605469,0.16710461676120758,-0.9416245818138123,-0.29226598143577576,-1.2551021575927734,-0.2471877932548523,-0.32840046286582947
1.2255625942368726,0.5552274127321475,3.093552609678589,0.5511886477470398,0.04154375568032265,-1.3934791088104248,0.17839182913303375,-0.9409964084625244,-0.2875799536705017,-1.196610927581787,-0.21903789043426514,-0.2983269691467285
1.2220344149997693,0.6011042616879704,3.0456429249418306,0.6382344961166382,0.12024766951799393,-1.71985924243927,0.19326947629451752,-0.939796507358551,-0.28183287382125854,-1.1183794736862183,-0.16558092832565308,-0.25680235028266907
1.2165632522859675,0.6540745722550819,2.9907207529600868,0.6935949921607971,0.15711061656475067,-1.9837944507598877,0.21104542911052704,-0.9379127621650696,-0.27528128027915955,-1.017625093460083,-0.12489253282546997,-0.2151666283607483
1.2088531406645524,0.7109308475514079,2.931755124046853,0.7161945104598999,0.1674080193042755,-2.2021474838256836,0.2310595065355301,-0.9352105259895325,-0.26831552386283875,-0.906520426273346,-0.0879373550415039,-0.17315176129341125
1.1986439453073643,0.7693059398701402,2.870872732560141,0.725392758846283,0.13940754532814026,-2.4073166847229004,0.2529486119747162,-0.9315468668937683,-0.2612234950065613,-0.8245582580566406,-0.057741641998291016,-0.13439106941223145
1.185857479192221,0.827450509118409,2.8096634563963225,0.7365888357162476,0.11618120223283768,-2.5875725746154785,0.27644819021224976,-0.9268214106559753,-0.2541232705116272,-0.7542773485183716,-0.04078429937362671,-0.11555135250091553
1.1705527915988492,0.884525410601675,2.749161964361473,0.7579731941223145,0.1271161437034607,-2.771544933319092,0.3014333248138428,-0.9209661483764648,-0.2468998283147812,-0.7118643522262573,-0.011559665203094482,-0.12085217237472534
1.1524834185773547,0.9407074053115185,2.689646345776691,0.7829763293266296,0.1897897869348526,-2.9980411529541016,0.3282153308391571,-0.9137755632400513,-0.2393513321876526,-0.7017964124679565,-0.0036134719848632812,-0.13868510723114014
1.1313190314049508,0.9958343520166728,2.6314695926910145,0.8078036904335022,0.2563389837741852,-3.2434654235839844,0.35705703496932983,-0.9049741625785828,-0.23136992752552032,-0.6986557245254517,-0.013986468315124512,-0.16358843445777893
1.1068383117943577,1.0495856283399327,2.5750780523277346,0.8489168882369995,0.3454042673110962,-3.513228178024292,0.3880724012851715,-0.8942883014678955,-0.2228197455406189,-0.6941027045249939,0.010575294494628906,-0.18063786625862122
1.079069511584094,1.1014560558502897,2.520932988353009,0.8956186175346375,0.40601542592048645,-3.7430241107940674,0.42109414935112,-0.8815188407897949,-0.2135520875453949,-0.6620305180549622,0.030200302600860596,-0.18705207109451294
1.0485070143387598,1.1498342260022452,2.470240262720535,0.9171258807182312,0.3972156345844269,-3.8992819786071777,0.4553129971027374,-0.8666793704032898,-0.20385593175888062,-0.5662444829940796,0.07221508026123047,-0.1717543601989746
1.015687480428854,1.1936727931441065,2.423667875723788,0.9434634447097778,0.38001880049705505,-4.014291286468506,0.4899999797344208,-0.8498430848121643,-0.19407977163791656,-0.47120124101638794,0.15759742259979248,-0.12962007522583008
0.9810438737700488,1.233433148539388,2.38093114370258,0.9741413593292236,0.3884921073913574,-4.105511665344238,0.5248053669929504,-0.8310783505439758,-0.18408748507499695,-0.4189857244491577,0.22129124402999878,-0.11145991086959839
0.9448079790811375,1.2694054965749135,2.341892723308122,0.9867079854011536,0.3986603319644928,-4.189913272857666,0.5594890117645264,-0.8103844523429871,-0.17392322421073914,-0.3699444532394409,0.24915075302124023,-0.1042444109916687
0.9069243015080977,1.302123109631472,2.306218625471768,1.0030699968338013,0.4478798508644104,-4.30531120300293,0.5940654277801514,-0.7876123189926147,-0.16356417536735535,-0.3572338819503784,0.2724754810333252,-0.0862220972776413
0.8672124615405695,1.3322577908527902,2.273443545377752,1.0153812170028687,0.49018895626068115,-4.4364237785339355,0.6286358833312988,-0.7625284790992737,-0.15286429226398468,-0.3503766655921936,0.28321921825408936,-0.06539732217788696
0.8256549368837206,1.3597608709515423,2.243366501158667,1.020552158355713,0.50628262758255,-4.569247245788574,0.6630324721336365,-0.7349920272827148,-0.1420382559299469,-0.34484100341796875,0.317221462726593,-0.03162193298339844
0.7823978327302624,1.3848136114642842,2.21581105858706,1.0232326984405518,0.5382503867149353,-4.675234317779541,0.6969946622848511,-0.7049820423126221,-0.13114453852176666,-0.34688180685043335,0.361369252204895,0.0017501264810562134
0.7378957863004901,1.407425704660441,2.1907892265753435,1.0032516717910767,0.5289270877838135,-4.730751991271973,0.7300339341163635,-0.6727325320243835,-0.12033861875534058,-0.3148728609085083,0.391207754611969,0.022941842675209045
0.6926848213131531,1.4273260072780174,2.168306355525568,0.9737483859062195,0.5080375671386719,-4.735783576965332,0.7616281509399414,-0.638605535030365,-0.11002699285745621,-0.26716697216033936,0.4242345690727234,0.05054830014705658
0.6472645150752736,1.4449215563854572,2.1480373553546923,0.95836341381073,0.4885411262512207,-4.704517364501953,0.7914248108863831,-0.6030064821243286,-0.10014991462230682,-0.2235233187675476,0.4314669966697693,0.06513108313083649
0.6020522802224643,1.460350130118198,2.1296299945979733,0.9461586475372314,0.4476349651813507,-4.636833667755127,0.8191535472869873,-0.5663350820541382,-0.09084207564592361,-0.1667640209197998,0.42882269620895386,0.06690114736557007
0.5575006136762403,1.474110732126663,2.1126552860861714,0.966325044631958,0.4494747221469879,-4.533173084259033,0.8446170091629028,-0.5290669202804565,-0.08191771805286407,-0.13657867908477783,0.45022451877593994,0.06955820322036743
0.5137829003595261,1.4868586992655808,2.0965116024355086,1.0156174898147583,0.45710280537605286,-4.444019794464111,0.8678253889083862,-0.49147525429725647,-0.0730147585272789,-0.10026264190673828,0.4650469124317169,0.056489601731300354
0.4706489209645714,1.4990603681092582,2.080886483013493,1.060947060585022,0.5066960453987122,-4.389135837554932,0.8889821171760559,-0.4534647464752197,-0.06388159841299057,-0.07462048530578613,0.471591979265213,0.05451279878616333
0.42784233987956455,1.510850631544448,2.065838387710852,1.0800906419754028,0.5478826761245728,-4.348931312561035,0.9082289934158325,-0.41490858793258667,-0.0545097291469574,-0.05100548267364502,0.47060295939445496,0.07349175214767456
0.3853288382307763,1.5221241032016442,2.0516500968633657,1.0585757493972778,0.5795779824256897,-4.291572570800781,0.9255775809288025,-0.3758638799190521,-0.04508552700281143,-0.01938861608505249,0.4769226312637329,0.1159016489982605
0.3435017945662086,1.5323422939818037,2.0387380120034653,0.9832693934440613,0.5351487398147583,-4.176767826080322,0.9408851861953735,-0.3367863595485687,-0.03619867563247681,0.05366748571395874,0.4768313467502594,0.17787665128707886
0.3030343943050349,1.5408120708750954,2.027506560713956,0.8681454658508301,0.4419163763523102,-3.9900338649749756,0.9540064930915833,-0.29841771721839905,-0.028613749891519547,0.16254019737243652,0.48448318243026733,0.2387121319770813
0.2645862770452532,1.5473950673021557,2.0180345759781266,0.7480204105377197,0.34798240661621094,-3.75717830657959,0.9649366140365601,-0.2615099549293518,-0.022584855556488037,0.2697588801383972,0.499958872795105,0.2769947648048401
0.22831921930600235,1.5524564804246646,2.0101360333258995,0.634403645992279,0.2826695144176483,-3.543147325515747,0.9738844633102417,-0.22634068131446838,-0.017862893640995026,0.3524094820022583,0.5058510303497314,0.27976489067077637
0.19408077481932665,1.5563804656608424,2.0036177824494303,0.5287379622459412,0.22967848181724548,-3.332857131958008,0.9811235070228577,-0.19286465644836426,-0.014144719578325748,0.4131331443786621,0.48778635263442993,0.2605742812156677
0.16210888722547948,1.559241945440069,1.99836260018432,0.4288144111633301,0.15790347754955292,-3.0807533264160156,0.986823320388794,-0.16139979660511017,-0.011402640491724014,0.48310166597366333,0.47566965222358704,0.24171894788742065
0.132864473741772,1.5611430114959635,1.9940302533754342,0.3754159212112427,0.09364725649356842,-2.7823069095611572,0.9911404252052307,-0.1324739158153534,-0.009568088687956333,0.5712070465087891,0.48969724774360657,0.2217721939086914
0.10678734184410545,1.562146702843992,1.990057912950079,0.36936867237091064,0.01126519963145256,-2.444422960281372,0.9942666292190552,-0.10658449679613113,-0.008600247092545033,0.6700096130371094,0.5228745937347412,0.1813756227493286
0.08418824555477396,1.5622668512071038,1.9861745299420053,0.36373206973075867,-0.05556522682309151,-2.0876407623291016,0.9964221715927124,-0.08408883213996887,-0.008499165065586567,0.7557446956634521,0.5417302846908569,0.13381969928741455
0.06519446144866291,1.5618567024077845,1.9824883335446701,0.3371756374835968,-0.0754852294921875,-1.723919153213501,0.9978358745574951,-0.06514828652143478,-0.008920515887439251,0.8164647817611694,0.532433271408081,0.09989351034164429
0.049852226539827627,1.561321537325978,1.9792054203086817,0.29038205742836,-0.0666203647851944,-1.3521684408187866,0.9987130761146545,-0.0498315803706646,-0.009462879039347172,0.8556725382804871,0.5117301940917969,0.07759350538253784
0.03831104832549275,1.5608921730019425,1.9764967111392808,0.2281903624534607,-0.04359989985823631,-0.9638816118240356,0.9992172718048096,-0.038301676511764526,-0.009896725416183472,0.8807418346405029,0.4940662980079651,0.06086122989654541
0.030621879092285878,1.560669842139708,1.9744422930648753,0.16946819424629211,-0.00916336290538311,-0.5810289978981018,0.9994799494743347,-0.030617093667387962,-0.010121564380824566,0.9078534245491028,0.4788896441459656,0.052983641624450684
0.026718330279220364,1.5609129896051466,1.972943612818319,0.12320620566606522,0.04968278482556343,-0.20139671862125397,0.9995943307876587,-0.026715151965618134,-0.009879649616777897,0.9087004065513611,0.4676939845085144,0.04218262434005737
0.02663917929536118,1.5615911003411092,1.971919564912437,0.08266384154558182,0.07534446567296982,0.1818350851535797,0.9996028542518616,-0.02663602866232395,-0.009201830253005028,0.9147343039512634,0.4643799960613251,0.03855985403060913
0.030391856823198025,1.562294295561603,1.9712527552849466,0.06064276769757271,0.05594059079885483,0.5665401220321655,0.9995023012161255,-0.03038717806339264,-0.008498004637658596,0.9189549684524536,0.4697485864162445,0.04731649160385132
0.038007823777171955,1.5626362354798093,1.9707680952412785,0.04752297326922417,0.01383228413760662,0.9580298662185669,0.9992446899414062,-0.03799867257475853,-0.008154109120368958,0.9135667085647583,0.4820292592048645,0.06751090288162231
0.049528632287418106,1.5625800006213046,1.9704850918753507,0.026097925379872322,-0.02829245664179325,1.3488892316818237,0.9987401962280273,-0.049508385360240936,-0.008206159807741642,0.8897334337234497,0.4998713731765747,0.089108407497406
0.06488314852087763,1.5621081867074316,1.9705248240205786,-0.009955151937901974,-0.06193749979138374,1.7246527671813965,0.9978584051132202,-0.06483763456344604,-0.008669751696288586,0.8508356809616089,0.5085935592651367,0.10060405731201172
0.08384277845445104,1.5613779651355333,1.9709955770040695,-0.052816230803728104,-0.07577624171972275,2.0679497718811035,0.9964433312416077,-0.0837445855140686,-0.009385141544044018,0.7858597040176392,0.5089763402938843,0.11206167936325073
0.1059986424716859,1.5604493105939894,1.9720244247604353,-0.11037087440490723,-0.08943665772676468,2.370363235473633,0.9943343997001648,-0.10580025613307953,-0.010288760997354984,0.7146196961402893,0.5038866400718689,0.11531513929367065
0.13102314339104176,1.559323071502986,1.9737411487070722,-0.1809101402759552,-0.09395609050989151,2.6416566371917725,0.9913636445999146,-0.13064858317375183,-0.011374667286872864,0.63421630859375,0.493243008852005,0.11899501085281372
0.15856877172152756,1.5579975353931734,1.9762953911353025,-0.258251816034317,-0.09827893227338791,2.880815029144287,0.9873736500740051,-0.15790510177612305,-0.012637879699468613,0.5610426068305969,0.4878304600715637,0.12332522869110107
0.1884261398653759,1.5563273364238903,1.9796942127241832,-0.3302363455295563,-0.11769668757915497,3.107438087463379,0.982197642326355,-0.18731312453746796,-0.01421239972114563,0.49116063117980957,0.4841727018356323,0.13123220205307007
0.22046331985572792,1.554237627464217,1.9839835059331383,-0.4130665063858032,-0.12409892678260803,3.3203461170196533,0.9756625890731812,-0.21868175268173218,-0.016157180070877075,0.4268948435783386,0.49471306800842285,0.13938724994659424
0.25448766376991805,1.551729171763874,1.989315078929984,-0.5044901967048645,-0.12713946402072906,3.510479211807251,0.9676165580749512,-0.25174960494041443,-0.018451930955052376,0.36444520950317383,0.50557941198349,0.14975392818450928
0.2902681046803905,1.5487283385240185,1.995806761224706,-0.6018604040145874,-0.12050685286521912,3.6834640502929688,0.9579340219497681,-0.2862091362476349,-0.0211431086063385,0.3023962378501892,0.5123289227485657,0.16276001930236816
0.32773536225128663,1.545237073232687,2.003529529586784,-0.6910768747329712,-0.10906568914651871,3.8542137145996094,0.9464646577835083,-0.32189974188804626,-0.02419620007276535,0.24663537740707397,0.5262147188186646,0.1681782603263855
0.3667921741991486,1.541158101086008,2.012391515871572,-0.7594876289367676,-0.10161576420068741,4.009883880615234,0.933072566986084,-0.35862281918525696,-0.027662716805934906,0.20669782161712646,0.53809654712677,0.16140609979629517
0.40725002800156934,1.5364153081414298,2.0221663730755943,-0.7900581359863281,-0.11405929177999496,4.148669242858887,0.9176709651947021,-0.3960857689380646,-0.03156290203332901,0.16114068031311035,0.5572489500045776,0.14315050840377808
0.4490767676784586,1.5305988575246359,2.0326023792133086,-0.7954931259155273,-0.19212587177753448,4.295672416687012,0.9001206755638123,-0.43413403630256653,-0.036202073097229004,0.12575823068618774,0.5847686529159546,0.12612223625183105
0.4922676100597274,1.5232090738919282,2.0435114930403957,-0.7689363956451416,-0.2954796254634857,4.431204319000244,0.8802659511566162,-0.4726254642009735,-0.041921086609363556,0.11233353614807129,0.6215510368347168,0.12044292688369751
0.5366899328176159,1.5143583642715943,2.054761141677739,-0.726401686668396,-0.362368643283844,4.557351589202881,0.8580376505851746,-0.5112941265106201,-0.048477377742528915,0.07451850175857544,0.659029483795166,0.10643035173416138
0.5823110749809614,1.5044666883754723,2.0663403894271357,-0.6752161979675293,-0.3808203637599945,4.6884765625,0.833357572555542,-0.5499556064605713,-0.055357515811920166,0.03173959255218506,0.6867198348045349,0.07485835999250412
0.6292101745287505,1.494060452430503,2.078307852009293,-0.617851972579956,-0.32708415389060974,4.823261260986328,0.8061136603355408,-0.5885064005851746,-0.06197953596711159,-0.0018838047981262207,0.7209066152572632,0.03697048872709274
0.6773463795249066,1.483866908391214,2.0907736726561623,-0.5725641846656799,-0.18971827626228333,4.9478654861450195,0.7762963771820068,-0.6267274022102356,-0.06765349209308624,-0.042638540267944336,0.7598754167556763,-0.0090065598487854
0.726471606192114,1.4743143379328276,2.104113558182323,-0.5664724111557007,0.012473718263208866,5.036876201629639,0.7440462708473206,-0.6642362475395203,-0.07201065123081207,-0.08686560392379761,0.7778224945068359,-0.04584812372922897
0.7761650987821476,1.4653014809277667,2.119286335556394,-0.6482611298561096,0.2529507279396057,5.088613033294678,0.709638237953186,-0.700547993183136,-0.07514214515686035,-0.1323220133781433,0.7619491219520569,-0.0677105188369751
0.826095853709662,1.4555213382365557,2.1376152497040337,-0.7965083718299866,0.4172278344631195,5.1390299797058105,0.6732536554336548,-0.7352909445762634,-0.07795491069555283,-0.16791319847106934,0.7268984317779541,-0.05714630335569382
0.8762466382070704,1.443054326209863,2.1605479030580974,-0.9945720434188843,0.5404688119888306,5.198750972747803,0.6348247528076172,-0.7683420181274414,-0.08153778314590454,-0.19349485635757446,0.7062842845916748,-0.027196228504180908
0.926359021392401,1.4262284134466765,2.1894633859140287,-1.2007217407226562,0.629050612449646,5.230885028839111,0.5944822430610657,-0.799437940120697,-0.08654683828353882,-0.20991498231887817,0.6890860795974731,-7.719546556472778e-05
0.9758228256516673,1.4035407635291361,2.225345037754676,-1.3797065019607544,0.6708253026008606,5.197911262512207,0.5526654720306396,-0.8281633257865906,-0.09330808371305466,-0.2518538236618042,0.6559525728225708,-0.0018914267420768738
1.0236589790824668,1.3735504316277878,2.268775484035215,-1.5005794763565063,0.6353426575660706,5.0688323974609375,0.5101572275161743,-0.8540173172950745,-0.10195203870534897,-0.31499743461608887,0.5913676619529724,-0.033057622611522675
1.0687084471232244,1.335480649258248,2.319628442243873,-1.5368596315383911,0.5562334656715393,4.846996307373047,0.46799400448799133,-0.8765796422958374,-0.11220507323741913,-0.400565505027771,0.5130693912506104,-0.0803455114364624
1.1104484266215238,1.2892785884922409,2.377614199832479,-1.521775484085083,0.48957884311676025,4.61108922958374,0.42677196860313416,-0.8958979845046997,-0.12342171370983124,-0.48849380016326904,0.44167405366897583,-0.140463724732399
1.1485542262409103,1.2348137969335604,2.4428650164880725,-1.4736406803131104,0.4224834442138672,4.3517537117004395,0.38689345121383667,-0.9121723771095276,-0.13511212170124054,-0.542517900466919,0.37518489360809326,-0.2017713189125061
1.18262939978566,1.1724789354311684,2.5149736133872374,-1.3879121541976929,0.3738597333431244,4.0595598220825195,0.34886234998703003,-0.9256044030189514,-0.14680519700050354,-0.6111305356025696,0.29944461584091187,-0.2510828971862793
1.2124219037474655,1.1034004366228507,2.59312576348073,-1.2940188646316528,0.3767944276332855,3.7475061416625977,0.3131328523159027,-0.936468243598938,-0.15803632140159607,-0.6857373118400574,0.2224176526069641,-0.28970223665237427
1.2377495467758295,1.0287862964102705,2.676882973358496,-1.2380623817443848,0.48240047693252563,3.441441774368286,0.2800672650337219,-0.9450506567955017,-0.16864676773548126,-0.7401809096336365,0.14373522996902466,-0.3199242949485779
1.2584710509095547,0.9494720983292108,2.7668959089497047,-1.271744728088379,0.7558546662330627,3.17397403717041,0.24984577298164368,-0.9516216516494751,-0.17886708676815033,-0.7762894034385681,0.07820844650268555,-0.3293115496635437
1.2744861769620468,0.8655388928471288,2.8650034741071995,-1.4029717445373535,1.2059015035629272,2.9896602630615234,0.22233693301677704,-0.9564204216003418,-0.18927894532680511,-0.7840741276741028,0.04197627305984497,-0.3165498375892639
1.2857290962585504,0.7768487961044905,2.9732978491325226,-1.6213817596435547,1.836374044418335,2.902339220046997,0.19714686274528503,-0.959642767906189,-0.2005469799041748,-0.7626224756240845,0.026338815689086914,-0.3111411929130554
1.2918357708444415,0.6847979871347458,3.0920702921214986,-1.8853588104248047,2.5871243476867676,2.8435258865356445,0.17416775226593018,-0.9613421559333801,-0.21327675879001617,-0.7307779788970947,0.024482905864715576,-0.30707842111587524
1.2924857169393111,0.5937034818398412,-3.0654310488204555,-2.12861704826355,3.3770811557769775,2.7911646366119385,0.1536945402622223,-0.9615209102630615,-0.2277182936668396,-0.7171559929847717,0.030154883861541748,-0.3141670227050781
1.2881664366102827,0.5090406741506571,-2.9380510774237507,-2.2922329902648926,4.185818672180176,2.7776925563812256,0.13591061532497406,-0.9603253602981567,-0.24352380633354187,-0.7118232250213623,0.04002189636230469,-0.35091280937194824
1.2798670658350302,0.4344748496854036,-2.8129077548066435,-2.400905132293701,4.902372360229492,2.7803306579589844,0.12074214220046997,-0.9579777121543884,-0.2601930797100067,-0.681670606136322,0.07028216123580933,-0.4116514027118683
1.2683680247569153,0.3719072381404388,-2.6934198959141784,-2.4450042247772217,5.437050819396973,2.7483274936676025,0.10823289304971695,-0.9546160697937012,-0.27747830748558044,-0.6516442894935608,0.10488444566726685,-0.45384490489959717
1.2547910562211146,0.322601205321637,-2.5825106614951303,-2.3989479541778564,5.836165428161621,2.6798946857452393,0.09852565824985504,-0.9504844546318054,-0.2947409749031067,-0.6302793025970459,0.10261446237564087,-0.48286211490631104
1.240212801760914,0.28661752272037727,-2.4814473949389155,-2.3066318035125732,6.14370059967041,2.5774683952331543,0.09176614135503769,-0.9458531141281128,-0.3113536834716797,-0.6018218398094177,0.08791232109069824,-0.5252704620361328
1.2254098222336498,0.26300215229199214,-2.3901158896751054,-2.1848011016845703,6.378426551818848,2.456890106201172,0.08801928162574768,-0.9409446716308594,-0.3269190788269043,-0.5804358124732971,0.09824740886688232,-0.5344853401184082
1.2110841659150335,0.250106733673741,-2.307761554444781,-2.028911828994751,6.506225109100342,2.324995517730713,0.08712387084960938,-0.9359982013702393,-0.3410528600215912,-0.5361291170120239,0.10468399524688721,-0.5094568133354187
1.1978958613134998,0.2461140901645791,-2.233682845285476,-1.830531358718872,6.54071569442749,2.1798110008239746,0.0887613594532013,-0.9312745928764343,-0.35333988070487976,-0.49069321155548096,0.12071245908737183,-0.47100093960762024
1.1864473541192462,0.24925468564598457,-2.1669541566356254,-1.600692868232727,6.499800205230713,2.0551531314849854,0.09249477833509445,-0.9270427227020264,-0.3633684813976288,-0.4476279318332672,0.1351572871208191,-0.4454541802406311
1.1770849817606122,0.2572905536555378,-2.106071195034656,-1.3739902973175049,6.389813423156738,1.9608073234558105,0.0976160541176796,-0.9234916567802429,-0.3709909915924072,-0.38251301646232605,0.14773482084274292,-0.40833643078804016
1.1698401038625215,0.26845580569478683,-2.0494315062609774,-1.1743559837341309,6.326356887817383,1.911316990852356,0.10352405160665512,-0.9206882119178772,-0.3763192296028137,-0.3340386748313904,0.18197965621948242,-0.36454078555107117
1.1643643744477057,0.28207118143990695,-1.995258000224247,-1.054105520248413,6.394438743591309,1.89804208278656,0.11003964394330978,-0.9185372591018677,-0.379711389541626,-0.29151251912117004,0.2111092209815979,-0.3307073414325714
1.1597565091720219,0.29730902895851685,-1.9419386711800037,-1.0587130784988403,6.436886310577393,1.9101781845092773,0.11705132573843002,-0.916705846786499,-0.38203346729278564,-0.2380535900592804,0.19800156354904175,-0.29042142629623413
1.1549333232741468,0.311622365256751,-1.8878226476934699,-1.1814420223236084,6.355374813079834,1.9599566459655762,0.12386150658130646,-0.9147680401802063,-0.3845230042934418,-0.18590378761291504,0.20842337608337402,-0.21954196691513062
1.1490499927435753,0.3232540489475042,-1.8313353188779018,-1.3819165229797363,6.325358867645264,2.049743413925171,0.1300330013036728,-0.9123754501342773,-0.38815274834632874,-0.15508797764778137,0.27178096771240234,-0.12643474340438843
1.1417618060941979,0.33202475567063205,-1.7715885968888219,-1.585774302482605,6.328027248382568,2.1557161808013916,0.13559629023075104,-0.9093677997589111,-0.3932735323905945,-0.10997681319713593,0.32007330656051636,-0.08867537975311279
1.1333573498879486,0.338131906231799,-1.7090905892875836,-1.720504641532898,6.2461628913879395,2.2541635036468506,0.1405259072780609,-0.9058395624160767,-0.39963409304618835,-0.0705796331167221,0.3540816307067871,-0.09241616725921631
1.1246152665471731,0.3416726738167783,-1.6446197038826063,-1.7602207660675049,6.140969276428223,2.3754687309265137,0.144587904214859,-0.9021016359329224,-0.406579852104187,-0.0442613810300827,0.3857746720314026,-0.11673569679260254
1.1164638034610659,0.34257185943443186,-1.5780363326766595,-1.7183430194854736,6.05155086517334,2.5525710582733154,0.14741864800453186,-0.8985541462898254,-0.4133621156215668,0.0013850629329681396,0.41926032304763794,-0.1546006202697754
1.109579807149436,0.3404585142123329,-1.5087612150880476,-1.6355019807815552,5.980709552764893,2.771066188812256,0.14860683679580688,-0.8955117464065552,-0.419493705034256,0.05894322693347931,0.4393959641456604,-0.19040018320083618
1.1041700642814531,0.335194067984922,-1.4360308756891547,-1.5514832735061646,6.007267951965332,3.0283312797546387,0.14798784255981445,-0.8930911421775818,-0.4248389005661011,0.07294419407844543,0.469140887260437,-0.2048608660697937
1.1001180014344587,0.32703845164677386,-1.3591975405582453,-1.4791282415390015,6.093519687652588,3.27862811088562,0.14567941427230835,-0.8912608623504639,-0.42945510149002075,0.07175835967063904,0.49743151664733887,-0.22354483604431152
1.096995526388391,0.3166433359635294,-1.2787767105169523,-1.4400149583816528,6.172641754150391,3.468158006668091,0.14207324385643005,-0.8898405432701111,-0.4335887134075165,0.07055802643299103,0.4723142385482788,-0.2511647939682007
1.0940847838026397,0.30456209032991627,-1.1953533303980186,-1.459337592124939,6.269989490509033,3.635415554046631,0.1376008689403534,-0.888508677482605,-0.43774256110191345,0.03840932250022888,0.443501353263855,-0.2635056972503662
1.0907280488895057,0.29066764477513496,-1.1086860157369438,-1.5355143547058105,6.354666233062744,3.8104920387268066,0.1323596090078354,-0.8869633674621582,-0.44246706366539,0.06411261856555939,0.4339756965637207,-0.24797797203063965
1.0860762325401712,0.2743219421047223,-1.0182802054719662,-1.7179299592971802,6.413735389709473,3.998187780380249,0.12622615694999695,-0.8848053812980652,-0.448538213968277,0.13582837581634521,0.4545227885246277,-0.2179657220840454
1.07877257664955,0.2557563216587178,-0.9240037723856221,-2.032477378845215,6.575130462646484,4.1599578857421875,0.11950917541980743,-0.8813786506652832,-0.457044392824173,0.17971578240394592,0.4931948781013489,-0.1504843831062317
1.0674816267528486,0.23643850338271372,-0.8268405583031224,-2.4206173419952393,6.601448059082031,4.30220365524292,0.11298226565122604,-0.8759886026382446,-0.4689127206802368,0.19066773355007172,0.5107236504554749,-0.07643646001815796
1.0520891635558864,0.21466329097706194,-0.728216642406548,-2.731158494949341,6.250084400177002,4.40911340713501,0.1056055799126625,-0.8684608340263367,-0.4843793511390686,0.12672483921051025,0.49860304594039917,0.0015607178211212158
1.033119411208566,0.19147272840541094,-0.6315363419398181,-2.951840877532959,5.838561058044434,4.36564302444458,0.09746318310499191,-0.8589007258415222,-0.5027828216552734,0.0009408816695213318,0.4503313899040222,0.05779075622558594
1.0108046667322785,0.16959018328103265,-0.5402195407823288,-3.1611294746398926,5.384044170379639,4.207212448120117,0.08965160697698593,-0.847259521484375,-0.523559033870697,-0.08775940537452698,0.3603057265281677,0.007262587547302246
0.9850289921462342,0.15063935248055874,-0.4560320280796304,-3.380892515182495,5.03726863861084,3.979964256286621,0.0829647034406662,-0.8332881331443787,-0.5465782880783081,-0.17314401268959045,0.2942713499069214,0.0035790205001831055
0.9564205529294466,0.13776114142337764,-0.38026686548043376,-3.507575035095215,4.925151348114014,3.6705434322357178,0.07916127890348434,-0.8171334266662598,-0.570987343788147,-0.241239994764328,0.258539617061615,0.024051308631896973
0.926081683648469,0.13202878969461468,-0.3131840956510075,-3.5702481269836426,4.770791053771973,3.357530117034912,0.07911509275436401,-0.799271285533905,-0.5957401990890503,-0.21780209243297577,0.20147764682769775,0.008581995964050293
0.8948349016783351,0.1305021513936696,-0.25320220144197475,-3.5970096588134766,4.3868865966796875,3.1514408588409424,0.08141681551933289,-0.7801057696342468,-0.6203276515007019,-0.15233951807022095,0.16473406553268433,0.005734145641326904
0.8632253662463089,0.1289344188100788,-0.19751309623680408,-3.5965263843536377,3.8874316215515137,3.1024467945098877,0.08357405662536621,-0.7599429488182068,-0.6445946097373962,-0.09599455446004868,0.1604251265525818,0.021761298179626465
0.8319042283134683,0.12509699753319267,-0.14405806830007356,-3.5107908248901367,3.3679282665252686,3.134601354598999,0.0840294286608696,-0.7392151355743408,-0.6682065725326538,-0.05772312730550766,0.16780400276184082,0.005669951438903809
0.801958156596851,0.11873288840206522,-0.09248986116091634,-3.2856600284576416,2.9100873470306396,3.146885633468628,0.08236122131347656,-0.718718945980072,-0.6904054284095764,-0.08951742947101593,0.1599726676940918,-0.06511819362640381
0.7746317604456914,0.11168216401762293,-0.043588545538294256,-2.933655023574829,2.6492209434509277,3.067905902862549,0.07965103536844254,-0.6994529366493225,-0.7102262377738953,-0.1827239990234375,0.13260418176651,-0.16063863039016724
0.7507508244016651,0.10674578943325214,0.001180456509117164,-2.5290420055389404,2.576174259185791,2.838419198989868,0.0779019147157669,-0.6821879148483276,-0.7270150780677795,-0.3021601736545563,0.06893724203109741,-0.2640279531478882
0.730204501670056,0.10595633829576,0.040449914196768466,-2.194399356842041,2.5729548931121826,2.493683338165283,0.07879387587308884,-0.6670219898223877,-0.7408597469329834,-0.3902255892753601,-0.013321638107299805,-0.3105623722076416
0.7117616754647783,0.10921031892464358,0.07395833837457076,-2.0460777282714844,2.4929566383361816,2.125056028366089,0.08253112435340881,-0.6531687378883362,-0.7527012825012207,-0.4007530212402344,-0.07685750722885132,-0.2726282477378845
0.6935030305412737,0.11474644146597912,0.10234976374460865,-2.0912961959838867,2.274507999420166,1.7883498668670654,0.0880478173494339,-0.6392349600791931,-0.7639543414115906,-0.32182756066322327,-0.12056118249893188,-0.14463019371032715
0.6741758825883796,0.12047783427102522,0.1268111721533407,-2.1972548961639404,1.9620001316070557,1.5417288541793823,0.09389237314462662,-0.6242536902427673,-0.7755588889122009,-0.21283447742462158,-0.14306503534317017,-0.03735309839248657
0.6540751561678161,0.12485759150502929,0.14872285157768977,-2.1996822357177734,1.623066782951355,1.4094704389572144,0.09883110225200653,-0.6084255576133728,-0.7874330282211304,-0.1327206939458847,-0.1387515664100647,-0.026989519596099854
0.6351130531774305,0.12728774424276107,0.1693227366379942,-1.9475915431976318,1.362842082977295,1.399352788925171,0.10219074785709381,-0.5932685136795044,-0.7984920144081116,-0.08636722713708878,-0.1340264081954956,-0.11454808712005615
0.6200575442998133,0.1285200026375739,0.1896019155747255,-1.4316840171813965,1.2875348329544067,1.4881575107574463,0.10430766642093658,-0.5810819864273071,-0.8071330189704895,-0.05679163336753845,-0.13037431240081787,-0.2870441675186157
0.6112556669779265,0.12955080267270552,0.21016114352904142,-0.7402564287185669,1.3024404048919678,1.6232540607452393,0.10579627007246017,-0.5738962292671204,-0.8120654821395874,-0.09871602803468704,-0.11203217506408691,-0.4556957483291626
0.6094348828656756,0.1306645575400642,0.23126042069090996,-0.08867546916007996,1.3416900634765625,1.765899658203125,0.10683661699295044,-0.572404146194458,-0.8129818439483643,-0.1737309694290161,-0.07034182548522949,-0.5632236003875732
0.6132936776734424,0.13165230033074063,0.25311566764973376,0.34934964776039124,1.3527686595916748,1.8797931671142578,0.10734882950782776,-0.5755640268325806,-0.8106801509857178,-0.21609805524349213,-0.03866332769393921,-0.5430185198783875
0.6199921963850508,0.13140543739280897,0.27523658267241863,0.465697318315506,1.1263991594314575,1.8590776920318604,0.10664112865924835,-0.5810288190841675,-0.8068662881851196,-0.21018710732460022,-0.042735278606414795,-0.4258607029914856
0.6261311344077068,0.1285601905055327,0.2962160885543813,0.27579113841056824,0.747098445892334,1.663142204284668,0.1038857102394104,-0.5860142111778259,-0.8036138415336609,-0.21953187882900238,-0.06126368045806885,-0.2670190930366516
0.628851138944436,0.12355238658826595,0.3144381245349562,-0.12284015864133835,0.41666117310523987,1.325360655784607,0.09966327995061874,-0.5882160663604736,-0.8025391697883606,-0.24071535468101501,-0.09835320711135864,-0.09225142002105713
0.6267337423240905,0.11856293563726182,0.3289228483097615,-0.5844134092330933,0.3136976957321167,0.9604214429855347,0.09580492973327637,-0.5865023732185364,-0.8042613863945007,-0.26859527826309204,-0.1394956111907959,0.05127072334289551
0.619689909869949,0.11508348279217623,0.3400452979915652,-1.0198780298233032,0.2776139974594116,0.6888280510902405,0.09347803890705109,-0.5807827711105347,-0.8086737394332886,-0.26927438378334045,-0.1646091341972351,0.12938302755355835
0.608563029918989,0.11178578047121544,0.3491298407378308,-1.3418949842453003,0.0910763069987297,0.5502344965934753,0.09152602404356003,-0.5716890692710876,-0.8153494000434875,-0.2399023026227951,-0.15171492099761963,0.13994967937469482
0.5949569490786855,0.10664444015812041,0.3573841564823447,-1.4981223344802856,-0.19047334790229797,0.5190805792808533,0.0881526991724968,-0.5604730844497681,-0.8234677314758301,-0.20375311374664307,-0.12005370855331421,0.06890535354614258
0.5805239985505742,0.09888580300738821,0.36573195593733204,-1.5017443895339966,-0.415719598531723,0.5745851993560791,0.08255118876695633,-0.5484621524810791,-0.8320904970169067,-0.1689310073852539,-0.10270673036575317,-0.047868549823760986
0.5667468759691396,0.08968295711529593,0.3745852054221311,-1.3732922077178955,-0.443556547164917,0.6448462605476379,0.0755598247051239,-0.5368903875350952,-0.8402615785598755,-0.15850642323493958,-0.11586540937423706,-0.1975802183151245
0.5545704561089903,0.08079949097965097,0.38366910692527845,-1.1856250762939453,-0.35756585001945496,0.6787431836128235,0.06861509382724762,-0.5265781879425049,-0.8473532199859619,-0.1765097975730896,-0.1507442593574524,-0.3491799831390381
0.5440955163990587,0.07334454300009022,0.3924673117660966,-1.030890941619873,-0.20858168601989746,0.6480846405029297,0.06269703805446625,-0.5176444053649902,-0.8532955646514893,-0.21029514074325562,-0.17150360345840454,-0.43253201246261597
0.5346955254285797,0.0680084538470598,0.40017252004791115,-0.9475768804550171,-0.07614348828792572,0.5314608216285706,0.05847099795937538,-0.509579062461853,-0.858434796333313,-0.26774510741233826,-0.17700541019439697,-0.43068867921829224
0.5258002217327262,0.06472104008484558,0.4060396121671167,-0.8980122208595276,0.00891414750367403,0.3573465049266815,0.05593961849808693,-0.5019053220748901,-0.8631117343902588,-0.3233344554901123,-0.18191736936569214,-0.38279885053634644
0.5172790536395235,0.06319536112841427,0.40966836874792084,-0.8425020575523376,0.03613898530602455,0.1613599956035614,0.05489083006978035,-0.4945169985294342,-0.8674329519271851,-0.3321886360645294,-0.18062344193458557,-0.33431869745254517
0.5092622213078266,0.06275839361077702,0.41112479472179053,-0.777408242225647,0.01939835399389267,-0.0014068190939724445,0.054758671671152115,-0.48753321170806885,-0.8713855743408203,-0.3103432357311249,-0.16824382543563843,-0.2707042098045349
0.5017163132162626,0.06300274600369403,0.4111277722509348,-0.7378630638122559,0.03985894098877907,-0.08495700359344482,0.05520165339112282,-0.48093104362487793,-0.8750189542770386,-0.2680005431175232,-0.14966899156570435,-0.18180477619171143
0.495053443547983,0.06701440927129607,0.41063438779882233,-0.5177112817764282,1.0233358144760132,-0.07124625146389008,0.058924756944179535,-0.47507867217063904,-0.8779681921005249,-0.205225870013237,-0.12865063548088074,-0.09462696313858032
0.4909581904307403,0.08396014685221513,0.41083404109361354,-0.3538220226764679,2.312206506729126,0.049724213778972626,0.07395593822002411,-0.4714711010456085,-0.8787750005722046,-0.1774713695049286,-0.09142568707466125,-0.06655269861221313
0.48588179575468343,0.10827222582590784,0.41276883360578875,-0.7846442461013794,2.5310468673706055,0.18960967659950256,0.09555423259735107,-0.46698829531669617,-0.8790855407714844,-0.14645737409591675,-0.05841764807701111,-0.019855499267578125
0.47410495577291933,0.12411340510520094,0.41717310354600856,-1.6528271436691284,0.8620200157165527,0.3026062250137329,0.11014063656330109,-0.45654231309890747,-0.8828579783439636,-0.04846443235874176,-0.056229352951049805,0.0997312068939209
0.45553406562769555,0.12096635058727652,0.4232539748906475,-2.076589584350586,-0.752640962600708,0.2998588979244232,0.1083662211894989,-0.43994197249412537,-0.8914638757705688,0.008089043200016022,-0.08621165156364441,0.15393036603927612
0.43616447864958574,0.11072678134998334,0.4284709085863368,-1.8273545503616333,-0.6857712268829346,0.17982175946235657,0.10015545040369034,-0.4224661588668823,-0.9008281230926514,0.010013185441493988,-0.15195101499557495,-0.06122326850891113
0.4205977244049807,0.10530110634208462,0.43143551537285607,-1.3218895196914673,-0.19565023481845856,0.022449180483818054,0.0959460511803627,-0.40830615162849426,-0.9077887535095215,-0.014952227473258972,-0.1996956169605255,-0.36691516637802124
0.4100276863788899,0.10337312605250742,0.43210724514311194,-0.8031754493713379,-0.1946660727262497,-0.11648532003164291,0.0946357473731041,-0.39863473176956177,-0.9122140407562256,-0.062454789876937866,-0.1427624225616455,-0.48184412717819214
0.40437566050606727,0.10099940081261981,0.4308461128928914,-0.298530638217926,-0.3645126223564148,-0.22441604733467102,0.09269583970308304,-0.39344486594200134,-0.9146631360054016,-0.10059971362352371,-0.04835817217826843,-0.4830724000930786
0.404135550744297,0.0991191919414743,0.42790377492952714,0.3213314712047577,-0.2072308361530304,-0.3208010792732239,0.0909852609038353,-0.3932240903377533,-0.9149297475814819,-0.13012388348579407,0.005391418933868408,-0.4658532738685608
0.40992956104098055,0.09940427173898203,0.42322677087968563,0.9012238383293152,-0.1354469358921051,-0.4185161888599396,0.09101845324039459,-0.3985447287559509,-0.9126213788986206,-0.15371665358543396,0.00651589035987854,-0.4638891816139221
0.4207045309623176,0.10012057504474582,0.41711582543685044,1.340641736984253,-0.2253066897392273,-0.4743301570415497,0.09123759716749191,-0.4084036648273468,-0.9082302451133728,-0.1788686364889145,0.028490275144577026,-0.4262118339538574
0.43513216088331513,0.10040295053802648,0.4102205886694957,1.6452394723892212,-0.27374663949012756,-0.48191937804222107,0.0908939465880394,-0.42153024673461914,-0.9022474884986877,-0.16283896565437317,0.06131598353385925,-0.3591355085372925
0.45192947250734106,0.10119281660113925,0.40315316867246204,1.8121542930603027,-0.1573195457458496,-0.44411230087280273,0.09087839722633362,-0.43670210242271423,-0.895004153251648,-0.12958979606628418,0.06638652086257935,-0.2997437119483948
0.46968899206377607,0.10354597948356895,0.3965815414944992,1.8277894258499146,0.049260787665843964,-0.3605803847312927,0.09216798841953278,-0.45260897278785706,-0.8869330286979675,-0.09502118825912476,0.05440029501914978,-0.2454979419708252
0.48694164219866254,0.10764554107772574,0.39110592805294814,1.6924011707305908,0.2684260606765747,-0.24138416349887848,0.09495007246732712,-0.46792519092559814,-0.8786526918411255,-0.04674738645553589,0.04533299803733826,-0.16773396730422974
0.5022473182287571,0.11318868169961736,0.3872857490419713,1.4144898653030396,0.4715765118598938,-0.08700550347566605,0.09899850934743881,-0.48139652609825134,-0.870894193649292,0.005112387239933014,0.03754881024360657,-0.07234305143356323
0.5145272610115007,0.1194690837309181,0.385687556330068,1.0550280809402466,0.6242455840110779,0.10038724541664124,0.10375366359949112,-0.4921233654022217,-0.8643204569816589,0.06374223530292511,0.024471938610076904,0.016389548778533936
0.5233534504722007,0.12564923893775531,0.3868198287130157,0.6760777831077576,0.7186397314071655,0.3134305477142334,0.10854470729827881,-0.4997875392436981,-0.859319806098938,0.11258584260940552,-0.0022724270820617676,0.09442728757858276
0.5288623183455091,0.13087857040020887,0.3908422884943809,0.3385508358478546,0.7196021676063538,0.5125394463539124,0.11267583817243576,-0.5045514106750488,-0.8559976816177368,0.13085462152957916,-0.04040104150772095,0.1482340693473816
0.5317281294095646,0.13436636404277888,0.3972337790590262,0.09779120236635208,0.6132498979568481,0.645784854888916,0.11546652019023895,-0.5070236325263977,-0.8541631102561951,0.12176206707954407,-0.07805943489074707,0.15390676259994507
0.53292622307328,0.13576921075703796,0.4048553603118749,-0.02196863293647766,0.43524599075317383,0.6778294444084167,0.11658235639333725,-0.5080559253692627,-0.853397786617279,0.08144638687372208,-0.11016923189163208,0.11208009719848633
0.5335628611420138,0.13527628704193873,0.41242991681443675,-0.012376192957162857,0.23775024712085724,0.6218348741531372,0.11611803621053696,-0.5086041688919067,-0.8531344532966614,0.025056466460227966,-0.13589662313461304,0.05352818965911865
0.5347696830956536,0.1335068445852081,0.4188461212429206,0.11775220185518265,0.07043957710266113,0.49933868646621704,0.11452649533748627,-0.5096428990364075,-0.8527296185493469,-0.029016077518463135,-0.1474769115447998,-0.0113297700881958
0.5375542715865442,0.13140125048995682,0.423358544212218,0.3394124507904053,-0.01924503594636917,0.34442874789237976,0.11254435777664185,-0.5120367407798767,-0.8515586853027344,-0.06997217237949371,-0.1516442894935608,-0.09068673849105835
0.5425038311742524,0.12979320475426276,0.4258379660648505,0.5873212814331055,-0.04495169222354889,0.21186770498752594,0.11084549129009247,-0.5162819623947144,-0.8492150902748108,-0.10364315658807755,-0.1452476978302002,-0.16874444484710693
0.5495952309677601,0.12886069215673243,0.4266872102035191,0.7938629984855652,-0.05430684611201286,0.12068638205528259,0.10958030074834824,-0.5223420858383179,-0.8456659317016602,-0.1111975684762001,-0.11976301670074463,-0.1958836317062378
0.558231288843399,0.12844283733827128,0.42639650457994605,0.9128778576850891,-0.059080321341753006,0.05572238564491272,0.10864505171775818,-0.5296868085861206,-0.8412063717842102,-0.09407273679971695,-0.08051222562789917,-0.17141258716583252
0.567413514471932,0.12850299205029597,0.42535482194678353,0.9160406589508057,-0.037464506924152374,0.006327139679342508,0.10806779563426971,-0.5374526977539062,-0.8363408446311951,-0.07394895702600479,-0.052070677280426025,-0.11243534088134766
0.5759831050065461,0.1292010661656917,0.4238319585441725,0.8051363825798035,0.014080454595386982,-0.03835226967930794,0.10805420577526093,-0.5446595549583435,-0.8316671848297119,-0.0578526109457016,-0.04518425464630127,-0.04481285810470581
0.5830155356381493,0.13069049885042922,0.4220525176698481,0.6209681630134583,0.09391030669212341,-0.07256404310464859,0.10879094153642654,-0.5505438446998596,-0.8276872038841248,-0.04650440067052841,-0.044716835021972656,0.014561653137207031
0.5880418217484646,0.13325089247463143,0.42018597263956825,0.4169786274433136,0.21451880037784576,-0.10340111702680588,0.11054074764251709,-0.5547327995300293,-0.8246527910232544,-0.03990762680768967,-0.04556328058242798,0.05229872465133667
0.5911156462075031,0.13705650772203148,0.418242852447219,0.2393558919429779,0.3256567418575287,-0.13276831805706024,0.1134447455406189,-0.5572876930236816,-0.822533130645752,-0.03687597066164017,-0.04413747787475586,0.06043297052383423
0.5926174667762742,0.14197924595757036,0.4161568920821987,0.10982035100460052,0.4243374466896057,-0.1679156869649887,0.11737390607595444,-0.5585340857505798,-0.8211352229118347,-0.03934028744697571,-0.03677237033843994,0.05265688896179199
0.5930221393732878,0.14783691367561452,0.4138463729370927,0.027982741594314575,0.48318079113960266,-0.19812525808811188,0.12214849889278412,-0.5588697195053101,-0.8202099800109863,-0.03872852027416229,-0.03289669752120972,0.04039442539215088
0.5927638319512112,0.15409344051259394,0.4114552717491355,-0.01963282935321331,0.49566179513931274,-0.19738440215587616,0.12729988992214203,-0.5586555004119873,-0.8195723295211792,-0.020442426204681396,-0.027037978172302246,0.031196534633636475
0.5922046686604234,0.1600169374934704,0.4094014410204998,-0.03658997640013695,0.45066210627555847,-0.15082836151123047,0.1322021186351776,-0.5581915974617004,-0.8191121816635132,0.0006410777568817139,-0.01199883222579956,0.03180450201034546
0.5917656014797328,0.16478311767932077,0.4081060653848166,-0.014529230073094368,0.353097140789032,-0.07557296007871628,0.13614483177661896,-0.5578272938728333,-0.8187144994735718,0.021036118268966675,0.009456813335418701,0.03436696529388428
0.5918171805131703,0.16800945135228204,0.4076092486669127,0.03829190507531166,0.23819078505039215,-0.006711604539304972,0.13878074288368225,-0.557870090007782,-0.8182425498962402,0.03454400599002838,0.028954625129699707,0.03351360559463501
0.5925659810648548,0.16981758499500396,0.40767071991108367,0.10581693053245544,0.13213516771793365,0.03977874666452408,0.14018937945365906,-0.5584913492202759,-0.8175783753395081,0.03464601933956146,0.037998735904693604,0.03188812732696533
0.594027715016751,0.17041055626030452,0.4081038045748515,0.1631217747926712,0.03625710308551788,0.07850722968578339,0.14053554832935333,-0.5597032904624939,-0.816689670085907,0.028120025992393494,0.04259812831878662,0.03168606758117676
0.5959183722116494,0.17002844950142898,0.40884682822739477,0.1826406568288803,-0.02461409941315651,0.10721482336521149,0.1400441825389862,-0.5612690448760986,-0.8156989216804504,0.028596147894859314,0.04082220792770386,0.037973761558532715
0.5978914283205027,0.1691214494176267,0.4098778573487343,0.17386101186275482,-0.036127474159002304,0.12475866079330444,0.13911761343479156,-0.562900960445404,-0.8147324323654175,0.03226926922798157,0.03145253658294678,0.042271554470062256
0.5997299497828329,0.1682438636060249,0.41102803034233465,0.15657149255275726,-0.0060661835595965385,0.11900021880865097,0.13822902739048004,-0.5644195675849915,-0.8138325214385986,0.02061516046524048,0.01658320426940918,0.03435254096984863
0.601380425648836,0.16792870430683446,0.411914744174899,0.1429225206375122,0.045486222952604294,0.07707780599594116,0.1378166377544403,-0.5657812356948853,-0.8129564523696899,-0.0022421330213546753,0.0035558342933654785,0.016981780529022217
0.6027792762813712,0.1685003808101236,0.41222176800968646,0.12323934584856033,0.10359439253807068,0.017842218279838562,0.1381485015153885,-0.5669341087341309,-0.8120964765548706,-0.022288352251052856,-0.0027832984924316406,0.006981849670410156
