attitudeX,attitudeY,attitudeZ,gyroX,gyroY,gyroZ,gravityX,gravityY,gravityZ,accX,accY,accZ
1.0331431964451054,0.5057735437449228,-1.340332954063954,0.29683929681777954,-0.5246673226356506,-0.2309386432170868,0.2481149137020111,-0.8589129447937012,-0.4480040371417999,0.03937596082687378,-0.015125811100006104,-0.20029601454734802
1.0346876350517373,0.5057258302752958,-1.3466148692307833,0.2754996418952942,-0.5660272240638733,-0.17926539480686188,0.24745061993598938,-0.8597028255462646,-0.4468548893928528,0.09266781806945801,-0.016807854175567627,-0.15092337131500244
1.0360573699813937,0.5039872114709927,-1.351269946218934,0.18867313861846924,-0.5823143124580383,-0.10689479112625122,0.2461043894290924,-0.8604016900062561,-0.4462527930736542,0.13222205638885498,-0.026866436004638672,-0.08295240998268127
1.036743138641635,0.5002567798527463,-1.3538618622580252,0.05903617665171623,-0.617122232913971,-0.06305770576000214,0.24415500462055206,-0.8607509732246399,-0.44665008783340454,0.15536589920520782,-0.04494982957839966,-0.04410296678543091
1.0364218908501006,0.4947382153440286,-1.3550297621099865,-0.04825565591454506,-0.6991241574287415,-0.0778006985783577,0.24181774258613586,-0.8605874180793762,-0.44823408126831055,0.15626883506774902,-0.07788926362991333,-0.03975719213485718
1.035338234170076,0.4880760870647704,-1.356242231399167,-0.06476353108882904,-0.8458132147789001,-0.13589996099472046,0.23926322162151337,-0.8600350022315979,-0.45065829157829285,0.16301947832107544,-0.1209525465965271,-0.09009784460067749
1.0342075216691038,0.4814358791393734,-1.359060892939327,0.009691532701253891,-0.9682203531265259,-0.22451958060264587,0.23671580851078033,-0.8594574928283691,-0.45309901237487793,0.14263299107551575,-0.15545040369033813,-0.1638900637626648
1.0334677690466165,0.47586063169672876,-1.364386557773507,0.11131776124238968,-1.0639714002609253,-0.32757511734962463,0.2344772070646286,-0.859079122543335,-0.45497676730155945,0.08766640722751617,-0.15965890884399414,-0.19288086891174316
1.0331608007762298,0.4716046169833387,-1.372507301292842,0.22225706279277802,-1.2050262689590454,-0.4477159082889557,0.2326585054397583,-0.8589219450950623,-0.45620548725128174,0.047813355922698975,-0.15241557359695435,-0.17335689067840576
1.0332304305119422,0.4676121868850759,-1.383944298438961,0.32711300253868103,-1.6055216789245605,-0.5981878638267517,0.23080821335315704,-0.8589575886726379,-0.45707711577415466,0.03884515166282654,-0.17673277854919434,-0.13571149110794067
1.0336032345779136,0.4616222330660208,-1.3995714186848685,0.46580588817596436,-2.3144187927246094,-0.8085301518440247,0.22792357206344604,-0.8591484427452087,-0.45816469192504883,0.06464847922325134,-0.24239885807037354,-0.10784474015235901
1.0343354216830403,0.4528679742512464,-1.420752312666783,0.6194295287132263,-3.086926221847534,-1.0770107507705688,0.2236287146806717,-0.8595228791236877,-0.45957669615745544,0.0971110463142395,-0.33784961700439453,-0.10774502158164978
1.0350289347641102,0.4413837139013984,-1.4475859382866116,0.6840018630027771,-3.826671600341797,-1.330816388130188,0.2180814892053604,-0.8598771095275879,-0.461575448513031,0.11036397516727448,-0.3836379647254944,-0.11720561981201172
1.0351515958396746,0.42648849771852576,-1.4781966163641362,0.6411399245262146,-4.4182658195495605,-1.48423433303833,0.21113868057727814,-0.8599397540092468,-0.46467652916908264,0.15012845396995544,-0.3647002577781677,-0.1321251392364502
1.0342694310128433,0.4053279941570814,-1.50915535248456,0.4521990418434143,-5.2463603019714355,-1.455720067024231,0.20155838131904602,-0.8594891428947449,-0.46973684430122375,0.18490101397037506,-0.2887653112411499,-0.13115417957305908
1.0322579875369884,0.3752477863931078,-1.5374094987471532,0.3282616138458252,-5.4048357009887695,-1.3804807662963867,0.1879727840423584,-0.8584592342376709,-0.4771939218044281,0.176559716463089,-0.17588835954666138,-0.10851460695266724
1.0310203251329713,0.347645684603201,-1.5640917025024115,0.4066389799118042,-4.805876731872559,-1.2574414014816284,0.17509309947490692,-0.8578238487243652,-0.4831983745098114,0.3402114808559418,-0.25705957412719727,-0.45874184370040894
1.0313239968903378,0.3207685977662741,-1.5875698207525464,0.4509536921977997,-4.612122535705566,-0.9909559488296509,0.1619623452425003,-0.8579798340797424,-0.48748213052749634,0.3464452624320984,-0.31017202138900757,-0.6492213010787964
1.033052443740745,0.29059978811083875,-1.605491410688385,0.4421095848083496,-4.47673225402832,-0.6881026029586792,0.14675898849964142,-0.8588664531707764,-0.49072423577308655,0.19003304839134216,-0.22553002834320068,-0.7098524570465088
1.0359302509614834,0.26111068013224953,-1.6201923528239206,0.5330864191055298,-3.9125006198883057,-0.6372175216674805,0.13158762454986572,-0.8603368997573853,-0.4924480617046356,0.01916922628879547,-0.12881410121917725,-0.7869097590446472
1.0401544050020428,0.2402405465146553,-1.6362414515880739,0.7041553258895874,-3.0255982875823975,-0.7429593801498413,0.12041649222373962,-0.8624823689460754,-0.4915527105331421,-0.10369282960891724,-0.14569640159606934,-0.9188171029090881
1.0462353229684116,0.23077262862899628,-1.655518487883105,0.9420002698898315,-2.242967367172241,-0.8679807782173157,0.11455545574426651,-0.8655439019203186,-0.487556129693985,-0.17552955448627472,-0.18970823287963867,-1.0576555728912354
1.0548264057104664,0.231294731327547,-1.6792690838976427,1.2916096448898315,-1.8358323574066162,-1.0559771060943604,0.11310114711523056,-0.8698145747184753,-0.4802402853965759,-0.20952139794826508,-0.21754205226898193,-1.1343836784362793
1.0670019701013314,0.24118950732434546,-1.7104861622316931,1.8232618570327759,-1.6603387594223022,-1.3585379123687744,0.11530910432338715,-0.8757571578025818,-0.46877849102020264,-0.25778040289878845,-0.1955777406692505,-1.2410602569580078
1.0837715248951136,0.26247888138762837,-1.7530597989967913,2.435401439666748,-1.6029940843582153,-1.7279876470565796,0.12143415212631226,-0.8837291598320007,-0.4519697427749634,-0.32342997193336487,-0.13587844371795654,-1.3438217639923096
1.1047937815666111,0.2958392914267818,-1.8084993130896072,3.023216724395752,-1.5571931600570679,-1.9994215965270996,0.13099561631679535,-0.89337158203125,-0.42979928851127625,-0.34664806723594666,0.09028619527816772,-1.3871256113052368
1.1297619412996898,0.34244829146740263,-1.8767043569493573,3.600356340408325,-1.3932723999023438,-2.1015946865081787,0.14334219694137573,-0.9043105840682983,-0.4020887613296509,-0.32510489225387573,0.28985440731048584,-1.397639513015747
1.158077062277093,0.40314764728231517,-1.958030694797624,4.1281232833862305,-1.2997256517410278,-2.114121198654175,0.15735851228237152,-0.9160335063934326,-0.36894577741622925,-0.25600653886795044,0.40962475538253784,-1.3970911502838135
1.1885569044100126,0.4793363914468298,-2.0548044934792533,4.592519760131836,-1.3056615591049194,-2.0565683841705322,0.1720237284898758,-0.9278316497802734,-0.3309627175331116,-0.2672080099582672,0.5258387923240662,-1.363128900527954
1.2199877951993983,0.5751479095590327,-2.1708520596796426,5.042856693267822,-1.1772911548614502,-2.0043907165527344,0.1869354248046875,-0.939095139503479,-0.2883668839931488,-0.2553252875804901,0.6111379861831665,-1.3398983478546143
1.2500915795577257,0.70078793960015,-2.315305645184923,5.465901851654053,-0.9832383394241333,-2.07578706741333,0.20327046513557434,-0.9490134716033936,-0.24094563722610474,-0.28397414088249207,0.7404561638832092,-1.354192852973938
1.2756190481047713,0.8646445658484516,-2.4961624134175526,5.883818626403809,-0.7146775126457214,-2.1047399044036865,0.22134271264076233,-0.9567505717277527,-0.1887742280960083,-0.36816278100013733,0.8828675746917725,-1.3524396419525146
1.2927547900756058,1.0703110737012207,-2.716069559626716,6.2943220138549805,-0.32699769735336304,-2.164249897003174,0.24080891907215118,-0.961594820022583,-0.13170628249645233,-0.380609929561615,0.9865733981132507,-1.3046797513961792
1.2961237970725796,1.3090831934927476,-2.966537859474358,6.627254009246826,-0.18463513255119324,-2.290851593017578,0.2619962990283966,-0.9625140428543091,-0.07017747312784195,-0.40312477946281433,1.102391242980957,-1.2300238609313965
1.2827456170711062,1.5493675868177375,3.063491679833222,6.91450834274292,-0.4623125493526459,-2.3070929050445557,0.28401875495910645,-0.9587994813919067,-0.006087095942348242,-0.43788835406303406,1.1823711395263672,-1.083527684211731
1.2543633746531262,1.7614051055842614,2.833255946737932,7.234407901763916,-1.1876260042190552,-2.1394948959350586,0.30554327368736267,-0.9503514766693115,0.05895494297146797,-0.4602673351764679,1.209140419960022,-1.0153299570083618
1.2136436072743806,1.9333376543058838,2.6330749131176097,7.774280548095703,-2.2915756702423096,-2.098444938659668,0.32688361406326294,-0.936896026134491,0.12398924678564072,-0.4745886027812958,1.2979798316955566,-0.9816703796386719
1.1605745800697762,2.0645639806464318,2.46215202798072,8.261329650878906,-3.1309292316436768,-2.2429161071777344,0.35117653012275696,-0.9170324206352234,0.18901635706424713,-0.5023910403251648,1.3541812896728516,-1.0282955169677734
1.0967763383441878,2.1576438846024764,2.3231473388460793,8.491436004638672,-3.306365966796875,-2.5976812839508057,0.3800959289073944,-0.8897404670715332,0.25276362895965576,-0.5022882223129272,1.5275118350982666,-0.9916856288909912
1.0243622686299914,2.2215219939051942,2.213990094162197,8.637906074523926,-3.000086784362793,-2.9992501735687256,0.41345226764678955,-0.8543829917907715,0.31478193402290344,-0.5611724853515625,1.6207554340362549,-0.9109731912612915
0.9452252446120175,2.266198031879329,2.125350555191743,8.944121360778809,-2.8853378295898438,-3.2644011974334717,0.4495913088321686,-0.8106288313865662,0.37516510486602783,-0.6240297555923462,1.6067408323287964,-0.8629884719848633
0.8601300045072114,2.296471041049327,2.0498087773153215,9.285016059875488,-2.9625444412231445,-3.553510904312134,0.48798349499702454,-0.7579273581504822,0.43291857838630676,-0.6630475521087646,1.600258231163025,-0.8180655241012573
0.7695610106204607,2.312939503732913,1.9848468399652504,9.484569549560547,-3.2345104217529297,-3.959578275680542,0.5293410420417786,-0.6958200335502625,0.4854201674461365,-0.6932203769683838,1.6256905794143677,-0.7168959379196167
0.6747016281852474,2.3153207565099208,1.9302560995349993,9.383902549743652,-3.538490056991577,-4.47258186340332,0.5742769241333008,-0.6246643662452698,0.5291506052017212,-0.6838656067848206,1.599716305732727,-0.5853945016860962
0.5783800792643352,2.3053893046893785,1.8857490977796467,8.953807830810547,-3.6648221015930176,-4.908865451812744,0.6214001178741455,-0.5466682314872742,0.5612629652023315,-0.6520244479179382,1.602133870124817,-0.4017627239227295
0.48319496284165325,2.2865798256106515,1.8492536206946217,8.456222534179688,-3.8207619190216064,-5.1769232749938965,0.6681914925575256,-0.4646107256412506,0.5810829401016235,-0.6982512474060059,1.5927540063858032,-0.2828955054283142
0.3907130637859193,2.260957019158113,1.8176697295502198,8.093743324279785,-3.927069664001465,-5.428733825683594,0.713028609752655,-0.38084784150123596,0.5886809229850769,-0.7347723841667175,1.5162086486816406,-0.30856001377105713
0.29836811337869035,2.231671984174251,1.7892989242143924,7.658093452453613,-3.8200762271881104,-5.683328151702881,0.7545751333236694,-0.2939608097076416,0.5866889357566833,-0.7559024691581726,1.4619295597076416,-0.32423752546310425
0.2075901774930402,2.2012341029961298,1.7640580608491765,7.215779781341553,-3.5248897075653076,-5.913295269012451,0.7904271483421326,-0.2061024159193039,0.5768422484397888,-0.7649143934249878,1.4283771514892578,-0.2807300090789795
0.11784156188632111,2.1724860491886777,1.7417219659674896,6.785045146942139,-2.921128749847412,-6.240799903869629,0.8186632990837097,-0.11756901443004608,0.5621108412742615,-0.7478927969932556,1.4117889404296875,-0.2189251184463501
0.02882748099562435,2.147196765807326,1.7226895532123938,6.272162437438965,-2.4737796783447266,-6.453918933868408,0.8380817174911499,-0.0288234893232584,0.5447831749916077,-0.7628557085990906,1.3848720788955688,-0.12107700109481812
-0.05760316819858531,2.1232862507072374,1.7069311472020576,5.659403324127197,-2.2888267040252686,-6.488399982452393,0.8498088121414185,0.05757131800055504,0.523938000202179,-0.7619485259056091,1.323562741279602,-0.018566787242889404
-0.14081944564779408,2.100506523257194,1.6947455981298696,5.0098137855529785,-2.0237936973571777,-6.576965808868408,0.8544117212295532,0.14035449922084808,0.500281810760498,-0.7072099447250366,1.2532460689544678,0.043358564376831055
-0.22136959426735392,2.0804166249913125,1.687095491862245,4.3142266273498535,-1.7300323247909546,-6.684361934661865,0.8516286015510559,0.2195660024881363,0.4759414494037628,-0.6561174988746643,1.258659839630127,0.14232969284057617
-0.29893877938516433,2.0640732390714565,1.6844060963353273,3.621696710586548,-1.4007301330566406,-6.688467979431152,0.8417227268218994,0.2945062220096588,0.452514111995697,-0.5581839084625244,1.3112372159957886,0.24542289972305298
-0.37295787933280755,2.052902522924047,1.68645240540683,2.9952473640441895,-0.966880738735199,-6.5875091552734375,0.825110137462616,0.36437156796455383,0.4317725598812103,-0.3875945806503296,1.405281901359558,0.30843159556388855
-0.44236604935157364,2.047948925021363,1.692702995883949,2.403989791870117,-0.5400527119636536,-6.250197410583496,0.8027991652488708,0.42807894945144653,0.41504478454589844,-0.06599801778793335,1.5206819772720337,0.3956548571586609
-0.5046050737891137,2.0480664347012443,1.702302734851506,1.7943334579467773,-0.3488762378692627,-5.581356048583984,0.7775457501411438,0.48346176743507385,0.4021046459674835,0.3796810507774353,1.602048635482788,0.4960279166698456
-0.5569060535857477,2.051398141267886,1.7147529797296164,1.1212730407714844,-0.24011221528053284,-4.708317756652832,0.752729058265686,0.5285623073577881,0.3924548625946045,0.798937201499939,1.614382028579712,0.5695202946662903
-0.5982945992448001,2.058563819996498,1.7303442909760531,0.42815297842025757,-0.008234941400587559,-3.8727142810821533,0.7299360632896423,0.5632341504096985,0.38724851608276367,1.084441065788269,1.5438522100448608,0.5780837535858154
-0.6296233939011909,2.07131445558779,1.7493881252522037,-0.17122046649456024,0.3769441545009613,-3.170753002166748,0.7091047763824463,0.5888404250144958,0.3878629207611084,1.1899125576019287,1.4363213777542114,0.5189822912216187
-0.6526921341533447,2.0902487599765154,1.7712210334893155,-0.6065762042999268,0.7941834926605225,-2.608856201171875,0.689656674861908,0.607327401638031,0.39436984062194824,1.2021434307098389,1.3445007801055908,0.4029936194419861
-0.6692803953418215,2.1139443099461386,1.7944311581016912,-0.847448468208313,1.0764997005462646,-2.135329246520996,0.67140132188797,0.6204217672348022,0.40533629059791565,1.2019507884979248,1.2947394847869873,0.2931807041168213
-0.6808747539383838,2.1396631558400387,1.8170435954373259,-0.9167075753211975,1.227966547012329,-1.7092281579971313,0.6546508073806763,0.6294729709625244,0.41856473684310913,1.2122621536254883,1.2681405544281006,0.1909019947052002
-0.6881683990251716,2.164879619291947,1.8374492021832163,-0.9209787845611572,1.2105602025985718,-1.2574342489242554,0.6400676965713501,0.6351234912872314,0.432356595993042,1.268761157989502,1.2750481367111206,0.14209121465682983
-0.691517503782371,2.1870074082430784,1.8546397638284486,-0.8750196695327759,1.0142180919647217,-0.809467613697052,0.6286048293113708,0.6377068161964417,0.4451807141304016,1.3135795593261719,1.2833136320114136,0.124857097864151
-0.6914681848588271,2.2038325594702863,1.8674662326583038,-0.7256101965904236,0.7065466046333313,-0.33895817399024963,0.621051549911499,0.6376688480377197,0.45571231842041016,1.335857629776001,1.3118093013763428,0.1071082055568695
-0.6883861481790994,2.2136136505626265,1.8748026298045837,-0.5573149919509888,0.304920494556427,0.16496062278747559,0.6181344985961914,0.6352916955947876,0.4629407823085785,1.3745718002319336,1.3419269323349,0.1016497015953064
-0.6818986646728904,2.215430811625803,1.8765187830663632,-0.4424259066581726,-0.15813852846622467,0.7198483347892761,0.6205736398696899,0.6302682161331177,0.4665301442146301,1.422730803489685,1.3520621061325073,0.13683301210403442
-0.6712918971078857,2.2097915392599683,1.8729644037634623,-0.3904378414154053,-0.49838635325431824,1.3171093463897705,0.6285255551338196,0.6219980716705322,0.46698394417762756,1.4292899370193481,1.3452870845794678,0.1746024191379547
-0.655855187069214,2.198836773114629,1.8646748964340736,-0.38786816596984863,-0.6585866808891296,1.9556363821029663,0.6412973999977112,0.6098372340202332,0.46565744280815125,1.4091026782989502,1.3388476371765137,0.18340587615966797
-0.6349086497872249,2.1844016593894415,1.8521706029575384,-0.4293968379497528,-0.7207139134407043,2.6241424083709717,0.658253014087677,0.5931039452552795,0.46360689401626587,1.3908803462982178,1.3125967979431152,0.17680472135543823
-0.6080627008992215,2.1678664481844465,1.836388078264243,-0.5180785059928894,-0.7442336082458496,3.257960796356201,0.6787543296813965,0.5712785124778748,0.46144720911979675,1.324007511138916,1.2810773849487305,0.16617736220359802
-0.5756209100844429,2.1505724212412094,1.8183004254460595,-0.5856248140335083,-0.6853775978088379,3.8024473190307617,0.701773464679718,0.5443557500839233,0.4595552980899811,1.1722042560577393,1.2573716640472412,0.13092947006225586
-0.5384449536195496,2.1340732941868548,1.7985759685747682,-0.615307629108429,-0.528822124004364,4.277156352996826,0.7258764505386353,0.5128015875816345,0.458408385515213,1.0094904899597168,1.2357641458511353,0.09926998615264893
-0.4969912606021659,2.1187253260457317,1.777335159287424,-0.6226180791854858,-0.4529567062854767,4.7228240966796875,0.7503371238708496,0.4767829477787018,0.4579002261161804,0.8840623497962952,1.228951334953308,0.0849771499633789
-0.45176257484505533,2.1039361045723135,1.754860653627744,-0.6017298698425293,-0.45441558957099915,5.098766803741455,0.7748177647590637,0.436551958322525,0.4572528600692749,0.7381675839424133,1.2374593019485474,0.09241461753845215
-0.40354649173300655,2.089620829983282,1.7314249838705376,-0.550331711769104,-0.46567922830581665,5.3941969871521,0.7986475229263306,0.39268243312835693,0.45602935552597046,0.5684179067611694,1.248430848121643,0.12291973829269409
-0.3528900709799621,2.0753441485557853,1.7071885832403861,-0.47211894392967224,-0.6583895683288574,5.681336879730225,0.8214498162269592,0.34561121463775635,0.4536229372024536,0.4444653391838074,1.2556309700012207,0.162176251411438
-0.2997426203541402,2.0572780881577577,1.6813803749686438,-0.3047412037849426,-1.2429481744766235,6.007034778594971,0.8445689082145691,0.2952743172645569,0.4466733932495117,0.3781028389930725,1.3040757179260254,0.23969775438308716
-0.24400867690630587,2.0372148645259482,1.6553722880958772,-0.3799792528152466,-1.324650764465332,6.207458972930908,0.8667261600494385,0.24159449338912964,0.43636929988861084,0.23373782634735107,1.3202189207077026,0.3146684169769287
-0.18556631002530477,2.0197231710625614,1.630998086403934,-0.49817991256713867,-1.118299126625061,6.413807392120361,0.8854465484619141,0.18450315296649933,0.4265480935573578,0.020361006259918213,1.2791047096252441,0.3136405646800995
-0.12448423076099996,2.0063132832549457,1.607874569546432,-0.6165481209754944,-0.8475530743598938,6.610024929046631,0.8996365070343018,0.12416297197341919,0.4186146855354309,-0.06018918752670288,1.322721242904663,0.32621270418167114
-0.06059931681230372,1.9971581993501588,1.5865866623646652,-0.886651873588562,-0.5798695087432861,6.800457000732422,0.908805251121521,0.06056223437190056,0.4128020703792572,-0.15483790636062622,1.3262327909469604,0.38607192039489746
0.006492505605628533,1.9924830036145,1.5679450314748655,-1.2379302978515625,-0.24620898067951202,6.990959644317627,0.9123809337615967,-0.006492460146546364,0.40929147601127625,-0.2730068564414978,1.2974013090133667,0.3961286246776581
0.07669461562676635,1.9927520070966294,1.5517928668888068,-1.5713205337524414,0.1748116910457611,7.1737380027771,0.9096081256866455,-0.076619453728199,0.40834152698516846,-0.38116562366485596,1.3117268085479736,0.3609457015991211
0.14993548460512704,1.9981928163436247,1.537877967621589,-1.9641761779785156,0.6010953187942505,7.34053897857666,0.8998380303382874,-0.1493743360042572,0.409852534532547,-0.4660458564758301,1.3410552740097046,0.34278738498687744
0.22621393362153472,2.008169986926908,1.52675667645489,-2.4565389156341553,0.9688782095909119,7.45128059387207,0.8827881217002869,-0.22428953647613525,0.4127705991268158,-0.5544647574424744,1.3682104349136353,0.34214287996292114
0.3053093526407622,2.0211731382814744,1.5188019690090575,-2.957775115966797,1.2114923000335693,7.528992652893066,0.8586487174034119,-0.3005882501602173,0.41517373919487,-0.6410889029502869,1.3844352960586548,0.3125484585762024
0.38715493148047314,2.0360081330695516,1.5136374546195557,-3.4077048301696777,1.4092291593551636,7.617898941040039,0.8275793790817261,-0.3775554597377777,0.4154090881347656,-0.6970250606536865,1.427924633026123,0.23196041584014893
0.4714531466268706,2.0522264227270393,1.5105253083349726,-3.7773427963256836,1.575273871421814,7.670675754547119,0.7896429896354675,-0.45418137311935425,0.41253310441970825,-0.7437597513198853,1.4928470849990845,0.13203799724578857
0.5574496410325124,2.0695060644458407,1.5088588988286185,-4.0670366287231445,1.7245270013809204,7.6684370040893555,0.7452472448348999,-0.5290236473083496,0.4058827757835388,-0.8068621754646301,1.523789882659912,0.027772188186645508
0.6442869387158036,2.0880254050185973,1.5082287311161497,-4.3049821853637695,1.9251359701156616,7.581096649169922,0.6949442028999329,-0.6006284952163696,0.39534565806388855,-0.8486307263374329,1.5387083292007446,-0.060705095529556274
0.731308639196848,2.1081290344031003,1.5086654886215514,-4.533169269561768,2.1601452827453613,7.46333122253418,0.6394120454788208,-0.6678442358970642,0.380967915058136,-0.8672104477882385,1.5567296743392944,-0.11853194236755371
0.8186092328152952,2.129490740691917,1.5103078218332655,-4.784963130950928,2.353142738342285,7.350480556488037,0.579349935054779,-0.7301962971687317,0.36217033863067627,-0.8557780981063843,1.5611441135406494,-0.16298198699951172
0.9063932326327637,2.1514049766847125,1.5134886466094613,-5.058482646942139,2.5127391815185547,7.243076801300049,0.5155481696128845,-0.7872849702835083,0.3382195830345154,-0.826690137386322,1.5808336734771729,-0.19193342328071594
0.9950266930059463,2.1725644061819387,1.5189632822285557,-5.3759565353393555,2.6174895763397217,7.154869079589844,0.4488351345062256,-0.8387734889984131,0.30823105573654175,-0.7769142985343933,1.609128713607788,-0.18869352340698242
1.0849442161192162,2.190515264341811,1.5284744831907227,-5.759098529815674,2.623502731323242,7.049166202545166,0.38012686371803284,-0.88427734375,0.27121472358703613,-0.6926725506782532,1.6258087158203125,-0.17311584949493408
1.176302494786912,2.2005654447701914,1.546449978052444,-6.200864791870117,2.6628026962280273,6.8997802734375,0.31061026453971863,-0.923191249370575,0.22636070847511292,-0.6697258949279785,1.6473276615142822,-0.16340284049510956
1.2689646145621418,2.194332595174826,1.5820273539098033,-6.660102844238281,2.8240292072296143,6.713741302490234,0.2413293421268463,-0.9547935724258423,0.17357881367206573,-0.6413537263870239,1.6649680137634277,-0.19744350016117096
1.3623156703886126,2.1492396759839485,1.659195421448536,-7.132205009460449,3.1398613452911377,6.499847888946533,0.173302561044693,-0.9783465266227722,0.11315719783306122,-0.5920494794845581,1.673048496246338,-0.24694621562957764
1.4535883448625548,1.9680104270628547,1.8764464075681944,-7.618363857269287,3.5649876594543457,6.25916862487793,0.1078372523188591,-0.9931390285491943,0.045239146798849106,-0.5311007499694824,1.6750998497009277,-0.28767073154449463
1.5153490205572964,0.9981421128608924,2.886945749935996,-8.10201358795166,4.025276184082031,6.003427028656006,0.046581149101257324,-0.9984632134437561,-0.030031781643629074,-0.45078644156455994,1.6593058109283447,-0.3128178119659424
1.4580646132704986,-0.07612931299075684,-2.276949409674502,-8.561336517333984,4.421294689178467,5.6785736083984375,-0.008555742911994457,-0.9936525225639343,-0.11216714233160019,-0.3429151773452759,1.6338350772857666,-0.31016552448272705
1.3616949421061162,-0.2705993074337535,-2.034152865950018,-8.978321075439453,4.683431625366211,5.290104389190674,-0.05548834800720215,-0.9782178401947021,-0.20002759993076324,-0.25888848304748535,1.6309125423431396,-0.2845304608345032
1.2592567716809524,-0.30788136078836564,-1.9463918376037392,-9.399348258972168,4.8508429527282715,4.906227111816406,-0.09288933128118515,-0.9518628120422363,-0.29211118817329407,-0.16699835658073425,1.6416515111923218,-0.23605650663375854
1.1535258569699431,-0.3016657979476793,-1.9008761503710705,-9.835062026977539,4.909240245819092,4.572146415710449,-0.12040931731462479,-0.9141985177993774,-0.38696616888046265,-0.06445091217756271,1.6741013526916504,-0.15769624710083008
1.0450453000367161,-0.2803090508316795,-1.8705240180590073,-10.199812889099121,4.764358997344971,4.326456546783447,-0.1388416588306427,-0.8649472594261169,-0.4822750389575958,0.015855833888053894,1.7084379196166992,-0.1053408682346344
0.9345691706397667,-0.2547106028890499,-1.8461157622568036,-10.424514770507812,4.436046600341797,4.1187872886657715,-0.1497090607881546,-0.8043431639671326,-0.574995219707489,0.08617144823074341,1.7471225261688232,-0.10212880373001099
0.823578245712126,-0.22969796747220483,-1.8240297373235639,-10.474308967590332,3.970433235168457,3.965635061264038,-0.154733806848526,-0.7335823178291321,-0.6617510914802551,0.1182347983121872,1.7804877758026123,-0.1368633508682251
0.713514822849744,-0.2081472946190513,-1.8020767042992134,-10.356317520141602,3.3925390243530273,3.926934003829956,-0.15623921155929565,-0.6544952392578125,-0.7397468090057373,0.13602131605148315,1.783416748046875,-0.2120506763458252
0.6056365684478217,-0.19179446865442715,-1.778631917412782,-10.09006118774414,2.762791395187378,4.016639232635498,-0.1567169427871704,-0.56928551197052,-0.807064950466156,0.1507354974746704,1.7713422775268555,-0.3316373825073242
0.5011305820264315,-0.18070117308383987,-1.7529351716264112,-9.662924766540527,2.1610748767852783,4.168219566345215,-0.1576210856437683,-0.480417400598526,-0.8627599477767944,0.1566445231437683,1.7708226442337036,-0.48913824558258057
0.40171756101366773,-0.174607517641426,-1.7248735798277783,-9.029603004455566,1.5028929710388184,4.328798770904541,-0.15989179909229279,-0.3909997344017029,-0.9063960909843445,0.14913435280323029,1.717690348625183,-0.6989505887031555
0.30944957469090445,-0.1730718246449659,-1.6946062306368395,-8.180259704589844,0.9313011169433594,4.463264465332031,-0.16402938961982727,-0.3045344054698944,-0.9382714033126831,0.11898544430732727,1.6185603141784668,-0.9450141191482544
0.22599657590807626,-0.17474476863158764,-1.6624161625601257,-7.212296485900879,0.4388647973537445,4.5475053787231445,-0.16943584382534027,-0.22407770156860352,-0.9597294926643372,0.04089580476284027,1.531893253326416,-1.1730983257293701
0.15202762727124455,-0.17873460610212977,-1.6290721866348086,-6.231100559234619,0.0011422974057495594,4.498568058013916,-0.17573392391204834,-0.15144267678260803,-0.9727192521095276,-0.09684908390045166,1.4620505571365356,-1.3587779998779297
0.08759765802318266,-0.18470836323471243,-1.596174139393984,-5.287631511688232,-0.4274451732635498,4.2435102462768555,-0.18295566737651825,-0.087485671043396,-0.9792208671569824,-0.28675562143325806,1.363120436668396,-1.5271878242492676
0.032722498642257604,-0.1930238708593034,-1.5659617943356794,-4.37526273727417,-0.8934986591339111,3.718914270401001,-0.19172479212284088,-0.03271665796637535,-0.9809032678604126,-0.5132923126220703,1.2328051328659058,-1.6834796667099
-0.011827286166630542,-0.20445688376927382,-1.5408430387091694,-3.3588035106658936,-1.3381755352020264,2.9449033737182617,-0.20302118360996246,0.011827010661363602,-0.9791029095649719,-0.7870453596115112,1.071699619293213,-1.8555833101272583
-0.044372666788687176,-0.21888797460700382,-1.5225116154953113,-2.2198431491851807,-1.6346354484558105,1.9882175922393799,-0.21693052351474762,0.044358108192682266,-0.9751787185668945,-1.025363802909851,0.9218131303787231,-2.0196332931518555
-0.06358640692925889,-0.2355706329002257,-1.5118511762295754,-1.049767017364502,-1.8082873821258545,0.9475304484367371,-0.23292621970176697,0.06354356557130814,-0.9704161882400513,-1.2032462358474731,0.8352906703948975,-2.1034514904022217
-0.0693420105841763,-0.2539745227380717,-1.5087231475695013,0.07044782489538193,-1.9179701805114746,-0.04833761602640152,-0.2506491541862488,0.06928645074367523,-0.9655953645706177,-1.283271074295044,0.7590521574020386,-2.091014862060547
-0.06275352475554083,-0.2737622787783377,-1.5116759013127041,1.0250526666641235,-2.0082216262817383,-0.836329460144043,-0.2698233723640442,0.06271234899759293,-0.9608654975891113,-1.2353341579437256,0.6892712712287903,-1.9893755912780762
-0.04646143004173164,-0.2942135219269194,-1.5181969210608601,1.705297589302063,-1.9981956481933594,-1.3011616468429565,-0.289674311876297,0.046444717794656754,-0.9559977650642395,-1.0735154151916504,0.632098376750946,-1.8403890132904053
-0.024162010579836087,-0.3136649577334681,-1.526126794370484,2.039896249771118,-1.827855110168457,-1.532970905303955,-0.30845677852630615,0.024159660562872887,-0.9509314894676208,-0.8840328454971313,0.6183421611785889,-1.6451835632324219
0.0005992488993597731,-0.3303906239908529,-1.5345712374218248,2.104396104812622,-1.4830050468444824,-1.6316921710968018,-0.3244124948978424,-0.0005992488586343825,-0.9459155201911926,-0.752705454826355,0.6021617650985718,-1.4290235042572021
0.025469654630634688,-0.3427368100916373,-1.5432746387787395,2.0145037174224854,-0.9966671466827393,-1.6531065702438354,-0.33595699071884155,-0.025466900318861008,-0.9415329694747925,-0.6683002710342407,0.5537261962890625,-1.249186635017395
0.04925053719727891,-0.34947253633637715,-1.5520557287559917,1.8738791942596436,-0.4162972569465637,-1.6179147958755493,-0.34198710322380066,-0.049230627715587616,-0.9384142160415649,-0.6183095574378967,0.5132656693458557,-1.1413129568099976
0.07182848521765042,-0.35044880400707223,-1.5609150427049572,1.7745417356491089,0.09301822632551193,-1.6093040704727173,-0.3424341082572937,-0.07176673412322998,-0.9367969036102295,-0.6073492765426636,0.513264536857605,-1.073502779006958
0.09378931314108653,-0.34680128968134977,-1.5703783683692885,1.725307583808899,0.4690437912940979,-1.6833255290985107,-0.33839747309684753,-0.09365186840295792,-0.9363313913345337,-0.6226010918617249,0.5128871202468872,-1.0250791311264038
0.11596577843838254,-0.33943909245256126,-1.580980808554101,1.7608896493911743,0.7651408314704895,-1.8078429698944092,-0.3307219445705414,-0.11570603400468826,-0.9366083145141602,-0.6426820158958435,0.5024247765541077,-0.9933385848999023
0.1392518191889965,-0.32957315638083146,-1.5928571408628305,1.8881133794784546,0.8920753002166748,-1.9659351110458374,-0.32050639390945435,-0.13880221545696259,-0.9370216727256775,-0.6546828150749207,0.527107834815979,-0.9549461007118225
0.1647293100940425,-0.31851575556106915,-1.6064607365497754,2.1064116954803467,0.8966847062110901,-2.227651834487915,-0.3089180290699005,-0.16398531198501587,-0.9368449449539185,-0.6645774841308594,0.5833120942115784,-0.9095295667648315
0.19339217607998008,-0.30711167151862684,-1.6224143172981103,2.408331871032715,0.8403615355491638,-2.528461217880249,-0.2966710925102234,-0.19218893349170685,-0.9354408979415894,-0.6721704006195068,0.6392714381217957,-0.8453512787818909
0.22598848903854685,-0.2949612095814001,-1.6399224229038387,2.805602788925171,0.8006846904754639,-2.678300380706787,-0.28331106901168823,-0.22406981885433197,-0.9324846267700195,-0.5957630276679993,0.6062719821929932,-0.764369010925293
0.262132147549417,-0.28399510320369425,-1.658488852888375,3.100306510925293,0.5049006938934326,-2.8568649291992188,-0.2706214487552643,-0.2591404616832733,-0.9271516799926758,-0.5496910810470581,0.6337131857872009,-0.7113676071166992
0.30140032095668035,-0.2738551918798585,-1.678911842528948,3.386160373687744,0.42035290598869324,-3.102566719055176,-0.2582537829875946,-0.29685768485069275,-0.9193369746208191,-0.6007702350616455,0.8336923718452454,-0.6266376972198486
0.34405698415482167,-0.26183236817185324,-1.7020554439676403,3.7013161182403564,0.5330113172531128,-3.4091198444366455,-0.2436806708574295,-0.3373090922832489,-0.9093087315559387,-0.6056235432624817,0.9677563905715942,-0.5628897547721863
0.3905024950009325,-0.24615904130708927,-1.7287119055148055,4.066009044647217,0.6908848881721497,-3.7625770568847656,-0.22533580660820007,-0.38065314292907715,-0.8968427777290344,-0.6012938022613525,1.0988843441009521,-0.5187455415725708
0.44125441430186624,-0.22595032365238932,-1.759699737835262,4.507688999176025,0.8506660461425781,-4.134288311004639,-0.20257404446601868,-0.4270740747451782,-0.8812329769134521,-0.5698869228363037,1.2154498100280762,-0.46497368812561035
0.49686228299647645,-0.20096226533538053,-1.7945066921280113,5.078132152557373,0.985515832901001,-4.26340913772583,-0.17547571659088135,-0.476669579744339,-0.861391007900238,-0.48045384883880615,1.2491304874420166,-0.41370970010757446
0.5573471190446169,-0.1730961124902495,-1.8308540478084436,5.655215740203857,0.9151716232299805,-4.165607452392578,-0.14616750180721283,-0.5289366841316223,-0.835979163646698,-0.301311731338501,1.14351487159729,-0.382221519947052
0.6221055133547889,-0.14413568811511393,-1.8685331289301397,6.15821647644043,0.6664384007453918,-4.0969343185424805,-0.11672719568014145,-0.5827475190162659,-0.8042264580726624,-0.24937692284584045,1.1804800033569336,-0.31758445501327515
0.6904840804265417,-0.11433123985967301,-1.9096499926822144,6.591651916503906,0.2636065185070038,-4.152717113494873,-0.08795037865638733,-0.6369104385375977,-0.7659046649932861,-0.2667248845100403,1.2484064102172852,-0.21967577934265137
0.7620980954253819,-0.08247853639992092,-1.9569316092199067,6.996373653411865,-0.17118462920188904,-4.324462890625,-0.05959644913673401,-0.6904407143592834,-0.7209299802780151,-0.287083238363266,1.2315173149108887,-0.14801228046417236
0.8364916925484158,-0.04510783674900537,-2.0139659282297195,7.366325855255127,-0.5342115759849548,-4.588070869445801,-0.030215216800570488,-0.7422968745231628,-0.6693896651268005,-0.33770468831062317,1.256334900856018,-0.10128593444824219
0.9124518700131004,0.002506498496269983,-2.0853042402427695,7.641665935516357,-0.9028328061103821,-4.911036968231201,0.0015334950294345617,-0.7910062074661255,-0.6118063926696777,-0.38433071970939636,1.293081283569336,-0.06049579381942749
0.9878062766530844,0.06653243910189184,-2.177084039539795,7.799956321716309,-1.228196144104004,-5.26295280456543,0.03660060092806816,-0.8348202705383301,-0.5493046641349792,-0.43789148330688477,1.3365750312805176,-0.010982751846313477
1.059869946623732,0.15541207523332196,-2.296627102764631,7.907102584838867,-1.4191800355911255,-5.549091815948486,0.07568871974945068,-0.8722919225692749,-0.4830922484397888,-0.4559987485408783,1.3216326236724854,0.02795317769050598
1.1245962220348318,0.2825372317580194,-2.456247946258874,7.902597904205322,-1.5345544815063477,-6.030435562133789,0.1203106939792633,-0.9020934104919434,-0.4144309163093567,-0.5404156446456909,1.3803648948669434,0.016497015953063965
1.1750237000480144,0.4617445065754241,-2.6698465966593603,7.812481880187988,-1.6586666107177734,-6.5902419090271,0.17175382375717163,-0.922698974609375,-0.3451482057571411,-0.6679543256759644,1.550537109375,0.021021097898483276
1.2025329608627247,0.693763119884433,-2.9379941384777366,7.683061599731445,-1.7556551694869995,-7.1789231300354,0.23019392788410187,-0.932953953742981,-0.2767810523509979,-0.6759184002876282,1.5907907485961914,0.024583905935287476
1.199416329975098,0.9513344866020215,3.049281080069374,7.564054489135742,-1.9997836351394653,-7.809239387512207,0.29547134041786194,-0.9318274259567261,-0.21069969236850739,-0.703170895576477,1.623203158378601,0.01010771095752716
1.1637874111203534,1.186114897259494,2.772138185965455,7.4630632400512695,-2.409727096557617,-8.531031608581543,0.3669339120388031,-0.9183089733123779,-0.14855362474918365,-0.7336177825927734,1.6736037731170654,-0.023412808775901794
1.099562475520015,1.3659961731364612,2.5441313047045013,7.3952507972717285,-2.977145195007324,-9.337868690490723,0.444498747587204,-0.8910087943077087,-0.09232787787914276,-0.8039957284927368,1.810900092124939,-0.061739981174468994
1.014327943454222,1.4868100254113787,2.367596518825625,7.366360664367676,-3.6736719608306885,-10.001495361328125,0.5263292193412781,-0.8491257429122925,-0.04430867359042168,-0.8151170015335083,1.905705213546753,-0.10321319103240967
0.9143945338453177,1.559284525583745,2.230732003403605,7.290197849273682,-4.375105381011963,-10.714868545532227,0.6102303266525269,-0.7921932339668274,-0.007025160826742649,-0.7982490062713623,1.965593934059143,-0.13921499252319336
0.8036565317480867,1.5950286650173418,2.1216022675080555,7.151123523712158,-5.048458099365234,-11.333784103393555,0.6938754320144653,-0.7198988199234009,0.016817515715956688,-0.8267489075660706,2.108799457550049,-0.16697919368743896
0.6862255020359648,1.6031110195813048,2.030459799234882,6.937125205993652,-5.720601558685303,-11.811999320983887,0.7732393741607666,-0.6336215734481812,0.024995693936944008,-0.7541047930717468,2.1166841983795166,-0.1974351406097412
0.564006007674366,1.589659137630267,1.9513438111480876,6.540197849273682,-6.2244873046875,-12.334274291992188,0.8449702858924866,-0.5345760583877563,0.015940405428409576,-0.7904199957847595,2.223845958709717,-0.18258154392242432
0.4395231491630716,1.5608779676555848,1.8806624424377532,6.000589847564697,-6.267688751220703,-12.587943077087402,0.9049103856086731,-0.4255079925060272,-0.008975520730018616,-0.7633239030838013,2.340348720550537,-0.16094624996185303
0.3157099749479348,1.5236236390404525,1.816877091161931,5.116629600524902,-5.837316989898682,-12.53923225402832,0.9495189189910889,-0.3104914426803589,-0.04482461139559746,-0.5708872079849243,2.352315664291382,-0.1576899290084839
0.19548720248100293,1.4846462544113144,1.7622919488605555,3.7833073139190674,-4.630101680755615,-12.168848991394043,0.9773152470588684,-0.19424447417259216,-0.08440469950437546,-0.31816601753234863,2.4814605712890625,-0.04094618558883667
0.08151239266727155,1.4541765223540881,1.720261868672495,2.16585636138916,-2.565509080886841,-11.345382690429688,0.9899100065231323,-0.08142215758562088,-0.11596932262182236,0.14601540565490723,2.4781811237335205,0.10580706596374512
-0.021918017325599285,1.4411845165249388,1.692832806869067,0.8002109527587891,-0.2548580467700958,-9.81046199798584,0.9913740158081055,0.021916262805461884,-0.1292181760072708,0.998265266418457,2.456263780593872,0.18932266533374786
-0.10699214499895934,1.4461013202897148,1.6769377242305827,0.27533572912216187,1.3192209005355835,-7.42071533203125,0.9865619540214539,0.10678813606500626,-0.12366093695163727,2.167231559753418,2.3627400398254395,-0.007289886474609375
-0.16543433195050597,1.4617597595970357,1.6672855527438541,0.26116225123405457,2.0218913555145264,-4.506097793579102,0.9804894924163818,0.16468074917793274,-0.1073349118232727,3.108347177505493,2.146369695663452,-0.32667076587677
-0.19611345768173966,1.482009655419914,1.6616315437064493,0.19898755848407745,2.1798980236053467,-1.8127371072769165,0.9769679307937622,0.19485877454280853,-0.08697038143873215,3.5249547958374023,2.0028035640716553,-0.3181504011154175
-0.20416280844705306,1.5024627505497694,1.6605058128365169,-0.1359030306339264,1.940574288368225,0.07351278513669968,0.9769458174705505,0.2027474343776703,-0.0668623074889183,3.2156965732574463,1.9656944274902344,-0.03618025779724121
-0.19779090349944134,1.5213684710182942,1.6644432551478152,-0.560287594795227,1.7154713869094849,1.1532011032104492,0.9793056845664978,0.19650378823280334,-0.048444438725709915,2.4761691093444824,1.891783595085144,0.16938567161560059
-0.18384052331571366,1.5396746958799021,1.6725944571243925,-0.9175469875335693,1.6603282690048218,1.6545075178146362,0.9826728105545044,0.18280671536922455,-0.030592257156968117,1.7939079999923706,1.8352596759796143,0.20214688777923584
-0.1660252280986784,1.5575242677495036,1.6832761200874853,-1.0783721208572388,1.507583498954773,1.96026611328125,0.9861627221107483,0.16526354849338531,-0.013089178130030632,1.426389217376709,1.7747694253921509,0.14033228158950806
-0.1446331306922286,1.5720629620527133,1.6937839255312752,-0.9432199001312256,1.0412768125534058,2.3558144569396973,0.9895582795143127,0.14412939548492432,0.0012534101260825992,1.362385869026184,1.7319082021713257,0.03892314434051514
-0.11838213865697987,1.5799342185163132,1.701339339407095,-0.5690156817436218,0.31755295395851135,2.9208385944366455,0.99295973777771,0.11810582131147385,0.009073810651898384,1.4068207740783691,1.6681033372879028,-0.06815576553344727
-0.08560253555099757,1.5798137167931632,1.7045268920656136,-0.13423678278923035,-0.386115163564682,3.6617813110351562,0.9962980151176453,0.08549802750349045,0.008984250947833061,1.445810317993164,1.6113251447677612,-0.11144697666168213
-0.04487776189742642,1.5735089249171588,1.7038047205480065,0.21080929040908813,-0.823257327079773,4.506162643432617,0.9989896416664124,0.04486269876360893,0.002709863940253854,1.42647123336792,1.5665569305419922,-0.09118020534515381
0.004382364477609697,1.5647871533804785,1.700766460494285,0.38874173164367676,-0.8599836826324463,5.364975929260254,0.999972403049469,-0.004382350482046604,-0.006009079981595278,1.2965059280395508,1.5248901844024658,-0.029742181301116943
0.062113068375262696,1.5579565940179119,1.6975289385291406,0.34486937522888184,-0.48322388529777527,6.195206165313721,0.9979893565177917,-0.06207313761115074,-0.01281462050974369,1.081463098526001,1.4920352697372437,0.06559485197067261
0.12796254622912057,1.5564121155279218,1.6961380266214137,0.09163539856672287,0.1747448593378067,6.994723796844482,0.9917213916778564,-0.1276136189699173,-0.014266114681959152,0.8475883603096008,1.4695935249328613,0.1667015552520752
0.20156143943477137,1.5617528854907177,1.6981155513320958,-0.31767967343330383,0.9760660529136658,7.754809379577637,0.9797150492668152,-0.20019939541816711,-0.008860236965119839,0.6190245151519775,1.4638254642486572,0.2579142451286316
0.2823620585368913,1.5740528405026881,1.7043519204420599,-0.861626386642456,1.7882728576660156,8.431074142456055,0.9603949785232544,-0.278624951839447,0.0031275504734367132,0.3767175078392029,1.4975733757019043,0.32081663608551025
0.36949816171552763,1.5917000554481655,1.7159998091758406,-1.5774034261703491,2.4802181720733643,8.994133949279785,0.9323049187660217,-0.36114752292633057,0.019491488113999367,0.095176100730896,1.6016260385513306,0.40490126609802246
0.4621250210290966,1.6115223726637298,1.7346838680333658,-2.4238710403442383,3.0104639530181885,9.440457344055176,0.8943650126457214,-0.44585123658180237,0.036444101482629776,-0.14576870203018188,1.68706214427948,0.48050856590270996
0.5592200354571497,1.631488045800092,1.7618244966167678,-3.3026623725891113,3.603494644165039,9.744885444641113,0.8461084365844727,-0.5305252075195312,0.05141492187976837,-0.34539133310317993,1.7358627319335938,0.4574810266494751
0.6601231769109243,1.647695288916006,1.7993394373507205,-4.246254920959473,3.933741331100464,9.99470043182373,0.7875824570655823,-0.6132141351699829,0.06068393588066101,-0.522491455078125,1.8158966302871704,0.42898595333099365
0.7640847206778238,1.6551848223578747,1.850838866203933,-5.220705986022949,4.371599197387695,10.11925220489502,0.7194466590881348,-0.6918764710426331,0.06085755303502083,-0.671076238155365,1.9109468460083008,0.44011902809143066
0.8695072805210781,1.64979258958685,1.9219816107220642,-6.234480381011963,4.9719929695129395,10.125764846801758,0.6431910991668701,-0.7640111446380615,0.05091565102338791,-0.6779048442840576,1.921710729598999,0.31997978687286377
0.9744996220543707,1.6224144806712855,2.022485458483294,-7.273907661437988,5.621277809143066,10.04948616027832,0.5608344078063965,-0.8274210095405579,0.028974974527955055,-0.6507391333580017,1.9823129177093506,0.20630037784576416
1.0757846426762498,1.5567278742814559,2.168512621581564,-8.278407096862793,6.272864818572998,9.907463073730469,0.4749949276447296,-0.8799631595611572,-0.00668288441374898,-0.6060373783111572,2.0489237308502197,0.07464563846588135
1.1667166018457131,1.4249941854350054,2.38715226370151,-9.221860885620117,6.840704441070557,9.666525840759277,0.3890015184879303,-0.9194645881652832,-0.0571226067841053,-0.5017944574356079,2.0976719856262207,-0.057013094425201416
1.2340256196673771,1.1904935131867236,2.7135296896614434,-10.078764915466309,7.206833362579346,9.322433471679688,0.3068319261074066,-0.9438266754150391,-0.1226603239774704,-0.40383201837539673,2.125192642211914,-0.18250012397766113
1.2580400473743154,0.8548798279944332,-3.1394375224997364,-10.762553215026855,7.35044527053833,8.930580139160156,0.23214393854141235,-0.9514891505241394,-0.2019347995519638,-0.31657081842422485,2.1179165840148926,-0.3182219862937927
1.228138606008747,0.5223872071398045,-2.7114379650004095,-11.149354934692383,7.334795951843262,8.51811695098877,0.16764318943023682,-0.9418650269508362,-0.29118067026138306,-0.20476779341697693,2.070389747619629,-0.45126616954803467
1.1573951180388296,0.29068785497532384,-2.3845703946185766,-11.205108642578125,7.191863059997559,8.075448989868164,0.11513938009738922,-0.9157597422599792,-0.3848729729652405,-0.10125385969877243,2.0039706230163574,-0.5867761373519897
1.0658313232608554,0.15646699574532452,-2.1564483934986662,-11.056827545166016,6.944068908691406,7.611705303192139,0.07538662850856781,-0.8751913905143738,-0.4778670370578766,-0.02474268525838852,1.960640549659729,-0.6813888549804688
0.9658314197871166,0.08470367343079217,-1.9927288567095782,-10.865426063537598,6.569676399230957,7.154407501220703,0.04811622202396393,-0.8225220441818237,-0.5666943788528442,0.05094385892152786,1.9081389904022217,-0.7187823057174683
0.8630993682846309,0.04794339873649902,-1.86742883118525,-10.665106773376465,5.945126056671143,6.787002086639404,0.031155375763773918,-0.7598610520362854,-0.6493386626243591,0.09509586542844772,1.8603858947753906,-0.7299795746803284
0.7605058263817428,0.02948666026499295,-1.7655050714192855,-10.399486541748047,5.1721343994140625,6.471348762512207,0.021359620615839958,-0.6892880201339722,-0.7241725921630859,0.10696681588888168,1.8357570171356201,-0.7632999420166016
0.6601724087183478,0.020992097805936912,-1.6795692745722368,-10.001235008239746,4.308206081390381,6.096224784851074,0.016580156981945038,-0.6132530570030212,-0.7897124886512756,0.05382391810417175,1.805559515953064,-0.8142760992050171
0.5640015845451585,0.017076152522943276,-1.605769225312371,-9.463300704956055,3.37539005279541,5.658452033996582,0.01443074457347393,-0.5345723032951355,-0.8449995517730713,-0.07320757955312729,1.7445636987686157,-0.8900772929191589
0.4738824662057094,0.014292294527178642,-1.5418472918290655,-8.732348442077637,2.408600330352783,5.18073034286499,0.012716897763311863,-0.456344336271286,-0.889712393283844,-0.1853853315114975,1.6259915828704834,-1.0408449172973633
0.391856403549427,0.011133626637891724,-1.4870492450448842,-7.788486480712891,1.550581455230713,4.571413993835449,0.010289504192769527,-0.3819047510623932,-0.924144446849823,-0.3561909794807434,1.5144883394241333,-1.2464487552642822
0.3197302171028469,0.007183569289046929,-1.4419228650479976,-6.715226650238037,0.7871222496032715,3.7543601989746094,0.006819449365139008,-0.3143104612827301,-0.9492957592010498,-0.5884539484977722,1.4208930730819702,-1.4297325611114502
0.2584923369373342,0.0014433194501356473,-1.4068810114826198,-5.586080551147461,0.06799766421318054,2.9877676963806152,0.0013953668531030416,-0.2556232810020447,-0.9667754769325256,-0.7862921953201294,1.304115653038025,-1.6230988502502441
0.2076442514886592,-0.009426951439626805,-1.3804294314778895,-4.595170497894287,-1.0319979190826416,2.1236512660980225,-0.009224317036569118,-0.20615532994270325,-0.97847580909729,-0.7552409768104553,1.0350584983825684,-1.7401978969573975
0.1668655321795377,-0.026499965234241474,-1.3663155329697676,-3.4896080493927,-1.7875689268112183,0.7808625102043152,-0.026128828525543213,-0.16609223186969757,-0.9857639670372009,-1.0720309019088745,1.1761934757232666,-1.8843073844909668
0.13912077794215974,-0.04600545216701611,-1.3656938394393234,-2.0149450302124023,-2.0231473445892334,-0.4280078411102295,-0.04554489254951477,-0.13867244124412537,-0.9892904758453369,-1.2592341899871826,1.2319341897964478,-2.143491506576538
0.1282076946806141,-0.06362556187779808,-1.3756448990306736,-0.2599114775657654,-1.72987699508667,-1.4004535675048828,-0.06306079775094986,-0.12785674631595612,-0.9897858500480652,-1.1225471496582031,1.059497356414795,-2.40120530128479
0.13553033868126105,-0.07692366312185162,-1.392759789216253,1.4500653743743896,-1.4197664260864258,-2.04172682762146,-0.07614311575889587,-0.13511580228805542,-0.9878997802734375,-0.9088116884231567,0.9922325015068054,-2.5093994140625
0.15873655394543668,-0.08777596274811897,-1.413174710970682,2.8056435585021973,-1.3721392154693604,-2.355487585067749,-0.0865611732006073,-0.15807077288627625,-0.9836263656616211,-0.6563587188720703,0.9366199374198914,-2.394211769104004
0.1940067446175517,-0.09765847915002437,-1.4350688077983833,3.7967448234558105,-1.3659489154815674,-2.6061925888061523,-0.09567412734031677,-0.19279201328754425,-0.9765642285346985,-0.4818710386753082,0.9482393860816956,-2.1199934482574463
0.23818054289138035,-0.10573164665277536,-1.4586211504579873,4.513293266296387,-1.2501301765441895,-2.8862693309783936,-0.10255539417266846,-0.23593492805957794,-0.9663421511650085,-0.44038283824920654,0.9760472178459167,-1.8230712413787842
0.2888825283489655,-0.11072090871474359,-1.484533523672588,5.023106098175049,-1.1055550575256348,-3.2049384117126465,-0.10591623187065125,-0.28488123416900635,-0.9526932835578918,-0.42693594098091125,0.9740139245986938,-1.549076795578003
0.344394286246683,-0.11212456767359973,-1.513880006147304,5.407647132873535,-1.024466633796692,-3.598890781402588,-0.10531962662935257,-0.3376266062259674,-0.9353694915771484,-0.437862753868103,1.0321608781814575,-1.3132572174072266
0.40408766292562615,-0.11034192377147302,-1.5481629982846503,5.778440475463867,-1.1630967855453491,-4.1022796630859375,-0.10124940425157547,-0.39318007230758667,-0.9138697981834412,-0.47971370816230774,1.1151496171951294,-1.1412906646728516
0.4682172420576961,-0.10630111620491621,-1.589206316151402,6.205539226531982,-1.5336138010025024,-4.7137603759765625,-0.09468182921409607,-0.4512961208820343,-0.8873371481895447,-0.5386799573898315,1.2165701389312744,-1.048499584197998
0.5374731519898911,-0.10047011329728701,-1.6388039569794517,6.713457107543945,-2.112847089767456,-5.389867305755615,-0.08615921437740326,-0.5119670629501343,-0.8546732664108276,-0.5884318351745605,1.3562204837799072,-1.0066853761672974
0.6126500910434747,-0.09197368432597615,-1.6988709677621563,7.325745105743408,-2.72646164894104,-6.115096569061279,-0.07514011859893799,-0.5750375986099243,-0.814669132232666,-0.6156710386276245,1.5017800331115723,-1.026883602142334
0.6944247614959025,-0.07738069540156016,-1.771750265404137,8.027122497558594,-3.2195932865142822,-6.825697422027588,-0.059401705861091614,-0.639943540096283,-0.766122579574585,-0.6288611888885498,1.6535085439682007,-1.0889036655426025
0.7826400476375475,-0.05135912868484119,-1.8608993493877595,8.762288093566895,-3.587357997894287,-7.487094402313232,-0.036400407552719116,-0.7051538228988647,-0.7081194519996643,-0.609488844871521,1.8280937671661377,-1.156473994255066
0.8758306517237823,-0.006474951967964331,-1.971584453447809,9.443411827087402,-3.7633838653564453,-8.015950202941895,-0.004146265331655741,-0.768075704574585,-0.6403456926345825,-0.5531352162361145,2.010019063949585,-1.1935317516326904
0.9704728094779809,0.06841748778426048,-2.1124410033831986,9.978957176208496,-3.7420711517333984,-8.407758712768555,0.038619548082351685,-0.8251528739929199,-0.5635879635810852,-0.4704890251159668,2.18855619430542,-1.1661025285720825
1.0604839417659584,0.1895074336584236,-2.297715316109235,10.345126152038574,-3.567715883255005,-8.672036170959473,0.09201182425022125,-0.8725919723510742,-0.47970521450042725,-0.42524850368499756,2.368899345397949,-1.1025090217590332
1.1369644596592055,0.3776655356054338,-2.546943215556356,10.593635559082031,-3.2606329917907715,-8.841191291809082,0.1550050973892212,-0.9073616862297058,-0.3907281160354614,-0.4056154191493988,2.484097957611084,-1.033573031425476
1.1867478825644322,0.6485552485009239,-2.8750159124824073,10.77221965789795,-2.869335651397705,-9.037788391113281,0.22631843388080597,-0.9271553754806519,-0.29860180616378784,-0.4283905625343323,2.5552375316619873,-0.9543735384941101
1.1951942061688914,0.9783434164884609,3.0245415610980824,10.983168601989746,-2.5790181159973145,-9.238529205322266,0.3043149411678314,-0.9302868843078613,-0.20483866333961487,-0.5093014240264893,2.6001782417297363,-0.8897657990455627
1.156641253329741,1.29090754959718,2.659137666395215,11.225765228271484,-2.4882583618164062,-9.58427619934082,0.38675740361213684,-0.9154566526412964,-0.11116719245910645,-0.6173633337020874,2.571676015853882,-0.8695303797721863
1.07550906466533,1.5292244726791442,2.3671745606269687,11.51085090637207,-2.449641704559326,-10.450780868530273,0.4748741686344147,-0.8798322081565857,-0.019752779975533485,-0.8560843467712402,2.777827024459839,-0.8292003870010376
0.9615162095907442,1.686887245070752,2.152826484550023,11.852022171020508,-2.679849624633789,-11.425395965576172,0.5684254169464111,-0.8200601935386658,0.0662870779633522,-1.0144855976104736,3.0523600578308105,-0.7170742750167847
0.8249941127268334,1.7795149772098597,1.9950584913407512,12.13007640838623,-3.5497121810913086,-12.277036666870117,0.6638346910476685,-0.7345438003540039,0.14060233533382416,-1.0731515884399414,3.2086191177368164,-0.5741502046585083
0.6751955748263042,1.8195327631175675,1.8731281282728733,12.241835594177246,-5.102582931518555,-13.115541458129883,0.756561815738678,-0.6250500082969666,0.19216398894786835,-1.0747838020324707,3.3714184761047363,-0.37768030166625977
0.5140188202263872,1.8159362863794712,1.7717087796219788,11.963756561279297,-7.046385288238525,-14.039528846740723,0.8447424173355103,-0.49168071150779724,0.211330384016037,-1.0981755256652832,3.6978116035461426,-0.11315524578094482
0.3485434296550758,1.7731451023897955,1.684197892673574,10.823675155639648,-8.81126880645752,-14.637517929077148,0.9206953644752502,-0.3415291905403137,0.1888866275548935,-0.913111686706543,3.9743874073028564,0.20883381366729736
0.18905980960130597,1.699203082228454,1.6104916462968948,8.382820129394531,-9.79208755493164,-14.38912582397461,0.9740954637527466,-0.18793554604053497,0.12577246129512787,-0.35257434844970703,4.0120320320129395,0.562688946723938
0.04586045835755843,1.6105598503939706,1.553766055435198,5.296159744262695,-9.065131187438965,-13.10126781463623,0.9981591105461121,-0.04584438353776932,0.039711255580186844,0.5229897499084473,3.769782304763794,0.8064497709274292
-0.07365797533577342,1.5305713026204013,1.5139857851605198,2.777418375015259,-6.695479869842529,-10.690979957580566,0.9964819550514221,0.07359138876199722,-0.04010514169931412,1.7664575576782227,3.446153402328491,0.7195638418197632
-0.1621572231342533,1.4768123874076007,1.4896694074362846,0.892396867275238,-3.4547626972198486,-7.24102783203125,0.9825260043144226,0.16144751012325287,-0.09261450916528702,3.106905937194824,3.0696468353271484,0.3118528723716736
-0.2160305310443778,1.4587190258105112,1.484058653627266,-0.917328953742981,0.018877191469073296,-3.6844429969787598,0.9706277251243591,0.21435411274433136,-0.10924313217401505,4.055739402770996,2.689774990081787,0.0778101310133934
-0.2401646947969559,1.4778750790571242,1.4991279031678184,-2.453205108642578,3.0065648555755615,-0.977966845035553,0.9671086668968201,0.23786260187625885,-0.09012448042631149,4.143441200256348,2.50266170501709,0.06116343289613724
-0.24267379430420322,1.5246339256938706,1.5290288899018762,-3.3009090423583984,4.752575397491455,0.7704468965530396,0.969664990901947,0.24029892683029175,-0.04479388892650604,3.543564558029175,2.416790246963501,-0.11812412738800049
-0.23003627368860047,1.5829442710950892,1.5639702580750185,-3.380300283432007,5.123857021331787,1.8126276731491089,0.97358638048172,0.2280128449201584,0.011827655136585236,2.9089515209198,2.362868547439575,-0.43086445331573486
-0.20735469652819805,1.6375315729180477,1.5952649619845432,-2.8572354316711426,4.329343795776367,2.4692652225494385,0.9764007925987244,0.20587198436260223,0.0652572512626648,2.4841248989105225,2.276275157928467,-0.668864369392395
-0.177685336852812,1.6777181033057664,1.6170531212969401,-1.8946144580841064,2.8264646530151367,3.0877275466918945,0.9786348342895508,0.17675182223320007,0.10503795742988586,2.2775449752807617,2.150808572769165,-0.8016778230667114
-0.14199518475638692,1.6986521446833114,1.6258787080022261,-0.6717825531959534,1.0797327756881714,3.829486131668091,0.9818555116653442,0.1415185034275055,0.12622448801994324,2.191835403442383,1.993064045906067,-0.8306463956832886
-0.0998649428291448,1.7010191570647224,1.6210830576098083,0.49429580569267273,-0.44319283962249756,4.677226543426514,0.9865930080413818,0.09969903528690338,0.12920813262462616,2.1086220741271973,1.8520221710205078,-0.7285580635070801
-0.0502138677319359,1.690314745439225,1.6056437019924763,1.2614156007766724,-1.3809128999710083,5.590033054351807,0.9916148781776428,0.05019276961684227,0.11908380687236786,1.9803396463394165,1.7696315050125122,-0.4909098148345947
0.008510247629162934,1.6746369948896054,1.5845814303359658,1.5751047134399414,-1.5833860635757446,6.584488391876221,0.9945776462554932,-0.008510145358741283,0.10365042835474014,1.803243637084961,1.7517809867858887,-0.1887333244085312
0.07732146719655823,1.661682590620404,1.5621260482581354,1.5207786560058594,-1.1314135789871216,7.569667816162109,0.9928972125053406,-0.07724444568157196,0.09049001336097717,1.5691297054290771,1.7645612955093384,0.08179699629545212
0.15603785867060568,1.6567388384616604,1.5416040765692758,1.1240441799163818,-0.30589330196380615,8.501640319824219,0.9842049479484558,-0.1554054319858551,0.08479391038417816,1.2801690101623535,1.7901099920272827,0.3290092945098877
0.24453731998407954,1.661335102115635,1.5254247903957732,0.4681115746498108,0.5924128293991089,9.453011512756348,0.9662755131721497,-0.24210743606090546,0.08772523701190948,1.0031611919403076,1.8645744323730469,0.5608192682266235
0.3432606000968619,1.6748106145735544,1.5145252572755903,-0.304442435503006,1.4751840829849243,10.44900131225586,0.9365729689598083,-0.3365592658519745,0.09776981174945831,0.7518425583839417,2.000743865966797,0.7195367813110352
0.45253907175828917,1.6962365092150196,1.5087777276221308,-1.1440188884735107,2.4115750789642334,11.419525146484375,0.8922733068466187,-0.43725043535232544,0.11251771450042725,0.4999537467956543,2.169626474380493,0.8041998147964478
0.5717500550580364,1.7257028466146056,1.5085103727221363,-2.178788423538208,3.455146312713623,12.22702693939209,0.8308858275413513,-0.5411046147346497,0.1297491192817688,0.21833908557891846,2.3207828998565674,0.8070032596588135
0.7002078562121961,1.7590808905128557,1.5172332984558439,-3.64737868309021,4.259645462036133,12.876924514770508,0.7511934638023376,-0.6443766355514526,0.14313356578350067,-0.15486472845077515,2.5700511932373047,0.8805787563323975
0.8371603582800292,1.7888693347686997,1.5418295470428456,-5.373599529266357,5.199102878570557,13.257658004760742,0.6537165641784668,-0.7427447438240051,0.1448615938425064,-0.4682612419128418,2.7506487369537354,0.9465843439102173
0.9811236272346302,1.8065032476909322,1.5924271648012478,-7.180051326751709,6.390220642089844,13.431678771972656,0.5407130718231201,-0.8311227560043335,0.12986375391483307,-0.5922725200653076,2.8377602100372314,0.7435342073440552
1.1302230732039682,1.7910433454749353,1.690395717446416,-8.965453147888184,7.650071620941162,13.443284034729004,0.416156530380249,-0.9045073390007019,0.09316863119602203,-0.644855260848999,3.033337116241455,0.4560563564300537
1.2786324509018074,1.6772860533732195,1.8997541503597215,-10.639561653137207,8.821815490722656,13.295859336853027,0.28639382123947144,-0.9576228857040405,0.030613809823989868,-0.6130081415176392,3.215770959854126,0.11016380786895752
1.399396171572634,1.2136990991524743,2.469454068866502,-12.127080917358398,9.673983573913574,12.994174003601074,0.15980282425880432,-0.9853469133377075,-0.05962122231721878,-0.48208367824554443,3.335536003112793,-0.24323511123657227
1.3887331617863785,0.2537465657632116,-2.7409845542453475,-13.349671363830566,10.076752662658691,12.54813289642334,0.04545174911618233,-0.9834722280502319,-0.17526160180568695,-0.3226581811904907,3.466763734817505,-0.5895546078681946
1.2525653497737792,-0.15900750343976944,-2.2143236310065535,-14.16414737701416,9.703361511230469,12.028367042541504,-0.04954201728105545,-0.9497904181480408,-0.30894002318382263,-0.22291891276836395,3.590857744216919,-0.875203013420105
1.0869230377378862,-0.26731999476061036,-1.998150207293611,-14.484051704406738,8.483332633972168,11.459088325500488,-0.12288447469472885,-0.8851996660232544,-0.44868820905685425,-0.30784061551094055,3.6990270614624023,-1.1825830936431885
0.918128333043849,-0.29832959800325387,-1.8738014195022659,-14.132379531860352,6.2202982902526855,10.804444313049316,-0.17850245535373688,-0.7944663166999817,-0.5804826617240906,-0.6648508310317993,3.7563345432281494,-1.5332410335540771
0.7584593292582297,-0.3154799524339668,-1.7866305065928412,-12.733243942260742,3.367424964904785,10.057244300842285,-0.22522594034671783,-0.6878039240837097,-0.6900718212127686,-1.3228087425231934,3.576185703277588,-2.111487627029419
0.6171497381873222,-0.33807641606349287,-1.7184184849577349,-10.677069664001465,0.9243839383125305,8.834615707397461,-0.27048972249031067,-0.578713059425354,-0.7693676948547363,-1.6977567672729492,2.7040181159973145,-2.8332018852233887
0.5023987624588498,-0.3583039254501867,-1.6731071203519632,-8.237443923950195,0.07115266472101212,6.122066020965576,-0.30735209584236145,-0.48152926564216614,-0.8207705616950989,-2.581899642944336,2.4556961059570312,-3.470489025115967
0.4241373297621983,-0.3647607712076436,-1.6518245311471438,-4.965898513793945,0.6632290482521057,2.9677510261535645,-0.3251177966594696,-0.41153469681739807,-0.8514326810836792,-3.4797680377960205,2.4433035850524902,-4.222846984863281
0.39099232208565865,-0.35638156790952846,-1.649740256406032,-1.0561853647232056,1.069512128829956,-0.25341546535491943,-0.3225555419921875,-0.38110604882240295,-0.8664387464523315,-3.750335693359375,2.1773552894592285,-4.883133888244629
0.40690472095594116,-0.3418408692950593,-1.6638148771405055,3.2057888507843018,0.6585319638252258,-3.149526357650757,-0.30785122513771057,-0.3957686722278595,-0.8652137517929077,-3.7085061073303223,2.360185146331787,-4.992146968841553
0.46938462112375845,-0.33225899048048346,-1.687898729444746,7.048424243927002,-0.8922541737556458,-5.059045314788818,-0.2909019887447357,-0.4523375332355499,-0.8430699110031128,-3.062995195388794,2.3494017124176025,-4.609429359436035
0.5685663690084763,-0.3337937051061996,-1.7200613845885737,9.77380084991455,-2.563955307006836,-6.67081356048584,-0.2760849595069885,-0.5384244918823242,-0.7961634397506714,-2.3322677612304688,2.601717948913574,-3.693033218383789
0.6930082192831033,-0.34131761380924835,-1.7614028770849217,11.434744834899902,-3.7525877952575684,-7.847995281219482,-0.2575162947177887,-0.6388543844223022,-0.7249486446380615,-1.7943483591079712,2.9843132495880127,-2.7259485721588135
0.8329033332690553,-0.3456751002265649,-1.8133051876542285,12.347563743591309,-4.220457077026367,-8.622539520263672,-0.2279425859451294,-0.7398876547813416,-0.6329364776611328,-1.265450358390808,3.0092053413391113,-2.077054977416992
0.9801857936491902,-0.3340215361627908,-1.880470200173251,12.625561714172363,-3.9815356731414795,-9.008731842041016,-0.18256649374961853,-0.8306008577346802,-0.5260911583900452,-0.9006549119949341,3.030109405517578,-1.6296552419662476
1.1272803297880007,-0.28613673735819883,-1.9774986716896228,12.436790466308594,-3.3392937183380127,-9.134160995483398,-0.12111780792474747,-0.9032484889030457,-0.41167083382606506,-0.6567752361297607,2.9402966499328613,-1.2560842037200928
1.267179557842498,-0.15553251790424177,-2.148854433592057,12.079855918884277,-2.5144667625427246,-9.2343168258667,-0.046312905848026276,-0.9542614221572876,-0.29536500573158264,-0.5709661245346069,2.734839916229248,-0.9519188404083252
1.3864912163375467,0.21334275783327697,-2.5488372911769828,11.94735050201416,-1.5573303699493408,-9.37431812286377,0.038802143186330795,-0.983063817024231,-0.17910921573638916,-0.5747671127319336,2.5343027114868164,-0.7457106113433838
1.4248451675184113,1.1305696637064409,2.7940434871483313,12.045536994934082,-0.9601420760154724,-9.782081604003906,0.13156813383102417,-0.9893680214881897,-0.06197614595293999,-0.6922370195388794,2.51094388961792,-0.5888721942901611
1.3316845607848646,1.8060683761334162,2.0970450950630974,12.253808975219727,-1.249243140220642,-10.405174255371094,0.23031549155712128,-0.9715487360954285,0.055209241807460785,-0.8827202320098877,2.666525363922119,-0.2744932174682617
1.1859552925194585,2.0330861045761495,1.839995829077915,12.500723838806152,-2.557790517807007,-11.485941886901855,0.3360067307949066,-0.926858127117157,0.1674334555864334,-0.9273915886878967,2.8545618057250977,0.1709303855895996
1.0194370420167636,2.098790176557676,1.7257796524047342,12.36096477508545,-5.006636142730713,-12.89712142944336,0.4525081515312195,-0.8518132567405701,0.26391419768333435,-0.9279719591140747,3.119940757751465,0.5966205596923828
0.8433777636019902,2.0791847308815776,1.6663364178074127,11.242228507995605,-8.579984664916992,-14.143301963806152,0.5808484554290771,-0.7468934059143066,0.3236747682094574,-0.9098432064056396,3.4256348609924316,0.9906716346740723
0.6672760651373768,2.000644372682444,1.6308845357782433,9.416594505310059,-11.911239624023438,-15.069347381591797,0.7140518426895142,-0.6188486218452454,0.32734787464141846,-0.6826338768005371,3.6494271755218506,1.246901512145996
0.49451075802109823,1.8856304089880556,1.604711406029642,7.2900190353393555,-13.827189445495605,-15.454200744628906,0.8369373679161072,-0.4746010899543762,0.2725619673728943,-0.3033831715583801,3.764045000076294,1.09145188331604
0.33297775266477836,1.7555686718877983,1.5817322260843705,4.75754976272583,-13.720305442810059,-14.692853927612305,0.9289865493774414,-0.32685866951942444,0.17363150417804718,0.25356972217559814,3.7769927978515625,0.7122024297714233
0.19395681529156691,1.6369053591679412,1.5668293906878634,1.4926179647445679,-10.523904800415039,-12.412793159484863,0.9791058897972107,-0.19274301826953888,0.06482220441102982,1.371861457824707,3.7977540493011475,0.45794403553009033
0.08631339074820153,1.5548977837045328,1.5706063584199497,-1.6055662631988525,-5.757593631744385,-9.018155097961426,0.9961515069007874,-0.08620625734329224,-0.01583869196474552,3.1458163261413574,3.5562379360198975,0.3962098956108093
0.01544879595970548,1.5199789549663327,1.59480829401059,-3.6078686714172363,-1.058958649635315,-4.9575114250183105,0.9985900521278381,-0.015448181889951229,-0.050789449363946915,4.767828464508057,2.9420838356018066,-0.01114588975906372
-0.015733716354735718,1.5303148934276067,1.635319005498134,-4.706597805023193,2.9323952198028564,-0.972807765007019,0.9990572929382324,0.01573306694626808,-0.040465377271175385,5.686352729797363,2.6948230266571045,-0.47778403759002686
-0.010805243059148026,1.5718073131441448,1.6841927037197915,-4.98312520980835,4.942394256591797,1.9918556213378906,0.9999412894248962,0.010805033147335052,0.0010109273716807365,5.5172247886657715,2.623807907104492,-0.7333564758300781
0.019376600176056247,1.6218846246307546,1.7313990768813123,-4.561868190765381,4.93063497543335,3.66951322555542,0.9985080361366272,-0.019375387579202652,0.051056504249572754,4.396175861358643,2.4929776191711426,-0.8765416145324707
0.0631884056261975,1.6643297472735763,1.769106066463639,-3.548513412475586,3.778114080429077,4.4591522216796875,0.9936420917510986,-0.06314636766910553,0.09321071952581406,3.245875358581543,2.318074941635132,-0.9391731023788452
0.11242999599054952,1.6916135934121728,1.792445067096988,-2.121481418609619,2.036797523498535,4.829283714294434,0.986443042755127,-0.1121932864189148,0.11976263672113419,2.459113597869873,2.0588181018829346,-0.9539299011230469
0.16371913910006528,1.7008316910219763,1.799605168484755,-0.594182014465332,-0.025509456172585487,5.21349573135376,0.9782984256744385,-0.16298873722553253,0.12793530523777008,2.044971466064453,1.8576908111572266,-0.8373773097991943
0.21814947455501688,1.6919392197469427,1.791595120459534,0.7411300539970398,-2.0403995513916016,5.829298973083496,0.9691444635391235,-0.21642333269119263,0.11798268556594849,1.8586905002593994,1.7539294958114624,-0.5865495204925537
0.2782693197204128,1.668806393666443,1.7720115597231347,1.649587869644165,-3.455059051513672,6.5775346755981445,0.956917941570282,-0.27469196915626526,0.09408905357122421,1.6942510604858398,1.7022432088851929,-0.23488174378871918
0.34661163607057754,1.6394618449596676,1.7463726746743613,2.0104146003723145,-3.870532274246216,7.5010881423950195,0.9383130669593811,-0.339712917804718,0.06453120708465576,1.4896352291107178,1.7140109539031982,0.1440565586090088
0.4255339187169735,1.612691417209209,1.721032837533326,1.7471258640289307,-3.29606556892395,8.57307243347168,0.9100193381309509,-0.4128071367740631,0.038147661834955215,1.3387142419815063,1.7954822778701782,0.48937928676605225
0.5165471433078109,1.5940307276284118,1.702487885405056,0.9248294830322266,-2.0414257049560547,9.78107738494873,0.8692951798439026,-0.4938807189464569,0.0202011875808239,1.1374951601028442,1.9034875631332397,0.7760788202285767
0.6203814406655667,1.5854209253226328,1.6964029051222673,-0.3069538474082947,-0.27170330286026,11.060580253601074,0.8135700821876526,-0.5813455581665039,0.01189898420125246,0.8703290224075317,2.0221567153930664,0.9521819353103638
0.737216694865756,1.5857397331748364,1.7078978614058662,-1.832777976989746,1.8320506811141968,12.317584037780762,0.7402598857879639,-0.6722299456596375,0.01106282789260149,0.5683339238166809,2.2102394104003906,1.0008238554000854
0.8659534002682449,1.589184617801839,1.7435598612086738,-3.556205987930298,4.018712043762207,13.359792709350586,0.6478049755096436,-0.7617133259773254,0.011913369409739971,0.21865028142929077,2.4513187408447266,0.9450111389160156
1.00392033250016,1.5815893875391012,1.8156733797314715,-5.42850923538208,6.111505508422852,14.122957229614258,0.5369681715965271,-0.8435826897621155,0.005795755423605442,-0.1159934401512146,2.707947254180908,0.7742946147918701
1.1472039019067797,1.52821636288412,1.9557929096476288,-7.448449611663818,7.936662197113037,14.722010612487793,0.4106655418872833,-0.911618173122406,-0.01749669946730137,-0.32005882263183594,2.987454414367676,0.49291491508483887
1.284267515244526,1.3314050865696743,2.2575619120658135,-9.459928512573242,9.488369941711426,15.096023559570312,0.2745650112628937,-0.9592307209968567,-0.06701351702213287,-0.4372999668121338,3.316622018814087,0.07375794649124146
1.3680755462659022,0.7554722381706681,2.9537564687365365,-11.16641902923584,10.804742813110352,15.259435653686523,0.1380418986082077,-0.9795224070549011,-0.14656145870685577,-0.4545396566390991,3.6687161922454834,-0.5073080658912659
1.3155485660984796,0.0437283113296291,-2.485038477071261,-12.102890968322754,11.846466064453125,15.417203903198242,0.011037253774702549,-0.9676007628440857,-0.25224432349205017,-0.4572805166244507,3.9735820293426514,-1.3092790842056274
1.1751912747698658,-0.25245466261516747,-2.044107692198768,-12.204689025878906,12.748882293701172,15.3524169921875,-0.0962575376033783,-0.9227635860443115,-0.37315160036087036,-0.4723917245864868,4.13484525680542,-2.320436477661133
1.0158441673635783,-0.3365173013436053,-1.8042726766934882,-11.709898948669434,13.164134979248047,14.875264167785645,-0.17398425936698914,-0.8499256372451782,-0.4973491430282593,-0.6269343495368958,4.204600811004639,-3.341884136199951
0.8622612205154763,-0.3405505503748752,-1.637386005320603,-10.578893661499023,12.97585391998291,13.93072509765625,-0.21734514832496643,-0.7593159079551697,-0.6133517622947693,-0.8057871460914612,3.9002766609191895,-4.279775619506836
0.7289964370605972,-0.310365108536848,-1.502135317753642,-8.484503746032715,12.37547492980957,12.586400032043457,-0.22778527438640594,-0.6661214828491211,-0.710208535194397,-0.9857004284858704,3.446730613708496,-5.115780353546143
0.6280547660086746,-0.26726515425243647,-1.3827275592460386,-5.478614330291748,11.150766372680664,11.068543434143066,-0.21369804441928864,-0.5875718593597412,-0.7804438471794128,-1.13577401638031,3.0288407802581787,-5.7135138511657715
0.5675321883696234,-0.22622297972405825,-1.2743954908884345,-1.831970453262329,9.148672103881836,9.306321144104004,-0.1891351193189621,-0.5375527739524841,-0.8217450976371765,-1.2628912925720215,2.5500497817993164,-5.746614456176758
0.5510728349241019,-0.19923886864625096,-1.178990998276126,2.0088584423065186,6.249444961547852,7.244511604309082,-0.1686234027147293,-0.5236015319824219,-0.8351093530654907,-1.458055019378662,2.2239952087402344,-5.189289569854736
0.5763304241317619,-0.19715239386666336,-1.0991148187424513,5.545375823974609,2.6103475093841553,5.060291767120361,-0.16423717141151428,-0.5449507832527161,-0.8222255110740662,-1.618782877922058,2.135999917984009,-4.130441665649414
0.6370348112371816,-0.22817386227141756,-1.0338285429995036,8.506695747375488,-1.4223724603652954,2.944977283477783,-0.18183308839797974,-0.5948144793510437,-0.7830277681350708,-1.533392071723938,2.1485252380371094,-2.933265447616577
0.7251225152167694,-0.2984293733295849,-0.9765944835255808,10.753217697143555,-5.412878036499023,1.1584594249725342,-0.2200494408607483,-0.6632271409034729,-0.7153376936912537,-1.2479376792907715,2.293079376220703,-1.8899478912353516
0.8320154646083998,-0.4131039788163005,-0.9149628454415085,12.290141105651855,-8.780685424804688,-0.2996492385864258,-0.27033406496047974,-0.7392900586128235,-0.6167412400245667,-0.79518723487854,2.4260880947113037,-1.114932894706726
0.9488005323836783,-0.5784857892812602,-0.8313439816074757,13.241908073425293,-11.170367240905762,-1.499701738357544,-0.318572461605072,-0.8127171993255615,-0.4878550171852112,-0.39572200179100037,2.396045446395874,-0.6174458265304565
1.0655526067090115,-0.8094859144709684,-0.699304916067738,13.69854736328125,-12.58927059173584,-2.544628381729126,-0.350398451089859,-0.8750565052032471,-0.3339117765426636,-0.15680372714996338,2.244685411453247,-0.3668327331542969
1.168286983378641,-1.1368992505563298,-0.47980926833609766,13.713211059570312,-13.327631950378418,-3.531562328338623,-0.3554288446903229,-0.9200809001922607,-0.16468662023544312,-0.04763209819793701,1.9943910837173462,-0.2283186912536621
1.2360506475609925,-1.5956820900990638,-0.13345990544518277,13.366101264953613,-13.685858726501465,-4.522942066192627,-0.32842761278152466,-0.9444938898086548,0.00817485898733139,-0.07400771975517273,1.6868338584899902,-0.12653720378875732
1.2467127528442155,-2.1448650614021285,0.3011444085973165,12.728598594665527,-13.794991493225098,-5.767895221710205,-0.26739373803138733,-0.9479429721832275,0.17292994260787964,-0.21359378099441528,1.3801329135894775,-0.016649261116981506
1.1994268405316904,-2.6473071967659756,0.6882278684737332,11.930368423461914,-13.820966720581055,-7.253952503204346,-0.1721571683883667,-0.9318312406539917,0.319457083940506,-0.3929978609085083,1.1454999446868896,0.10405075550079346
1.11360907430683,-3.039059857705732,0.9639323543541102,10.833122253417969,-14.06328010559082,-8.944276809692383,-0.045181430876255035,-0.8972976803779602,0.4391081929206848,-0.4415281414985657,1.017582654953003,0.2630404233932495
1.007194841574746,2.935997213324998,1.1523716744739247,9.39928913116455,-14.692072868347168,-10.523151397705078,0.109064020216465,-0.8453365564346313,0.5229832530021667,-0.553033709526062,1.1567530632019043,0.5104641914367676
0.8888610503541229,2.6771756340982313,1.2845596261391792,7.893397331237793,-15.645654678344727,-11.799992561340332,0.28231117129325867,-0.7763543725013733,0.5635379552841187,-0.4590841233730316,1.3891775608062744,0.5660094022750854
0.7616556925094374,2.4457606185825105,1.3772970353551859,6.548008918762207,-17.099166870117188,-12.641164779663086,0.46390581130981445,-0.6901205778121948,0.5554504990577698,-0.22844740748405457,1.6821554899215698,0.4386749863624573
0.6280303482495756,2.228472733666968,1.4364630881894058,5.528164386749268,-18.7679500579834,-12.8789644241333,0.6404022574424744,-0.5875520706176758,0.4946393072605133,0.057290732860565186,1.9927948713302612,0.1444142460823059
0.4954788618800872,2.021006344152679,1.4640587811601637,4.449316501617432,-19.6452579498291,-12.025056838989258,0.7920801639556885,-0.4754529893398285,0.38282352685928345,0.4814184904098511,2.3035168647766113,-0.19471299648284912
0.3794122674154538,1.8262223974675427,1.46999606130168,2.4682867527008057,-18.58502960205078,-10.105910301208496,0.898745596408844,-0.3703745901584625,0.23468929529190063,1.0516786575317383,2.552640914916992,-0.3083738386631012
0.28878363769537113,1.6554053254155976,1.476083638568468,-0.6457759737968445,-14.899296760559082,-7.955514430999756,0.9551621079444885,-0.2847864329814911,0.08100870996713638,1.5892105102539062,2.4095118045806885,-0.12162744998931885
0.21977028315802266,1.5308789610333422,1.5016031241480832,-3.942788600921631,-8.514493942260742,-5.974290370941162,0.975170373916626,-0.21800543367862701,-0.03894691914319992,1.9570198059082031,2.094378709793091,0.08734792470932007
0.16551248898901763,1.4757783179225903,1.550447262285171,-6.254825592041016,-0.6532654762268066,-4.148229122161865,0.9818850755691528,-0.1647578328847885,-0.09357855468988419,2.292239189147949,2.03749942779541,-0.23956656455993652
0.12780850399886134,1.4924497995876593,1.6159859870555475,-7.228313446044922,5.44929313659668,-2.201085329055786,0.9888013005256653,-0.12746082246303558,-0.07762804627418518,2.983717679977417,2.1178324222564697,-0.7918634414672852
0.11214562801656386,1.5514180146463217,1.6882421446526599,-7.195256233215332,7.581846237182617,-0.2028116136789322,0.9935317635536194,-0.11191070824861526,-0.01925537921488285,3.6676621437072754,2.0130491256713867,-1.108948826789856
0.12045255075255513,1.6150837242619736,1.75587670610604,-6.185888290405273,6.402683258056641,1.6816136837005615,0.9917810559272766,-0.12016148865222931,0.04395214095711708,3.985971689224243,1.804304599761963,-1.2400274276733398
0.14869201787450723,1.6580637434401198,1.807024578233265,-4.253190994262695,3.450857400894165,3.2175984382629395,0.9852024912834167,-0.1481447070837021,0.08619499951601028,3.64927339553833,1.6678438186645508,-1.3671702146530151
0.1885143315842771,1.6709762822906395,1.83505614906171,-2.024296522140503,0.0664198249578476,4.134373188018799,0.977358877658844,-0.187399759888649,0.09824063628911972,2.9811525344848633,1.4499882459640503,-1.3853803873062134
0.23349134487836515,1.6558986317455768,1.8408239730415066,0.0006197526818141341,-2.7149059772491455,4.7130937576293945,0.9693439602851868,-0.2313755303621292,0.08269313722848892,2.3391127586364746,1.2586429119110107,-1.2412775754928589
0.2827899824034862,1.6236972155245428,1.8286337720616177,1.6145251989364624,-4.221161365509033,5.3053364753723145,0.9589373469352722,-0.27903589606285095,0.05077601224184036,1.8711559772491455,1.2979415655136108,-1.0334419012069702
0.33805982905221105,1.586461252804915,1.8034666006983973,2.7452821731567383,-4.682949542999268,5.936680793762207,0.9432841539382935,-0.331657350063324,0.014777685515582561,1.588667631149292,1.3987655639648438,-0.752768874168396
0.4007913002695093,1.5522462170434672,1.7706688224302303,3.3341612815856934,-4.481748580932617,6.635196685791016,0.9205942153930664,-0.39014706015586853,-0.017079083248972893,1.364821434020996,1.4673107862472534,-0.3825027346611023
0.4719933185239029,1.5252494151623395,1.7363095641808255,3.298370838165283,-3.7774295806884766,7.445239067077637,0.8897401690483093,-0.454662561416626,-0.04055296257138252,1.1670836210250854,1.572490930557251,0.028635922819375992
0.5528335777300494,1.5074765937359107,1.7065037892616293,2.747177839279175,-2.6458940505981445,8.477519035339355,0.8493345975875854,-0.525100827217102,-0.05385163053870201,1.0246431827545166,1.711761474609375,0.3768191933631897
0.6447208360719298,1.500398120583423,1.6860094399804602,1.8539730310440063,-1.0104222297668457,9.687135696411133,0.7972878813743591,-0.6009753346443176,-0.056220538914203644,0.8581686615943909,1.8585588932037354,0.6023174524307251
0.7481945891056706,1.5052599751947646,1.6784896547745272,0.6954928636550903,1.0772621631622314,10.921886444091797,0.7313449382781982,-0.6803166270256042,-0.04799841716885567,0.5920956134796143,2.021442174911499,0.7148228287696838
0.8628160039013825,1.5201529220907686,1.688791674465304,-0.8070783615112305,3.4270567893981934,12.07705020904541,0.6494672298431396,-0.7596768140792847,-0.03291938081383705,0.2826770544052124,2.2466304302215576,0.7741456627845764
0.987261092749607,1.5357933890649356,1.7264771800158092,-2.6784794330596924,5.756357669830322,12.99235725402832,0.5506402850151062,-0.8345200419425964,-0.0192819032818079,-0.027324795722961426,2.459397792816162,0.8041177988052368
1.1187402494172363,1.529968486064361,1.8116023581065377,-4.747311592102051,7.913203716278076,13.600128173828125,0.43645232915878296,-0.8995508551597595,-0.01782931387424469,-0.31657925248146057,2.6255335807800293,0.7209696173667908
1.2517283430844857,1.4480440935359407,1.994502522619653,-6.772156238555908,9.651611328125,13.963048934936523,0.3113219738006592,-0.949528157711029,-0.03840857744216919,-0.5056120753288269,2.788181781768799,0.42982709407806396
1.3674643289859543,1.1245712185208303,2.434520403593388,-8.52250862121582,10.88206958770752,14.093099594116211,0.18216097354888916,-0.9793991446495056,-0.08714722841978073,-0.5987564325332642,2.933943271636963,-0.0204881951212883
1.3955146255835311,0.33856238373534153,-2.935804564115469,-9.897363662719727,11.617877960205078,14.046276092529297,0.05791911110281944,-0.9846774339675903,-0.16448676586151123,-0.5875974297523499,3.0875062942504883,-0.5106229782104492
1.2966411954688506,-0.1983163819137346,-2.266630508009826,-10.783567428588867,11.814793586730957,13.940922737121582,-0.05333970859646797,-0.9626542925834656,-0.2654273509979248,-0.5361988544464111,3.2272109985351562,-1.0110923051834106
1.1520377264974184,-0.3646421482297566,-1.9658247669267308,-11.015915870666504,11.667518615722656,13.610217094421387,-0.14500924944877625,-0.9135944247245789,-0.3798917531967163,-0.5492045879364014,3.2993059158325195,-1.5809388160705566
1.0014198394644211,-0.4028648894066991,-1.792806666015824,-10.673829078674316,11.208609580993652,12.866305351257324,-0.21135994791984558,-0.8422372937202454,-0.4959471523761749,-0.6771746277809143,3.2122628688812256,-2.1249940395355225
0.8585194132939536,-0.39317726918104595,-1.6704138378130962,-9.962508201599121,10.374442100524902,11.714720726013184,-0.2503948509693146,-0.75687575340271,-0.603689968585968,-0.8687610626220703,2.9704527854919434,-2.563652992248535
0.7304450923244381,-0.36366682775885156,-1.5742121155502995,-8.811762809753418,9.288143157958984,10.297219276428223,-0.26495563983917236,-0.6672012209892273,-0.696161687374115,-1.0670450925827026,2.6251935958862305,-2.9089255332946777
0.6238292323453304,-0.3266501213675737,-1.4947387105721976,-6.9966630935668945,8.06339168548584,8.601109504699707,-0.2604350745677948,-0.5841473937034607,-0.7687297463417053,-1.2554035186767578,2.2068891525268555,-3.283287525177002
0.54523123584535,-0.2908753459453909,-1.4285054549672094,-4.578972816467285,6.329609394073486,6.72249174118042,-0.24520836770534515,-0.5186158418655396,-0.8190913200378418,-1.4878696203231812,1.8567962646484375,-3.5921483039855957
0.4994036804548142,-0.2655621014285807,-1.3757443288841955,-1.6708455085754395,3.948357582092285,4.585418224334717,-0.2303980439901352,-0.478902131319046,-0.8470947742462158,-1.7401067018508911,1.5418140888214111,-3.7427031993865967
0.49026028954359674,-0.2569931001333433,-1.3383735409538273,1.6160521507263184,1.3057864904403687,2.253214120864868,-0.22423453629016876,-0.4708555340766907,-0.8532373309135437,-1.9708490371704102,1.2494657039642334,-3.7164342403411865
0.5180053082024848,-0.2673864152987508,-1.3171408409842797,4.634090423583984,-1.347089171409607,-0.06390627473592758,-0.2295493334531784,-0.4951481223106384,-0.837935209274292,-1.9930917024612427,1.1359103918075562,-3.367356538772583
0.5764593422724381,-0.2971556983751927,-1.3108379389576315,6.809412479400635,-3.959707021713257,-2.1107029914855957,-0.2454843372106552,-0.5450589060783386,-0.8016535043716431,-1.8114309310913086,1.3173213005065918,-2.6655707359313965
0.657404607975893,-0.3451786085987208,-1.3163603019244792,8.223390579223633,-6.251067638397217,-3.8081438541412354,-0.2678430676460266,-0.6110644340515137,-0.744889497756958,-1.4876348972320557,1.5296435356140137,-1.9578540325164795
0.7543331043030569,-0.408104830714704,-1.3293243724071722,9.051648139953613,-7.963535785675049,-5.117691516876221,-0.28921085596084595,-0.6848028302192688,-0.6688814163208008,-1.1378216743469238,1.646503210067749,-1.4932584762573242
0.8615929851877617,-0.4818562852787794,-1.345083181096231,9.352928161621094,-9.022713661193848,-6.060553550720215,-0.30179595947265625,-0.7588809132575989,-0.5770780444145203,-0.8188552856445312,1.7038118839263916,-1.2050416469573975
0.974101869256421,-0.5628523883496561,-1.3600625618533122,9.24909496307373,-9.5253267288208,-6.752538204193115,-0.29983627796173096,-0.8271975517272949,-0.475228875875473,-0.587645411491394,1.67756986618042,-1.050787329673767
1.0891644072218292,-0.6475602776104643,-1.3724439527071748,8.993375778198242,-9.517078399658203,-7.432084560394287,-0.2794376611709595,-0.8862401843070984,-0.3694497048854828,-0.530208945274353,1.5920658111572266,-1.0221211910247803
1.2069746237485788,-0.7325606084953966,-1.3810934556151604,8.7658109664917,-9.047171592712402,-8.164258003234863,-0.23798303306102753,-0.9345437288284302,-0.2645609676837921,-0.603356122970581,1.484012484550476,-1.0977283716201782
1.328360486749706,-0.8187133179893075,-1.381843109060265,8.56299877166748,-8.336710929870605,-8.913454055786133,-0.17531388998031616,-0.9707561135292053,-0.16400523483753204,-0.6818333268165588,1.450141429901123,-1.1643333435058594
1.453451791727158,-0.9275342198926912,-1.3521300817126711,8.352112770080566,-7.607147216796875,-9.61628532409668,-0.09367818385362625,-0.9931230545043945,-0.07022365927696228,-0.7335312962532043,1.5044296979904175,-1.1455659866333008
1.5551306258075113,2.937044586634517,0.9940739955400032,8.16104793548584,-7.0580925941467285,-10.237910270690918,0.00318446708843112,-0.9998772740364075,0.01535057369619608,-0.72864830493927,1.5868521928787231,-1.0862122774124146
1.4255290530611329,2.258856212595175,1.603762397736939,8.042799949645996,-6.837100505828857,-10.881546020507812,0.1118222028017044,-0.9894672632217407,0.09192675352096558,-0.7012844681739807,1.7115283012390137,-1.0032120943069458
1.2881578724811038,2.1729005575607876,1.621106753253141,7.920608043670654,-7.026183605194092,-11.564214706420898,0.22984632849693298,-0.960322916507721,0.15795737504959106,-0.6806825399398804,1.8584095239639282,-0.8840773105621338
1.1459810201029543,2.1055901053579587,1.6152106800604875,7.764801502227783,-7.605982780456543,-12.230148315429688,0.3546052873134613,-0.9111148715019226,0.21005919575691223,-0.6497102379798889,2.00640606880188,-0.7615727186203003
0.9996368528862728,2.03801876573575,1.6010328659160122,7.5084428787231445,-8.453934669494629,-12.835601806640625,0.48266729712486267,-0.8412747383117676,0.24349433183670044,-0.5993664264678955,2.18156099319458,-0.6576788425445557
0.8505972653066289,1.964248819957979,1.5817163856150225,7.063887596130371,-9.399785995483398,-13.334019660949707,0.6091399192810059,-0.751674473285675,0.2528518736362457,-0.5576568245887756,2.3590505123138428,-0.5837234258651733
0.700760964998259,1.8832175126441404,1.5586076689450012,6.411065578460693,-10.005988121032715,-13.6828031539917,0.7273514270782471,-0.644799530506134,0.23493394255638123,-0.469767689704895,2.5236752033233643,-0.5512790679931641
0.5528830909384633,1.7984118690363737,1.532511965752957,5.55626106262207,-9.93822193145752,-13.726166725158691,0.8290640115737915,-0.5251429677009583,0.1920357495546341,-0.3106619715690613,2.640606164932251,-0.5396919250488281
0.41142523902357575,1.7170833502806393,1.5063470508275212,4.176698684692383,-8.597803115844727,-13.260759353637695,0.9067623615264893,-0.39991605281829834,0.13360194861888885,-0.008767247200012207,2.7378218173980713,-0.4899861812591553
0.28247981445412135,1.6517597217646018,1.487863451455669,2.1569716930389404,-5.587836265563965,-11.995462417602539,0.9572214484214783,-0.27873802185058594,0.07766968011856079,0.6773917078971863,2.870412826538086,-0.3070244789123535
0.1725775304646657,1.615356016437299,1.4813004451511023,0.5941855311393738,-2.126971960067749,-9.814678192138672,0.9841676354408264,-0.1717221587896347,0.04388325288891792,1.9277586936950684,2.741027593612671,-0.22070205211639404
0.09050165878604137,1.6056260491146077,1.4818423505314082,-0.013521443121135235,-0.011918492615222931,-6.630941390991211,0.995303750038147,-0.09037816524505615,0.03468017652630806,3.5527005195617676,2.422851800918579,-0.45954573154449463
0.042332891162912216,1.6111412921237065,1.4860151916360733,-0.4773165285587311,1.107115387916565,-3.0685694217681885,0.9982911944389343,-0.04232024773955345,0.040297891944646835,4.6878662109375,2.1584396362304688,-0.6376640796661377
0.027459768949696085,1.6260888870595203,1.493711434970267,-0.9121856689453125,1.9034972190856934,-0.12257225066423416,0.9980955719947815,-0.027456318959593773,0.05524357035756111,4.921612739562988,2.0219783782958984,-0.5066900253295898
0.03684687632897469,1.6473162483414796,1.5036779042258817,-1.1837854385375977,2.3672125339508057,1.7592532634735107,0.9963973164558411,-0.03683853894472122,0.07639340311288834,4.18174934387207,1.9172554016113281,-0.4551316499710083
0.06122118596808174,1.671322078674907,1.5136081536644193,-1.1956630945205688,2.4980506896972656,2.838188886642456,0.993087649345398,-0.06118294969201088,0.10016852617263794,3.2039339542388916,1.870020866394043,-0.47762513160705566
0.09360020839112052,1.6946084486387862,1.5207004412680591,-0.9050091505050659,2.213651418685913,3.4221668243408203,0.9880014657974243,-0.09346359968185425,0.12295547872781754,2.4924826622009277,1.8059574365615845,-0.5272217988967896
0.13089955064166547,1.7127794864247365,1.5220969124059345,-0.3328407108783722,1.388010025024414,3.9679367542266846,0.9814684987068176,-0.13052605092525482,0.14029602706432343,2.1624526977539062,1.727053165435791,-0.5374975204467773
0.17338316282699806,1.7215428725952526,1.5153466139227774,0.4154421091079712,0.11824114620685577,4.676591873168945,0.9738361239433289,-0.17251576483249664,0.14792464673519135,2.063075065612793,1.671462893486023,-0.474859356880188
0.2225052768555737,1.7189375368072368,1.4999894051326763,1.0617923736572266,-1.2173572778701782,5.512845039367676,0.9646650552749634,-0.2206738293170929,0.14396131038665771,1.9633440971374512,1.6288464069366455,-0.30137085914611816
0.2793630003941063,1.7076674783958155,1.4787311832759817,1.3601657152175903,-1.9989969730377197,6.361637115478516,0.9522418975830078,-0.27574339509010315,0.13115447759628296,1.7786695957183838,1.5958269834518433,-0.03474937379360199
0.34502828138134695,1.694849923508023,1.455383175484284,1.2963515520095825,-1.8958109617233276,7.275355339050293,0.9338343143463135,-0.33822327852249146,0.1164434477686882,1.5361061096191406,1.6021239757537842,0.22657431662082672
0.42048156175892804,1.6874915520763478,1.4339837613551,0.7949979305267334,-1.1148699522018433,8.216554641723633,0.9066839218139648,-0.40820011496543884,0.10628858953714371,1.3103724718093872,1.6552703380584717,0.4653667211532593
0.5061056922796919,1.6888849565205173,1.4182808601739114,-0.02319357916712761,0.027993690222501755,9.157085418701172,0.8685478568077087,-0.4847748279571533,0.10304505378007889,1.040952444076538,1.6993286609649658,0.6697821617126465
0.6020036872583183,1.699653561959002,1.4105197018038218,-1.0465664863586426,1.3283953666687012,10.074136734008789,0.8173696994781494,-0.5662950277328491,0.10591083765029907,0.7734202742576599,1.8050644397735596,0.7767491340637207
0.7082652640680703,1.717772014309104,1.4128898818680506,-2.2530317306518555,2.588433265686035,10.964630126953125,0.7513033151626587,-0.6505172252655029,0.11122536659240723,0.5129027962684631,1.9922987222671509,0.8354300260543823
0.8250548390056202,1.739236595483708,1.427892724858241,-3.5598983764648438,3.8096210956573486,11.804708480834961,0.668914258480072,-0.7345849871635437,0.1137499138712883,0.24484318494796753,2.1769676208496094,0.8085218667984009
0.952096119992779,1.7583552028243838,1.4600088790261518,-4.947042942047119,5.032909870147705,12.5169677734375,0.5698058605194092,-0.8146330118179321,0.10814323276281357,0.0008729100227355957,2.3816800117492676,0.7109181880950928
1.0882804566771491,1.762878357642474,1.520553521445512,-6.444142818450928,6.230051517486572,13.066144943237305,0.45547622442245483,-0.8858303427696228,0.0885808989405632,-0.21684393286705017,2.584453821182251,0.5684168338775635
1.2313040707306275,1.7184714547812259,1.642569956261439,-8.021153450012207,7.343803882598877,13.467612266540527,0.3293839693069458,-0.9429238438606262,0.048998523503541946,-0.3525925576686859,2.783484697341919,0.37176263332366943
1.37184269388315,1.495334270575918,1.954544186085394,-9.52487564086914,8.360312461853027,13.744565963745117,0.19708140194416046,-0.9802739024162292,-0.014900462701916695,-0.42166024446487427,2.9859654903411865,0.06223326921463013
1.4479323821458077,0.5630646414870839,2.9852972106457023,-10.743757247924805,9.226350784301758,13.987711906433105,0.06541741639375687,-0.9924617409706116,-0.10363532602787018,-0.41314995288848877,3.2704920768737793,-0.37956464290618896
1.347456812373163,-0.26668937985071417,-2.3626457728650725,-11.612295150756836,9.567607879638672,14.164327621459961,-0.05837076157331467,-0.9751632213592529,-0.21365799009799957,-0.36297017335891724,3.571934461593628,-0.8541520237922668
1.1853126403467524,-0.4605558729394733,-2.061499436347538,-11.928224563598633,9.288604736328125,14.103093147277832,-0.16711518168449402,-0.9266166687011719,-0.33682981133461,-0.43647676706314087,3.718761444091797,-1.4062883853912354
1.0169423165975104,-0.5054939233293169,-1.9097516135672599,-11.379501342773438,8.896557807922363,13.696761131286621,-0.2546950578689575,-0.8505037426948547,-0.46018892526626587,-0.645161509513855,3.6997315883636475,-2.154648780822754
0.8581776398147664,-0.5060159486875103,-1.8006123388310458,-10.078657150268555,8.654047966003418,13.016377449035645,-0.31690293550491333,-0.7566523551940918,-0.5718827247619629,-0.9135047793388367,3.532805919647217,-3.045701503753662
0.7178003810253372,-0.486994498267987,-1.7071131746640558,-8.289453506469727,8.426726341247559,11.973386764526367,-0.35250189900398254,-0.6577293872833252,-0.6656835675239563,-1.2278661727905273,3.2345268726348877,-3.766582489013672
0.6022946139290924,-0.45679620841323043,-1.6223944992608836,-6.172001838684082,7.964140892028809,10.46056079864502,-0.36346256732940674,-0.5665348172187805,-0.739549458026886,-1.5746172666549683,2.7688815593719482,-4.221357345581055
0.5173165589298704,-0.4225261454032482,-1.5462108282349882,-3.647007703781128,6.897279739379883,8.463434219360352,-0.35640841722488403,-0.49454960227012634,-0.792712926864624,-1.9708316326141357,2.320751905441284,-4.476711273193359
0.4693784908401201,-0.39310929451003696,-1.480224752497593,-0.4780143201351166,5.169422626495361,6.005305767059326,-0.34163403511047363,-0.452332079410553,-0.8238215446472168,-2.491419553756714,1.9184880256652832,-4.633789539337158
0.46351969947163746,-0.3761236512435052,-1.4274573866897078,2.931689977645874,2.917187213897705,3.176985263824463,-0.32856011390686035,-0.4470991790294647,-0.8319559097290039,-2.9484479427337646,1.61166512966156,-4.464308738708496
0.4992408560659694,-0.375798335610568,-1.3913668340615237,6.003042697906494,0.4549693465232849,0.17679059505462646,-0.32221969962120056,-0.47875919938087463,-0.8166787624359131,-3.2336885929107666,1.6125482320785522,-3.8012259006500244
0.5703110875484262,-0.39316564665115794,-1.3738221395775931,8.219695091247559,-2.1755871772766113,-2.646557569503784,-0.32248011231422424,-0.5398939251899719,-0.7775096297264099,-3.1664419174194336,1.8138806819915771,-2.839876174926758
0.6673488970462523,-0.4275465752657373,-1.373457466447816,9.545036315917969,-4.627521514892578,-4.963131904602051,-0.32568490505218506,-0.6189058423042297,-0.7147622108459473,-2.7100815773010254,2.0613954067230225,-1.9160056114196777
0.7818835497652168,-0.4747434902341389,-1.3864792431630002,10.199115753173828,-6.49062442779541,-6.72388219833374,-0.32435983419418335,-0.7046172022819519,-0.6311143636703491,-2.0573997497558594,2.26005220413208,-1.3133894205093384
0.907572091388645,-0.5290650966767524,-1.4091457722035137,10.39349365234375,-7.720817565917969,-7.966409683227539,-0.3107403516769409,-0.7880113124847412,-0.5314872860908508,-1.445393681526184,2.385087490081787,-1.0136481523513794
1.039441663311349,-0.585582867079737,-1.4383805185177836,10.266389846801758,-8.381631851196289,-8.763246536254883,-0.28004664182662964,-0.8621214628219604,-0.42228034138679504,-0.9824350476264954,2.4039762020111084,-0.9091100096702576
1.1741741414441254,-0.638339973270264,-1.4741484429973202,9.984938621520996,-8.541691780090332,-9.370996475219727,-0.23018501698970795,-0.9223711490631104,-0.3102363049983978,-0.7210783958435059,2.3249893188476562,-0.9035698175430298
1.3108560863122352,-0.6738681344856869,-1.525231127519442,9.708338737487793,-8.227470397949219,-9.962913513183594,-0.1603860855102539,-0.9664053320884705,-0.20084170997142792,-0.6450338363647461,2.2118122577667236,-0.9414921998977661
1.4494123086476915,-0.6329223538811178,-1.647226813864331,9.476761817932129,-7.599778652191162,-10.588720321655273,-0.07162384688854218,-0.9926419854164124,-0.09763335436582565,-0.6640176177024841,2.15006685256958,-0.965080201625824
1.5371142784083587,1.4803610624169952,2.448297726530554,9.217965126037598,-6.9923200607299805,-11.281039237976074,0.033543940633535385,-0.9994328022003174,-0.0030418522655963898,-0.7021535634994507,2.1535463333129883,-0.8992865681648254
1.3978626025616296,2.05942474077145,1.7993911125087745,8.94067096710205,-6.6820478439331055,-12.073741912841797,0.1519370973110199,-0.9850841760635376,0.08077395707368851,-0.76633220911026,2.1948161125183105,-0.7860503196716309
1.245803291341614,2.065539560180625,1.724556003240306,8.703764915466309,-6.705564975738525,-13.067138671875,0.2810150980949402,-0.9476529359817505,0.15160661935806274,-0.8363891839981079,2.303152084350586,-0.678370475769043
1.0855420126250326,2.028338551579151,1.6901088738552357,8.432759284973145,-7.168419361114502,-14.245388984680176,0.41845664381980896,-0.8845563530921936,0.20604445040225983,-0.9185328483581543,2.5352368354797363,-0.5633136034011841
0.9167066753737326,1.972628713657297,1.6660440840591757,8.023310661315918,-8.095702171325684,-15.410235404968262,0.5599727034568787,-0.7936021685600281,0.23796311020851135,-1.0067957639694214,2.8631057739257812,-0.47343671321868896
0.7411228358217975,1.9032472734757322,1.643411065286789,7.473220348358154,-9.117341995239258,-16.295196533203125,0.6973182559013367,-0.6751166582107544,0.24076005816459656,-0.9899816513061523,3.3315649032592773,-0.42795464396476746
0.563620987736411,1.8242383334331045,1.6181460492936053,6.628532886505127,-9.693269729614258,-16.480224609375,0.8183223009109497,-0.5342506170272827,0.2119549661874771,-0.6671687960624695,3.7484841346740723,-0.44713857769966125
0.39550597702400664,1.7426590117973244,1.5910508384244548,5.095101356506348,-8.918976783752441,-15.455731391906738,0.9092069864273071,-0.3852751553058624,0.1578156054019928,-0.007748246192932129,4.056204319000244,-0.42836904525756836
0.2477667630236364,1.6728204008117005,1.570065188868795,2.8855485916137695,-6.271581649780273,-13.153322219848633,0.9644215106964111,-0.2452395260334015,0.09873703122138977,1.3767039775848389,4.113632678985596,-0.28014862537384033
0.13375156615232583,1.6264381788071667,1.5577285369624267,1.4370781183242798,-3.562134027481079,-9.325212478637695,0.9895349740982056,-0.133353129029274,0.0551164485514164,3.583219051361084,3.465277671813965,-0.22944796085357666
0.06239807253016606,1.6042983781986193,1.5515572605298469,0.4109596312046051,-0.9750609993934631,-4.954484939575195,0.997494101524353,-0.0623575896024704,0.03343060612678528,5.140048980712891,2.642847776412964,-0.48441922664642334
0.0323104140804203,1.6085963847674714,1.5544496747877623,-0.8079481720924377,1.83497953414917,-1.2520374059677124,0.9987642168998718,-0.0323047935962677,0.03777133673429489,5.5240631103515625,2.240846633911133,-0.34015464782714844
0.032961041413643866,1.6371981254723582,1.5678842069688264,-1.841971516609192,3.818776845932007,1.0466744899749756,0.9972544312477112,-0.032955072820186615,0.06631698459386826,4.684905052185059,2.139720916748047,-0.07199322432279587
0.05044922313183929,1.6785427247038773,1.5880409002972844,-2.431243419647217,4.474794864654541,1.9524892568588257,0.9929360747337341,-0.05042782425880432,0.10740122944116592,3.304701805114746,2.103604793548584,-0.04485537111759186
0.07425084532129018,1.7198451668300723,1.61033569277204,-2.5279204845428467,3.939091444015503,2.177259683609009,0.9861880540847778,-0.07418263703584671,0.14808842539787292,2.3915891647338867,2.0244696140289307,-0.11837948858737946
0.10060022742994293,1.7508195642524802,1.629158893942351,-1.9642062187194824,2.5155208110809326,2.441664695739746,0.9788654446601868,-0.10043063014745712,0.17814718186855316,2.147324800491333,1.9113284349441528,-0.3085334300994873
0.129629647091075,1.7656305196545254,1.6384174072826965,-0.9121868014335632,0.6332723498344421,2.95961856842041,0.9728483557701111,-0.1292669028043747,0.19197949767112732,2.1803956031799316,1.8242436647415161,-0.5451593399047852
0.16287825425784588,1.7627663799673947,1.63564842601112,0.14170299470424652,-1.2656365633010864,3.712761163711548,0.9686380624771118,-0.1621590405702591,0.18826791644096375,2.2223258018493652,1.7229806184768677,-0.5919543504714966
0.2027054026094195,1.7452601295127166,1.622367179437129,0.9342319965362549,-2.6235992908477783,4.6201629638671875,0.9646562337875366,-0.201320081949234,0.17002616822719574,2.181248426437378,1.6596788167953491,-0.4365665912628174
0.25096420059397595,1.721038122716783,1.6022162007273062,1.3365813493728638,-3.0176191329956055,5.57080602645874,0.9577614068984985,-0.24833807349205017,0.14498835802078247,1.992159366607666,1.6342480182647705,-0.22177040576934814
0.3090381279741433,1.6992149390146178,1.5796136583498677,1.3165209293365479,-2.517029285430908,6.567657470703125,0.9447824358940125,-0.30414247512817383,0.12199903279542923,1.7262992858886719,1.6456952095031738,0.013575315475463867
0.3775623421240166,1.6856696843121939,1.5586788454013956,0.9002235531806946,-1.57624089717865,7.530392646789551,0.9234396815299988,-0.36865559220314026,0.10654769837856293,1.4693673849105835,1.6757997274398804,0.26976466178894043
0.4559390028744803,1.6815241673030672,1.5431023974507405,0.15756091475486755,-0.5035413503646851,8.39521598815918,0.8923498392105103,-0.44030559062957764,0.09921377897262573,1.1685787439346313,1.6955392360687256,0.5227193832397461
0.5434820215288901,1.6858535244924229,1.5350343665279522,-0.7258554100990295,0.608922004699707,9.186196327209473,0.8502543568611145,-0.5171194076538086,0.09826187044382095,0.88836270570755,1.743483543395996,0.6665393114089966
0.639490577280538,1.6968642302553,1.535587907656575,-1.6703686714172363,1.65721595287323,9.906661033630371,0.7960323691368103,-0.5967867374420166,0.1008891761302948,0.5952947735786438,1.887741208076477,0.7098561525344849
0.7436408818172198,1.7115096086773807,1.5455499174370118,-2.6236519813537598,2.5308704376220703,10.565014839172363,0.7287342548370361,-0.6769720911979675,0.10322477668523788,0.36295586824417114,2.015259265899658,0.712128758430481
0.8551783172751434,1.7246367460122416,1.5670477043574595,-3.635777235031128,3.181689977645874,11.094331741333008,0.648335874080658,-0.7546879053115845,0.10053463280200958,0.11493939161300659,2.1473422050476074,0.6971796751022339
0.9731274255247581,1.728445269841672,1.6063557613109913,-4.803552627563477,3.8609187602996826,11.493047714233398,0.5557392239570618,-0.8266496062278748,0.08834480494260788,-0.12185543775558472,2.2547194957733154,0.6613653898239136
1.0962395300003567,1.708749871373477,1.6784598388332472,-6.137475490570068,4.649389743804932,11.811444282531738,0.45260342955589294,-0.889495313167572,0.0628373771905899,-0.2556886374950409,2.362746477127075,0.5947097539901733
1.2223300320690742,1.631153445273708,1.8179591294179178,-7.4651923179626465,5.498472690582275,12.1863431930542,0.3408353328704834,-0.9398975372314453,0.020596856251358986,-0.3179623782634735,2.524538040161133,0.4153010845184326
1.3425583711754066,1.3939881258101336,2.1268874141695866,-8.643221855163574,6.478122234344482,12.628673553466797,0.2227347493171692,-0.9740666151046753,-0.039796896278858185,-0.2893698215484619,2.7476871013641357,0.08752650022506714
1.4141742504081858,0.7116352864596769,2.8912342763697616,-9.589600563049316,7.438194274902344,13.139909744262695,0.10186868160963058,-0.9877598285675049,-0.11812558770179749,-0.2107096016407013,2.9741029739379883,-0.29631829261779785
1.3557008217530218,-0.08010025826743264,-2.5088467834484893,-10.304269790649414,8.205465316772461,13.71593189239502,-0.017078423872590065,-0.9769560098648071,-0.2127569019794464,-0.134731262922287,3.2528653144836426,-0.6736413240432739
1.2182028147433364,-0.3831899138689739,-2.1063504586734285,-10.817834854125977,8.66341495513916,14.368014335632324,-0.12911345064640045,-0.9384802579879761,-0.32028838992118835,-0.09505341947078705,3.595721960067749,-1.0398495197296143
1.0566115818848316,-0.4822922550753599,-1.900853820166537,-11.178515434265137,8.958643913269043,14.794421195983887,-0.2281140387058258,-0.8706939816474915,-0.43572473526000977,-0.2632647156715393,4.017453193664551,-1.4230092763900757
0.8875916471043586,-0.5030722354222232,-1.7653225124974437,-11.329296112060547,9.382084846496582,14.629408836364746,-0.30435314774513245,-0.7755536437034607,-0.5530693531036377,-0.5913072228431702,4.324427604675293,-1.8973701000213623
0.721427497184407,-0.48230201851000193,-1.6612349534346207,-11.049359321594238,9.815251350402832,13.813794136047363,-0.34826549887657166,-0.660457193851471,-0.6652123928070068,-0.9526225924491882,4.238032817840576,-2.586069345474243
0.5685272451692047,-0.4355411608450716,-1.5726707688210662,-9.985800743103027,10.199316024780273,12.448246002197266,-0.3555338978767395,-0.5383915305137634,-0.7640224695205688,-1.2918050289154053,3.793030261993408,-3.5366673469543457
0.4403301567295513,-0.37269215291738145,-1.4914414721883407,-7.851487159729004,10.12770938873291,10.781845092773438,-0.32939064502716064,-0.42623814940452576,-0.8425098657608032,-1.4990547895431519,3.213423728942871,-4.546558856964111
0.3488813757258957,-0.30598746389155346,-1.4137343986280886,-4.4834489822387695,9.045242309570312,8.87533187866211,-0.28308722376823425,-0.3418467938899994,-0.8961040377616882,-1.5939726829528809,2.5537149906158447,-5.400786399841309
0.3044438650335696,-0.24870039359905602,-1.3426213489906362,-0.3411608636379242,6.832050800323486,6.52683687210083,-0.23482529819011688,-0.29976266622543335,-0.9246618151664734,-1.8341139554977417,1.9830816984176636,-5.695333480834961
0.30913044613375645,-0.2125929704163742,-1.2855534698326987,3.684213638305664,3.7544381618499756,3.9017279148101807,-0.20099370181560516,-0.3042304217815399,-0.9311527013778687,-2.1422832012176514,1.7014472484588623,-5.113631725311279
0.3560240438052545,-0.2044241711298079,-1.247125041108178,6.8798909187316895,0.36646947264671326,1.32234787940979,-0.19027301669120789,-0.34855037927627563,-0.9177738428115845,-2.2559854984283447,1.7903685569763184,-3.884228229522705
0.43381261777955116,-0.22408320999770298,-1.2277024593455224,8.986369132995605,-2.7779510021209717,-1.073986530303955,-0.20162899792194366,-0.42033329606056213,-0.8846839666366577,-2.1081855297088623,2.0337517261505127,-2.5255637168884277
0.5321817940895505,-0.266372853868698,-1.224983274430084,10.151878356933594,-5.3888397216796875,-3.173739433288574,-0.22682924568653107,-0.5074145793914795,-0.8313115835189819,-1.8120195865631104,2.2439563274383545,-1.490725040435791
0.6433705174475283,-0.3246843459151587,-1.2351894969269543,10.604174613952637,-7.3630452156066895,-4.873826503753662,-0.25523272156715393,-0.5998955368995667,-0.7582754492759705,-1.390778660774231,2.3241844177246094,-0.8845772743225098
0.7620356764021163,-0.3932336944775926,-1.2544556320668263,10.60215950012207,-8.831089973449707,-6.1860551834106445,-0.2772027552127838,-0.6903955340385437,-0.6682159900665283,-0.9536627531051636,2.3257102966308594,-0.6249815821647644
0.8859067364452184,-0.46839932472979917,-1.2793750919134594,10.560806274414062,-9.816384315490723,-7.233432769775391,-0.2855871319770813,-0.7744888663291931,-0.5644528865814209,-0.6687281131744385,2.316267490386963,-0.6858216524124146
1.0155039954282385,-0.5466091104590841,-1.3062041947668255,10.627662658691406,-10.149876594543457,-8.119139671325684,-0.2740309238433838,-0.8497463464736938,-0.45037591457366943,-0.5306107997894287,2.2555384635925293,-0.9845758676528931
1.1513129662909665,-0.6237805771281281,-1.3324466749892563,10.693033218383789,-9.88959789276123,-8.99034309387207,-0.23790059983730316,-0.9132995009422302,-0.3305865228176117,-0.48942482471466064,2.2131195068359375,-1.2512158155441284
1.2934853561247057,-0.69479305473388,-1.3584550564978004,10.71745777130127,-9.197968482971191,-9.895476341247559,-0.17527499794960022,-0.9617950916290283,-0.2103065699338913,-0.5138729214668274,2.2204315662384033,-1.3757987022399902
1.4419196080647136,-0.7482457459994658,-1.3932540814334569,10.662885665893555,-8.365548133850098,-10.826909065246582,-0.08744025230407715,-0.991706907749176,-0.09419141709804535,-0.5809557437896729,2.237739324569702,-1.352692723274231
1.5447286328331593,2.1423404641803625,1.918304367136834,10.527782440185547,-7.859557628631592,-11.805325508117676,0.021928394213318825,-0.9996602535247803,0.014103230088949203,-0.6691604256629944,2.306148052215576,-1.2310373783111572
1.3836952159071039,2.210558571996578,1.7715303408880279,10.376655578613281,-7.86883020401001,-12.902189254760742,0.14922653138637543,-0.9825475811958313,0.111050546169281,-0.7381241917610168,2.4545626640319824,-1.0688751935958862
1.2141782158706391,2.1537690708504456,1.7458122410041552,10.269694328308105,-8.576284408569336,-14.143030166625977,0.29144540429115295,-0.937082827091217,0.19218654930591583,-0.7929712533950806,2.7010750770568848,-0.9287129640579224
1.0351407759083862,2.082282840695981,1.7227751630114956,10.105640411376953,-9.976184844970703,-15.457347869873047,0.44508233666419983,-0.8599342107772827,0.24983003735542297,-0.8572069406509399,3.0484259128570557,-0.8077675104141235
0.847759397383253,1.9954110750166936,1.695777854655519,9.670492172241211,-11.821036338806152,-16.55766487121582,0.6029074788093567,-0.7497997879981995,0.2725859582424164,-0.8468344211578369,3.4948253631591797,-0.7044706344604492
0.6576953343498759,1.8915907531075917,1.6626225106380328,8.67483139038086,-13.417280197143555,-17.059131622314453,0.7510302066802979,-0.6112945675849915,0.24954579770565033,-0.567298948764801,3.949780225753784,-0.6251102685928345
0.47570386196629255,1.7743642687360088,1.625246556668819,6.80424165725708,-13.845486640930176,-16.357666015625,0.870614767074585,-0.4579642713069916,0.17971864342689514,0.01587510108947754,4.2481560707092285,-0.5280919075012207
0.3176065046087764,1.6587887877357999,1.5913802026824904,3.9219517707824707,-11.56796646118164,-14.18504810333252,0.9463104605674744,-0.31229367852211,0.0834837555885315,1.139779806137085,4.241187572479248,-0.3969907760620117
0.19180819586774697,1.5720546147056083,1.571926677857413,1.0605677366256714,-6.664023399353027,-10.747414588928223,0.9816604256629944,-0.19063423573970795,0.0012352120829746127,2.831434726715088,3.6963562965393066,-0.29182350635528564
0.10653204946928971,1.53422029289243,1.5688583456649057,-0.6463302373886108,-1.0438346862792969,-6.31148624420166,0.993665874004364,-0.10633065551519394,-0.03636057302355766,4.57512092590332,2.8321759700775146,-0.5741739869117737
0.06509983258816956,1.5476693258060146,1.5787763585900307,-1.555545449256897,3.648879051208496,-2.035982370376587,0.9976150989532471,-0.06505385786294937,-0.023075958713889122,5.559330940246582,2.351613998413086,-0.9388533234596252
0.0604875895663035,1.5957620011028302,1.5970870514320308,-2.0830066204071045,5.889475345611572,0.8866129517555237,0.9978602528572083,-0.060450710356235504,0.02491743117570877,5.190952301025391,2.1511337757110596,-0.7971189022064209
0.07817952070120321,1.654459465542112,1.6179796544582545,-2.2488090991973877,5.949234485626221,2.268714666366577,0.9934586882591248,-0.07809990644454956,0.0833103358745575,3.825190782546997,2.0993707180023193,-0.5717288255691528
0.10570905420042997,1.7068439931926447,1.6365861641090278,-1.9860059022903442,4.7967939376831055,2.72942852973938,0.9852294921875,-0.10551229119300842,0.13487131893634796,2.6715545654296875,1.985517144203186,-0.4931628704071045
0.1357345367011771,1.7451412605859284,1.6483414158590404,-1.202600121498108,3.112025260925293,2.8425040245056152,0.9757820963859558,-0.13531813025474548,0.17186757922172546,2.0786614418029785,1.8285859823226929,-0.5700608491897583
0.1656168685351452,1.7659439160437114,1.6493636993167504,-0.08529145270586014,1.0335171222686768,3.03655743598938,0.967595636844635,-0.1648607850074768,0.1912580132484436,1.9010109901428223,1.6971484422683716,-0.6536297798156738
0.19639232481884808,1.7671132907830918,1.6381996980045315,1.009540319442749,-1.1787179708480835,3.470062255859375,0.9619380831718445,-0.1951322853565216,0.19130881130695343,1.9054784774780273,1.6102323532104492,-0.5616090297698975
0.23076443221805967,1.7514504945128635,1.6170877617146262,1.6931558847427368,-2.730872869491577,4.0947265625,0.9576496481895447,-0.2287217527627945,0.17491033673286438,1.891563057899475,1.5372239351272583,-0.299086332321167
0.27202282251679955,1.728021942536038,1.591001754656404,1.8559215068817139,-3.117201089859009,4.937929153442383,0.951348602771759,-0.2686804234981537,0.15082117915153503,1.8565280437469482,1.525623083114624,0.01908552646636963
0.32317347893789933,1.707050193990109,1.564590477531209,1.6165745258331299,-2.536990165710449,5.958033084869385,0.9394441843032837,-0.3175773620605469,0.12880095839500427,1.8080077171325684,1.5543937683105469,0.2613205909729004
0.3856326712340616,1.6955420013033113,1.5415778681657017,1.0215636491775513,-1.299635887145996,7.013958930969238,0.919360876083374,-0.3761454224586487,0.11528491228818893,1.676159381866455,1.5696420669555664,0.4432021379470825
0.4591820984688351,1.6970201715396362,1.5244067565120067,0.25663936138153076,0.19497211277484894,7.991917610168457,0.8892837762832642,-0.4432150721549988,0.11284878104925156,1.4410384893417358,1.609673261642456,0.5626732110977173
0.5427149011092488,1.7114454281903322,1.5132728341567085,-0.52574223279953,1.6025357246398926,8.847792625427246,0.8478538990020752,-0.5164626836776733,0.12004250288009644,1.1390082836151123,1.6826308965682983,0.5915359258651733
0.6352635863519176,1.7361759628048237,1.5072438032673348,-1.2994331121444702,2.6290552616119385,9.628497123718262,0.7939331531524658,-0.5933896899223328,0.13251066207885742,0.8687408566474915,1.7710171937942505,0.5996519327163696
0.7363101262948775,1.766461696044976,1.50544714514838,-2.062001943588257,3.1531920433044434,10.335770606994629,0.7268133759498596,-0.6715584993362427,0.1440553069114685,0.6126337647438049,1.8816413879394531,0.6256438493728638
0.8452334902244619,1.7974675558735498,1.5080524520631415,-2.8890042304992676,3.4411280155181885,10.912236213684082,0.6465829610824585,-0.7481260895729065,0.14912454783916473,0.3111807703971863,2.0028562545776367,0.6579281091690063
0.9610670737835948,1.8259626374908395,1.518201375549806,-3.8910505771636963,3.914473533630371,11.315679550170898,0.5541043281555176,-0.8198031187057495,0.14453943073749542,0.017886698246002197,2.0811402797698975,0.6540752649307251
1.0830607077777712,1.8477992894968425,1.5425758978696287,-4.991312026977539,4.677150726318359,11.595413208007812,0.4507628083229065,-0.8833962678909302,0.12815739214420319,-0.20451641082763672,2.1381874084472656,0.5384992361068726
1.2106780573487945,1.8531935369338428,1.592901947915893,-6.030125617980957,5.623602867126465,11.84244155883789,0.3384275734424591,-0.9358551502227783,0.09819528460502625,-0.35051247477531433,2.219851493835449,0.2959851026535034
1.342704548061719,1.8094645749876002,1.701810783873229,-6.852956295013428,6.531606674194336,12.059706687927246,0.21971005201339722,-0.9740996360778809,0.05345670133829117,-0.41613638401031494,2.320199489593506,-0.08078515529632568
1.4718604647006261,1.5098515421820073,2.07447359972436,-7.420702934265137,7.234543800354004,12.211121559143066,0.09859146177768707,-0.9951098561286926,-0.006016085855662823,-0.42969194054603577,2.423088312149048,-0.49514347314834595
1.4893910848106804,-0.2519738858699503,-2.369120962095114,-7.726757049560547,7.479430675506592,12.271326065063477,-0.02027319185435772,-0.9966884255409241,-0.07874748855829239,-0.47745323181152344,2.547149181365967,-0.862689197063446
1.3611388711316674,-0.6879930909652401,-1.8558784726716195,-7.732693195343018,7.0438127517700195,12.12436294555664,-0.1321568489074707,-0.9781022667884827,-0.16078107059001923,-0.6763758659362793,2.675978183746338,-1.2005012035369873
1.2252904929941335,-0.7589249207523687,-1.7140422588399895,-7.437358379364014,6.114623069763184,11.639434814453125,-0.23305517435073853,-0.9409042596817017,-0.24573323130607605,-1.0728988647460938,2.712876796722412,-1.520425796508789
1.096513384911973,-0.773753054869157,-1.636801497679839,-6.842859268188477,5.091159343719482,10.61430835723877,-0.31915387511253357,-0.8896204233169556,-0.3266749680042267,-1.533064842224121,2.507235050201416,-1.8501439094543457
0.9824461596428803,-0.773208056546544,-1.5870896125563905,-5.942348957061768,3.552441120147705,8.865082740783691,-0.3876238465309143,-0.831857442855835,-0.3971913158893585,-2.3086042404174805,2.3349549770355225,-2.148493528366089
0.8917188294986553,-0.7703100265284994,-1.5563024820399827,-4.455528259277344,2.0751326084136963,6.340445518493652,-0.43736526370048523,-0.7781524658203125,-0.45076653361320496,-3.2855961322784424,1.8988189697265625,-2.587578773498535
0.8338295615342176,-0.766939237737292,-1.5393764710024778,-2.291597366333008,1.2446426153182983,3.2677996158599854,-0.4663553237915039,-0.7405104041099548,-0.48389795422554016,-4.046126365661621,1.3206037282943726,-3.1732523441314697
0.8144355082151948,-0.7628955153266835,-1.5325720473676152,0.14588342607021332,0.5350910425186157,0.12131267040967941,-0.4742308259010315,-0.7273383140563965,-0.4960688352584839,-4.503079414367676,1.013150691986084,-3.621438980102539
0.8331438646507259,-0.7623933379303945,-1.532764177138523,2.516493082046509,-0.507912814617157,-2.675769567489624,-0.46450135111808777,-0.740049421787262,-0.48638007044792175,-4.46225643157959,1.0037670135498047,-3.654733180999756
