attitudeX,attitudeY,attitudeZ,gyroX,gyroY,gyroZ,gravityX,gravityY,gravityZ,accX,accY,accZ
0.6306586758966654,0.227860084846089,0.4385385484640014,-0.23941607773303986,0.7513015270233154,-0.3002880811691284,0.18244042992591858,-0.5896768569946289,-0.7867634892463684,-0.018118321895599365,-0.04232698678970337,-0.037806153297424316
0.627104871272638,0.237080840964999,0.4355773206735845,-0.34484022855758667,0.7390671968460083,-0.3315195143222809,0.19017811119556427,-0.5868029594421387,-0.7870798110961914,-0.02893829345703125,-0.047169268131256104,0.002671360969543457
0.622655557145957,0.24608727343103778,0.43242973351992176,-0.39054274559020996,0.6826702356338501,-0.3795301914215088,0.1978931576013565,-0.5831944346427917,-0.7878594994544983,-0.037141650915145874,-0.04832112789154053,0.014300048351287842
0.6178573890222773,0.2544611947674896,0.4287858128269392,-0.38898611068725586,0.5848896503448486,-0.4343857169151306,0.2051856517791748,-0.5792900323867798,-0.7888739109039307,-0.038956210017204285,-0.051142215728759766,-0.0041405558586120605
0.6129585557114154,0.26303460711685445,0.42455378306836966,-0.3855281472206116,0.6600627303123474,-0.4833660125732422,0.21267670392990112,-0.5752899050712585,-0.7898165583610535,-0.0382990837097168,-0.07661139965057373,-0.06131863594055176
0.6077133455835172,0.27281544231740407,0.41976167520398433,-0.42399299144744873,0.7306053042411804,-0.5594080686569214,0.22120147943496704,-0.5709916949272156,-0.7905937433242798,-0.03826366364955902,-0.1142348051071167,-0.10491400957107544
0.6017773684430289,0.28313215764434274,0.4141269700730541,-0.4618659019470215,0.6881867051124573,-0.6592974066734314,0.23028872907161713,-0.5661085247993469,-0.7915101647377014,-0.0824766606092453,-0.09352898597717285,-0.09906899929046631
0.5953771854277612,0.2934860499138824,0.40771502502888285,-0.46328723430633545,0.6758205890655518,-0.7148813009262085,0.23951470851898193,-0.5608210563659668,-0.7925354838371277,-0.09933203458786011,-0.04814201593399048,-0.11022019386291504
0.5888686023940997,0.3041484457840092,0.40109036936791154,-0.46169939637184143,0.7157949805259705,-0.7163469195365906,0.2490391582250595,-0.5554205179214478,-0.7934025526046753,-0.038421884179115295,-0.04341071844100952,-0.12026315927505493
0.5822204110943355,0.31507537284316867,0.3949225442758499,-0.5036532282829285,0.8190257549285889,-0.6610404849052429,0.2588321268558502,-0.5498798489570618,-0.7941272258758545,-0.0011262595653533936,-0.04585385322570801,-0.10168564319610596
0.575084493716667,0.3269641776154771,0.39018290619119744,-0.6081550121307373,1.0311018228530884,-0.5443450808525085,0.2695082426071167,-0.5439056754112244,-0.7946898341178894,0.026039421558380127,-0.05501711368560791,-0.06415098905563354
0.567105636683854,0.3391656948855775,0.3871984748507142,-0.7379470467567444,1.0687397718429565,-0.4643099308013916,0.2806192934513092,-0.5371930003166199,-0.795409619808197,0.05360940098762512,-0.0946124792098999,-0.016296803951263428
0.558110140282756,0.35063498198855036,0.38515598418107994,-0.8313894271850586,1.0080456733703613,-0.48209986090660095,0.29137155413627625,-0.5295840501785278,-0.7966451048851013,0.01603218913078308,-0.10844701528549194,-0.015671730041503906
0.548425250396519,0.36198638442152653,0.3828729661935713,-0.8437371850013733,1.0507944822311401,-0.5612413287162781,0.3021978437900543,-0.5213440656661987,-0.7980456352233887,-0.05685156583786011,-0.09074705839157104,-0.08287465572357178
0.5387189945040127,0.37516848203172115,0.37992579830682804,-0.7779999375343323,1.3026723861694336,-0.604953408241272,0.3145306706428528,-0.513036847114563,-0.7986636757850647,-0.12503159046173096,-0.05892366170883179,-0.16486769914627075
0.5298486846228205,0.39135791827345073,0.37650026424905736,-0.6420538425445557,1.5794386863708496,-0.5998116731643677,0.3291417956352234,-0.5054028034210205,-0.7976426482200623,-0.13311192393302917,-0.03420907258987427,-0.21210765838623047
0.5225012998122802,0.4096834279270272,0.37282171196695013,-0.4639885425567627,1.7036234140396118,-0.5601596236228943,0.3451727330684662,-0.49904924631118774,-0.7948620915412903,-0.10916483402252197,-0.04478931427001953,-0.23220694065093994
0.5168417387173648,0.4285916834007665,0.36879858056475967,-0.28865188360214233,1.6597206592559814,-0.5463535189628601,0.36130762100219727,-0.49413686990737915,-0.7907500267028809,-0.10595157742500305,-0.047550201416015625,-0.2096923589706421
0.5125063638086554,0.4464685285666643,0.3640553601132292,-0.15797355771064758,1.4610936641693115,-0.5776510238647461,0.3763067126274109,-0.49036312103271484,-0.7860899567604065,-0.10625648498535156,-0.04772287607192993,-0.17625129222869873
0.5085299777809595,0.4626103908252932,0.3581727004395724,-0.11678802967071533,1.1590659618377686,-0.7142032980918884,0.38981321454048157,-0.48689377307891846,-0.7816522717475891,-0.10285624861717224,-0.04276937246322632,-0.09848988056182861
0.5037260043153786,0.47583425894934994,0.35021709395760103,-0.11103474348783493,0.7350497841835022,-0.9714922904968262,0.4011821150779724,-0.48269209265708923,-0.77849942445755,-0.1328713595867157,-0.020802229642868042,-0.0036965608596801758
0.49787454991775276,0.4869108468197039,0.3395835270407371,-0.047351107001304626,0.4714740514755249,-1.2157697677612305,0.41109499335289,-0.4775592088699341,-0.7764909863471985,-0.2214127779006958,-0.030009210109710693,0.03024470806121826
0.49201690906615675,0.4965350712712698,0.326351522941394,0.12202048301696777,0.1796317994594574,-1.3905037641525269,0.4198743999004364,-0.47240450978279114,-0.7749449014663696,-0.2496929168701172,-0.06995391845703125,-0.029788315296173096
0.4867759294747182,0.503366087970622,0.3105198437664527,0.2953336834907532,-0.3295837640762329,-1.5717920064926147,0.42634668946266174,-0.467778742313385,-0.7742168307304382,-0.22464054822921753,-0.05816122889518738,-0.04653805494308472
0.48187852130348685,0.5055602599720841,0.2920589168451263,0.41870859265327454,-0.9250913858413696,-1.7678176164627075,0.42914873361587524,-0.4634445905685425,-0.7752744555473328,-0.20778930187225342,-0.01137840747833252,-0.025994956493377686
0.4767185183865253,0.5043387164301679,0.27199349482439683,0.3793169856071472,-1.1202555894851685,-1.809457778930664,0.429351270198822,-0.45886602997779846,-0.7778814435005188,-0.1579277515411377,-0.018947720527648926,-0.039699673652648926
0.4713302275884758,0.5014853371559855,0.25428843841713417,0.18535400927066803,-1.0716700553894043,-1.4313948154449463,0.4283123016357422,-0.45407187938690186,-0.781260073184967,-0.012159198522567749,-0.07546913623809814,0.04036968946456909
0.46610760364498827,0.4958268488074282,0.24188412326572975,-0.03843354061245918,-1.221490502357483,-1.0506861209869385,0.4250071942806244,-0.4494125247001648,-0.7857463359832764,0.3833121061325073,-0.1877335011959076,0.12656676769256592
0.4609785581084684,0.48630687545721063,0.23254496382792336,-0.03131896257400513,-1.5209910869598389,-0.9300121665000916,0.4185795783996582,-0.4448247253894806,-0.7917841672897339,0.4976040720939636,-0.2045893371105194,0.09522056579589844
0.45784926590168556,0.47417558248313413,0.22306894812913788,0.29065588116645813,-1.722198247909546,-0.8664470314979553,0.40957722067832947,-0.44201990962028503,-0.7980381846427917,0.24575743079185486,-0.10252052545547485,-0.0570337176322937
0.4586289971537158,0.4623348927372564,0.2124143185889647,0.7067088484764099,-1.5872999429702759,-0.7668269872665405,0.39994555711746216,-0.4427191913127899,-0.802523136138916,0.06370821595191956,-0.04931575059890747,-0.2365393042564392
0.46338075679364443,0.4490105980914046,0.20176078241567877,0.969261109828949,-2.1469027996063232,-0.5103052258491516,0.38829976320266724,-0.44697490334510803,-0.8058764338493347,0.00760495662689209,-0.031220316886901855,-0.3520519733428955
0.4714763672836313,0.42786527306482813,0.19257324348252075,1.2113391160964966,-2.881089925765991,-0.3180118203163147,0.3696601390838623,-0.4542020857334137,-0.8105874061584473,0.04699656367301941,0.08150613307952881,-0.22707122564315796
0.4825025827453891,0.40034156009746447,0.18292566079341285,1.493890643119812,-3.5458786487579346,-0.3996387720108032,0.34523966908454895,-0.4639975130558014,-0.8157916069030762,0.06766337156295776,0.023232102394104004,-0.19577449560165405
0.495276528488575,0.36729075947189466,0.17062666292783588,1.6837050914764404,-4.19828987121582,-0.6675169467926025,0.3159392178058624,-0.4752749800682068,-0.8211553692817688,0.011194169521331787,-0.1246090829372406,-0.2757836580276489
0.5092347903879105,0.3312142236991428,0.15535252920628886,1.8591601848602295,-4.4402055740356445,-0.8750919699668884,0.2839304804801941,-0.48750928044319153,-0.8256623148918152,-0.061975955963134766,-0.12784719467163086,-0.18750596046447754
0.5248047511014324,0.29503463582509015,0.13898904886334387,1.9742426872253418,-4.419778823852539,-0.8444359302520752,0.25164127349853516,-0.5010440349578857,-0.8280287384986877,-0.07447132468223572,-0.14014548063278198,-0.22507178783416748
0.5419660096059118,0.2590366562633325,0.12407662784285105,2.034670829772949,-4.288519382476807,-0.6886404752731323,0.21944229304790497,-0.5158212780952454,-0.8281144499778748,0.04831913113594055,-0.22586274147033691,-0.30453014373779297
0.560667764213948,0.22455805476801624,0.11107687005539107,2.1472184658050537,-3.9474222660064697,-0.5776492357254028,0.18858395516872406,-0.5317518711090088,-0.8256367444992065,0.18826253712177277,-0.288408100605011,-0.4004374146461487
0.5813646606065095,0.1940817492015306,0.09927943902441021,2.3359384536743164,-3.4346749782562256,-0.5152915716171265,0.1611804962158203,-0.549164891242981,-0.8200236558914185,0.17761056125164032,-0.24018752574920654,-0.5105884671211243
0.6048534133783534,0.16813614961939355,0.08781790079667946,2.6471967697143555,-3.0595381259918213,-0.5244266390800476,0.13765563070774078,-0.5686414837837219,-0.8109856843948364,0.07628802955150604,-0.15242785215377808,-0.5734289884567261
0.6314272257824428,0.14742637958828897,0.07542212039547547,2.92106294631958,-2.493731737136841,-0.6548876762390137,0.11856989562511444,-0.5902974009513855,-0.7984299063682556,-0.048898085951805115,-0.12616384029388428,-0.6372390389442444
0.6610435415865175,0.1339338010863402,0.06065172410267266,3.294132947921753,-2.0345001220703125,-0.8589720726013184,0.10540512949228287,-0.6139408946037292,-0.782282829284668,-0.17496979236602783,-0.14556539058685303,-0.6830034255981445
0.6938828898734397,0.12550626246163782,0.04287897720859524,3.56315279006958,-1.9405591487884521,-1.0358011722564697,0.09623216837644577,-0.6395270228385925,-0.7627217769622803,-0.20130401849746704,-0.1528465747833252,-0.6031991839408875
0.7283528524015004,0.1185113076162945,0.022729126822591823,3.641923189163208,-2.103461742401123,-1.1519131660461426,0.08823477476835251,-0.6656413078308105,-0.7410373687744141,-0.17263096570968628,-0.14196068048477173,-0.46544456481933594
0.7629524734754026,0.11144522015875902,0.0009544186887809942,3.606390953063965,-2.2761807441711426,-1.229062557220459,0.08038583397865295,-0.6910585165023804,-0.7183148860931396,-0.16360712051391602,-0.13773787021636963,-0.3171007037162781
0.7972131402931395,0.10358649413195437,-0.02196627677951697,3.576286792755127,-2.535289764404297,-1.2851957082748413,0.07224685698747635,-0.7154116630554199,-0.694957971572876,-0.1820947229862213,-0.14529085159301758,-0.19893240928649902
0.8314613088331674,0.09462086446857887,-0.0463863571731708,3.589428663253784,-2.818650960922241,-1.3790615797042847,0.0636601448059082,-0.73891681432724,-0.670782744884491,-0.21254000067710876,-0.16377794742584229,-0.14678317308425903
0.8660820013080544,0.08453594565244246,-0.07257661621089304,3.63295578956604,-3.156799554824829,-1.449819803237915,0.05469856411218643,-0.7617966532707214,-0.6455029845237732,-0.2295336276292801,-0.17782437801361084,-0.1229143738746643
0.9014618826729962,0.07270562683236921,-0.101167412679933,3.728081226348877,-3.6575028896331787,-1.6471898555755615,0.04507150873541832,-0.7842348217964172,-0.6188250780105591,-0.23948359489440918,-0.15222764015197754,-0.08220946788787842
0.9380057253199855,0.06165305141313958,-0.13586149887149213,3.850266695022583,-4.051666259765625,-2.0823869705200195,0.036438360810279846,-0.8063802719116211,-0.5902737975120544,-0.3765261173248291,-0.1114206314086914,-0.05927759408950806
0.9749188513256886,0.056561488517241805,-0.17980680682308106,3.7932913303375244,-4.1190032958984375,-2.533374786376953,0.0317273810505867,-0.8276563286781311,-0.5603377819061279,-0.622715413570404,-0.1358141303062439,-0.11497044563293457
1.0096222256969212,0.061039867370507886,-0.23302170816943613,3.4612128734588623,-3.8919408321380615,-2.8658902645111084,0.03246406838297844,-0.846630871295929,-0.5311895608901978,-0.7134789228439331,-0.16568303108215332,-0.07788026332855225
1.0398008584462874,0.07596048977599329,-0.29450154225265224,2.998242139816284,-3.667426824569702,-3.089752197265625,0.038428809493780136,-0.8623033761978149,-0.5049318075180054,-0.7086251974105835,-0.14001595973968506,0.10052812099456787
1.0645290716423943,0.09885005145009394,-0.362521554689102,2.5266642570495605,-3.603006362915039,-3.1919703483581543,0.04785597696900368,-0.8745606541633606,-0.48254910111427307,-0.6711773872375488,-0.13422846794128418,0.23370873928070068
1.0838919269606937,0.12640604240626377,-0.43510584722025075,2.116999626159668,-3.6864681243896484,-3.2527379989624023,0.05898704752326012,-0.8837854862213135,-0.4641592800617218,-0.597576379776001,-0.09468436241149902,0.2906058132648468
1.0986056020487498,0.15621722538920968,-0.5114226092270298,1.8018720149993896,-3.9217939376831055,-3.311666250228882,0.07076495885848999,-0.8905739784240723,-0.4492998421192169,-0.5693305134773254,-0.037038326263427734,0.30981922149658203
1.1093087691054224,0.18640539958461058,-0.5907858623943477,1.533827543258667,-4.237311840057373,-3.3773345947265625,0.08252285420894623,-0.8953911066055298,-0.437566876411438,-0.5517305135726929,0.01819390058517456,0.3122616708278656
1.1162763685804573,0.21582940713727325,-0.672969981092484,1.2931718826293945,-4.654313087463379,-3.4788644313812256,0.09402187168598175,-0.8984718918800354,-0.4288451671600342,-0.475186288356781,0.0699806809425354,0.32832029461860657
1.1197075800600487,0.24322826706295328,-0.7577419134622151,1.066009283065796,-5.123685836791992,-3.5976016521453857,0.10499195009469986,-0.8999729752540588,-0.4231140613555908,-0.4381369948387146,0.13204383850097656,0.36195677518844604
1.119568392111882,0.26815360842147984,-0.8443932914228012,0.8222470879554749,-5.4895243644714355,-3.7321228981018066,0.11553764343261719,-0.8999122977256775,-0.42048653960227966,-0.43780317902565,0.1901344656944275,0.3896790146827698
1.1157034540000972,0.29118480012985026,-0.932420631700084,0.5624728202819824,-5.743401527404785,-3.908503293991089,0.12618811428546906,-0.8982201814651489,-0.42104312777519226,-0.4283883273601532,0.21744930744171143,0.4034496545791626
1.1078531232860986,0.31309872822813534,-1.0217448420439286,0.29712003469467163,-5.902235507965088,-4.127659797668457,0.13755139708518982,-0.8947420120239258,-0.42487233877182007,-0.45209598541259766,0.2484559416770935,0.4128636121749878
1.096052571478044,0.3335131690175934,-1.1113765135561358,0.038817647844552994,-6.0380401611328125,-4.3038740158081055,0.14964187145233154,-0.8894098997116089,-0.4319230318069458,-0.5089405179023743,0.2744806408882141,0.4055710434913635
1.0805902632303297,0.34960479309409576,-1.1990113140306808,-0.22808966040611267,-6.315617084503174,-4.393721580505371,0.16126418113708496,-0.8822358846664429,-0.4423277974128723,-0.4992005228996277,0.2925751805305481,0.38731980323791504
1.0620330240781797,0.35783437177221955,-1.2823919795948189,-0.47996291518211365,-6.7083587646484375,-4.381532669067383,0.17060428857803345,-0.8733475804328918,-0.456243634223938,-0.43679380416870117,0.33246928453445435,0.4065457284450531
1.0414735549530396,0.35609164589316483,-1.3598456557545817,-0.6777663230895996,-7.104526996612549,-4.260148525238037,0.1760321408510208,-0.8631492257118225,-0.4732717275619507,-0.35321712493896484,0.40097576379776,0.4080098271369934
1.0202280430278834,0.3451890219814268,-1.4314243989439013,-0.7677989602088928,-7.369278907775879,-4.130529403686523,0.17702803015708923,-0.8522273302078247,-0.4923107326030731,-0.27129679918289185,0.5037165880203247,0.37020981311798096
0.9993854435152841,0.3276109547359605,-1.4989376510068773,-0.7935243248939514,-7.609043121337891,-4.044265270233154,0.17402592301368713,-0.8411387801170349,-0.5120552778244019,-0.21507208049297333,0.5914134979248047,0.2937934994697571
0.9791851652459671,0.30388993006677867,-1.563232086224352,-0.8645761013031006,-7.913031101226807,-3.927347183227539,0.16688266396522522,-0.8300431966781616,-0.5321453213691711,-0.17945590615272522,0.6189531087875366,0.18255114555358887
0.9594479224709327,0.27282514207494746,-1.6230616143791539,-0.997101902961731,-8.171038627624512,-3.686002016067505,0.15465866029262543,-0.8188748359680176,-0.5527430772781372,-0.15764939785003662,0.6058010458946228,0.06351572275161743
0.9403462145956957,0.23528245907195192,-1.6772840808233673,-1.1082550287246704,-8.143242835998535,-3.3894431591033936,0.13742482662200928,-0.8077622652053833,-0.5732666254043579,-0.14207880198955536,0.5996323823928833,-0.06481027603149414
0.9223767651886563,0.19451125695848237,-1.725873216119689,-1.1666686534881592,-7.807034492492676,-3.044872283935547,0.11673136055469513,-0.797039270401001,-0.5925388336181641,-0.1932542473077774,0.6112635731697083,-0.2393398880958557
0.9056966119497839,0.15248578221880962,-1.7684953395051948,-1.2236355543136597,-7.373643398284912,-2.668494939804077,0.09374044835567474,-0.7868552803993225,-0.6099766492843628,-0.2221890091896057,0.61801677942276,-0.4311763048171997
0.8901766929995322,0.11017761566091931,-1.8055823637499582,-1.2443957328796387,-6.903202056884766,-2.3366663455963135,0.06919179856777191,-0.777182936668396,-0.6254591345787048,-0.22466367483139038,0.6201090216636658,-0.6215043663978577
0.8761771726316164,0.06944804302039062,-1.8382793199052032,-1.1582413911819458,-6.294711589813232,-2.0624372959136963,0.044417474418878555,-0.768297553062439,-0.6385499238967896,-0.2545310854911804,0.5889763236045837,-0.8140563368797302
0.8646964337182895,0.033005654966167974,-1.8675982412369994,-0.9303284883499146,-5.47369909286499,-1.84394371509552,0.021412532776594162,-0.7608983516693115,-0.6485178470611572,-0.31987452507019043,0.5475193858146667,-0.98748379945755
0.8566008123265744,0.003275250076257499,-1.894466459766061,-0.6266961693763733,-4.565814971923828,-1.7056742906570435,0.002145316917449236,-0.7556204199790955,-0.6550062298774719,-0.4291473925113678,0.5226645469665527,-1.1385576725006104
0.8519766734059364,-0.018747537414437757,-1.92000387165628,-0.3308403789997101,-3.713338613510132,-1.6615628004074097,-0.01234447117894888,-0.7525835037231445,-0.6583811044692993,-0.547027587890625,0.49055957794189453,-1.2478688955307007
0.8506365232700609,-0.0327312355573951,-1.9455120555828065,-0.023084141314029694,-2.939194679260254,-1.71135675907135,-0.021582555025815964,-0.7517003417015076,-0.6591516137123108,-0.642739474773407,0.43111318349838257,-1.303281307220459
0.8528815557682138,-0.03831301423481505,-1.972424709960419,0.3546791076660156,-2.2483091354370117,-1.866612195968628,-0.025196732953190804,-0.7531790733337402,-0.6573328971862793,-0.7220873236656189,0.36031103134155273,-1.3467411994934082
0.8592937197775907,-0.03532818328044247,-2.002169776934279,0.7829955816268921,-1.670335292816162,-2.090877056121826,-0.0230635404586792,-0.7573815584182739,-0.6525652408599854,-0.8227617740631104,0.3267174959182739,-1.3753736019134521
0.8697909990668811,-0.02421653392072182,-2.0357535422099504,1.179673194885254,-1.2461050748825073,-2.341494560241699,-0.015617809258401394,-0.764194130897522,-0.6447973251342773,-0.9023968577384949,0.306644082069397,-1.3476190567016602
0.8836327166549173,-0.006275321109956626,-2.0740575625087834,1.5107680559158325,-1.0945113897323608,-2.6123108863830566,-0.003980705980211496,-0.7730484008789062,-0.6343346238136292,-0.9090138077735901,0.28961944580078125,-1.2549629211425781
0.9001437142122857,0.01686593222426294,-2.117947954004224,1.8257558345794678,-1.1149321794509888,-2.891754388809204,0.010481636971235275,-0.783416211605072,-0.6214090585708618,-0.8874501585960388,0.306548535823822,-1.1348775625228882
0.9190268797875683,0.04549860145371704,-2.1681250541384443,2.1458163261413574,-1.0652713775634766,-3.154592514038086,0.027589667588472366,-0.7950116991996765,-0.6059664487838745,-0.8881092071533203,0.3212873339653015,-1.055547833442688
0.9398880865132725,0.08124163126698065,-2.224904176803113,2.449620008468628,-0.8704392313957214,-3.3688607215881348,0.04786999896168709,-0.8074920773506165,-0.5879330039024353,-0.8957247734069824,0.3273284435272217,-1.0022464990615845
0.9620503606240561,0.1259873184950943,-2.2887296054158175,2.729797601699829,-0.5694117546081543,-3.5578229427337646,0.07185405492782593,-0.8203657865524292,-0.5673069357872009,-0.875610888004303,0.3334577679634094,-0.9519343972206116
0.9847514266458013,0.18115018686891404,-2.360527680579714,2.994901657104492,-0.27597638964653015,-3.7418105602264404,0.09964174777269363,-0.833134651184082,-0.5440205335617065,-0.8520680069923401,0.35568708181381226,-0.896149754524231
1.0070440592672931,0.24740430953315615,-2.4412681724048975,3.2282721996307373,-0.03939233720302582,-3.8983302116394043,0.1308588683605194,-0.845255970954895,-0.5180912017822266,-0.8178554773330688,0.38753801584243774,-0.8076381683349609
1.0277336598634372,0.32436742788990663,-2.5312429693262932,3.407005548477173,0.11287521570920944,-4.020244598388672,0.16469642519950867,-0.856130063533783,-0.4898129403591156,-0.7744835615158081,0.4338276982307434,-0.6871737837791443
1.045317722974131,0.4114297073557078,-2.6303857282158964,3.5041563510894775,0.22527898848056793,-4.156640529632568,0.20061081647872925,-0.8650839328765869,-0.4597663879394531,-0.7453344464302063,0.48318690061569214,-0.5574913024902344
1.0580533337775975,0.5080087963596231,-2.7385453999413,3.540252923965454,0.3006942868232727,-4.352005958557129,0.23863185942173004,-0.8714021444320679,-0.42861783504486084,-0.7514188289642334,0.5108368992805481,-0.43081820011138916
1.064242918550502,0.612780667327007,-2.8547917490462456,3.5438265800476074,0.3448585271835327,-4.619653224945068,0.27904072403907776,-0.8744218945503235,-0.3968912959098816,-0.7805820107460022,0.5222947001457214,-0.321034699678421
1.062547535509787,0.7230281523370674,-2.9770613783890716,3.5601704120635986,0.3196898400783539,-4.9322686195373535,0.3219947814941406,-0.8735980987548828,-0.36489152908325195,-0.7951546907424927,0.5377673506736755,-0.23294779658317566
1.0523870312265404,0.8344841936472094,-3.1017442047649864,3.608968734741211,0.23350650072097778,-5.212979793548584,0.3671402633190155,-0.8686084747314453,-0.33275744318962097,-0.7821946740150452,0.5759600400924683,-0.16470956802368164
1.034088848740791,0.9421672715720331,3.05887871475052,3.673518180847168,0.11858532577753067,-5.412962913513184,0.4135647416114807,-0.8593968152999878,-0.3006686270236969,-0.7381497621536255,0.6492831110954285,-0.09811979532241821
1.0083677540880007,1.0421894505113773,2.9424434912935955,3.7006616592407227,0.02096688747406006,-5.549408435821533,0.4604604244232178,-0.8459625840187073,-0.2689306139945984,-0.6614950895309448,0.715591311454773,-0.04326421022415161
0.9758417795215897,1.131589531188493,2.835339160051665,3.6507599353790283,-0.08025875687599182,-5.6682329177856445,0.5072765946388245,-0.8281739950180054,-0.23832456767559052,-0.5970441102981567,0.761004626750946,0.02847045660018921
0.9372482948625154,1.2089528710596134,2.739256573545574,3.5470800399780273,-0.15021121501922607,-5.765588283538818,0.5536729693412781,-0.8059321045875549,-0.20957018435001373,-0.5677416920661926,0.7843713760375977,0.1122497022151947
0.8937517953647888,1.2742707547908951,2.6547553615689243,3.4071733951568604,-0.18725696206092834,-5.823141098022461,0.5991505980491638,-0.779427707195282,-0.18306052684783936,-0.5702963471412659,0.8035058975219727,0.15823455154895782
0.8462791564125602,1.3284405064477214,2.5809350024977875,3.258355140686035,-0.27376681566238403,-5.881017684936523,0.6434047222137451,-0.7488195300102234,-0.1590593308210373,-0.5413388013839722,0.8266239762306213,0.19650442898273468
0.7956230058733278,1.3724860821404217,2.516392604245377,3.129702568054199,-0.36287084221839905,-5.944925308227539,0.6861236691474915,-0.714299738407135,-0.13787755370140076,-0.512783944606781,0.830892026424408,0.22811807692050934
0.7424433835492181,1.408136351189161,2.459380396249529,3.039062023162842,-0.4468695819377899,-6.008779525756836,0.7270927429199219,-0.6760902404785156,-0.11932311207056046,-0.4869806170463562,0.8362769484519958,0.23681584000587463
0.6871064407466029,1.4364408859326459,2.408316806551767,2.96419620513916,-0.6091903448104858,-6.101777076721191,0.7661176919937134,-0.6343028545379639,-0.10355594009160995,-0.4469953775405884,0.848825991153717,0.23497992753982544
0.6296163747349729,1.4571246087453287,2.3621522525455685,2.8729519844055176,-0.9270671010017395,-6.223028659820557,0.8030372858047485,-0.5888347625732422,-0.09167782962322235,-0.4244667887687683,0.8568399548530579,0.24862980842590332
0.5705177544520983,1.4697726638377868,2.320035089108774,2.78706693649292,-1.306289553642273,-6.290046215057373,0.8373306393623352,-0.5400678515434265,-0.08487915247678757,-0.36182093620300293,0.8475475311279297,0.30318671464920044
0.5104770612272138,1.4746720518290837,2.2811046142150575,2.685887098312378,-1.739324688911438,-6.331720352172852,0.8684837818145752,-0.48859354853630066,-0.08374045044183731,-0.2405235767364502,0.8404762744903564,0.3606875538825989
0.45004246059440783,1.471867301035407,2.244869813640469,2.54093074798584,-2.1623902320861816,-6.336479187011719,0.8960261344909668,-0.43500375747680664,-0.0889333114027977,-0.1335902214050293,0.8628905415534973,0.39467376470565796
0.3898711429674621,1.462598803490481,2.2111273005874437,2.3490543365478516,-2.4295408725738525,-6.278256416320801,0.9195493459701538,-0.38006922602653503,-0.09988303482532501,0.003225982189178467,0.8624451160430908,0.41273409128189087
0.3309883895960115,1.4489962600076516,2.179937480283648,2.099283456802368,-2.462114095687866,-6.089683532714844,0.9387154579162598,-0.32497793436050415,-0.11490438133478165,0.1508079171180725,0.8477438688278198,0.3821926712989807
0.2749080485627186,1.4339175307670922,2.151690782236304,1.8063486814498901,-2.21614408493042,-5.726659774780273,0.9534481763839722,-0.2714584469795227,-0.1313280463218689,0.3054172396659851,0.8700605630874634,0.32291746139526367
0.22324499729997918,1.420148495012364,2.1267614415399523,1.4972869157791138,-1.7542520761489868,-5.193856239318848,0.9641394019126892,-0.22139525413513184,-0.14635434746742249,0.47891485691070557,0.909978449344635,0.23976874351501465
0.17721466514293677,1.4093738722534301,2.1057236957668017,1.1443736553192139,-1.249547004699707,-4.549306392669678,0.9715418815612793,-0.17628854513168335,-0.15820519626140594,0.6707768440246582,0.9324376583099365,0.1513235718011856
0.13745738177922595,1.4016770844359114,2.089097253615987,0.7962716221809387,-0.8252541422843933,-3.840928792953491,0.9764355421066284,-0.13702492415905,-0.16672661900520325,0.8899431824684143,0.9442757368087769,0.1108032613992691
0.10444989079135368,1.3967324984388927,2.0766269808553415,0.531446635723114,-0.4797747731208801,-3.0979108810424805,0.9795216917991638,-0.10426007211208344,-0.17224237322807312,1.0929882526397705,0.9408687353134155,0.08436708152294159
0.07841257572595092,1.3941319974749409,2.067398179189254,0.38327667117118835,-0.2195979505777359,-2.364478588104248,0.9814106225967407,-0.07833224534988403,-0.17520679533481598,1.2308239936828613,0.9125300645828247,0.029226064682006836
0.059251456098099724,1.3934563738069583,2.0604368648065448,0.3159511387348175,-0.018842479214072227,-1.6662787199020386,0.9825891852378845,-0.05921679362654686,-0.17610231041908264,1.3031316995620728,0.8790408372879028,-0.021727800369262695
0.04657165996002011,1.39406664452053,2.05505263951466,0.3008069097995758,0.0687585175037384,-1.0300350189208984,0.9833566546440125,-0.04655482620000839,-0.17562054097652435,1.3533897399902344,0.838791012763977,-0.06172984838485718
0.040051619543432226,1.3950648684299758,2.0507707888712066,0.3161533772945404,0.0955139696598053,-0.4075201451778412,0.9838094115257263,-0.040040913969278336,-0.1746881902217865,1.3602458238601685,0.8025681972503662,-0.09485821425914764
0.03963938951551713,1.3962122885644666,2.047264789882778,0.36415618658065796,0.09812118858098984,0.201099693775177,0.9840254187583923,-0.0396290086209774,-0.17356209456920624,1.3594653606414795,0.7824877500534058,-0.10585677623748779
0.045276567368171074,1.397049206119956,2.04421902477504,0.4337807893753052,0.041987344622612,0.8050633668899536,0.9839345216751099,-0.04526109993457794,-0.17269709706306458,1.3332651853561401,0.7669711112976074,-0.10870538651943207
0.0569147623686264,1.3973411850045037,2.0414425613327163,0.515683114528656,-0.008512722328305244,1.3906631469726562,0.9833995699882507,-0.0568840391933918,-0.17230723798274994,1.286177635192871,0.7546835541725159,-0.08198040723800659
0.07420588896030085,1.3972537090743378,2.0388369248436797,0.5931685566902161,-0.041858427226543427,1.9255255460739136,0.9822686314582825,-0.07413780689239502,-0.1721976399421692,1.2179267406463623,0.7482404112815857,-0.048917338252067566
0.09663108397745762,1.396897443256167,2.0364279414031206,0.6525858044624329,-0.06837286055088043,2.411921739578247,0.9803228974342346,-0.09648077189922333,-0.17221656441688538,1.1124505996704102,0.7344505786895752,-0.013757452368736267
0.12364130902503974,1.3963638301134413,2.0345254222505518,0.6489133238792419,-0.08059436827898026,2.8466222286224365,0.9773072004318237,-0.12332652509212494,-0.17222443222999573,0.9997283220291138,0.7151842713356018,0.029661670327186584
0.1546593934473628,1.3955998130481815,2.033814051567111,0.5594263076782227,-0.09259986877441406,3.2457635402679443,0.972939133644104,-0.15404357016086578,-0.17222119867801666,0.8864206671714783,0.7059842944145203,0.10554039478302002
0.18927841376474833,1.3944665431341627,2.0350812656299166,0.3982140123844147,-0.08703678846359253,3.6237218379974365,0.9669113755226135,-0.18815024197101593,-0.1722845584154129,0.7699660658836365,0.6969391107559204,0.19936902821063995
0.22704373109370732,1.3928186698153873,2.0389555083887974,0.18335793912410736,-0.08315932005643845,3.9484386444091797,0.9589453935623169,-0.225098118185997,-0.172496035695076,0.6632013320922852,0.7053377628326416,0.26961833238601685
0.2673119471479668,1.3902446981976273,2.045775427019119,-0.04799565672874451,-0.10365714132785797,4.220482349395752,0.9488065838813782,-0.2641398012638092,-0.17319466173648834,0.5431215763092041,0.7253823280334473,0.3221968412399292
0.3096433458009851,1.386073634323586,2.0556316709959983,-0.2740911841392517,-0.17875173687934875,4.457767009735107,0.9362388253211975,-0.3047189712524414,-0.1749388724565506,0.4259744882583618,0.7424628734588623,0.38177186250686646
0.3536749684576451,1.3793832145031464,2.068524623255803,-0.47171106934547424,-0.327531635761261,4.6644415855407715,0.9209733009338379,-0.3463476598262787,-0.1784713715314865,0.34373635053634644,0.7604557275772095,0.4494065046310425
0.39931480100035444,1.3693830626323795,2.0842130072040383,-0.6046417951583862,-0.5201767086982727,4.877890586853027,0.9027029871940613,-0.3887871503829956,-0.1843155175447464,0.283744215965271,0.7849355936050415,0.5007523894309998
0.4467513040343451,1.355966302880557,2.102436379666466,-0.6842801570892334,-0.6548421382904053,5.105978488922119,0.8811241984367371,-0.43203797936439514,-0.1922587901353836,0.24808716773986816,0.8177800178527832,0.5202160477638245
0.495956850509426,1.3397603984224917,2.1231909328965908,-0.751167893409729,-0.692103922367096,5.3251471519470215,0.856144905090332,-0.4758734405040741,-0.2013964056968689,0.19227123260498047,0.8458225727081299,0.5281939506530762
0.5465455205793058,1.3210450833625744,2.1470050211627596,-0.8620781302452087,-0.6786821484565735,5.495188236236572,0.8278188109397888,-0.5197390913963318,-0.21115750074386597,0.10537821054458618,0.8497406840324402,0.518454372882843
0.5976417001999133,1.2992180811395972,2.1748175549137936,-1.033902883529663,-0.6730371713638306,5.597509384155273,0.7963666319847107,-0.5626944899559021,-0.22175467014312744,0.016499459743499756,0.83733731508255,0.5161731243133545
0.6484194673841663,1.2734601998272124,2.207688695181815,-1.2476164102554321,-0.6425697803497314,5.662707328796387,0.7620657682418823,-0.6039274334907532,-0.23351208865642548,-0.07955539226531982,0.8125148415565491,0.5052711963653564
0.69822792040172,1.242855713303786,2.246397720488586,-1.445914387702942,-0.6576766967773438,5.690113544464111,0.7251617908477783,-0.6428613066673279,-0.24671852588653564,-0.13667607307434082,0.7923667430877686,0.4851524233818054
0.746554684423044,1.2064956888331666,2.290985866386322,-1.5638480186462402,-0.7192010283470154,5.6860032081604,0.6858609318733215,-0.6791138052940369,-0.26153305172920227,-0.19634371995925903,0.7818815112113953,0.45359548926353455
0.7930984093635295,1.1641613240309767,2.3410859686623793,-1.6018359661102295,-0.7702115774154663,5.660255432128906,0.6444271802902222,-0.7125306725502014,-0.2775137722492218,-0.26158422231674194,0.7692626714706421,0.39020001888275146
0.8375644090540412,1.1158715897846117,2.3966787883015748,-1.6194360256195068,-0.7935035824775696,5.619564056396484,0.6012055277824402,-0.7430152297019958,-0.29407578706741333,-0.31929945945739746,0.7469823360443115,0.3135918378829956
0.87941494683145,1.0610394262515748,2.458366920917822,-1.647117257118225,-0.8383700847625732,5.548593521118164,0.5565394163131714,-0.7703659534454346,-0.31112757325172424,-0.35632890462875366,0.7107649445533752,0.2611551284790039
0.9179598409290717,0.9991456369469413,2.5265321099546587,-1.667852520942688,-0.8670606017112732,5.440688133239746,0.5108645558357239,-0.7943639755249023,-0.32863911986351013,-0.4243929982185364,0.6694552302360535,0.2264968454837799
0.9525246406290508,0.930529251856171,2.601061718248713,-1.6753301620483398,-0.8560518026351929,5.291803359985352,0.46482452750205994,-0.814881443977356,-0.3462752401828766,-0.5160941481590271,0.6211251616477966,0.17290496826171875
0.9824628692177682,0.8561211645231372,2.6812864762006883,-1.6745117902755737,-0.8180663585662842,5.1032915115356445,0.41917651891708374,-0.8318667411804199,-0.3637155294418335,-0.598970890045166,0.5480988621711731,0.11278480291366577
1.0074001597677273,0.7767218004308619,2.7662805375395,-1.6617249250411987,-0.8123660087585449,4.882694721221924,0.3743472695350647,-0.8454462289810181,-0.38090023398399353,-0.6792942881584167,0.46261829137802124,0.03931701183319092
1.0271097718761815,0.6936827039243301,2.854135867227341,-1.6120065450668335,-0.8511732816696167,4.620214462280273,0.33074426651000977,-0.8558074831962585,-0.3977460563182831,-0.7632089853286743,0.3826780915260315,-0.031422585248947144
1.0416187593027124,0.609267310427102,2.942143413452404,-1.542129635810852,-0.9032981991767883,4.2959818840026855,0.28889378905296326,-0.8632225394248962,-0.41398948431015015,-0.8702232837677002,0.3059714436531067,-0.10162016749382019
1.0509749749756356,0.5263424753579645,3.0273130142886853,-1.4752446413040161,-0.9307250380516052,3.9087953567504883,0.2495419681072235,-0.8679079413414001,-0.42949363589286804,-1.0029906034469604,0.2147095799446106,-0.17370152473449707
1.0555296820487743,0.44809491629536696,3.1069013426546217,-1.4106853008270264,-0.8757214546203613,3.4825949668884277,0.21349100768566132,-0.8701613545417786,-0.4441182315349579,-1.1308190822601318,0.12125986814498901,-0.23894137144088745
1.056055592580292,0.3776154230486011,-3.1046868396823193,-1.3228873014450073,-0.7566643357276917,3.027512311935425,0.18151690065860748,-0.8704203963279724,-0.4576244652271271,-1.2414230108261108,0.03588658571243286,-0.31060975790023804
1.0537478889352923,0.3169648701230149,-3.042833151381674,-1.1872292757034302,-0.611700713634491,2.561138868331909,0.1540706753730774,-0.8692819476127625,-0.46969282627105713,-1.3442869186401367,-0.0326194167137146,-0.4013245701789856
1.049882909970306,0.26748871592727436,-2.9920174589780433,-1.002394437789917,-0.45721662044525146,2.0431087017059326,0.13154003024101257,-0.8673649430274963,-0.4799743592739105,-1.435815691947937,-0.09221458435058594,-0.5062011480331421
1.0455588255873742,0.23060760763236354,-2.9536858631895195,-0.7793238162994385,-0.2776894271373749,1.4541468620300293,0.11460878700017929,-0.8652048707008362,-0.4881448745727539,-1.553985834121704,-0.1690511703491211,-0.6135090589523315
1.0416139915295994,0.20734442569215905,-2.9288148744400293,-0.5349351167678833,-0.07528945803642273,0.8178407549858093,0.10392482578754425,-0.8632201552391052,-0.4940149188041687,-1.6761143207550049,-0.24574297666549683,-0.7084081172943115
1.0386332113437429,0.19812319742895254,-2.9178200976481214,-0.27183613181114197,0.12942253053188324,0.15347284078598022,0.09987106919288635,-0.8617115020751953,-0.49747276306152344,-1.7484002113342285,-0.29449278116226196,-0.7711581587791443
1.0369411618453976,0.2029056952858734,-2.920724798446643,0.0010172473266720772,0.32408013939857483,-0.5077854990959167,0.10254277288913727,-0.8608517646789551,-0.4984169602394104,-1.7894783020019531,-0.314609169960022,-0.8036612272262573
1.0365359856090555,0.2210925856034608,-2.9371681680395096,0.27127066254615784,0.4785905182361603,-1.1426676511764526,0.11166643351316452,-0.8606454730033875,-0.4968099296092987,-1.7766751050949097,-0.3089407682418823,-0.8063364028930664
1.0370650057166984,0.2518353754162615,-2.9664996370940067,0.5314870476722717,0.6234869956970215,-1.731864094734192,0.12677109241485596,-0.8609147667884827,-0.4927016794681549,-1.7127087116241455,-0.2729354500770569,-0.7732742428779602
1.0380172457363086,0.29419299237821467,-3.007599055886975,0.7793562412261963,0.773328423500061,-2.2372312545776367,0.14728301763534546,-0.8613988161087036,-0.4861067831516266,-1.6113792657852173,-0.21481889486312866,-0.7207870483398438
1.0387470360653255,0.34686644073676415,-3.0588981979198424,0.9988334774971008,0.9233214259147644,-2.6623740196228027,0.17245812714099884,-0.8617692589759827,-0.4770870804786682,-1.4841495752334595,-0.13324123620986938,-0.663904070854187
1.0384225854745546,0.40809916284945297,-3.1186167695745026,1.1740394830703735,1.0343985557556152,-3.0038251876831055,0.2014409750699997,-0.861604630947113,-0.4658960998058319,-1.3742620944976807,-0.046858012676239014,-0.5952763557434082
1.0361637730818003,0.47603741681763384,3.0981900816920587,1.3084862232208252,1.1342042684555054,-3.312398672103882,0.2334953397512436,-0.8604559302330017,-0.45287492871284485,-1.2859551906585693,0.03194934129714966,-0.520055890083313
1.0310622121993787,0.5496713664790343,3.026327949982836,1.4162439107894897,1.2576700448989868,-3.617830991744995,0.2684692442417145,-0.8578453660011292,-0.43820756673812866,-1.2385773658752441,0.10697543621063232,-0.44840431213378906
1.0222935647111038,0.6278055164091009,2.9503504971171584,1.4983323812484741,1.3679018020629883,-3.921618938446045,0.30626094341278076,-0.8533061742782593,-0.4219871163368225,-1.2287311553955078,0.16254061460494995,-0.3897498846054077
1.008946631215888,0.708945334475456,2.8713476484188396,1.5802271366119385,1.4329664707183838,-4.294928073883057,0.3468398451805115,-0.8462711572647095,-0.4043852984905243,-1.2417831420898438,0.21573203802108765,-0.33871763944625854
0.9901991538901289,0.7918004638923823,2.7899886844953943,1.6870396137237549,1.4448521137237549,-4.715038299560547,0.39034003019332886,-0.83613520860672,-0.385373592376709,-1.2836658954620361,0.2566367983818054,-0.30725330114364624
0.9654328700121595,0.8745313950744906,2.7074919890384463,1.8174092769622803,1.4129911661148071,-5.170138835906982,0.4366082549095154,-0.8222953081130981,-0.3649710714817047,-1.2972650527954102,0.3235921263694763,-0.2851905822753906
0.934216881043407,0.9552759652663786,2.625185337496604,1.9774365425109863,1.3467937707901,-5.628697395324707,0.48535123467445374,-0.8041337728500366,-0.34322473406791687,-1.294830083847046,0.41698765754699707,-0.24890774488449097
0.8967196324917724,1.031742484083429,2.5450297532205615,2.122358560562134,1.215196967124939,-5.985368251800537,0.5356647968292236,-0.7812836170196533,-0.3204048275947571,-1.2124838829040527,0.537783682346344,-0.19962987303733826
0.8538934797771949,1.1004752296027884,2.469510983690913,2.2112088203430176,0.9173563718795776,-6.187201499938965,0.5857122540473938,-0.7538443207740784,-0.2977584898471832,-1.002170443534851,0.693938136100769,-0.10772848129272461
0.8072248874119046,1.1586554467624475,2.400598798082792,2.209573268890381,0.5273213982582092,-6.217358112335205,0.6336028575897217,-0.7223709225654602,-0.27699780464172363,-0.7306488752365112,0.8420760035514832,0.009435027837753296
0.7583892781018012,1.2048584971688971,2.339423494805694,2.1137988567352295,0.0918886810541153,-6.116795539855957,0.6778789758682251,-0.6877530217170715,-0.25976133346557617,-0.46169257164001465,0.961190402507782,0.16462287306785583
0.7086189457230203,1.2406953069197368,2.285850305874242,1.9797487258911133,-0.04469914361834526,-5.9691243171691895,0.718268632888794,-0.6507858037948608,-0.24610593914985657,-0.2922127842903137,1.0258619785308838,0.29159247875213623
0.6584802710840322,1.2711003313733937,2.2390151601551334,1.8180022239685059,0.2486158162355423,-5.840169906616211,0.7556687593460083,-0.6119155883789062,-0.2335040420293808,-0.22113817930221558,1.0128705501556396,0.33961373567581177
0.6076992910923139,1.299671490109717,2.19860964522581,1.5655890703201294,0.6793147325515747,-5.76041841506958,0.7909742593765259,-0.5709801912307739,-0.21986672282218933,-0.15338587760925293,0.9304160475730896,0.3133574426174164
0.5562172387709052,1.326678509880797,2.164955173028453,1.2506142854690552,0.9989103078842163,-5.637615203857422,0.8240787386894226,-0.527977466583252,-0.2052661031484604,-0.05061078071594238,0.8756182789802551,0.32252997159957886
0.5051027031736706,1.3513489349947103,2.1376849784123864,0.9938806891441345,1.1622685194015503,-5.394033432006836,0.8541375398635864,-0.48389732837677,-0.1905061900615692,0.13615787029266357,0.8915967345237732,0.3551638722419739
0.45601283681472427,1.3736658530243937,2.115528892623868,0.8335663676261902,1.2477988004684448,-5.035404682159424,0.880427360534668,-0.44037187099456787,-0.1758427619934082,0.3834887146949768,0.9384796023368835,0.3542638421058655
0.40990833680707744,1.394153509616857,2.097103040088016,0.7462336421012878,1.3086341619491577,-4.661002159118652,0.9028856754302979,-0.39852526783943176,-0.16116806864738464,0.5983960032463074,0.9600485563278198,0.3429461121559143
0.36712329130439814,1.4135532517721205,2.081477693907755,0.6870821714401245,1.3930854797363281,-4.269638538360596,0.921848714351654,-0.35893189907073975,-0.14616094529628754,0.7432056069374084,0.9276268482208252,0.3092774748802185
0.32803744372898647,1.432458135450603,2.0682120055255773,0.6267206072807312,1.4839175939559937,-3.837724447250366,0.9376327395439148,-0.322185754776001,-0.1305442452430725,0.8802080154418945,0.8636131286621094,0.30354851484298706
0.293102328031997,1.4507433743112483,2.057293384601245,0.5323000550270081,1.4997133016586304,-3.3664965629577637,0.9504615664482117,-0.28892362117767334,-0.11465708911418915,1.005928874015808,0.809217631816864,0.3268611431121826
0.2626676611062535,1.467748266758241,2.048765424316195,0.42176538705825806,1.4291871786117554,-2.875166654586792,0.9605780839920044,-0.259657621383667,-0.09933757781982422,1.1220636367797852,0.7772966027259827,0.36297905445098877
0.23689697746157345,1.4829324409026066,2.0423322912515833,0.3341221213340759,1.2830040454864502,-2.383683681488037,0.9683212041854858,-0.23468740284442902,-0.08530008792877197,1.2330186367034912,0.740744948387146,0.3883397579193115
0.2158792499558228,1.4958098871385745,2.037438221071581,0.2781212627887726,1.0738383531570435,-1.887856364250183,0.974043607711792,-0.21420635282993317,-0.073177270591259,1.321519136428833,0.7037233710289001,0.39764028787612915
0.19980798154387888,1.5062643435044312,2.033684843738675,0.23246188461780548,0.8642899394035339,-1.3723466396331787,0.978064775466919,-0.19848114252090454,-0.06320422142744064,1.391747236251831,0.6724342107772827,0.4030480980873108
0.1889140748668667,1.5143616032930811,2.0308567215104314,0.18890124559402466,0.6472010016441345,-0.8359309434890747,0.9806452989578247,-0.18779240548610687,-0.0554012767970562,1.4509344100952148,0.6454795598983765,0.40276771783828735
0.18348533376688564,1.5201769107663625,2.028907204272132,0.133974090218544,0.44816380739212036,-0.2657981812953949,0.9819546341896057,-0.18245750665664673,-0.04974846541881561,1.4915258884429932,0.6373828649520874,0.39952582120895386
0.18374148083606667,1.5239441912382257,2.028007725136662,0.03885216638445854,0.2764163017272949,0.305883526802063,0.9820881485939026,-0.18270935118198395,-0.04604662209749222,1.5131816864013672,0.6298221945762634,0.40186643600463867
0.1895005166499105,1.525969608124315,2.028467289721908,-0.076597198843956,0.1577727347612381,0.8483548164367676,0.9811121225357056,-0.18836838006973267,-0.04400951787829399,1.487088680267334,0.6238998174667358,0.40109580755233765
0.200530046263659,1.5268252565132803,2.0302755294374766,-0.1774251013994217,0.08645546436309814,1.3684762716293335,0.979013979434967,-0.19918878376483917,-0.043076056987047195,1.4130454063415527,0.6271213889122009,0.38894712924957275
0.21654377963381963,1.5265767916611175,2.033232295688664,-0.2565992772579193,-0.015940412878990173,1.8598567247390747,0.9756912589073181,-0.2148554027080536,-0.04317275807261467,1.3387466669082642,0.6226310729980469,0.37582969665527344
0.2372712007637542,1.5250423881511879,2.0371699217640233,-0.3260450065135956,-0.10871393233537674,2.317138910293579,0.9709659218788147,-0.23505115509033203,-0.044456541538238525,1.2433133125305176,0.6300399899482727,0.3716356158256531
0.26227370055656535,1.5224109045879837,2.042094559392503,-0.3932304382324219,-0.17188304662704468,2.724378824234009,0.9646728038787842,-0.2592771649360657,-0.04671255871653557,1.1275970935821533,0.6460567712783813,0.37613463401794434
0.2910488772056133,1.518807498267021,2.0480457445445452,-0.4632365107536316,-0.22400864958763123,3.086142063140869,0.9566492438316345,-0.28695714473724365,-0.04977992922067642,1.0113073587417603,0.6503908038139343,0.382207989692688
0.32316691490601723,1.514113794198124,2.05512426822183,-0.5383226871490479,-0.29114052653312683,3.408304214477539,0.9467116594314575,-0.31757113337516785,-0.05371955782175064,0.90636146068573,0.6552021503448486,0.3874598741531372
0.3582808244464318,1.508027315209374,2.063543235106988,-0.6326227784156799,-0.3615959882736206,3.704692840576172,0.9346569776535034,-0.35066473484039307,-0.05874466523528099,0.8159534335136414,0.6736167669296265,0.39776456356048584
0.39604471996842094,1.5004635483536037,2.0736868366546704,-0.7549846768379211,-0.401872843503952,3.966400384902954,0.9203133583068848,-0.3857722580432892,-0.06483513861894608,0.7104851603507996,0.6913902759552002,0.42067021131515503
0.4360114434909115,1.491207163953298,2.0860444936357725,-0.9054796099662781,-0.4538317024707794,4.18189811706543,0.9035742282867432,-0.4223274290561676,-0.07206694781780243,0.6106624007225037,0.6933995485305786,0.4435880184173584
0.47763170948378497,1.4797779722095725,2.1009386883914036,-1.0516941547393799,-0.5191433429718018,4.351247787475586,0.8844102025032043,-0.45967721939086914,-0.08072059601545334,0.5172165036201477,0.6917479038238525,0.4588639736175537
0.5204814152555807,1.4658182784882157,2.1184276357008147,-1.1660587787628174,-0.6008024215698242,4.490821361541748,0.8628039956092834,-0.49729785323143005,-0.0909096747636795,0.42462587356567383,0.6953567266464233,0.45492345094680786
0.5643059246655563,1.4490501866776557,2.1384365639645346,-1.2507414817810059,-0.6896654367446899,4.621122360229492,0.8387058973312378,-0.5348294973373413,-0.10261670500040054,0.3540431261062622,0.7045680284500122,0.4348006248474121
0.6089880268663838,1.4290801053025133,2.161100212326453,-1.3229652643203735,-0.7998002171516418,4.7461981773376465,0.812004804611206,-0.5720376968383789,-0.11585085839033127,0.300437331199646,0.7295539379119873,0.41997385025024414
0.6542717997770069,1.405268114697825,2.186712539121575,-1.381333827972412,-0.9418713450431824,4.8484296798706055,0.7826456427574158,-0.6085816025733948,-0.1307462453842163,0.24730736017227173,0.7636716961860657,0.41173696517944336
0.6997849761498846,1.3771579636631235,2.2155366645292367,-1.417975902557373,-1.0649222135543823,4.924393177032471,0.7506837844848633,-0.6440532207489014,-0.1472056657075882,0.18127721548080444,0.786112368106842,0.39557307958602905
0.7452683570195895,1.3447569621498894,2.247857115473308,-1.434998869895935,-1.1349142789840698,4.999105453491211,0.7162114977836609,-0.6781690716743469,-0.1647067666053772,0.11986333131790161,0.7969127297401428,0.3638797998428345
0.7905141223861278,1.3080047773166303,2.2842647307119344,-1.466510534286499,-1.155045747756958,5.064748287200928,0.6793287992477417,-0.7107150554656982,-0.1827481985092163,0.0581284761428833,0.8106903433799744,0.3259977698326111
0.8351685806749879,1.2662498479544428,2.3257845091529767,-1.5210744142532349,-1.168213963508606,5.118284225463867,0.6401730179786682,-0.7414096593856812,-0.2012222707271576,-0.006750226020812988,0.8259736895561218,0.29372113943099976
0.8786837625809151,1.2186245359982029,2.3732809374277113,-1.5633108615875244,-1.1751594543457031,5.135643482208252,0.5989981889724731,-0.7698995471000671,-0.22012680768966675,-0.0797111988067627,0.8290120363235474,0.2659642994403839
0.9203828918902294,1.1646352898966903,2.427234195865125,-1.589245080947876,-1.1727482080459595,5.104526042938232,0.5562533736228943,-0.7958335280418396,-0.2392304539680481,-0.16584211587905884,0.8122977018356323,0.21899738907814026
0.9594421833025711,1.1038923995669259,2.487999490499843,-1.611119270324707,-1.1638827323913574,5.016087532043457,0.5125421285629272,-0.8188714981079102,-0.25836071372032166,-0.2665857672691345,0.7805870771408081,0.17106527090072632
0.9951200009767253,1.0360568114040412,2.555783159919572,-1.6196376085281372,-1.1682233810424805,4.895845890045166,0.4684045910835266,-0.8388242721557617,-0.27743667364120483,-0.3578700125217438,0.7304561734199524,0.12269735336303711
1.0268888165821228,0.9609601795029113,2.6305536231933484,-1.6193079948425293,-1.1811434030532837,4.75827693939209,0.42420312762260437,-0.8556931614875793,-0.29638010263442993,-0.41385775804519653,0.66541588306427,0.06733047962188721
1.0543233678559307,0.8790450036705874,2.7117248809208814,-1.593835711479187,-1.2013294696807861,4.598565101623535,0.3803027868270874,-0.8695663213729858,-0.31499895453453064,-0.46350908279418945,0.6066877841949463,0.01952788233757019
1.0772714035112536,0.7913351688368266,2.798133687095994,-1.5286407470703125,-1.217551350593567,4.430160999298096,0.33696281909942627,-0.8806684613227844,-0.3329852819442749,-0.5360138416290283,0.5601117014884949,-0.033088237047195435
1.095850203436348,0.699624641814001,2.887975206182398,-1.4177438020706177,-1.222170352935791,4.244243621826172,0.29446345567703247,-0.8893173336982727,-0.34986576437950134,-0.613219678401947,0.5072829127311707,-0.0911741852760315
1.1102005313183207,0.60637089350594,2.9788223342432727,-1.2844040393829346,-1.2104759216308594,4.011808395385742,0.25330546498298645,-0.8957878351211548,-0.3652404844760895,-0.7026616334915161,0.42488622665405273,-0.16854244470596313
1.1204255625548798,0.5144614958414089,3.0679927859574403,-1.1622014045715332,-1.151833415031433,3.7251243591308594,0.21419616043567657,-0.9002857804298401,-0.3789534270763397,-0.8098536729812622,0.31355470418930054,-0.2507614195346832
1.1266399972248662,0.42686614100554054,-3.1304420784570506,-1.0603840351104736,-1.091578722000122,3.3750693798065186,0.17790301144123077,-0.9029735326766968,-0.39113882184028625,-0.9180154800415039,0.20143526792526245,-0.30806463956832886
1.1292922808733563,0.34611437546793966,-3.0530558975474897,-0.9471219182014465,-1.0813132524490356,2.975703716278076,0.1449594646692276,-0.9041100144386292,-0.40196025371551514,-1.030625581741333,0.1111411452293396,-0.3411579728126526
1.1294146591597083,0.2739335298582459,-2.985028194712087,-0.8052400946617126,-1.048471212387085,2.576472759246826,0.11556344479322433,-0.9041622877120972,-0.41126132011413574,-1.1375668048858643,0.04249835014343262,-0.371499240398407
1.1279556667551265,0.21160138362145167,-2.9271247208782207,-0.6763148307800293,-0.9458138942718506,2.1678428649902344,0.0899977758526802,-0.9035380482673645,-0.4189505875110626,-1.2241531610488892,-0.01913052797317505,-0.4215186834335327
1.1253768182142248,0.16045365569338582,-2.880145434607514,-0.5820886492729187,-0.8011223673820496,1.7021344900131226,0.06883309036493301,-0.90242999792099,-0.425302654504776,-1.3188027143478394,-0.08582085371017456,-0.46185851097106934
1.1221499102598007,0.12197189500523666,-2.845554616840604,-0.47327083349227905,-0.6582648158073425,1.1654149293899536,0.05277382954955101,-0.9010350108146667,-0.4305242598056793,-1.4390807151794434,-0.15722322463989258,-0.4876886010169983
1.119259969187393,0.0971710133345348,-2.824442743780544,-0.29518142342567444,-0.4990040063858032,0.5997192859649658,0.042333729565143585,-0.8997777700424194,-0.4342900514602661,-1.5551207065582275,-0.22346752882003784,-0.5334069728851318
1.1177085812237437,0.08636235758266009,-2.816938502926598,-0.07182129472494125,-0.3095696270465851,0.025921570137143135,0.03775762766599655,-0.8990997672080994,-0.43611258268356323,-1.6341170072555542,-0.2624146342277527,-0.5983264446258545
1.1179014386556065,0.08971988952098349,-2.822837895901249,0.15349379181861877,-0.07631099969148636,-0.5336530208587646,0.0392061322927475,-0.8991841673851013,-0.43581056594848633,-1.6696994304656982,-0.27821463346481323,-0.6391252875328064
1.119641303669376,0.10702445654743005,-2.841599398669008,0.35516059398651123,0.1586056500673294,-1.0579242706298828,0.046574197709560394,-0.8999441266059875,-0.43351060152053833,-1.647434949874878,-0.2746775150299072,-0.6363135576248169
1.1225828783757723,0.13722415582280606,-2.8722280108730986,0.5536739230155945,0.36601072549819946,-1.503637433052063,0.059280503541231155,-0.9012227654457092,-0.42928260564804077,-1.570129632949829,-0.24944263696670532,-0.5948567390441895
1.1263220564121292,0.17858881150559267,-2.912883597115787,0.7359712719917297,0.5708884596824646,-1.8417989015579224,0.07638267427682877,-0.9028368592262268,-0.4231446087360382,-1.4477360248565674,-0.19381242990493774,-0.5405699014663696
1.1302248994066542,0.22940444516062639,-2.9619868490322863,0.8817035555839539,0.7131334543228149,-2.1288228034973145,0.09697520732879639,-0.904508113861084,-0.41528424620628357,-1.3008174896240234,-0.12607061862945557,-0.46829110383987427
1.1334260580400102,0.2886872075099415,-3.0190944096075323,0.9825977087020874,0.8090754151344299,-2.4137558937072754,0.12058471143245697,-0.905868649482727,-0.4060314893722534,-1.1922553777694702,-0.0819854736328125,-0.3815661072731018
1.1349195096055469,0.3557351696253618,-3.083693579162544,1.0335577726364136,0.8992396593093872,-2.689082622528076,0.14704562723636627,-0.9065002202987671,-0.39577171206474304,-1.1126525402069092,-0.062173664569854736,-0.29439854621887207
1.1337605319375794,0.4293424410529192,3.1286957088303597,1.0438448190689087,0.9958742260932922,-2.9413692951202393,0.17619001865386963,-0.9060102701187134,-0.38484108448028564,-1.0495269298553467,-0.03940922021865845,-0.21104508638381958
1.1291861555793496,0.5075425792786082,3.05376494309544,1.0242842435836792,1.0845502614974976,-3.1729848384857178,0.20772768557071686,-0.9040646553039551,-0.37351900339126587,-1.0000251531600952,-0.009540200233459473,-0.13980183005332947
1.1207156987970615,0.5881178352228956,2.976764268141467,0.9986739158630371,1.1413294076919556,-3.402369499206543,0.24135760962963104,-0.9004120230674744,-0.3619460463523865,-0.9595431089401245,0.026022136211395264,-0.09189608693122864
1.1080668670843512,0.6693738040740604,2.899173876717566,0.9923123717308044,1.1916651725769043,-3.6414947509765625,0.2769842743873596,-0.8948374390602112,-0.35006555914878845,-0.9460975527763367,0.06457602977752686,-0.056779444217681885
1.0912367910662657,0.750085460402983,2.8223216836718037,1.0087521076202393,1.2568562030792236,-3.8548076152801514,0.31452929973602295,-0.8871982097625732,-0.3375661373138428,-0.92437744140625,0.09410727024078369,-0.03854769468307495
1.070419782242128,0.8285338619701579,2.7479291821672285,1.0367038249969482,1.30734384059906,-4.0460968017578125,0.3535520136356354,-0.8774019479751587,-0.32429447770118713,-0.86122727394104,0.14229440689086914,-0.017120838165283203
1.045834892273695,0.9036349696828517,2.6769867486093935,1.0865044593811035,1.352691411972046,-4.214733600616455,0.393717497587204,-0.8653432726860046,-0.31010928750038147,-0.8027600049972534,0.1995410919189453,0.015477418899536133
1.0179525848851187,0.9743549989049368,2.6105213514101533,1.1256176233291626,1.3805991411209106,-4.319490909576416,0.43444404006004333,-0.8510347008705139,-0.29495498538017273,-0.7393910884857178,0.25206607580184937,0.04013332724571228
0.9871947374032037,1.0393480967614857,2.5497762178065804,1.1084338426589966,1.3783589601516724,-4.386073589324951,0.475031316280365,-0.8344834446907043,-0.27925384044647217,-0.655191957950592,0.3105880618095398,0.08934304118156433
0.9535872291474947,1.0979692579641005,2.495469867577765,1.035815715789795,1.391405463218689,-4.479539394378662,0.5152624845504761,-0.8154969215393066,-0.26357096433639526,-0.6207007765769958,0.3633483052253723,0.15492844581604004
0.9169681405786242,1.1507090887330143,2.447369525145478,0.9594475030899048,1.4156394004821777,-4.61110258102417,0.5553461313247681,-0.7937611937522888,-0.2480604499578476,-0.6201655268669128,0.3824145793914795,0.20040732622146606
0.8774520148359175,1.19819823850334,2.4047656303369274,0.899329423904419,1.4245274066925049,-4.743476390838623,0.5952600836753845,-0.7691129446029663,-0.2326604425907135,-0.6084284782409668,0.4020320773124695,0.21454836428165436
0.8355357948815038,1.240900166968602,2.3671301411421224,0.8501352667808533,1.431559681892395,-4.8360595703125,0.6346092224121094,-0.7416560053825378,-0.2172958254814148,-0.5852319002151489,0.4536767601966858,0.23017433285713196
0.7918250355482555,1.2791762656811128,2.3341151645403273,0.8004084825515747,1.422437071800232,-4.885758876800537,0.6728857755661011,-0.7116366028785706,-0.20198547840118408,-0.5243720412254333,0.525113046169281,0.25117987394332886
0.7469119803339668,1.3132281527150056,2.3052925479449438,0.750540554523468,1.377607822418213,-4.893123149871826,0.7095843553543091,-0.6793760657310486,-0.1869182139635086,-0.44916266202926636,0.6122524738311768,0.2733592987060547
0.7013717033961061,1.3433515583351932,2.2802518631685573,0.7099331617355347,1.335256576538086,-4.864232063293457,0.744282603263855,-0.6452662348747253,-0.1722639501094818,-0.40643787384033203,0.708010196685791,0.288688600063324
0.655690863386039,1.3703223773847755,2.2582459241146617,0.705263078212738,1.3008443117141724,-4.8020429611206055,0.7767525911331177,-0.6097069978713989,-0.1578388512134552,-0.3502999544143677,0.7960470914840698,0.28398334980010986
0.6103953871276662,1.3950200595670492,2.238583805497738,0.7191659808158875,1.3253415822982788,-4.707437515258789,0.8067952394485474,-0.5731914639472961,-0.1432943046092987,-0.29371845722198486,0.8651834726333618,0.24766451120376587
0.5656782188122517,1.4183974832541968,2.220696841195488,0.7631821632385254,1.3597166538238525,-4.6183037757873535,0.8344406485557556,-0.5359885096549988,-0.12816153466701508,-0.21534579992294312,0.9066548347473145,0.20581358671188354
0.5216183508113736,1.4403787085117374,2.204136864966487,0.7987332344055176,1.3241404294967651,-4.518477439880371,0.8596511483192444,-0.49828392267227173,-0.11275364458560944,-0.1255812644958496,0.9081348180770874,0.1508091688156128
0.47836909924611287,1.4605031963812176,2.1891212638856943,0.774353563785553,1.2618067264556885,-4.400145530700684,0.8823529481887817,-0.4603319466114044,-0.09771400690078735,-0.03321659564971924,0.8968246579170227,0.12926924228668213
0.43603816286307606,1.4783991399018808,2.1760382265837617,0.7062253952026367,1.1633061170578003,-4.272522449493408,0.9025657176971436,-0.4223516583442688,-0.08363266289234161,0.11475300788879395,0.869601845741272,0.15356379747390747
0.3949213678062873,1.4941226621766388,2.164883515202409,0.6394373178482056,1.0935770273208618,-4.099476337432861,0.9203152060508728,-0.3847356140613556,-0.07070254534482956,0.282474160194397,0.8676760792732239,0.18116098642349243
0.3555989246209639,1.5084109470693736,2.1553052439896723,0.5983614921569824,1.0677920579910278,-3.88120698928833,0.9356146454811096,-0.34815189242362976,-0.058444514870643616,0.44048404693603516,0.873633861541748,0.18660318851470947
0.3184642849740286,1.5216841278371804,2.1468844564737206,0.5794101357460022,1.03401780128479,-3.627722978591919,0.9485724568367004,-0.3131084442138672,-0.046623971313238144,0.6187341213226318,0.8556802272796631,0.1798332929611206
0.2842206552817183,1.5342350247694325,2.1393392301444076,0.5658056735992432,1.0374964475631714,-3.270693063735962,0.9592391848564148,-0.28040945529937744,-0.03508666902780533,0.79356849193573,0.8557876944541931,0.1792670488357544
0.25412846427395286,1.5463614602323714,2.1327373061590458,0.5179122090339661,1.0391709804534912,-2.7872915267944336,0.9675939679145813,-0.25140196084976196,-0.023647736757993698,0.9814417362213135,0.8473490476608276,0.19675880670547485
0.22893636017695762,1.558038687943612,2.127326457953943,0.4386574923992157,1.042611002922058,-2.2826716899871826,0.9738291501998901,-0.2269417643547058,-0.012424434535205364,1.1423054933547974,0.821683406829834,0.2126045823097229
0.20856411289735588,1.5694185505841622,2.1230965494368075,0.36158350110054016,1.053243637084961,-1.8095967769622803,0.978328287601471,-0.20705534517765045,-0.0013479182962328196,1.2345622777938843,0.7819300889968872,0.22478246688842773
0.1926561383488416,1.580464311369368,2.119764522390293,0.3100883960723877,1.015991449356079,-1.374890923500061,0.9814532995223999,-0.1914665699005127,0.009488970972597599,1.31633722782135,0.7080984711647034,0.23590302467346191
0.18114267484724023,1.5905547165608882,2.116953204611579,0.28026658296585083,0.8919485211372375,-0.9193503260612488,0.9834467172622681,-0.18015366792678833,0.019433852285146713,1.4135565757751465,0.639687180519104,0.24356675148010254
0.17438188399468554,1.5990314273230228,2.114271208278252,0.2870485782623291,0.7050265669822693,-0.41610366106033325,0.9844416379928589,-0.1734994351863861,0.027803197503089905,1.5122015476226807,0.6077643632888794,0.26511991024017334
0.17279278320391558,1.6055006975139976,2.1112795495837546,0.31238242983818054,0.48425742983818054,0.11773787438869476,0.9845155477523804,-0.17193421721458435,0.034180715680122375,1.5945708751678467,0.5903910398483276,0.2820882797241211
0.17656845891631298,1.6097997577006944,2.1079568056707547,0.310634583234787,0.26349812746047974,0.6632281541824341,0.9837036728858948,-0.1756524294614792,0.03838728740811348,1.6418304443359375,0.5665061473846436,0.2969704866409302
0.18584692995731697,1.612062046828266,2.10456040893646,0.28039172291755676,0.07183893769979477,1.2192943096160889,0.981943666934967,-0.18477894365787506,0.04054362699389458,1.6556754112243652,0.5439096093177795,0.3338460922241211
0.20058068787512254,1.612616972418301,2.101305738465084,0.23657141625881195,-0.07964913547039032,1.7522188425064087,0.9790943264961243,-0.19923840463161469,0.04097024351358414,1.6210644245147705,0.5345959067344666,0.3643186092376709
0.22043438617956698,1.6118316481437172,2.098322318466879,0.18237368762493134,-0.2008887380361557,2.241711378097534,0.9749811887741089,-0.21865351498126984,0.04003113880753517,1.5401709079742432,0.5248514413833618,0.3783801794052124
0.24506132609136308,1.6099216322173786,2.095804775447472,0.10569572448730469,-0.29324617981910706,2.704446315765381,0.9693801999092102,-0.24261581897735596,0.037946660071611404,1.4400131702423096,0.5172128081321716,0.39625751972198486
0.2742116755547731,1.607065857872533,2.094131660801337,-0.008635379374027252,-0.3596403896808624,3.1401610374450684,0.9620062112808228,-0.27078816294670105,0.034906819462776184,1.3354946374893188,0.5231835842132568,0.4254356622695923
0.3075453139062414,1.6033786984802876,2.0938227480044485,-0.1673075258731842,-0.3973483145236969,3.5326943397521973,0.9525738954544067,-0.3027200400829315,0.031048104166984558,1.2170886993408203,0.5466163158416748,0.4740941524505615
0.3447189535534224,1.5985809461012004,2.0954458133073413,-0.3714934289455414,-0.46061408519744873,3.899369716644287,0.9408072829246521,-0.33793216943740845,0.026146700605750084,1.0914497375488281,0.5700181722640991,0.534766435623169
0.3854395322259399,1.59207787006407,2.0996240425498303,-0.6116840839385986,-0.5464099645614624,4.231827735900879,0.9264236092567444,-0.37596645951271057,0.019718701019883156,0.9820237159729004,0.5927631258964539,0.6038775444030762
0.42923210840780124,1.5832079666862884,2.1067395554853614,-0.843349814414978,-0.6683910489082336,4.510656356811523,0.9092156291007996,-0.41617268323898315,0.01128543633967638,0.8555396199226379,0.6375470161437988,0.6642518043518066
0.4754348572385586,1.5713480753388436,2.1169395444578365,-1.051811933517456,-0.8123295903205872,4.725234508514404,0.8890936374664307,-0.4577251076698303,0.000490556180011481,0.7119805216789246,0.6775583028793335,0.6863534450531006
0.5233760467594885,1.5561073298366104,2.1303020548299254,-1.2292869091033936,-0.9568785429000854,4.8911848068237305,0.8660432696342468,-0.49980708956718445,-0.01272222213447094,0.5572049021720886,0.7125145196914673,0.6871302723884583
0.5725591347241272,1.5370914919792187,2.146961827642172,-1.3767412900924683,-1.1155195236206055,5.0247273445129395,0.8400399684906006,-0.5417848229408264,-0.028324134647846222,0.41800135374069214,0.7510589361190796,0.6750680208206177
0.6225323854988092,1.5138169211276138,2.1670815792984883,-1.4944002628326416,-1.2774146795272827,5.12255859375,0.8110861778259277,-0.5830943584442139,-0.04626528546214104,0.30517053604125977,0.7951455116271973,0.6492316722869873
0.6728129636843659,1.486005918674968,2.190883730178839,-1.5813912153244019,-1.4106035232543945,5.194172382354736,0.7792624831199646,-0.6231883764266968,-0.06623278558254242,0.19838351011276245,0.8407479524612427,0.6145727038383484
0.723138242198011,1.4535538243546493,2.2187034327315938,-1.6513718366622925,-1.5024490356445312,5.267343521118164,0.7445859313011169,-0.661740779876709,-0.08769931644201279,0.10790735483169556,0.8779271245002747,0.578315258026123
0.7733561767272179,1.416010649154233,2.2512366221630615,-1.7172257900238037,-1.5844155550003052,5.348565101623535,0.7070155739784241,-0.6985407471656799,-0.11031831800937653,0.030914723873138428,0.9205712080001831,0.5343143939971924
0.8232195759604368,1.3725033625130258,2.289271245425195,-1.7617144584655762,-1.6688926219940186,5.415388107299805,0.6665412187576294,-0.733338475227356,-0.13393044471740723,-0.04535609483718872,0.9564524292945862,0.4828227460384369
0.8721536258179711,1.3225130484936944,2.3333951180679753,-1.7691131830215454,-1.7069733142852783,5.430983543395996,0.6234564185142517,-0.7657158970832825,-0.15805497765541077,-0.14034801721572876,0.9722587466239929,0.41608119010925293
0.9193057013451682,1.2659580534789427,2.384097801601164,-1.7608118057250977,-1.6834708452224731,5.383094787597656,0.5784160494804382,-0.7951807975769043,-0.18199598789215088,-0.250382661819458,0.958052933216095,0.33021992444992065
0.9638962456713115,1.2022793167350314,2.4423109539292946,-1.770121693611145,-1.6412556171417236,5.310932636260986,0.5320338606834412,-0.821419894695282,-0.2054491490125656,-0.3541470170021057,0.9215174317359924,0.2509356737136841
1.0052032441325143,1.1303649289549862,2.5091446446922623,-1.7804449796676636,-1.6087119579315186,5.205544471740723,0.4847731292247772,-0.8442708849906921,-0.22847728431224823,-0.4352737069129944,0.8732777237892151,0.1916273832321167
1.0425031778298457,1.0497875708191964,2.5848578531811,-1.7540141344070435,-1.5731732845306396,5.0615057945251465,0.4371803402900696,-0.86366868019104,-0.25089868903160095,-0.5010231733322144,0.8092555403709412,0.11941376328468323
1.0752093465967367,0.9610725549710529,2.6688357932990794,-1.6951918601989746,-1.525472640991211,4.877869129180908,0.3898575007915497,-0.8796897530555725,-0.2723184823989868,-0.5720322728157043,0.7421773672103882,0.03721112012863159
1.1026960330256301,0.865476289586268,2.75990061094887,-1.6360682249069214,-1.4555107355117798,4.638064861297607,0.343539297580719,-0.8924270272254944,-0.29249751567840576,-0.6787903308868408,0.6523756980895996,-0.036710768938064575
1.1242276383352257,0.765104570240382,2.855874786633981,-1.594298243522644,-1.4056981801986694,4.324464797973633,0.2991209030151367,-0.9019343256950378,-0.31151458621025085,-0.7993041276931763,0.5373254418373108,-0.1033565104007721
1.1394695280502227,0.6627901132371739,2.9536370360832054,-1.5480904579162598,-1.3566398620605469,3.9621407985687256,0.2572503089904785,-0.9084118604660034,-0.329560786485672,-0.9205195307731628,0.43389391899108887,-0.15591278672218323
1.148811768425032,0.5629483677508034,3.048887056183857,-1.4578022956848145,-1.2683467864990234,3.5675318241119385,0.21858106553554535,-0.9122779369354248,-0.34636884927749634,-1.045241355895996,0.33779966831207275,-0.214498370885849
1.1533389943395302,0.47015196769814926,3.1371870727809443,-1.3089005947113037,-1.1643692255020142,3.1476144790649414,0.1836722046136856,-0.9141227602958679,-0.36144766211509705,-1.165697455406189,0.24069112539291382,-0.3046289384365082
1.1544469871643606,0.3876220602233098,-3.0678436869172216,-1.1240953207015991,-1.0530818700790405,2.7068841457366943,0.15286760032176971,-0.9145714640617371,-0.3744204640388489,-1.2851309776306152,0.154363214969635,-0.40594443678855896
1.1533682615894951,0.31771653497581015,-3.0023210976803028,-0.9118619561195374,-0.948533833026886,2.1970555782318115,0.1266496330499649,-0.914134681224823,-0.38512060046195984,-1.4061907529830933,0.06708866357803345,-0.4976460039615631
1.1512560142839516,0.26272023539922296,-2.9518415713779103,-0.6664735078811646,-0.8269741535186768,1.6120011806488037,0.10578982532024384,-0.9132763147354126,-0.39336374402046204,-1.5476998090744019,-0.04459428787231445,-0.5881425142288208
1.1492258417047823,0.2241455227744969,-2.917905851014107,-0.3944087028503418,-0.6956222057342529,0.9808609485626221,0.09095296263694763,-0.912447452545166,-0.3989579379558563,-1.6864426136016846,-0.15171587467193604,-0.6790449023246765
1.1481231113039718,0.20259966474896818,-2.9011104531134917,-0.11283454298973083,-0.5460923910140991,0.3168877363204956,0.08253904432058334,-0.9119956493377686,-0.40181025862693787,-1.8115431070327759,-0.2278817892074585,-0.75807124376297
1.1483457882479675,0.19873378258483054,-2.9018325489031866,0.1674724668264389,-0.3546980321407318,-0.36764803528785706,0.0809449777007103,-0.9120869636535645,-0.40192723274230957,-1.9239016771316528,-0.2873302698135376,-0.8207899928092957
1.1499175563918804,0.21330668188079063,-2.9204957318894187,0.45528295636177063,-0.13511908054351807,-1.0654884576797485,0.08648981899023056,-0.9127302765846252,-0.3993033170700073,-2.0032684803009033,-0.3249407410621643,-0.8557015061378479
1.1525773210362122,0.24673191305154535,-2.95731573779443,0.7458921670913696,0.09394116699695587,-1.7352162599563599,0.0991925522685051,-0.9138137102127075,-0.39383435249328613,-2.0377302169799805,-0.32133960723876953,-0.8535868525505066
1.155528357600239,0.29860468606442053,-3.0117811576936586,1.0080164670944214,0.3200930953025818,-2.3507120609283447,0.11868541687726974,-0.9150082468986511,-0.3855825364589691,-2.020418882369995,-0.2738804221153259,-0.8121103048324585
1.1575168044923918,0.3673452304810772,-3.0823331722192053,1.2257521152496338,0.5099000334739685,-2.890571355819702,0.14423558115959167,-0.9158086180686951,-0.3748207688331604,-1.9358159303665161,-0.19423776865005493,-0.7203177213668823
1.157112651774882,0.4504287886121954,3.116667185001192,1.390282154083252,0.6877728700637817,-3.354032516479492,0.17500485479831696,-0.9156462550163269,-0.3618912994861603,-1.7987384796142578,-0.09537070989608765,-0.6031507253646851
1.1529191455685968,0.5442944618730367,3.0224148870961867,1.5054337978363037,0.8415282964706421,-3.742569923400879,0.21014036238193512,-0.9139524698257446,-0.3471774756908417,-1.6502039432525635,0.005077719688415527,-0.48036763072013855
1.1438626611418048,0.6444188800802944,2.922694328175282,1.5773348808288574,0.9969988465309143,-4.055049419403076,0.24875317513942719,-0.9102397561073303,-0.3310374915599823,-1.5090224742889404,0.10698628425598145,-0.3659839332103729
1.1292973219503675,0.7461347039616382,2.8222615497391437,1.6063088178634644,1.1253244876861572,-4.3203558921813965,0.2900505065917969,-0.9041121602058411,-0.3137708306312561,-1.368923306465149,0.1965925097465515,-0.25979170203208923
1.1088316432252934,0.8454365467367695,2.724943129118607,1.6059272289276123,1.2157270908355713,-4.560372352600098,0.33350589871406555,-0.8951785564422607,-0.2956848442554474,-1.2560676336288452,0.26454776525497437,-0.16392508149147034
1.0825305111485666,0.9389024760784991,2.633707874035127,1.5961114168167114,1.2484419345855713,-4.788172245025635,0.3785177767276764,-0.883147656917572,-0.2770823538303375,-1.151757001876831,0.31683290004730225,-0.07888981699943542
1.050608335167669,1.0248842012686172,2.5500251521560253,1.590641736984253,1.2982150316238403,-5.024031162261963,0.42480018734931946,-0.8677257299423218,-0.2580638825893402,-1.0665849447250366,0.3701517581939697,-0.009773552417755127
1.0135939381106451,1.1029439351580606,2.474532875018496,1.594796061515808,1.3486219644546509,-5.215856552124023,0.4719870686531067,-0.8487378358840942,-0.23847952485084534,-0.983965277671814,0.4263133406639099,0.0414886474609375
0.9723506183349551,1.1725112323862208,2.407639206179109,1.5800695419311523,1.3494211435317993,-5.342265605926514,0.5192635655403137,-0.8262122273445129,-0.21849220991134644,-0.8568949103355408,0.4906712770462036,0.09294295310974121
0.9278623849447006,1.2330678999515077,2.349508624584158,1.5275377035140991,1.3046250343322754,-5.396183490753174,0.5656777024269104,-0.8003401756286621,-0.19865646958351135,-0.7213480472564697,0.5521253347396851,0.1576256901025772
0.8811432827938999,1.2849545017180282,2.3001445472761626,1.4108105897903442,1.3215177059173584,-5.377442359924316,0.6104528307914734,-0.7714667916297913,-0.17940592765808105,-0.5967352390289307,0.6034368276596069,0.23505479097366333
0.8329493183616148,1.3293495153351917,2.259307674287521,1.2398618459701538,1.3887962102890015,-5.344104766845703,0.6531835794448853,-0.73991858959198,-0.16084691882133484,-0.4848487377166748,0.6422163844108582,0.3169901967048645
0.7835348411638694,1.367624057843731,2.2261691766158305,1.0495082139968872,1.4780364036560059,-5.324968338012695,0.6938520073890686,-0.7057880163192749,-0.14294378459453583,-0.4150434732437134,0.6489030122756958,0.3766627311706543
0.733129773808094,1.4011540750584455,2.1996824497752803,0.8695229887962341,1.587585210800171,-5.312504291534424,0.7324169278144836,-0.6691985726356506,-0.1254546344280243,-0.3784588575363159,0.6479581594467163,0.40134888887405396
0.6821322227434251,1.4310582467394894,2.178658686596655,0.7228943705558777,1.652286171913147,-5.271925926208496,0.7686641216278076,-0.6304495334625244,-0.1081162840127945,-0.3123347759246826,0.6549091935157776,0.41623711585998535
0.631201998028355,1.4575551855087245,2.1620607315561915,0.606834352016449,1.6085847616195679,-5.17514181137085,0.802148163318634,-0.5901156067848206,-0.09122645854949951,-0.19074374437332153,0.675518810749054,0.42699623107910156
0.5810868712725352,1.4804837414296255,2.149046947937737,0.5091022253036499,1.4996646642684937,-5.028636932373047,0.8324602842330933,-0.5489327311515808,-0.07538671046495438,-0.06259322166442871,0.7077917456626892,0.45148545503616333
0.5321377951569103,1.500377096109384,2.138860850873973,0.43440181016921997,1.4069783687591553,-4.890868186950684,0.8595889210700989,-0.5073766708374023,-0.06063184514641762,0.025955021381378174,0.7331454753875732,0.4637386202812195
0.48404977020037504,1.5178072562615654,2.130930100795728,0.35447847843170166,1.3093996047973633,-4.817859649658203,0.8838754296302795,-0.46536749601364136,-0.04687962308526039,0.08965063095092773,0.7121782302856445,0.44797223806381226
0.43633660010269815,1.532933589001968,2.1251120326914927,0.2563436031341553,1.196890950202942,-4.77937126159668,0.9056565165519714,-0.4226221442222595,-0.03430703282356262,0.15235739946365356,0.6592857837677002,0.4270073175430298
0.3890666874258641,1.5456444141387236,2.1211484274822476,0.1772783398628235,1.0232278108596802,-4.698243618011475,0.9249708652496338,-0.3793250322341919,-0.023269694298505783,0.27266091108322144,0.6282262802124023,0.41325390338897705
0.3431051818895223,1.5557332022027777,2.1185948773874648,0.11679819226264954,0.8089366555213928,-4.499423027038574,0.9416078329086304,-0.3364129066467285,-0.014184628613293171,0.45792829990386963,0.6399863362312317,0.39971327781677246
0.2998158778752007,1.563087143058761,2.1171931295948383,0.05111877620220184,0.5780222415924072,-4.161496639251709,0.9553624987602234,-0.2953442931175232,-0.0073652109131217,0.6722619533538818,0.6679637432098389,0.40265947580337524
0.260454000247444,1.5680393604215606,2.1168616562698777,-0.028381409123539925,0.40443262457847595,-3.71281361579895,0.9662697315216064,-0.25751927495002747,-0.002663979772478342,0.8785790205001831,0.7008937001228333,0.39333486557006836
0.2259553406694603,1.5713307519747082,2.1176159625878173,-0.12592527270317078,0.29784759879112244,-3.19416880607605,0.9745805263519287,-0.2240375280380249,0.0005208404618315399,1.0351850986480713,0.7144395709037781,0.3605937957763672
0.1966149951960272,1.573786455015879,2.1194305416336285,-0.21695788204669952,0.2841222882270813,-2.68664288520813,0.9807292819023132,-0.19535066187381744,0.0029325149953365326,1.134871482849121,0.7070081830024719,0.31667816638946533
0.17229224593245537,1.5764871399438487,2.122037321886284,-0.27248769998550415,0.3578295409679413,-2.186548948287964,0.985178530216217,-0.17144110798835754,0.00560652744024992,1.1754202842712402,0.6961144208908081,0.25834012031555176
0.15302952561788646,1.5799466260711355,2.125124234079884,-0.31050240993499756,0.43054085969924927,-1.6762851476669312,0.9882725477218628,-0.15243294835090637,0.00904324185103178,1.2239010334014893,0.6836217641830444,0.20119249820709229
0.1389118978955457,1.5838293417124107,2.1285772191245966,-0.3413172960281372,0.43720540404319763,-1.1578865051269531,0.9902831315994263,-0.13846558332443237,0.01290710549801588,1.2841765880584717,0.674506664276123,0.1775684356689453
0.12992475094160158,1.5874891399091369,2.1322203624413607,-0.35175958275794983,0.3886290192604065,-0.657863974571228,0.9914336800575256,-0.12955953180789948,0.01655135490000248,1.3393464088439941,0.6762970089912415,0.17665553092956543
0.12578931392194476,1.5905117957264763,2.1357656520723234,-0.3377055525779724,0.3007287383079529,-0.18285246193408966,0.9919063448905945,-0.12545785307884216,0.019558433443307877,1.3632268905639648,0.6751707792282104,0.17389261722564697
0.12645845174875556,1.5924560983361453,2.1390870096650367,-0.32698535919189453,0.16377921402454376,0.3038180470466614,0.9917823076248169,-0.1261216700077057,0.021485138684511185,1.3699121475219727,0.6730422973632812,0.1792747974395752
0.13203892288043342,1.5927914051803234,2.14219070073156,-0.31237098574638367,-0.022971762344241142,0.8012531399726868,0.991055965423584,-0.13165558874607086,0.021801870316267014,1.383532166481018,0.6836421489715576,0.20460808277130127
0.14267578075994325,1.5910849124232738,2.144972447516726,-0.28278523683547974,-0.24617330729961395,1.3169007301330566,0.9896354675292969,-0.14219221472740173,0.020081060007214546,1.3723030090332031,0.7037307024002075,0.21745264530181885
0.15827802484114362,1.5871593564705957,2.1473910755900376,-0.25584280490875244,-0.4593489468097687,1.7918621301651,0.9873681664466858,-0.15761798620224,0.01615777611732483,1.333188533782959,0.7162725925445557,0.2215590476989746
0.1783275760900627,1.5814642962141268,2.1496347605617765,-0.24401067197322845,-0.5989519953727722,2.214036703109741,0.9840859174728394,-0.1773839145898819,0.010498596355319023,1.2401878833770752,0.7158358693122864,0.2208399772644043
0.20234239241993668,1.574544611934965,2.15191191731543,-0.2364124208688736,-0.7005151510238647,2.5881896018981934,0.9795918464660645,-0.20096448063850403,0.0036718067713081837,1.12834894657135,0.7063049077987671,0.2100580930709839
0.22983387495072038,1.5665934129332466,2.1542713603809447,-0.22301705181598663,-0.7866184711456299,2.914400339126587,0.9736958742141724,-0.22781577706336975,-0.004092383664101362,1.0162334442138672,0.7056140303611755,0.19606328010559082
0.2604745290378973,1.5578733841369579,2.156802081804104,-0.21651680767536163,-0.8366156220436096,3.226606845855713,0.9661874771118164,-0.2575390934944153,-0.012486680410802364,0.9056846499443054,0.7171489000320435,0.1978810429573059
0.29420936401275144,1.548444657692698,2.1596770850897546,-0.21957997977733612,-0.8929616808891296,3.5402185916900635,0.9567928314208984,-0.28998327255249023,-0.02138947881758213,0.8278141617774963,0.7307332158088684,0.22275978326797485
0.33095164509133823,1.5383035682817152,2.1632205697135034,-0.25961288809776306,-0.9123295545578003,3.8337504863739014,0.9452344179153442,-0.3249431848526001,-0.030724087730050087,0.7428606748580933,0.7506327033042908,0.2508779764175415
0.37041765558964745,1.5275660985187463,2.168016027353642,-0.34766414761543274,-0.9137751460075378,4.099057197570801,0.9313054084777832,-0.3620047867298126,-0.04028564319014549,0.6529536247253418,0.7605642080307007,0.29017889499664307
0.412270559599654,1.5156956183760089,2.174690691372692,-0.4792945981025696,-0.9591527581214905,4.332334518432617,0.914823055267334,-0.4006906747817993,-0.050458475947380066,0.5674462914466858,0.7579444646835327,0.33469927310943604
0.4560666885078267,1.5019252787438846,2.1837596668890997,-0.6197236776351929,-1.0385982990264893,4.522313117980957,0.8956634402275085,-0.4404202401638031,-0.061782993376255035,0.4686858654022217,0.7730769515037537,0.3771059513092041
0.5013546376527291,1.4856778503254349,2.1953302878827485,-0.73007732629776,-1.1524181365966797,4.679206371307373,0.873757541179657,-0.48061391711235046,-0.07455304265022278,0.38320040702819824,0.793617308139801,0.42100393772125244
0.5478030088618047,1.4665193894496467,2.209362358571517,-0.8095993399620056,-1.272203803062439,4.8121724128723145,0.8490340709686279,-0.52081298828125,-0.08885697275400162,0.3132433295249939,0.8197629451751709,0.4436696767807007
0.595254268148915,1.4444703604343136,2.2259228406871197,-0.8662613034248352,-1.3390902280807495,4.952849864959717,0.8214081525802612,-0.5607193112373352,-0.10432069003582001,0.23636162281036377,0.8608748316764832,0.449108362197876
0.6438238016081967,1.4197950324457074,2.245266222512803,-0.9151387810707092,-1.349023461341858,5.125676155090332,0.7907053828239441,-0.6002581119537354,-0.1203133687376976,0.19783520698547363,0.9095383882522583,0.44428807497024536
0.6938339368164432,1.3923118583315994,2.2681425561272834,-0.9961284399032593,-1.3037047386169434,5.352039813995361,0.7565867304801941,-0.6394894123077393,-0.13649146258831024,0.18874096870422363,0.9639216661453247,0.4400956630706787
0.745471515440736,1.3616007257673368,2.2959931615567357,-1.1362645626068115,-1.1571022272109985,5.609323978424072,0.7187491059303284,-0.6783183217048645,-0.15259161591529846,0.16328519582748413,1.0339242219924927,0.4560127258300781
0.7984988283979874,1.3268194629831362,2.330827368386764,-1.3585187196731567,-0.9305588006973267,5.868858814239502,0.6771181225776672,-0.7163094282150269,-0.1685589849948883,0.12024509906768799,1.0876623392105103,0.47529125213623047
0.8525234228801155,1.2861936947955976,2.3754170756014026,-1.6717779636383057,-0.626544713973999,6.162459373474121,0.6316128373146057,-0.7529434561729431,-0.18477465212345123,0.06998622417449951,1.1285536289215088,0.4947722554206848
0.9069245834411397,1.2371070284899794,2.433360463349916,-2.0674691200256348,-0.2556731700897217,6.466931343078613,0.5821831822395325,-0.7876124978065491,-0.20181509852409363,0.0052343010902404785,1.1788172721862793,0.5015131235122681
0.9603079365859689,1.1755727693630524,2.508426616681126,-2.4736692905426025,-0.002641394967213273,6.6943840980529785,0.529075026512146,-0.8193681240081787,-0.2207164764404297,-0.10678809881210327,1.211167812347412,0.47535520792007446
1.0101638766332919,1.0971905801934343,2.602725946096431,-2.776899576187134,0.03056982159614563,6.723232746124268,0.47319531440734863,-0.8469190001487732,-0.24251750111579895,-0.2813008725643158,1.1995646953582764,0.42220503091812134
1.0532775638022187,1.0006229029359377,2.715068702095496,-2.9149019718170166,-0.06005648151040077,6.474337577819824,0.4164636433124542,-0.8690493702888489,-0.26704201102256775,-0.5380305051803589,1.111465573310852,0.30024516582489014
1.086596821012007,0.8898652743508995,2.8398555753340933,-2.8990261554718018,-0.20598278939723969,5.944582939147949,0.36168769001960754,-0.8850478529930115,-0.2930402457714081,-0.8451472520828247,0.9472424983978271,0.11632823944091797
1.1089431828101108,0.7720922901275032,2.968609413686607,-2.7513699531555176,-0.425048828125,5.266261100769043,0.31087231636047363,-0.8952282667160034,-0.3192572295665741,-1.1143850088119507,0.756449282169342,-0.08757254481315613
1.1213181804887542,0.655825464192943,3.092202805392167,-2.501155138015747,-0.6156618595123291,4.596986293792725,0.2649615705013275,-0.9006739854812622,-0.34435752034187317,-1.284172534942627,0.5981530547142029,-0.27859777212142944
1.126324617439212,0.5472531810620971,-3.0780545881643455,-2.2030506134033203,-0.7274812459945679,4.045294284820557,0.22373788058757782,-0.9028379321098328,-0.3671853840351105,-1.3537429571151733,0.5009671449661255,-0.43737998604774475
1.1265728268744883,0.44873757940261944,-2.977580484019366,-1.8842207193374634,-0.8237582445144653,3.5830893516540527,0.18644078075885773,-0.9029446244239807,-0.38720905780792236,-1.3322997093200684,0.44270896911621094,-0.5660836696624756
1.123930034119832,0.3616475174105584,-2.890103723380056,-1.581627368927002,-0.7814984321594238,3.1494033336639404,0.15289852023124695,-0.9018057584762573,-0.40418872237205505,-1.3284357786178589,0.3793752193450928,-0.6648420095443726
1.11963316481395,0.28786524706025973,-2.815525732407781,-1.3083399534225464,-0.5097262859344482,2.722973585128784,0.12378661334514618,-0.899940550327301,-0.4180717468261719,-1.3915327787399292,0.29793548583984375,-0.7696113586425781
1.1145320073558584,0.22916140028271828,-2.753258301873425,-1.0812128782272339,-0.013057347387075424,2.3048651218414307,0.10008661448955536,-0.8977046608924866,-0.42907941341400146,-1.4618879556655884,0.2021174430847168,-0.8582130670547485
1.1092045844328926,0.18639601706035722,-2.701933675026842,-0.9108372926712036,0.6903636455535889,1.9429439306259155,0.08253606408834457,-0.8953447341918945,-0.43765944242477417,-1.507340908050537,0.10510718822479248,-0.923210859298706
1.1038355180383568,0.1593296290169879,-2.659011045066418,-0.8223669528961182,1.5973362922668457,1.679538369178772,0.07142309099435806,-0.8929405808448792,-0.4444727897644043,-1.4986236095428467,0.0518607497215271,-0.9559788107872009
1.098251551404912,0.146712466493807,-2.621626360949656,-0.8021793961524963,2.5362675189971924,1.5085586309432983,0.06653745472431183,-0.8904129266738892,-0.45026418566703796,-1.41440749168396,0.04892110824584961,-0.9393384456634521
1.0926698594233046,0.14610080517421223,-2.5883304638546933,-0.7352304458618164,3.243422031402588,1.350515365600586,0.06698453426361084,-0.887858510017395,-0.45521479845046997,-1.287184238433838,0.08727556467056274,-0.8781439661979675
1.088102607946077,0.1549282326279085,-2.558637308521619,-0.5667998790740967,3.786517381668091,1.24553382396698,0.0716252401471138,-0.8857477903366089,-0.4586075246334076,-1.1618810892105103,0.1397150158882141,-0.8197585344314575
1.0857265678601653,0.1705784073235089,-2.5310372051961387,-0.3108624219894409,4.228885650634766,1.2258496284484863,0.0791504830121994,-0.8846424221992493,-0.4595031142234802,-1.0217013359069824,0.190535306930542,-0.79693603515625
1.0862931209396869,0.19103550109114728,-2.504484241394245,-0.021423442289233208,4.563353061676025,1.2382510900497437,0.08843816816806793,-0.8849064707756042,-0.45729562640190125,-0.8553298115730286,0.23652994632720947,-0.7580516338348389
1.0899366658278287,0.21481033554381096,-2.4785496991395677,0.2461697906255722,4.788906574249268,1.2763283252716064,0.09859634190797806,-0.8865976333618164,-0.4519108831882477,-0.696832537651062,0.25253385305404663,-0.6908503770828247
1.096298454991898,0.24047966148471056,-2.452587388589779,0.4456285834312439,4.975529670715332,1.3468890190124512,0.10881727933883667,-0.8895222544670105,-0.44374436140060425,-0.5731881856918335,0.2642780542373657,-0.585155725479126
1.1046020710776674,0.26717308465477757,-2.425589459228277,0.532092809677124,5.196434020996094,1.4478543996810913,0.11866798251867294,-0.8932853937149048,-0.43354251980781555,-0.4734959900379181,0.2647148370742798,-0.46259090304374695
1.1136757645878892,0.2942661757698375,-2.3962696282604505,0.47170490026474,5.512005805969238,1.5722512006759644,0.12801282107830048,-0.8973271250724792,-0.42239418625831604,-0.4182198643684387,0.273440957069397,-0.33190879225730896
1.122360388899251,0.32172382039329445,-2.363202425482596,0.29807180166244507,5.951675891876221,1.7165462970733643,0.13709169626235962,-0.9011263251304626,-0.4113117456436157,-0.38284987211227417,0.28370988368988037,-0.21083486080169678
1.1299585615088088,0.35004891439946023,-2.3264655440046593,0.10703740268945694,6.354241847991943,1.7502310276031494,0.14633320271968842,-0.9043945074081421,-0.4008207321166992,-0.35046541690826416,0.2777159810066223,-0.12354758381843567
1.1367932367859173,0.37927661246796124,-2.2869048587103977,-0.020168978720903397,6.686819553375244,1.9043906927108765,0.15569183230400085,-0.9072896838188171,-0.39062196016311646,-0.4164798855781555,0.19752711057662964,-0.08410945534706116
1.1438595005143612,0.40710017477579713,-2.24121092316576,-0.12922276556491852,7.242366313934326,2.165229558944702,0.16395606100559235,-0.9102384448051453,-0.3802427053451538,-0.3473210334777832,0.2106229066848755,-0.09493130445480347
1.1516310593273773,0.43467373213652977,-2.18908626219313,-0.20241203904151917,7.759730339050293,2.380661725997925,0.17139291763305664,-0.9134290218353271,-0.3691505789756775,-0.20662552118301392,0.3088451623916626,-0.09450304508209229
1.1601531944934014,0.4596443373983087,-2.130969307219324,-0.2924646735191345,7.852591037750244,2.5892720222473145,0.1770964413881302,-0.916864275932312,-0.357766330242157,-0.24180904030799866,0.2974032163619995,-0.0782841145992279
1.1691042950220834,0.47789016811024065,-2.0661568522165523,-0.4363352358341217,7.715007305145264,2.7970879077911377,0.17981281876564026,-0.9204007387161255,-0.3471744954586029,-0.25896018743515015,0.3070126175880432,-0.008538484573364258
1.1778049016023944,0.4866303434552012,-1.993323484034663,-0.646174430847168,7.486461162567139,3.0140132904052734,0.17908820509910583,-0.923767626285553,-0.3384978175163269,-0.1849171221256256,0.3439489006996155,0.04114976525306702
1.1858406404931807,0.48460444703781586,-1.9114067435449316,-0.8256964683532715,7.304449558258057,3.24157452583313,0.17493848502635956,-0.9268150925636292,-0.33228111267089844,-0.07641248404979706,0.3740042448043823,0.08908644318580627
1.1936966299137186,0.4724253823381977,-1.82062295134209,-0.8761774897575378,7.137281894683838,3.4902007579803467,0.16756004095077515,-0.9297364950180054,-0.3278927803039551,0.010586291551589966,0.36609208583831787,0.08958098292350769
1.2022703846663727,0.4501582441434845,-1.7210653745224165,-0.8171755075454712,6.986021041870117,3.780200242996216,0.15674369037151337,-0.9328593611717224,-0.32435303926467896,0.04674750566482544,0.3122538924217224,0.06165769696235657
1.2114830577718412,0.41788098394930173,-1.6122803065275193,-0.7875111103057861,6.92259407043457,4.019108295440674,0.14270082116127014,-0.9361385107040405,-0.3213741183280945,0.04104553163051605,0.28156691789627075,0.07166397571563721
1.21951526602762,0.3768572089761618,-1.494950440951563,-0.9216268658638,6.902951717376709,4.12067174911499,0.12662918865680695,-0.9389326572418213,-0.319953978061676,-0.012646034359931946,0.2645704746246338,0.09223178029060364
1.2235468856936058,0.3294582258599249,-1.3715285784152262,-1.2721787691116333,6.81518030166626,4.0735673904418945,0.11010167747735977,-0.9403123259544373,-0.3220103979110718,-0.09700959175825119,0.21143031120300293,0.12732341885566711
1.2211128707058647,0.2785428215061415,-1.2464062437711625,-1.7611644268035889,6.528865337371826,3.934689998626709,0.09419980645179749,-0.9394811987876892,-0.3293960988521576,-0.1270214319229126,0.14323174953460693,0.20911097526550293
1.2114195691159177,0.2276277664169354,-1.1246303422442552,-2.2218663692474365,6.146867752075195,3.7708475589752197,0.07936509698629379,-0.9361162185668945,-0.3426189422607422,-0.09660747647285461,0.10052967071533203,0.3126353919506073
1.1955563132186224,0.18048523185298423,-1.0105011159873327,-2.5250940322875977,5.754671096801758,3.626991033554077,0.0657886266708374,-0.9304196834564209,-0.3605431616306305,-0.06612426042556763,0.05007904767990112,0.33321458101272583
1.1757047896392454,0.1391515879274204,-0.9058510003579526,-2.624082565307617,5.404662132263184,3.5147435665130615,0.053385790437459946,-0.9229613542556763,-0.3811725974082947,-0.07509897649288177,0.002490103244781494,0.2532581090927124
1.1543264351378373,0.104538420910814,-0.8109954135431889,-2.5126497745513916,5.134140968322754,3.4101903438568115,0.042212460190057755,-0.9145227074623108,-0.4023264944553375,-0.1258610635995865,-0.030835628509521484,0.13067424297332764
1.1335025720043386,0.07667363314927651,-0.7251261014348346,-2.2722079753875732,4.949041843414307,3.3044180870056152,0.032438673079013824,-0.9059010744094849,-0.4222453236579895,-0.19938500225543976,-0.06394761800765991,-0.008815526962280273
1.1142902352748005,0.05480725276990635,-0.6470565560204766,-2.0163934230804443,4.770724296569824,3.1847753524780273,0.02414775639772415,-0.897598147392273,-0.44015294313430786,-0.2585836946964264,-0.09417742490768433,-0.09982514381408691
1.0964647007374668,0.0379311317590555,-0.5760252516795115,-1.8653104305267334,4.558318614959717,3.0239992141723633,0.017320673912763596,-0.8895981907844543,-0.4564157724380493,-0.28067201375961304,-0.10852503776550293,-0.10394805669784546
1.078823767721676,0.025766275781406472,-0.512235443201099,-1.8771936893463135,4.325140953063965,2.7893714904785156,0.01216975599527359,-0.8814027905464172,-0.47220882773399353,-0.25447922945022583,-0.11376023292541504,-0.030507266521453857
1.059948601090207,0.018299246796398595,-0.45603964931896446,-2.0350069999694824,4.0387043952941895,2.543790578842163,0.008946314454078674,-0.872330367565155,-0.4888351857662201,-0.21812893450260162,-0.11009156703948975,0.061497509479522705
1.0389788909050706,0.013562437650720268,-0.40620295827411107,-2.243521213531494,3.6735517978668213,2.368321657180786,0.006877311039716005,-0.8618868589401245,-0.5070540904998779,-0.14968420565128326,-0.09982883930206299,0.11697834730148315
1.0161048913144577,0.010102582054567565,-0.3611403959963899,-2.3808937072753906,3.369192123413086,2.239628314971924,0.005320749245584011,-0.8500629663467407,-0.5266543030738831,-0.07894429564476013,-0.09564632177352905,0.13015460968017578
0.9924716035465538,0.008906982588698206,-0.32099038006659275,-2.3718972206115723,3.209747314453125,2.014103889465332,0.004868688527494669,-0.8373795747756958,-0.546600341796875,-0.06605629622936249,-0.12194055318832397,0.0592803955078125
0.9698225046065316,0.013403569369231946,-0.28717869576364385,-2.1831650733947754,3.3632726669311523,1.6998651027679443,0.007578766904771328,-0.8247853517532349,-0.565395176410675,-0.20072437822818756,-0.14507853984832764,-0.05878084897994995
0.9499506153815698,0.02668864859364839,-0.2600847182689818,-1.8468564748764038,3.755741596221924,1.3259403705596924,0.015523567795753479,-0.8133867979049683,-0.5815162062644958,-0.38869237899780273,-0.227430522441864,-0.21967709064483643
0.9332945767045236,0.05013673060389664,-0.24021521740993085,-1.6020022630691528,4.1626458168029785,0.8827374577522278,0.029828373342752457,-0.8035851716995239,-0.5944419503211975,-0.5278903841972351,-0.3154639005661011,-0.3337196707725525
0.9177965417530971,0.08334366238352324,-0.2277004802832223,-1.6280142068862915,4.454654693603516,0.415010541677475,0.050578661262989044,-0.7942647933959961,-0.605462908744812,-0.6223711371421814,-0.2782602906227112,-0.2491055727005005
0.9006733418631314,0.12227283449125494,-0.22159688953152004,-1.8787468671798706,4.230986595153809,-0.006225891876965761,0.07575242966413498,-0.783745288848877,-0.6164454817771912,-0.5939102172851562,-0.16701465845108032,-0.028101027011871338
0.88040100363942,0.15906201906578551,-0.2192355204847552,-2.1741843223571777,3.457432746887207,-0.24544845521450043,0.10087078809738159,-0.7709943056106567,-0.6288028359413147,-0.44129419326782227,-0.05348390340805054,0.1487308144569397
0.8578664744210039,0.18735863688597992,-0.2175593409800274,-2.274362325668335,2.4609904289245605,-0.3031325340270996,0.12182679027318954,-0.7564488649368286,-0.642606794834137,-0.1866002082824707,0.009332716464996338,0.22437870502471924
0.8359696981626117,0.20572672667385578,-0.2152866869499741,-2.042952537536621,1.5999982357025146,-0.2548501193523407,0.13696035742759705,-0.7419469952583313,-0.6563205122947693,0.009188473224639893,0.003803074359893799,0.1559237837791443
0.8178085997698835,0.21737016976617335,-0.21294063387009093,-1.5652176141738892,1.1337429285049438,-0.19907446205615997,0.14747469127178192,-0.7296490669250488,-0.6677301526069641,0.07212996482849121,-0.030681133270263672,-0.014246106147766113
0.8048197744790663,0.22698813780734756,-0.21111868994742214,-1.0323923826217651,1.1061210632324219,-0.11911202222108841,0.1560097336769104,-0.7207056879997253,-0.6754586100578308,0.029476284980773926,-0.04148608446121216,-0.1778586506843567
0.7969431664751317,0.23768839226466337,-0.20903974790885002,-0.5889294743537903,1.3637605905532837,0.05208582058548927,0.16455978155136108,-0.7152230143547058,-0.6792467832565308,-0.015939027070999146,-0.0042899250984191895,-0.25469791889190674
0.7929735678507077,0.25100790496937475,-0.20508658326441379,-0.35416603088378906,1.8712397813796997,0.28775036334991455,0.17429597675800323,-0.7124430537223816,-0.6797395944595337,0.026799753308296204,0.05324810743331909,-0.2858060598373413
0.7901105998677397,0.26650854269387036,-0.19874488256828357,-0.4728005528450012,2.1001501083374023,0.4247060716152191,0.18534742295742035,-0.7104310989379883,-0.6789212226867676,0.12124758958816528,0.14841938018798828,-0.2502474784851074
0.7852255975033318,0.2815316893244708,-0.1895428606199658,-0.8401145935058594,2.2068800926208496,0.5619460344314575,0.19648751616477966,-0.7069847583770752,-0.6793859601020813,0.03860481083393097,0.1594383716583252,-0.0370599627494812
0.7769479180841138,0.29488765549886115,-0.1769046143750485,-1.258205533027649,2.243025064468384,0.6937844753265381,0.2072373777627945,-0.7011063694953918,-0.6822775602340698,0.11035922169685364,0.10222941637039185,0.09232699871063232
0.7655383285684233,0.30550678877339243,-0.16050744222367738,-1.6084635257720947,2.14565372467041,0.8862373232841492,0.2168627381324768,-0.692925214767456,-0.6876229047775269,0.13099205493927002,0.060250043869018555,0.14497458934783936
0.7520750047663446,0.3124981748630019,-0.14029050748710062,-1.8414781093597412,2.058922052383423,1.08527672290802,0.2245127558708191,-0.6831555366516113,-0.6949047446250916,0.11778783798217773,0.009357929229736328,0.21727418899536133
0.7375229144072736,0.3174937732703752,-0.11740381571023903,-1.9620931148529053,2.0536129474639893,1.2049680948257446,0.2310607135295868,-0.6724566221237183,-0.7031452059745789,0.11038538813591003,-0.015455424785614014,0.23445624113082886
0.7225615434063057,0.3215985702785283,-0.09315099221240172,-2.0110833644866943,1.995526909828186,1.289445400238037,0.2370987981557846,-0.6613082885742188,-0.711656928062439,0.09873206913471222,-0.00795745849609375,0.15783923864364624
0.7077555606558003,0.32462382714380933,-0.06844211955626703,-1.981283187866211,1.8528764247894287,1.302382230758667,0.24234730005264282,-0.650130033493042,-0.7201380729675293,0.0968252420425415,0.007750213146209717,0.09461933374404907
0.693388449944871,0.327156624038432,-0.04459353759752321,-1.9143613576889038,1.7477113008499146,1.2236919403076172,0.24714675545692444,-0.6391468644142151,-0.7282924056053162,0.07809452712535858,0.012361526489257812,0.03241539001464844
0.6792034196825196,0.33079362896533027,-0.02265402439666315,-1.8779679536819458,1.7741174697875977,1.0671300888061523,0.2527133524417877,-0.6281734108924866,-0.7358900308609009,0.019656211137771606,0.014968454837799072,0.007237136363983154
0.664684022904123,0.33605291538666743,-0.0031101955919807488,-1.8739275932312012,1.6884441375732422,0.8747142553329468,0.25956064462661743,-0.6168104410171509,-0.7430835962295532,-0.04602894186973572,-0.02152574062347412,0.010997474193572998
0.6496786884059288,0.3412238164743903,0.014014599184426099,-1.8646405935287476,1.4382179975509644,0.6986402869224548,0.26646703481674194,-0.604930579662323,-0.7503694891929626,-0.08717605471611023,-0.0504496693611145,0.008121013641357422
0.6343263658712206,0.345244196897888,0.029400995855729674,-1.863030195236206,1.2155447006225586,0.5977925062179565,0.2725927531719208,-0.5926350355148315,-0.7579425573348999,-0.08352088928222656,-0.07240402698516846,-0.0031352639198303223
0.618825389526846,0.3477073525932167,0.0438188024550457,-1.8511260747909546,0.9685737490653992,0.5571953654289246,0.2775559723377228,-0.5800787806510925,-0.7658141851425171,-0.030195564031600952,-0.06973206996917725,0.008978307247161865
0.6035067924766366,0.34816049967776785,0.05802911256283458,-1.82866632938385,0.7687320113182068,0.5984013676643372,0.28090187907218933,-0.5675332546234131,-0.77395099401474,-0.002932339906692505,-0.038393259048461914,-0.0009818077087402344
0.5887124968739532,0.3469755514705952,0.07275998268049394,-1.7893729209899902,0.6648826003074646,0.6927316188812256,0.2828090190887451,-0.555290699005127,-0.7820941805839539,0.009137570858001709,-0.013663768768310547,-0.028361082077026367
0.5746391351558013,0.34471808207863885,0.08817508355047399,-1.7339259386062622,0.5662412047386169,0.7722283005714417,0.28365570306777954,-0.5435318946838379,-0.7900079488754272,0.022603631019592285,-0.0027937889099121094,-0.05473381280899048
0.5619268884605606,0.34303039061924023,0.10387694825659567,-1.491020917892456,1.0036685466766357,0.8907830715179443,0.2846231162548065,-0.5328177809715271,-0.7969284653663635,-0.007126569747924805,0.0040397047996521,-0.0963667631149292
0.553450269577831,0.34711280820460416,0.11873874934228185,-0.940147340297699,1.3062361478805542,0.8731028437614441,0.289400190114975,-0.5256255269050598,-0.7999783158302307,-0.05757322907447815,-0.03728640079498291,-0.20327168703079224
0.5499216108460564,0.3550062909990673,0.1302097537292775,-0.41104841232299805,1.5717889070510864,0.7291301488876343,0.29634857177734375,-0.5226203799247742,-0.799403190612793,-0.16643506288528442,-0.05516892671585083,-0.39401715993881226
0.5511449229334179,0.3717178066364745,0.13798504522555566,0.1815219670534134,2.6022205352783203,0.5957303047180176,0.30943337082862854,-0.5236629843711853,-0.7937430739402771,-0.2488710880279541,-0.0880771279335022,-0.45360177755355835
0.5560258155338433,0.39610935428760946,0.14222638273456517,0.3242148458957672,2.4995834827423096,0.4506669342517853,0.32770997285842896,-0.5278148651123047,-0.7835928201675415,-0.21119368076324463,-0.1430683135986328,-0.4202645421028137
0.5568282867252257,0.4121629770597907,0.14735808327886224,-0.6183867454528809,1.2672609090805054,0.43282508850097656,0.34007692337036133,-0.528496265411377,-0.7778428196907043,-0.24699810147285461,-0.06484174728393555,-0.3224989175796509
0.5481935742048947,0.41728490430771986,0.1574695160539428,-1.5845996141433716,0.9869689345359802,0.4293842315673828,0.34589311480522156,-0.5211463570594788,-0.78023362159729,-0.02912047505378723,-0.09184497594833374,0.07904660701751709
0.5333323911686174,0.42283201147578536,0.1699271900277449,-1.9492324590682983,1.4296029806137085,0.3066500425338745,0.3533550798892975,-0.5084057450294495,-0.7852794528007507,0.06345421075820923,-0.1585254669189453,0.21525698900222778
0.516290716694379,0.43299007789995414,0.1823243619991654,-2.0316553115844727,1.8247002363204956,0.24738384783267975,0.36489632725715637,-0.4936577379703522,-0.7894002795219421,-0.10165148973464966,-0.12140882015228271,0.001711130142211914
0.4991241864039248,0.4458599800863659,0.19479520419036905,-1.9949793815612793,1.9179569482803345,0.2720052897930145,0.3786243200302124,-0.4786567687988281,-0.7921687960624695,-0.13834398984909058,-0.07140734791755676,-0.10834383964538574
0.4831441147469093,0.45823379882968307,0.20722247938797622,-1.8261055946350098,1.7088311910629272,0.29933032393455505,0.3917311429977417,-0.4645656943321228,-0.7941822409629822,-0.09853330254554749,-0.06404456496238708,-0.15132850408554077
0.4694043798596727,0.46836706462972677,0.2186782308305629,-1.5379986763000488,1.3644349575042725,0.2920023798942566,0.4026022255420685,-0.45235517621040344,-0.7957929372787476,-0.062224239110946655,-0.06989216804504395,-0.20696884393692017
0.4584903180823983,0.4756102960177575,0.22849405159549613,-1.2023979425430298,0.9582734107971191,0.282995343208313,0.4105919301509857,-0.44259485602378845,-0.797197699546814,-0.035317063331604004,-0.07562416791915894,-0.24003368616104126
0.4508437742725131,0.47916256416051095,0.23665415502742015,-0.8287772536277771,0.45522308349609375,0.3267068564891815,0.41496938467025757,-0.4357251524925232,-0.7987139821052551,-0.0066439807415008545,-0.0886889398097992,-0.2626872658729553
0.4469890172389278,0.47772380020019317,0.24355619392112943,-0.4291132986545563,-0.14430712163448334,0.42874377965927124,0.41458892822265625,-0.43225234746932983,-0.80079585313797,0.033226221799850464,-0.09017810225486755,-0.28306639194488525
0.4470572964129581,0.4717689600044869,0.2497395808066883,-0.09252222627401352,-0.43676507472991943,0.5752597451210022,0.40979960560798645,-0.4323139190673828,-0.8032242059707642,0.057180583477020264,-0.07491877675056458,-0.27369529008865356
0.44962495487119136,0.4648788040329885,0.255801578399675,0.027928121387958527,-0.41481196880340576,0.610153079032898,0.40375658869743347,-0.43462780117988586,-0.805033802986145,0.05187106132507324,-0.09521842002868652,-0.2213791012763977
0.45222790372548044,0.45773502583596504,0.26139854063917367,-0.019920893013477325,-0.5558106303215027,0.5153538584709167,0.39749404788017273,-0.4369705617427826,-0.806879997253418,-0.016878634691238403,-0.0644790530204773,-0.07227033376693726
0.45375073613570915,0.44871718463204124,0.2661093062911997,-0.07270564138889313,-0.843640923500061,0.3837818205356598,0.38991254568099976,-0.43833979964256287,-0.8098311424255371,-0.02388453483581543,-0.0037073493003845215,0.02469027042388916
0.45442749895141665,0.43732554581002875,0.2699421871797824,-0.09979025274515152,-1.0841976404190063,0.3079744279384613,0.38053640723228455,-0.43894797563552856,-0.813951313495636,0.01584133505821228,-0.019487082958221436,0.012819230556488037
0.454680421390587,0.4245216264503923,0.27350400909315137,-0.12288347631692886,-1.1425176858901978,0.30241018533706665,0.3700380027294159,-0.43917521834373474,-0.8186556100845337,0.04463502764701843,-0.06662315130233765,-0.018761873245239258
0.45473537659444785,0.4118753324327843,0.2772841671283883,-0.14313548803329468,-1.0471011400222778,0.3238603472709656,0.3596460819244385,-0.43922460079193115,-0.8232475519180298,0.06969064474105835,-0.08358731865882874,-0.04206305742263794
0.4547746246290402,0.400204009734511,0.28132790691368675,-0.13023167848587036,-0.9423122406005859,0.34754717350006104,0.35000666975975037,-0.4392598569393158,-0.8273730278015137,0.06805381178855896,-0.059702545404434204,-0.07429921627044678
0.4554049020688473,0.3894057958215252,0.2854172272431765,-0.02180267870426178,-0.8587081432342529,0.38349664211273193,0.34094712138175964,-0.43982598185539246,-0.8308478593826294,0.021479815244674683,-0.014992773532867432,-0.12629014253616333
0.4577011191403756,0.3797394999467193,0.28936857263354754,0.19075872004032135,-0.7239706516265869,0.4496443271636963,0.3325248658657074,-0.4418870210647583,-0.8331645131111145,-0.025075316429138184,0.03397378325462341,-0.19642221927642822
0.46242551609746685,0.3714368233433199,0.2930773880295012,0.4458528161048889,-0.6243524551391602,0.5157642364501953,0.3248346447944641,-0.4461202025413513,-0.8339419960975647,-0.024022668600082397,0.07229506969451904,-0.25880080461502075
0.4696747717856889,0.3637484409640072,0.29641195228429446,0.6877729296684265,-0.6229150295257568,0.5609188079833984,0.3172544836997986,-0.4525963068008423,-0.8333704471588135,-0.01157495379447937,0.08592754602432251,-0.27008408308029175
0.47897922631551093,0.3560672854710226,0.2993401423585621,0.8601481318473816,-0.6469441652297974,0.5786796808242798,0.309362530708313,-0.4608735144138336,-0.8317995667457581,0.0005589425563812256,0.06913459300994873,-0.23645293712615967
0.48926965744858036,0.3484444254716513,0.3018318898017893,0.9034957885742188,-0.6378803253173828,0.5385714769363403,0.3013775944709778,-0.4699813723564148,-0.8296319246292114,0.015501856803894043,0.03681480884552002,-0.1737859845161438
0.49904416542129665,0.3414888496974441,0.30378405650963763,0.8032536506652832,-0.5572251677513123,0.44904133677482605,0.2940472662448883,-0.47858649492263794,-0.8273398876190186,0.01050308346748352,-0.004049032926559448,-0.09426039457321167
0.507011389248768,0.3357983706060918,0.3054600624674122,0.5962847471237183,-0.42155957221984863,0.3594661355018616,0.2880689203739166,-0.48556676506996155,-0.8253733515739441,-0.0070781707763671875,-0.05219873785972595,-0.028874576091766357
0.5127718294187396,0.33138719545492534,0.30720985928209116,0.40220072865486145,-0.28872591257095337,0.31542330980300903,0.2835105061531067,-0.4905944764614105,-0.8239774703979492,-0.011491864919662476,-0.07253119349479675,0.01219475269317627
0.5170538565504967,0.32808153112552124,0.30937265945899867,0.3002861440181732,-0.16668391227722168,0.3221023380756378,0.28010568022727966,-0.4943212568759918,-0.8229139447212219,-0.021942049264907837,-0.08241522312164307,0.005622744560241699
0.5208349960855105,0.3253308397717693,0.31187324862404836,0.2864057421684265,-0.15446612238883972,0.33259597420692444,0.27724164724349976,-0.4976045787334442,-0.8219043612480164,-0.01384425163269043,-0.07221966981887817,-0.03126025199890137
0.5247749031856765,0.3218385197981475,0.31439133975866723,0.32707342505455017,-0.3181309998035431,0.32936957478523254,0.27374735474586487,-0.501018226146698,-0.8210012912750244,-0.006657332181930542,-0.04752004146575928,-0.046323418617248535
0.5290752411675936,0.31621240948172447,0.31659379608990423,0.37291789054870605,-0.579027533531189,0.3031339645385742,0.2684515118598938,-0.5047352313995361,-0.8204731345176697,0.0005611181259155273,-0.03562432527542114,-0.03354597091674805
0.533800246428004,0.3087565467114195,0.31857036905616853,0.4189143478870392,-0.6940448880195618,0.3178951144218445,0.2615991532802582,-0.5088085532188416,-0.8201705813407898,0.021100610494613647,-0.06269419193267822,-0.02832484245300293
0.5388264434853917,0.3004943203202928,0.3207574123599414,0.42174261808395386,-0.735197126865387,0.3423005938529968,0.25405368208885193,-0.5131290555000305,-0.8198508024215698,0.03362041711807251,-0.07430380582809448,-0.0443459153175354
0.5436585964078865,0.29189768649016157,0.32324400331435144,0.3743637502193451,-0.7200125455856323,0.34634262323379517,0.2462800145149231,-0.517270565032959,-0.8196202516555786,0.012997493147850037,-0.062227725982666016,-0.054189443588256836
0.5478567174116196,0.2838298782540995,0.3258710361190001,0.3018943667411804,-0.6129897236824036,0.3198454976081848,0.23904931545257568,-0.5208588242530823,-0.8194886445999146,-0.02417488396167755,-0.0569915771484375,-0.061767399311065674
0.5512170699420367,0.2772074203441084,0.32840275810283276,0.22648204863071442,-0.4454491138458252,0.2805217504501343,0.23313677310943604,-0.5237244367599487,-0.8193656206130981,-0.053357526659965515,-0.07007139921188354,-0.07998734712600708
0.5538166824564261,0.27230203106889017,0.33069376606695766,0.17077457904815674,-0.3060496747493744,0.23322425782680511,0.22874772548675537,-0.5259372591972351,-0.8191852569580078,-0.06781308352947235,-0.08645904064178467,-0.10062968730926514
0.5558369998240162,0.2686520496823394,0.3325277638000341,0.13918790221214294,-0.2381466180086136,0.17455533146858215,0.22547370195388794,-0.5276544690132141,-0.8189886212348938,-0.08014881610870361,-0.09070795774459839,-0.10346609354019165
0.5575463982077703,0.26583842326917634,0.3337478669467801,0.13942119479179382,-0.19773980975151062,0.11639082431793213,0.22293119132518768,-0.5291057825088501,-0.8187482953071594,-0.08569346368312836,-0.08914989233016968,-0.0990830659866333
0.5591982383227265,0.26373615038472215,0.3343144393952672,0.1545565128326416,-0.16593509912490845,0.06584639102220535,0.22098132967948914,-0.5305067300796509,-0.8183702826499939,-0.07954742014408112,-0.0831407904624939,-0.10202455520629883
0.5609537148088055,0.2622634317663231,0.3342950444077863,0.1869988739490509,-0.12878134846687317,0.02438870072364807,0.21953406929969788,-0.5319939851760864,-0.817794144153595,-0.07073017954826355,-0.07294076681137085,-0.10173094272613525
0.5629430943615722,0.26161181076570317,0.33371159275274437,0.2220151573419571,-0.05884720757603645,-0.019046815112233162,0.2187269628047943,-0.5336774587631226,-0.8169130682945251,-0.05875362455844879,-0.06159847974777222,-0.09766817092895508
0.5650644436352856,0.2622666010914637,0.33241614667634184,0.24529489874839783,0.05955054238438606,-0.08776383101940155,0.21896781027317047,-0.5354702472686768,-0.8156744241714478,-0.05620211362838745,-0.05608254671096802,-0.09715205430984497
0.5670993640479389,0.26490705284199734,0.33010354805463826,0.24662385880947113,0.22765086591243744,-0.1871681809425354,0.22083504498004913,-0.5371877551078796,-0.8140401244163513,-0.07320606708526611,-0.06200969219207764,-0.0935220718383789
0.5687576043883743,0.26990139900173177,0.3266200013500633,0.2254629135131836,0.3914669454097748,-0.29409968852996826,0.22466005384922028,-0.5385856628417969,-0.8120673894882202,-0.09502120316028595,-0.0631600022315979,-0.08807903528213501
0.5698574505369587,0.2768112827605545,0.3220708359953301,0.1935441642999649,0.49401602149009705,-0.3802316188812256,0.23010390996932983,-0.539512038230896,-0.8099253177642822,-0.11233636736869812,-0.05117100477218628,-0.061320960521698
0.5704954106732557,0.28478514223995516,0.3168848143719015,0.17172914743423462,0.536709189414978,-0.4183547794818878,0.23645800352096558,-0.5400490760803223,-0.8077343106269836,-0.10948944091796875,-0.03142315149307251,-0.027302861213684082
0.5708997646736932,0.2929149316497715,0.31162451591923357,0.15894943475723267,0.5144560933113098,-0.404143363237381,0.24295374751091003,-0.540389358997345,-0.8055760860443115,-0.07251289486885071,-0.005478620529174805,-0.004970669746398926
0.5713370449811073,0.3002783312599788,0.3067841126596928,0.1655186116695404,0.431964248418808,-0.3477078974246979,0.24880896508693695,-0.5407572388648987,-0.803539514541626,-0.03127947449684143,0.017579078674316406,0.019375145435333252
0.5720582988668903,0.306397795339721,0.3025837403257464,0.1839173138141632,0.34559008479118347,-0.28860121965408325,0.25360381603240967,-0.5413637757301331,-0.801629900932312,0.011578857898712158,0.02738666534423828,0.03229707479476929
0.5730577906530536,0.3116374946417691,0.2989188107235956,0.18956853449344635,0.3097713589668274,-0.23652204871177673,0.25763458013534546,-0.5422039031982422,-0.7997746467590332,0.03194689750671387,0.019330918788909912,0.03254753351211548
0.574107840506436,0.3162557818874868,0.29587743827224683,0.16384170949459076,0.2789041996002197,-0.18707486987113953,0.2611481845378876,-0.5430858731269836,-0.7980347275733948,0.023397892713546753,0.021784543991088867,0.04631054401397705
0.5750121218270667,0.32019407630976865,0.2934265325612095,0.14014996588230133,0.2516600787639618,-0.1501634567975998,0.26413434743881226,-0.5438449382781982,-0.7965335845947266,0.03307652473449707,0.03377413749694824,0.05587202310562134
0.5759124395121896,0.3240308042333343,0.29124395028214295,0.14872954785823822,0.2820407748222351,-0.1463952213525772,0.2670324742794037,-0.544600248336792,-0.795049786567688,0.03194841742515564,0.021452665328979492,0.03848862648010254
0.5769996882630328,0.3281806087742266,0.2888332272640768,0.1901552826166153,0.277084082365036,-0.16862595081329346,0.2701384723186493,-0.5455118417739868,-0.7933738231658936,0.013415813446044922,0.01662689447402954,0.0028465986251831055
0.5785498903273691,0.3322939790684303,0.2859122775861104,0.26386797428131104,0.22608143091201782,-0.1944173276424408,0.27312344312667847,-0.5468103885650635,-0.7914556264877319,-0.008520573377609253,0.0201074481010437,-0.009249210357666016
0.5807258872326977,0.3361513169118149,0.28249550079352,0.3319269120693207,0.16728468239307404,-0.20153728127479553,0.27578118443489075,-0.548630952835083,-0.7892711162567139,-0.007043182849884033,0.021775424480438232,-0.020955264568328857
0.583380538001456,0.33916412003930757,0.27896765864134454,0.3544039726257324,0.029514765366911888,-0.17337685823440552,0.27767229080200195,-0.5508484840393066,-0.7870603799819946,0.0038372576236724854,0.02234506607055664,-0.00772404670715332
0.5860324797118442,0.3396507190192528,0.27606274195844754,0.2989250123500824,-0.269327312707901,-0.10568729043006897,0.277567595243454,-0.5530598759651184,-0.7855450510978699,0.031850337982177734,0.026326417922973633,0.07682019472122192
0.5882082809224302,0.33674213589666196,0.2742889819848543,0.21021468937397003,-0.4671587646007538,-0.025904349982738495,0.27488335967063904,-0.5548713207244873,-0.7852115035057068,0.10068142414093018,0.0033728480339050293,0.15812110900878906
0.5899240963591161,0.3327154695974274,0.2737635086088104,0.14624875783920288,-0.3783431351184845,0.052741192281246185,0.27140799164772034,-0.5562979578971863,-0.7854109406471252,0.11344939470291138,-0.009131789207458496,0.10035240650177002
0.5913489447164919,0.3296069802568508,0.27413187410523226,0.10658029466867447,-0.19413255155086517,0.09351090341806412,0.26870840787887573,-0.5574814081192017,-0.7855000495910645,0.0689077377319336,0.030030786991119385,0.02820640802383423
0.5925560743227355,0.32847505492940454,0.2748907303210115,0.08227016031742096,0.05595079064369202,0.09815332293510437,0.2676018178462982,-0.5584831237792969,-0.7851661443710327,0.03128752112388611,0.038356781005859375,-0.04964214563369751
0.5935301820172924,0.32974437496784015,0.27565311930398817,0.06234538555145264,0.2756073474884033,0.08600960671901703,0.2684219479560852,-0.5592909455299377,-0.7843107581138611,0.010203748941421509,0.015482902526855469,-0.09158945083618164
0.5942789373540587,0.33255239970556705,0.276648431366288,0.017739832401275635,0.377025842666626,0.12818582355976105,0.2704864740371704,-0.5599114894866943,-0.7831578850746155,0.00015884637832641602,0.03058403730392456,-0.08177125453948975
0.594447762163944,0.33494893501801326,0.2785898278627518,-0.09704242646694183,0.30645695328712463,0.18377560377120972,0.27233147621154785,-0.5600513219833374,-0.7824181318283081,0.014961183071136475,0.0315173864364624,-0.023581504821777344
