attitudeX,attitudeY,attitudeZ,gyroX,gyroY,gyroZ,gravityX,gravityY,gravityZ,accX,accY,accZ
1.3190821562019592,-0.5682445764039211,0.25251660948742083,0.7797984480857849,0.08408568799495697,0.4333640933036804,-0.13403485715389252,-0.9684869050979614,-0.20992320775985718,0.20109720528125763,0.1223565936088562,0.1859821230173111
1.3226331287690472,-0.597595541366487,0.28364213993162746,0.6527613997459412,0.07421418279409409,0.45361000299453735,-0.13820205628871918,-0.9693652391433716,-0.20305533707141876,0.2457307130098343,0.15831470489501953,0.2406223714351654
1.3246948108510899,-0.6239984968884229,0.31174435412820434,0.4630676507949829,0.09288746863603592,0.4278774857521057,-0.14234629273414612,-0.9698695540428162,-0.19771341979503632,0.25001227855682373,0.18764299154281616,0.26587432622909546
1.3252570047654364,-0.644386035419938,0.33425157179859816,0.27579113841056824,0.20497581362724304,0.39000093936920166,-0.14601945877075195,-0.9700063467025757,-0.19433410465717316,0.27613115310668945,0.1955161690711975,0.2704448997974396
1.3243150540984685,-0.6581377150155906,0.3512147601388953,0.06736069172620773,0.3317742347717285,0.38416221737861633,-0.14923684298992157,-0.96977698802948,-0.19303062558174133,0.331396222114563,0.19914716482162476,0.26123738288879395
1.3216183282066294,-0.6654306941495998,0.3626997017789958,-0.14760592579841614,0.4285723567008972,0.3898390233516693,-0.15225498378276825,-0.9691154360771179,-0.19399403035640717,0.37405675649642944,0.2182915210723877,0.2574400305747986
1.3172909533710755,-0.6675625552605639,0.36945907327639776,-0.31734997034072876,0.4397568106651306,0.4069775342941284,-0.15526314079761505,-0.9680392146110535,-0.19696083664894104,0.4014178514480591,0.2744814157485962,0.24501070380210876
1.3117109052308769,-0.6673822069322777,0.37365798585937443,-0.41691553592681885,0.4058588445186615,0.45305922627449036,-0.1585685908794403,-0.9666246771812439,-0.20122864842414856,0.4459220767021179,0.3498338460922241,0.21686884760856628
1.3052608492606126,-0.6675146808219238,0.3780673148361386,-0.4442044198513031,0.4321642220020294,0.5269196033477783,-0.16245131194591522,-0.9649521112442017,-0.20609977841377258,0.49513864517211914,0.40365755558013916,0.1820366382598877
1.2982381746265073,-0.6689782617003976,0.38471634638567237,-0.43604961037635803,0.5702115893363953,0.6247471570968628,-0.16695116460323334,-0.963085412979126,-0.2111722230911255,0.5454607009887695,0.4244197607040405,0.15511134266853333
1.2906371064016968,-0.6715304562827056,0.39436239217902286,-0.4304010272026062,0.7785501480102539,0.7313506007194519,-0.17203941941261292,-0.9610114097595215,-0.21647031605243683,0.589321494102478,0.43060076236724854,0.14528802037239075
1.2822300100243103,-0.6740473001579118,0.40632959757813686,-0.4734039306640625,1.01124107837677,0.8379395604133606,-0.17762039601802826,-0.9586528539657593,-0.22234149277210236,0.6171039938926697,0.4423869848251343,0.1523646116256714
1.272511506082541,-0.6748293802154102,0.41906287207419424,-0.5972068905830383,1.2650035619735718,0.9459168910980225,-0.18360625207424164,-0.9558419585227966,-0.22946619987487793,0.6348086595535278,0.4653330445289612,0.17253561317920685
1.2608043121460446,-0.6722091221232226,0.43080920107653886,-0.7956541180610657,1.4826934337615967,1.0582040548324585,-0.1899603009223938,-0.9523360133171082,-0.2386867105960846,0.6404913067817688,0.47617024183273315,0.1880732774734497
1.2468058394276023,-0.6663933640025511,0.4410983677706454,-0.9948735237121582,1.6157019138336182,1.1761364936828613,-0.1967909187078476,-0.9479725956916809,-0.2502426207065582,0.6316511034965515,0.4890034794807434,0.19036710262298584
1.230514915783369,-0.6585803741729956,0.45036191761276545,-1.2012062072753906,1.6792916059494019,1.2991337776184082,-0.20425471663475037,-0.9426608085632324,-0.2639520466327667,0.6302191019058228,0.5225100517272949,0.17557311058044434
1.211769744437899,-0.6496993535021762,0.45886738591810805,-1.4087697267532349,1.6799567937850952,1.4392224550247192,-0.21255609393119812,-0.9362393021583557,-0.2797784209251404,0.6369335651397705,0.5637418031692505,0.1493157148361206
1.1906068395892537,-0.6411065295591615,0.46750026264502975,-1.5820035934448242,1.6306616067886353,1.6007039546966553,-0.2219463735818863,-0.9285943508148193,-0.2974095344543457,0.6446758508682251,0.6000421047210693,0.11019939184188843
1.167171030639967,-0.6344031061720284,0.47761529463777763,-1.70656418800354,1.5718510150909424,1.8045662641525269,-0.23278462886810303,-0.9196431636810303,-0.31633490324020386,0.6555904150009155,0.6264761090278625,0.05876648426055908
1.1416151287347325,-0.6307009737973349,0.4904242889159909,-1.778003215789795,1.5044584274291992,2.0433967113494873,-0.2453942745923996,-0.9093067646026611,-0.33606958389282227,0.6764550805091858,0.6441243290901184,0.001306980848312378
1.1143321700184237,-0.6303382335407809,0.506658415003708,-1.7969268560409546,1.5010712146759033,2.282186508178711,-0.25980186462402344,-0.8976166248321533,-0.3560720384120941,0.6803340911865234,0.6652558445930481,-0.05767008662223816
1.085637680333937,-0.6320848307579306,0.5258321592755819,-1.8017014265060425,1.5674653053283691,2.4881551265716553,-0.2755317986011505,-0.8846009969711304,-0.376248836517334,0.6666908264160156,0.6803774237632751,-0.1150689423084259
1.0557928056848958,-0.6340350105481183,0.5466725119357247,-1.8153456449508667,1.6971168518066406,2.6311144828796387,-0.29177960753440857,-0.870290994644165,-0.39681005477905273,0.631684422492981,0.6864684224128723,-0.18149808049201965
1.0252616734199824,-0.6347746819711187,0.568151198721077,-1.7965588569641113,1.8606430292129517,2.716188430786133,-0.3076910078525543,-0.8548499941825867,-0.4178011417388916,0.5835089087486267,0.684394121170044,-0.2564237713813782
0.9945284029446697,-0.6333122951688008,0.5900690735797439,-1.76303231716156,2.1364598274230957,2.7886228561401367,-0.32248061895370483,-0.8385021090507507,-0.4392271339893341,0.5332503318786621,0.6802379488945007,-0.3221254348754883
0.9635982600368528,-0.6288538831776765,0.6122333029723654,-1.7672487497329712,2.4174787998199463,2.8335962295532227,-0.33561888337135315,-0.8212499618530273,-0.46142011880874634,0.48468199372291565,0.6857976913452148,-0.37154197692871094
0.9324810424161878,-0.6208094140496636,0.6338023579148702,-1.795214295387268,2.676187038421631,2.817467212677002,-0.3465983271598816,-0.8031007051467896,-0.4846636652946472,0.4268748164176941,0.6793214678764343,-0.41140878200531006
0.9015368027971543,-0.6088175599416713,0.6539816117727804,-1.833632469177246,2.9108331203460693,2.7303452491760254,-0.3548085391521454,-0.7842812538146973,-0.508933961391449,0.331645667552948,0.6584879159927368,-0.4470292329788208
0.8708969723709608,-0.5921602572500612,0.6719957284804186,-1.9323598146438599,3.2004168033599854,2.5930733680725098,-0.3595302104949951,-0.7649070024490356,-0.5344672799110413,0.22813677787780762,0.6258231997489929,-0.48172229528427124
0.8400468126311058,-0.5702159310490355,0.6874854022856776,-2.1008546352386475,3.4931640625,2.4817237854003906,-0.36028680205345154,-0.7446743845939636,-0.5618304014205933,0.15262997150421143,0.5568692684173584,-0.5198804140090942
0.808425252496291,-0.5444048107515131,0.7009246003831644,-2.281789779663086,3.5888280868530273,2.398491144180298,-0.35768774151802063,-0.7232005000114441,-0.5907965302467346,0.07045626640319824,0.46229052543640137,-0.5505609512329102
0.7760052404215709,-0.517345851941892,0.7129446095045394,-2.436699390411377,3.501833200454712,2.330134391784668,-0.35298678278923035,-0.7004339098930359,-0.6203166246414185,0.008687496185302734,0.3961736559867859,-0.5867909789085388
0.7428376101585876,-0.49041689594233173,0.7240057653314376,-2.574411392211914,3.3963921070098877,2.2610361576080322,-0.3469114303588867,-0.6763806939125061,-0.6497396230697632,-0.04337787628173828,0.3303114175796509,-0.6431223154067993
0.7093770794929761,-0.46327141883417355,0.7342514172909089,-2.641012668609619,3.363703489303589,2.1517045497894287,-0.3390759229660034,-0.6513612270355225,-0.6787900924682617,-0.1109057366847992,0.25025349855422974,-0.7131319046020508
0.67653056538069,-0.43629505602526963,0.7440118891207641,-2.58563232421875,3.249361753463745,2.0430595874786377,-0.3295100927352905,-0.626091480255127,-0.7067053914070129,-0.1592746376991272,0.15671592950820923,-0.7855889797210693
0.6455078008417935,-0.4108157758451905,0.7543119225473576,-2.366847515106201,3.0862672328948975,1.981548547744751,-0.3190044164657593,-0.601604163646698,-0.7323309779167175,-0.16859018802642822,0.06801962852478027,-0.8544915914535522
0.6175301127092281,-0.3873608991694588,0.7658490785197372,-2.0481557846069336,2.953193187713623,1.8883576393127441,-0.30798062682151794,-0.5790231823921204,-0.7549039721488953,-0.20086944103240967,-0.0010091066360473633,-0.9013612866401672
0.5931803243348257,-0.36497369395550416,0.777732441755101,-1.7581257820129395,2.8660550117492676,1.7003986835479736,-0.2959502339363098,-0.5590008497238159,-0.7745524644851685,-0.2765137255191803,-0.0746050477027893,-0.899596095085144
0.5720261130717187,-0.3424510117686867,0.7888469056150401,-1.577275276184082,2.844003438949585,1.5028220415115356,-0.2823399305343628,-0.541336715221405,-0.7919840216636658,-0.3413325250148773,-0.16578596830368042,-0.8452687859535217
0.5525471766282214,-0.31957465587537837,0.7988603478731161,-1.5636966228485107,2.766585111618042,1.3690989017486572,-0.26741233468055725,-0.5248570442199707,-0.8080938458442688,-0.349500447511673,-0.24926698207855225,-0.7641565203666687
0.5331018638122462,-0.29751565013407694,0.8082589112790355,-1.6480817794799805,2.5947368144989014,1.3495606184005737,-0.25246745347976685,-0.5082072019577026,-0.823398768901825,-0.31462541222572327,-0.3254566788673401,-0.7012441754341125
0.5127851702995514,-0.27698560134277395,0.8179126072522147,-1.7637377977371216,2.467076063156128,1.400910496711731,-0.23828570544719696,-0.4906060993671417,-0.8381679654121399,-0.26864176988601685,-0.4223424792289734,-0.6872989535331726
0.491664965072221,-0.2577101985406782,0.8282813705605485,-1.797619104385376,2.3749029636383057,1.458214282989502,-0.22467754781246185,-0.4720942974090576,-0.8524358868598938,-0.24723099172115326,-0.4915744662284851,-0.7358056902885437
0.47109036956667516,-0.23967909277994434,0.8397684462128777,-1.6572418212890625,2.2777411937713623,1.5232176780700684,-0.211532860994339,-0.4538581669330597,-0.8656018972396851,-0.24299591779708862,-0.5184623599052429,-0.8323045969009399
0.4525872551609374,-0.22300600529619669,0.8529497970173164,-1.3797318935394287,2.2191076278686523,1.6168975830078125,-0.19889529049396515,-0.43729376792907715,-0.877048909664154,-0.23030391335487366,-0.5343706011772156,-0.929286539554596
0.43719429162539447,-0.2075630690761598,0.8682243493409524,-1.0219212770462036,2.166943073272705,1.7285674810409546,-0.18669304251670837,-0.42339932918548584,-0.886497974395752,-0.23104679584503174,-0.5397201180458069,-0.9922404289245605
0.42559661081096944,-0.19338151126878508,0.8856115612885089,-0.6192297339439392,2.0986552238464355,1.8183000087738037,-0.17503471672534943,-0.41286423802375793,-0.8938153982162476,-0.262160062789917,-0.5187916159629822,-1.01248037815094
0.41770616909632335,-0.18080510154590798,0.9047687543446272,-0.2834116816520691,1.9352717399597168,1.9106900691986084,-0.1643608808517456,-0.40566492080688477,-0.8991226553916931,-0.301520437002182,-0.5043845176696777,-0.9836746454238892
0.41296711415450604,-0.17113949678284665,0.9257289781789405,0.021244360134005547,1.6595723628997803,2.021702527999878,-0.1559884399175644,-0.40132877230644226,-0.9025534987449646,-0.3119527995586395,-0.5077745914459229,-0.9239845871925354
0.4112177116133363,-0.16500555811271536,0.9483956867339381,0.3239380419254303,1.381063461303711,2.1184163093566895,-0.15056441724300385,-0.3997258245944977,-0.9041845202445984,-0.3119904398918152,-0.48799994587898254,-0.8722742199897766
0.4123255971284095,-0.16144585804511435,0.9724999422350222,0.6068858504295349,1.2735947370529175,2.1826744079589844,-0.14727357029914856,-0.4007411003112793,-0.9042770862579346,-0.30910152196884155,-0.4701389670372009,-0.8280684947967529
0.4160882814601895,-0.1584437804921616,0.9973578629384134,0.8538083434104919,1.3310626745224,2.163334369659424,-0.14431926608085632,-0.40418559312820435,-0.9032197594642639,-0.3456251621246338,-0.46880021691322327,-0.7914366126060486
0.4224100328362089,-0.15481523391060387,1.0220363551236216,1.0899251699447632,1.3874138593673706,2.0726675987243652,-0.1406441330909729,-0.4099598526954651,-0.9011948704719543,-0.4121969938278198,-0.4711436331272125,-0.7515456676483154
0.4311337684572245,-0.15067842811192997,1.0460067827919137,1.2826242446899414,1.408992886543274,1.9636286497116089,-0.13637281954288483,-0.41790109872817993,-0.8981988430023193,-0.4602457880973816,-0.4625157117843628,-0.6985266208648682
0.441667582784776,-0.1464681175208284,1.069179306082699,1.404787540435791,1.3706386089324951,1.863548994064331,-0.13194012641906738,-0.4274476170539856,-0.8943603038787842,-0.49013015627861023,-0.44974958896636963,-0.6394074559211731
0.45340443465564845,-0.14298444707896368,1.0914483202567529,1.4784119129180908,1.2233773469924927,1.762441873550415,-0.12809991836547852,-0.4380285143852234,-0.8897873163223267,-0.5267462134361267,-0.4454400837421417,-0.5848220586776733
0.46586199864242733,-0.14130169990837738,1.112815394015342,1.5211875438690186,1.008298397064209,1.6644176244735718,-0.12582415342330933,-0.4491931200027466,-0.8845303058624268,-0.5364072322845459,-0.44802364706993103,-0.550650417804718
0.4791616272213218,-0.1413104767475942,1.133279081933399,1.6289558410644531,0.8486183285713196,1.5555013418197632,-0.1249794214963913,-0.4610353708267212,-0.878536581993103,-0.5219473838806152,-0.46733981370925903,-0.5552860498428345
0.494312272542399,-0.14275340152949068,1.152746901848655,1.8613039255142212,0.6794796586036682,1.4075713157653809,-0.12523876130580902,-0.47442635893821716,-0.8713408708572388,-0.528142511844635,-0.508224368095398,-0.5889862775802612
0.5122578627075931,-0.14538881492598069,1.1709173335879635,2.131446123123169,0.5589524507522583,1.2123912572860718,-0.12628072500228882,-0.49014654755592346,-0.8624439239501953,-0.5400094985961914,-0.5273094773292542,-0.6119060516357422
0.5328507580007195,-0.1478089997409578,1.1873568689754395,2.3349974155426025,0.6132169961929321,0.9979792237281799,-0.1268540322780609,-0.5079909563064575,-0.8519702553749084,-0.5350722074508667,-0.5122116804122925,-0.6059308052062988
0.5553323874148826,-0.14865189272774285,1.201678527491733,2.4452903270721436,0.6835288405418396,0.7524205446243286,-0.12584857642650604,-0.5272257924079895,-0.8403541445732117,-0.528417706489563,-0.505443274974823,-0.5657432675361633
0.5789703123184712,-0.14823247690154384,1.2135039518863562,2.508084535598755,0.6550583243370056,0.5259360074996948,-0.12362062931060791,-0.5471623539924622,-0.8278473615646362,-0.5139525532722473,-0.48871099948883057,-0.5207244157791138
0.6036548313081171,-0.14782215942239743,1.223344014236404,2.6114063262939453,0.5002237558364868,0.36336711049079895,-0.12125429511070251,-0.5676551461219788,-0.8142880201339722,-0.4792400598526001,-0.44958722591400146,-0.5058566331863403
0.629995496366533,-0.14900198118934768,1.2316739372479122,2.7768540382385254,0.2164098620414734,0.19607743620872498,-0.11995308101177216,-0.5891411304473877,-0.7990769147872925,-0.45753100514411926,-0.41462773084640503,-0.49863725900650024
0.6578003304853887,-0.15159974500352072,1.238055895540805,2.8360230922698975,0.06263700127601624,-0.02697734534740448,-0.119507797062397,-0.6113776564598083,-0.782262921333313,-0.4589070677757263,-0.37881094217300415,-0.479181170463562
0.6859237521924169,-0.15272880128693628,1.2414910665794274,2.780996322631836,0.15351976454257965,-0.3009313941001892,-0.1177278384566307,-0.633388102054596,-0.7648264765739441,-0.4716733694076538,-0.3465312719345093,-0.45653271675109863
0.713901407603316,-0.15002792476639307,1.2407435678966288,2.7133731842041016,0.2954176068305969,-0.6652500629425049,-0.11296816170215607,-0.6547874808311462,-0.7473229169845581,-0.5052111148834229,-0.32621532678604126,-0.4419165849685669
0.7416838500287269,-0.14153336367734326,1.234228797181351,2.6208455562591553,0.5443617105484009,-1.1111912727355957,-0.10400903224945068,-0.6755304336547852,-0.7299594283103943,-0.544230043888092,-0.26398366689682007,-0.4346676468849182
0.7689965215066197,-0.12491695766284411,1.220324525625937,2.503577947616577,0.874991774559021,-1.6245434284210205,-0.08953315764665604,-0.6954144835472107,-0.7130094170570374,-0.5824943780899048,-0.15895557403564453,-0.43211686611175537
0.7954506719694777,-0.09790817445823359,1.1972515417133605,2.3739161491394043,1.2682173252105713,-2.216884136199951,-0.06842266023159027,-0.7141791582107544,-0.6966107487678528,-0.6521583795547485,-0.052208781242370605,-0.4337450861930847
0.8206983651732283,-0.05860133826728393,1.1632041945728229,2.2858853340148926,1.6512647867202759,-2.851461172103882,-0.039926283061504364,-0.7316220998764038,-0.6805402040481567,-0.7525998950004578,0.05880105495452881,-0.44465816020965576
0.8444096803667918,-0.0058873199203495295,1.1170271199853645,2.242105484008789,2.0527334213256836,-3.4943110942840576,-0.00391017459332943,-0.7475791573524475,-0.6641611456871033,-0.858974277973175,0.16312181949615479,-0.46489763259887695
0.8657262931706718,0.06180705171087794,1.0575540732001816,2.2232871055603027,2.4971065521240234,-4.1628007888793945,0.04003085941076279,-0.761566162109375,-0.6468496918678284,-0.982077956199646,0.2889099717140198,-0.48794645071029663
0.8833419657395828,0.14507374427505068,0.9843412182421911,2.2403805255889893,2.881166696548462,-4.772165298461914,0.09173712134361267,-0.7728639245033264,-0.6279057860374451,-1.094254732131958,0.4167848825454712,-0.5058069825172424
0.8961262576922914,0.24140984946518107,0.8989131473130977,2.3273065090179443,3.0560243129730225,-5.240515232086182,0.14933377504348755,-0.7809130549430847,-0.6065263748168945,-1.1488606929779053,0.5426928997039795,-0.508082389831543
0.9032595885066228,0.34643508739502255,0.8042173993517513,2.4344520568847656,3.085624933242798,-5.568108558654785,0.21019764244556427,-0.7853489518165588,-0.5822749137878418,-1.1612015962600708,0.6601963639259338,-0.4933323860168457
0.903929714772714,0.4564211360692086,0.7036952455456564,2.5318057537078857,3.0841033458709717,-5.779088020324707,0.27260857820510864,-0.7857636213302612,-0.5552117824554443,-1.1627299785614014,0.7633179426193237,-0.47262030839920044
0.8977758077387012,0.5673432231085164,0.6010810886683869,2.6219253540039062,2.9687933921813965,-5.877701759338379,0.33498457074165344,-0.7819423675537109,-0.5256914496421814,-1.173363447189331,0.8315182328224182,-0.4517561197280884
0.8850574221132638,0.674629917114553,0.5000310778720395,2.677220344543457,2.7355260848999023,-5.8790507316589355,0.3955300748348236,-0.7739513516426086,-0.49452513456344604,-1.1957619190216064,0.8816785216331482,-0.42599186301231384
0.8661833823849852,0.7751613909417416,0.4032215673734608,2.705317735671997,2.474618434906006,-5.871129512786865,0.4533081352710724,-0.7618623375892639,-0.4626852571964264,-1.2078857421875,0.9522310495376587,-0.4106820821762085
0.841526987412055,0.8681398833385459,0.3112131051053536,2.7901291847229004,2.2388734817504883,-5.941507816314697,0.5084913372993469,-0.7456614375114441,-0.4306105971336365,-1.2210156917572021,1.0313365459442139,-0.4121628701686859
0.8115759340808888,0.9547223703473069,0.22328362559831705,2.944852590560913,2.141218900680542,-6.044078826904297,0.5618042349815369,-0.725372850894928,-0.39775657653808594,-1.219519019126892,1.0722967386245728,-0.41332441568374634
0.7770804036650268,1.0358231936756868,0.13970812438944002,3.1085739135742188,2.141223907470703,-6.0672783851623535,0.6133502125740051,-0.7012008428573608,-0.3634817600250244,-1.1478197574615479,1.0334304571151733,-0.3763406276702881
0.7386366850534004,1.111687214184004,0.061229742534898865,3.2143466472625732,2.2356300354003906,-6.092720031738281,0.6628218293190002,-0.6732805371284485,-0.32765913009643555,-1.067896842956543,0.983278214931488,-0.29825642704963684
0.6957061271949421,1.1826255320217332,-0.011334806010082663,3.191065549850464,2.4023618698120117,-6.1994476318359375,0.7104940414428711,-0.6409276127815247,-0.29053395986557007,-1.0607595443725586,0.9642156958580017,-0.19612982869148254
0.6475595150409704,1.2485577777064478,-0.07669119322226679,3.01423978805542,2.633104085922241,-6.34445333480835,0.7565070986747742,-0.6032418012619019,-0.25257930159568787,-1.0720436573028564,0.9147958159446716,-0.08544865250587463
0.5942682016799068,1.3096855500725986,-0.1332933051281083,2.7068958282470703,3.006483793258667,-6.4606614112854,0.8004734516143799,-0.559902548789978,-0.2138955295085907,-1.0359318256378174,0.8079342842102051,0.02856220304965973
0.5369451356243634,1.3670286626257147,-0.1798766464707322,2.2744884490966797,3.4265353679656982,-6.444643974304199,0.8414977192878723,-0.5115134119987488,-0.1738833338022232,-0.9589904546737671,0.6659935116767883,0.1111544519662857
0.4778403311455083,1.4194917843938626,-0.21525642521574634,1.6936427354812622,3.542381763458252,-6.227599620819092,0.877845048904419,-0.45986247062683105,-0.13384488224983215,-0.8660805821418762,0.4544151723384857,0.17492152750492096
0.4195202106176651,1.4642701200915393,-0.23873276466459767,0.9953455924987793,3.337376117706299,-5.813251495361328,0.9081075191497803,-0.40732231736183167,-0.09710483998060226,-0.7244679927825928,0.23933836817741394,0.18893224000930786
0.3650909175497393,1.5022519671062606,-0.25158618395369176,0.45044270157814026,3.2701547145843506,-5.1928391456604,0.9318978786468506,-0.35703420639038086,-0.06397657096385956,-0.5128610134124756,0.09307247400283813,0.07233834266662598
0.3167046706041539,1.53672719568927,-0.2574807394712892,0.19320183992385864,3.187865734100342,-4.49361515045166,0.9497154951095581,-0.31143680214881897,-0.032368507236242294,-0.3331536054611206,-0.056406766176223755,-0.1668044924736023
0.2752862218584035,1.5683791567833498,-0.2600465098648697,0.17097043991088867,2.9778988361358643,-3.7742302417755127,0.9623446464538574,-0.27182239294052124,-0.0023261550813913345,-0.21493864059448242,-0.18607857823371887,-0.4171074628829956
0.24094604172229406,1.5977276952465356,-0.26226305560009994,0.36493992805480957,2.7546334266662598,-3.0736756324768066,0.9707605838775635,-0.23862144351005554,0.026150234043598175,-0.14248299598693848,-0.22695466876029968,-0.6761288642883301
0.2133981689897053,1.62414008669953,-0.26645391844732264,0.6810899376869202,2.2866101264953613,-2.375732421875,0.9759265780448914,-0.21178220212459564,0.05210902914404869,-0.10945636034011841,-0.21404476463794708,-0.9016420841217041
0.19276328471564982,1.645211358761991,-0.2744303437347866,1.1592506170272827,1.5893452167510986,-1.6287765502929688,0.9787625074386597,-0.19157172739505768,0.07296938449144363,-0.027758359909057617,-0.16105887293815613,-1.0790271759033203
0.17904269629648964,1.660356621967122,-0.28838550393264833,1.8087403774261475,0.9506287574768066,-0.8824846744537354,0.9800707101821899,-0.17808765172958374,0.08801086246967316,0.06237912178039551,-0.06959293782711029,-1.2302228212356567
0.1716604350904767,1.6710639508116016,-0.30980661532117,2.516730308532715,0.4562424123287201,-0.1972232460975647,0.9803537726402283,-0.17081861197948456,0.09862848371267319,0.117409348487854,-0.0031162500381469727,-1.3244128227233887
0.16968834643021125,1.6786230523561492,-0.3386802929757502,3.152508020401001,0.1026846170425415,0.3805769979953766,0.9799131155014038,-0.16887517273426056,0.10607222467660904,0.14189773797988892,0.053030505776405334,-1.3342827558517456
0.17221143159113245,1.6844658070868264,-0.3739193817016623,3.6552047729492188,-0.10606380552053452,0.8676235675811768,0.9788501262664795,-0.17136149108409882,0.11174708604812622,0.13791000843048096,0.1374565213918686,-1.278037428855896
0.17822764319010112,1.689798941909778,-0.41399995416447344,4.000521183013916,-0.20992019772529602,1.2146713733673096,0.9771989583969116,-0.1772855669260025,0.11684130877256393,0.0939679741859436,0.21404407918453217,-1.1691789627075195
0.18651779432346208,1.6949389428197668,-0.45699042572384635,4.1345720291137695,-0.3088398575782776,1.4342231750488281,0.9750934839248657,-0.18543821573257446,0.12167636305093765,0.026737451553344727,0.279829204082489,-1.0118589401245117
0.19667415341365385,1.6996413526631835,-0.5003512497744503,4.000142574310303,-0.3902043104171753,1.6416535377502441,0.9725927710533142,-0.1954086869955063,0.12601181864738464,-0.0020269155502319336,0.3229111433029175,-0.830174446105957
0.20910076415911702,1.703416017304346,-0.5417057118217965,3.6669018268585205,-0.5191335678100586,1.8624905347824097,0.9696282148361206,-0.2075803279876709,0.12935103476047516,0.007575273513793945,0.3535001277923584,-0.669954776763916
0.22438969662912012,1.7052023408796393,-0.5795830792771438,3.2374398708343506,-0.7446843981742859,2.140510082244873,0.9661374092102051,-0.2225113958120346,0.13064230978488922,0.04715311527252197,0.3746567964553833,-0.5534787178039551
0.2431998301662706,1.703995196854951,-0.6139299608749424,2.8846137523651123,-1.0701173543930054,2.455617904663086,0.9619752764701843,-0.24080951511859894,0.12889721989631653,0.10809320211410522,0.38109883666038513,-0.4886690378189087
0.26564793553328486,1.6993900903287937,-0.6458159264212684,2.6537528038024902,-1.4269694089889526,2.7716755867004395,0.9569554328918457,-0.2625345289707184,0.12374132871627808,0.1500086784362793,0.39687293767929077,-0.47905755043029785
0.2916114398230032,1.6918501089594558,-0.6764342625476282,2.54304575920105,-1.7249563932418823,3.08662486076355,0.950772762298584,-0.28749600052833557,0.1156601533293724,0.18181085586547852,0.43056246638298035,-0.5063614845275879
0.32096839110803893,1.6821335757270255,-0.7066558513470877,2.4955592155456543,-2.01312518119812,3.3770270347595215,0.9430550932884216,-0.3154856562614441,0.10543316602706909,0.2122948169708252,0.4689280390739441,-0.5376231670379639
0.3533292769148549,1.6701752060053752,-0.7367778889161459,2.468203067779541,-2.347703456878662,3.6150567531585693,0.9335964918136597,-0.3460233211517334,0.09308642148971558,0.227383553981781,0.5118101835250854,-0.5383226871490479
0.38804507862032517,1.6554234448079548,-0.7665645939206026,2.4119460582733154,-2.7268567085266113,3.7603461742401123,0.9223380088806152,-0.37837955355644226,0.07824167609214783,0.21108496189117432,0.5632244944572449,-0.5045875310897827
0.42438114546715083,1.6376103610842776,-0.7955852540672309,2.3481526374816895,-3.08542799949646,3.8448188304901123,0.9092605113983154,-0.4117569029331207,0.06084192544221878,0.21001756191253662,0.6088393926620483,-0.45546483993530273
0.46198368237681536,1.617025868871206,-0.8235816390514893,2.2692346572875977,-3.368462085723877,3.904207468032837,0.8942136764526367,-0.4457247257232666,0.04136856645345688,0.24725055694580078,0.6299288272857666,-0.40063679218292236
0.5006645136904028,1.5944410805649596,-0.8500048647932624,2.1430206298828125,-3.5314078330993652,3.935283899307251,0.8770185112953186,-0.480008602142334,0.020740753039717674,0.3046678304672241,0.631452202796936,-0.3386423587799072
0.5399158309879181,1.570286633835322,-0.8742456295866898,1.9734305143356323,-3.65166974067688,3.906402349472046,0.8577519059181213,-0.5140637755393982,-0.0004371901450213045,0.34013938903808594,0.584712028503418,-0.2889457941055298
0.5792894724315854,1.5438163574952193,-0.8954158154424176,1.7226989269256592,-3.846250295639038,3.8719160556793213,0.836547315120697,-0.5474294424057007,-0.02257549948990345,0.3723302483558655,0.509847104549408,-0.23545068502426147
0.618910397884381,1.5135936865614708,-0.9125216839946596,1.4451043605804443,-4.059240341186523,3.8842694759368896,0.8131787776947021,-0.5801480412483215,-0.04656677320599556,0.4718095660209656,0.4374631643295288,-0.20784306526184082
0.6590768457382571,1.479963678839134,-0.9254988732777458,1.240304946899414,-4.159512996673584,3.938839912414551,0.7872987985610962,-0.6123872995376587,-0.0717097595334053,0.5837491154670715,0.38385653495788574,-0.23839467763900757
0.7000701196952489,1.443523681585821,-0.9347318415890098,1.0829273462295532,-4.2524847984313965,4.024494171142578,0.7586110830307007,-0.6442713141441345,-0.09707515686750412,0.6728463768959045,0.3244014382362366,-0.29646432399749756
0.7420924884189223,1.4039355479382456,-0.9400043858040033,0.9352326989173889,-4.31979513168335,4.146360874176025,0.7268190383911133,-0.67583167552948,-0.12241582572460175,0.7671079635620117,0.26788800954818726,-0.35844969749450684
0.7853199623997108,1.3608539161592048,-0.9410478062330823,0.8458293676376343,-4.416122913360596,4.294579029083252,0.6916347742080688,-0.7070514559745789,-0.14737509191036224,0.8325350880622864,0.2384694218635559,-0.42914777994155884
0.8301819039103644,1.3139527332249414,-0.9385870996524164,0.9224969744682312,-4.578629970550537,4.483219623565674,0.6526077389717102,-0.738054096698761,-0.1714038848876953,0.8608810305595398,0.21408259868621826,-0.49526792764663696
0.8771341018581711,1.263994594444924,-0.9344136526690466,1.171316385269165,-4.748668670654297,4.645702362060547,0.6095021367073059,-0.7689096927642822,-0.19309310615062714,0.8446909785270691,0.2070963978767395,-0.542243242263794
0.9258936891542346,1.2120931464478526,-0.9295282588438079,1.4255797863006592,-4.801755905151367,4.718728542327881,0.5628609657287598,-0.7991582751274109,-0.2110295444726944,0.7746633887290955,0.21421265602111816,-0.5459284782409668
0.9751592090331461,1.1593602023775775,-0.9230971112413219,1.559051513671875,-4.649065971374512,4.636284351348877,0.514216423034668,-0.8277912139892578,-0.22437302768230438,0.6766558289527893,0.19287294149398804,-0.5056685209274292
1.0228302781928869,1.106277817784293,-0.913949522595978,1.5681151151657104,-4.382304668426514,4.368040084838867,0.46575087308883667,-0.8535858988761902,-0.2333826869726181,0.5554894208908081,0.12586361169815063,-0.43821772933006287
1.0670757789266347,1.0539905737153823,-0.9018613822376518,1.5199121236801147,-3.941765069961548,3.9731040000915527,0.4196490943431854,-0.8757927417755127,-0.23849840462207794,0.4452189803123474,0.02970832586288452,-0.37177690863609314
1.1070735450819602,1.0034112667019195,-0.8870735087987345,1.413325548171997,-3.5544731616973877,3.571881055831909,0.37719595432281494,-0.8943935632705688,-0.24038149416446686,0.39721810817718506,-0.09803801774978638,-0.30847716331481934
1.1429171921384451,0.9513912753560453,-0.8681223735723379,1.2262332439422607,-3.440117120742798,3.278282403945923,0.33785584568977356,-0.9098478555679321,-0.24089500308036804,0.44437071681022644,-0.20871293544769287,-0.22634440660476685
1.1751524080846323,0.8927775533889515,-0.8421558003093201,1.0064784288406372,-3.507863759994507,3.1062982082366943,0.3001578450202942,-0.9227485656738281,-0.24174407124519348,0.5396400690078735,-0.2841910719871521,-0.1694650650024414
1.2041923206380534,0.8247796460371595,-0.8069914630252776,0.8102743029594421,-3.5289132595062256,2.9813454151153564,0.2632428705692291,-0.9335500001907349,-0.24328474700450897,0.6063096523284912,-0.33108311891555786,-0.15977619588375092
1.2301848050813782,0.7482459958904868,-0.7626148571879307,0.6922997236251831,-3.408393383026123,2.845878839492798,0.22728168964385986,-0.942550539970398,-0.2448297142982483,0.6561564207077026,-0.3995667099952698,-0.17469549179077148
1.2531770727533185,0.6660254108450762,-0.7104300335495811,0.6163396239280701,-3.1122426986694336,2.6857059001922607,0.19296307861804962,-0.9499816298484802,-0.24556098878383636,0.6940150856971741,-0.4778594970703125,-0.1883227825164795
1.2731746624936324,0.5812603542651785,-0.6519007866964284,0.5575516819953918,-2.648397922515869,2.5100650787353516,0.16101564466953278,-0.9560366272926331,-0.24508780241012573,0.7265728712081909,-0.5224637389183044,-0.20970046520233154
1.290285133993045,0.4958268366903034,-0.5881749119694293,0.5194035768508911,-2.2283942699432373,2.3498728275299072,0.13171245157718658,-0.9609140157699585,-0.24350781738758087,0.7607436180114746,-0.5523763298988342,-0.2257915735244751
1.304887421236664,0.4097392120685977,-0.5205269152322838,0.5071130990982056,-1.9385048151016235,2.188586950302124,0.10468610376119614,-0.9648540616035461,-0.24103383719921112,0.7567640542984009,-0.5538073778152466,-0.22452710568904877
1.31691305875365,0.3271640912312241,-0.45207145079946937,0.4618215262889862,-1.2578656673431396,1.9238085746765137,0.08071386814117432,-0.9679443836212158,-0.2378419190645218,0.7189840078353882,-0.5261045694351196,-0.2207915484905243
1.3260199701266002,0.2622406586131111,-0.3919547892071502,0.42464619874954224,-0.013110538944602013,1.398164987564087,0.06282522529363632,-0.9701915383338928,-0.23405374586582184,0.5987958312034607,-0.5377734303474426,-0.23915182054042816
1.3326521574553467,0.23286808044302013,-0.3535377503129298,0.4238460659980774,1.6259526014328003,0.6830350756645203,0.054438237100839615,-0.9717774391174316,-0.22953186929225922,0.4336903989315033,-0.6132749319076538,-0.23406073451042175
1.3379990308591854,0.2502960827038608,-0.3453923800439136,0.5339698791503906,3.4664580821990967,-0.04280545189976692,0.05714241415262222,-0.973024845123291,-0.2235117405653,0.3374040722846985,-0.657529354095459,-0.2051076889038086
1.3428577894455889,0.3176488702021069,-0.36684330254299896,0.6720095276832581,5.879739761352539,-0.6137619614601135,0.07057806104421616,-0.9741342663764954,-0.21466514468193054,0.34447628259658813,-0.6041737794876099,-0.14721238613128662
1.3463816298411402,0.4374853926074604,-0.4155270350743236,0.7857811450958252,8.536531448364258,-1.1462939977645874,0.09428044408559799,-0.9749245047569275,-0.20157790184020996,0.3798864483833313,-0.5446221232414246,-0.03992298245429993
1.3469479497968746,0.6075861011734881,-0.489237406326891,0.947802722454071,11.025301933288574,-1.6168242692947388,0.12672755122184753,-0.9750503897666931,-0.18225476145744324,0.36643654108047485,-0.5615248680114746,0.10870732367038727
1.343021061562547,0.8182081396867759,-0.5802069673070633,1.1148321628570557,13.23662281036377,-1.94353449344635,0.16482411324977875,-0.9741711616516113,-0.15434831380844116,0.36314523220062256,-0.4910234808921814,0.18695630133152008
1.3340643783794615,1.0503880872331826,-0.6737381022618878,1.2741899490356445,14.780305862426758,-2.0000290870666504,0.20347902178764343,-0.9721096158027649,-0.11661464720964432,0.34655454754829407,-0.32586389780044556,0.18369223177433014
1.322256517217783,1.281470767595343,-0.756516305431059,1.431797981262207,15.102521896362305,-1.6677587032318115,0.23576436936855316,-0.9692726731300354,-0.0701819658279419,0.36399757862091064,-0.13528048992156982,0.15328127145767212
1.312253218605542,1.4963366160383813,-0.8253815894813096,1.582342267036438,14.322456359863281,-0.8488152623176575,0.25496357679367065,-0.9667634963989258,-0.019019678235054016,0.48946693539619446,-0.026766657829284668,0.12439680099487305
1.309662952001382,1.6947296743973164,-0.8901526953830378,1.71958327293396,12.644487380981445,0.47304531931877136,0.25619569420814514,-0.9660980105400085,0.03191475570201874,0.6626733541488647,0.06795042753219604,0.11829268932342529
1.3178697600011133,1.8851832862642453,-0.9680869928677794,1.7333977222442627,10.222275733947754,1.9747589826583862,0.2379731386899948,-0.968184232711792,0.07738206535577774,0.7568084001541138,0.25120431184768677,0.24744701385498047
1.3351924956262358,2.0764605155956652,-1.0735924947743491,1.4870667457580566,7.516819953918457,3.16040301322937,0.20421694219112396,-0.9723735451698303,0.11307084560394287,0.5996771454811096,0.4775768518447876,0.5424008369445801
1.3579014267812284,2.2692956992542612,-1.2070922655734357,0.737845242023468,5.008824825286865,3.852513551712036,0.16180752217769623,-0.977423369884491,0.13587403297424316,0.16468484699726105,0.5268924832344055,0.9454858303070068
1.385194339417556,2.455668124925711,-1.356205882580933,-0.535640299320221,3.153963804244995,4.08349084854126,0.11688455194234848,-0.9828253388404846,0.14280205965042114,-0.2665732502937317,0.4379034638404846,1.3382006883621216
1.4191235587935886,2.6355084719694193,-1.510979822840107,-2.161562204360962,2.394101142883301,3.9412646293640137,0.07324197888374329,-0.9885197281837463,0.13215112686157227,-0.5398709774017334,0.41819220781326294,1.5466512441635132
1.4612874347024443,2.836555678443935,-1.6901470380312593,-3.644460916519165,2.330397605895996,3.6141347885131836,0.03282269462943077,-0.9940099120140076,0.10424408316612244,-0.6084604859352112,0.39531612396240234,1.5554085969924927
1.507725955574506,-3.084951383209471,-2.028681573752472,-4.623018264770508,2.53208065032959,3.2680447101593018,-0.0035681838635355234,-0.9980117082595825,0.06292879581451416,-0.5019707083702087,0.37903887033462524,1.3632338047027588
1.5322432047304033,-1.929371893560984,3.1245459361189885,-5.068841934204102,2.8024346828460693,3.0357813835144043,-0.03609325736761093,-0.9992569088935852,0.01352694071829319,-0.3279814124107361,0.4115646481513977,1.0580519437789917
1.4942239715766532,-1.0316963913219364,2.2548293705192433,-5.146727085113525,2.9631412029266357,2.9693000316619873,-0.0656483843922615,-0.997069776058197,-0.03927130997180939,-0.18644201755523682,0.4575647711753845,0.7669934630393982
1.4387043725253756,-0.7940982169158771,2.045278258021264,-4.998374938964844,2.786296844482422,3.100536346435547,-0.09393862634897232,-0.9912885427474976,-0.09231813997030258,-0.072641521692276,0.48642098903656006,0.5683618187904358
1.3811737553291787,-0.7072749472033018,1.9826123224889496,-4.741060733795166,2.107499361038208,3.240640640258789,-0.12247267365455627,-0.9820754528045654,-0.1432761698961258,-0.07540323585271835,0.4597214460372925,0.4547538161277771
1.3249323971994686,-0.6724811707499169,1.9636497556040498,-4.421072006225586,1.1493133306503296,3.2382047176361084,-0.15161721408367157,-0.9699274301528931,-0.19040197134017944,-0.23888565599918365,0.30475109815597534,0.37033355236053467
1.2722780437784285,-0.658691817159149,1.9584840450589613,-3.9856622219085693,0.7089278697967529,2.9882166385650635,-0.18001611530780792,-0.9557732939720154,-0.2325756847858429,-0.484214186668396,0.12621402740478516,0.2490856647491455
1.2265043513103038,-0.6479932226126999,1.955888294254808,-3.3320863246917725,1.0121164321899414,2.3883984088897705,-0.20372912287712097,-0.941314697265625,-0.2691117823123932,-0.6867432594299316,0.01849365234375,0.0796586275100708
1.1910940185295031,-0.6299914396486943,1.9511898993611179,-2.5245306491851807,1.731744408607483,1.5539982318878174,-0.2183605581521988,-0.9287750124931335,-0.29949262738227844,-0.8046954870223999,-0.13528144359588623,-0.06775596737861633
1.1666351601497331,-0.6021193169613039,1.9444336699233025,-1.7621006965637207,2.5843935012817383,0.8938847184181213,-0.2227315753698349,-0.9194325804710388,-0.3240898549556732,-0.7933205962181091,-0.2092752456665039,-0.13358229398727417
1.1504915380331098,-0.5684468473123571,1.94021063098777,-1.1232017278671265,3.3296945095062256,0.6626455187797546,-0.2196570485830307,-0.9129646420478821,-0.3438699245452881,-0.6076896786689758,-0.09693831205368042,-0.12492591142654419
1.1394842162229313,-0.5356055357840013,1.9434258127010133,-0.6248306035995483,3.757500648498535,0.7348246574401855,-0.2133634239435196,-0.9084179997444153,-0.359517365694046,-0.3710634112358093,0.03994882106781006,-0.04319259524345398
1.1315716905803839,-0.5076585030182829,1.9549233779236233,-0.2859633266925812,3.838047504425049,0.892619788646698,-0.20672188699245453,-0.9050816297531128,-0.37160906195640564,-0.2194712907075882,0.10806936025619507,0.08102065324783325
1.1253773779547382,-0.48618081373992833,1.9724687855814114,-0.09956149011850357,3.5612311363220215,1.0023151636123657,-0.20130929350852966,-0.9024302363395691,-0.3809124231338501,-0.21931442618370056,0.11161297559738159,0.2003704309463501
1.1202835151633592,-0.4710936396628543,1.9924470315405756,-0.01931638829410076,3.007138729095459,0.9759619235992432,-0.19762350618839264,-0.9002239108085632,-0.3879972994327545,-0.3644492030143738,0.09718436002731323,0.28611433506011963
1.116271646833756,-0.460424356418461,2.010548558423174,0.011189589276909828,2.3778347969055176,0.7730234861373901,-0.1950758993625641,-0.8984698057174683,-0.3933160901069641,-0.573310911655426,0.05513167381286621,0.34468626976013184
1.1139583691408699,-0.4500725580773987,2.0228943341896106,0.05415014922618866,1.919516921043396,0.37624940276145935,-0.19189757108688354,-0.8974518179893494,-0.3971845805644989,-0.7138183116912842,-0.036935389041900635,0.3575116991996765
1.1141690811410798,-0.434634824605825,2.0256090443552974,0.08361402899026871,1.679221272468567,-0.199042409658432,-0.18566368520259857,-0.8975447416305542,-0.3999280631542206,-0.7850393652915955,-0.0946274995803833,0.3397931456565857
1.1171503927375313,-0.4084969109202666,2.0153248664392285,0.08933284878730774,1.7338104248046875,-0.8668971061706543,-0.17408443987369537,-0.8988552689552307,-0.40218624472618103,-0.7993804216384888,-0.11361110210418701,0.30825313925743103
1.1222557010451912,-0.36825585892102203,1.9924644532341147,0.11422115564346313,2.228548765182495,-1.322330355644226,-0.1561095416545868,-0.9010809063911438,-0.40457770228385925,-0.7424957752227783,-0.08155465126037598,0.2397674322128296
1.128895903736597,-0.31522769911354664,1.9615405709950513,0.2544898986816406,2.7567408084869385,-1.617149829864502,-0.13258811831474304,-0.9039405584335327,-0.4065856337547302,-0.5983994007110596,0.06707233190536499,0.14773547649383545
1.1371088637031885,-0.25246728265246665,1.9245081735073168,0.45132574439048767,3.0369088649749756,-1.831405758857727,-0.10496829450130463,-0.9074223637580872,-0.4068984389305115,-0.5347258448600769,0.21615344285964966,0.09784692525863647
1.14701655125249,-0.1837794574438391,1.8826465493108262,0.7400270700454712,3.004460096359253,-1.9718372821807861,-0.07514706254005432,-0.9115411639213562,-0.40428414940834045,-0.5371880531311035,0.2144433856010437,0.07725775241851807
1.159612035419207,-0.11521296276120623,1.8369715686371837,1.2148367166519165,2.2375130653381348,-2.0426759719848633,-0.04594825208187103,-0.9166480898857117,-0.3970453143119812,-0.515880286693573,0.08350300788879395,0.0641748309135437
1.176016093791811,-0.05427732967626423,1.7875120460087537,1.7113721370697021,0.7678175568580627,-2.0806236267089844,-0.020865093916654587,-0.92308109998703,-0.3840388059616089,-0.49144870042800903,0.018372297286987305,0.079488605260849
1.1959906025651579,-0.004684122714180058,1.7327286723460524,2.1405436992645264,-0.989551305770874,-2.1361348628997803,-0.0017148129409179091,-0.9305787682533264,-0.3660878539085388,-0.5121706128120422,0.09595352411270142,0.11782735586166382
1.2190298958393893,0.0377171478269592,1.670198526190877,2.515996217727661,-2.0688891410827637,-2.222259044647217,0.012992605566978455,-0.9387655258178711,-0.344311386346817,-0.4906384348869324,0.13485628366470337,0.1079222559928894
1.2443011354117852,0.08679966210507857,1.5961735933863643,2.7979648113250732,-1.9165891408920288,-2.3687779903411865,0.027803897857666016,-0.947172224521637,-0.3195177912712097,-0.37190479040145874,0.16346561908721924,0.0675799548625946
1.270149780890851,0.15755317604058539,1.5067156686853298,2.972397804260254,-0.8603661060333252,-2.4491641521453857,0.04646461829543114,-0.9551452398300171,-0.2924696207046509,-0.20651400089263916,0.23589181900024414,0.05589732527732849
1.2950238657343962,0.2565991187249487,1.401570788837664,3.090811252593994,0.48044919967651367,-2.3510804176330566,0.06910530477762222,-0.9622151255607605,-0.2633754312992096,-0.03983888030052185,0.3634449243545532,0.0798121988773346
1.3176530353323999,0.38273086383119725,1.2811878031648956,3.1378843784332275,1.4514154195785522,-2.1832313537597656,0.09353133291006088,-0.9681299924850464,-0.23232825100421906,0.011922217905521393,0.43466734886169434,0.18488863110542297
1.336342826948286,0.5312585697714806,1.1474198315889745,2.996030807495117,2.305699586868286,-1.935500144958496,0.11769327521324158,-0.9726414680480957,-0.20029185712337494,-0.0532400980591774,0.3909154534339905,0.34146612882614136
1.349537455438092,0.6899525302324527,1.0122360665692143,2.629664421081543,2.962354898452759,-1.5234019756317139,0.13968509435653687,-0.9756219387054443,-0.16926267743110657,-0.11652220785617828,0.4046991467475891,0.5127533078193665
1.3586431242508388,0.8343668346675274,0.8900483450818722,2.3085577487945557,1.7261898517608643,-1.042860746383667,0.15600185096263885,-0.9775797724723816,-0.14142557978630066,-0.2714192867279053,0.5469615459442139,0.7143625617027283
1.3650856494127352,0.9479577044832842,0.7772933056435947,2.1388041973114014,-1.143297791481018,-0.9026458263397217,0.165907621383667,-0.9789160490036011,-0.11915536224842072,-0.5025164484977722,0.6452369093894958,0.919372022151947
1.3696485218721814,1.024533809610894,0.6730096300072661,1.8301106691360474,-3.8208518028259277,-0.60345858335495,0.17071804404258728,-0.9798378944396973,-0.1037922278046608,-0.4744594693183899,0.5217539072036743,0.9974690079689026
1.3745921010491293,1.053072995180571,0.6025127247821526,0.9161540269851685,-3.939195156097412,0.10836987942457199,0.16939975321292877,-0.9808136224746704,-0.09648039937019348,-0.1497769057750702,0.4327942132949829,1.070448875427246
1.379249157261151,0.9952568455949287,0.6160111058878064,-0.8791712522506714,-4.9929094314575195,0.9837828874588013,0.1597081571817398,-0.9817108511924744,-0.10362053662538528,0.25427812337875366,0.3642028570175171,1.4299755096435547
1.3813569114701236,0.8252544681113761,0.7324727538230803,-2.257829189300537,-6.247027397155762,2.0757503509521484,0.1383546143770218,-0.9821099638938904,-0.12774330377578735,0.3101623058319092,0.39144212007522583,1.4409756660461426
1.3778083181645537,0.5539694504348456,0.9347496314288758,-3.0800347328186035,-8.29127311706543,3.4205198287963867,0.10089538246393204,-0.9814355373382568,-0.16310802102088928,0.39879950881004333,0.6094568967819214,1.3004066944122314
1.3630631362530814,0.2058620218110761,1.1936249796046305,-3.3615615367889404,-10.522785186767578,5.025277614593506,0.04215811938047409,-0.9785009622573853,-0.2018871009349823,0.4753895401954651,0.8470160961151123,1.0364360809326172
1.3306354189507597,-0.17117845742944626,1.4606423137312772,-3.2051937580108643,-12.709026336669922,6.632288932800293,-0.040517792105674744,-0.9712997078895569,-0.23438268899917603,0.4986019432544708,1.0754562616348267,0.8162307739257812
1.276527923350978,-0.5265901724761575,1.686128299678908,-2.806288003921509,-14.71342658996582,8.166655540466309,-0.14577074348926544,-0.9570146203041077,-0.25074708461761475,0.443073034286499,1.250196933746338,0.6910547018051147
1.1995870154294463,-0.8365673566535682,1.8497390408224397,-2.384126901626587,-16.097000122070312,9.748769760131836,-0.26928120851516724,-0.9318893551826477,-0.24304309487342834,0.4509066343307495,1.356510877609253,0.674073338508606
1.1000405959022381,-1.0942545169611568,1.9517424762839757,-2.063392162322998,-16.569164276123047,11.28312873840332,-0.40302735567092896,-0.8912257552146912,-0.20805208384990692,0.5213745832443237,1.4496212005615234,0.7050765752792358
0.981155191359225,-1.3034524350281422,2.0016982596392356,-1.8360906839370728,-16.426956176757812,12.611083030700684,-0.5363094210624695,-0.8311402797698975,-0.14689551293849945,0.5660335421562195,1.546136498451233,0.7165823578834534
0.8486071696808658,-1.47385013647408,2.0124304973083404,-1.6464478969573975,-15.750736236572266,13.598348617553711,-0.657925009727478,-0.7503604292869568,-0.06398390233516693,0.568477988243103,1.628732681274414,0.6651343107223511
0.7083564134649956,-1.6154948539023455,1.9952601556196385,-1.5008577108383179,-14.823683738708496,14.274786949157715,-0.7586736679077148,-0.6505864858627319,0.03393419831991196,0.5871496200561523,1.6783115863800049,0.5700391530990601
0.5656211346617752,-1.7370382818892571,1.958118654625989,-1.4060779809951782,-13.768943786621094,14.641397476196289,-0.8326168060302734,-0.5359402894973755,0.13970521092414856,0.6367090940475464,1.7341214418411255,0.4634135961532593
0.4241567181442268,-1.8452619600685738,1.9061597922998472,-1.3016010522842407,-12.694178581237793,14.88332462310791,-0.8772731423377991,-0.411552369594574,0.24701537191867828,0.6674647331237793,1.7712631225585938,0.39168691635131836
0.28563795395602337,-1.946030831336012,1.8430732756268096,-1.0235633850097656,-11.776827812194824,15.048592567443848,-0.8927229046821594,-0.28176960349082947,0.3516412675380707,0.6955336332321167,1.7407997846603394,0.29424795508384705
0.15133958326405117,-2.045163989832338,1.772382579085414,-0.43724578619003296,-11.003824234008789,14.971555709838867,-0.8794139623641968,-0.15076254308223724,0.45155513286590576,0.6731455326080322,1.7220516204833984,0.07166868448257446
0.023056820497655724,-2.14488485161016,1.6977728570603612,0.4328758120536804,-10.144144058227539,14.53226089477539,-0.8394644856452942,-0.023054778575897217,0.5429252982139587,0.5115988254547119,1.807539701461792,-0.24269342422485352
-0.09655771409638335,-2.2438879995890306,1.6227352872158998,1.3226230144500732,-8.952322959899902,13.460172653198242,-0.7782558798789978,0.09640774130821228,0.6205024719238281,0.2122616171836853,1.8201419115066528,-0.4773445725440979
-0.20371161056722936,-2.335819053805674,1.550411741551234,2.002990245819092,-7.156426429748535,11.974329948425293,-0.7064504027366638,0.20230558514595032,0.6782329678535461,-0.019623756408691406,1.593196153640747,-0.6035566329956055
-0.29736816782362585,-2.415066701236301,1.4836422980471011,2.4885265827178955,-5.347570419311523,10.217522621154785,-0.6351224184036255,0.2930049002170563,0.7146801948547363,-0.2681216597557068,1.2065831422805786,-0.6638836860656738
-0.37706905034201793,-2.4788376643105274,1.4260618798229097,2.765719175338745,-3.5866076946258545,8.253972053527832,-0.5720653533935547,0.3681970238685608,0.732920229434967,-0.524751603603363,0.8341497182846069,-0.7192331552505493
-0.44322453604258694,-2.5249216638548284,1.3807073638935676,2.846778631210327,-2.0191004276275635,6.276181221008301,-0.5224411487579346,0.42885464429855347,0.7369793653488159,-0.6746870875358582,0.5260097980499268,-0.7583571076393127
-0.49716238207320057,-2.5527773216467957,1.3491045169343956,2.8329432010650635,-0.7383182048797607,4.469143867492676,-0.488142192363739,0.4769333600997925,0.7309255003929138,-0.7242602109909058,0.2647354304790497,-0.8547505736351013
-0.5415507461501562,-2.5644048745087544,1.3316507100025332,2.919520854949951,0.08383899927139282,2.966484308242798,-0.4675898849964142,0.5154654383659363,0.7180914282798767,-0.6867529153823853,0.1381601095199585,-1.005521297454834
-0.5801678026687836,-2.563254888291458,1.3276366960182495,3.1791574954986572,0.5376269221305847,1.8515231609344482,-0.4571877419948578,0.5481643080711365,0.7003539204597473,-0.5516624450683594,0.17848986387252808,-1.155447244644165
-0.6161465162894989,-2.551732169282826,1.3354912215220194,3.5273566246032715,0.8676026463508606,1.062896728515625,-0.45395806431770325,0.5778945684432983,0.6782036423683167,-0.3708253502845764,0.26896828413009644,-1.2595176696777344
-0.6510993882624676,-2.530700630480087,1.3537930859813074,3.880915880203247,1.1663905382156372,0.48052480816841125,-0.45625054836273193,0.6060612201690674,0.6515561938285828,-0.23924514651298523,0.3272274136543274,-1.26796555519104
-0.6853701973354367,-2.5008955023774297,1.3809914906563234,4.133669853210449,1.3983957767486572,0.07461218535900116,-0.46277257800102234,0.6329596638679504,0.6206480264663696,-0.1667899489402771,0.3328455686569214,-1.1658750772476196
-0.7176551011502706,-2.4636628798830764,1.4159027291400308,4.180779933929443,1.5309523344039917,-0.3454035818576813,-0.4724872410297394,0.6576199531555176,0.5867635011672974,-0.14337271451950073,0.31528037786483765,-0.9844534993171692
-0.7450105004296359,-2.4188686814482843,1.4576963590750123,3.9530646800994873,1.8706289529800415,-0.9075886607170105,-0.4862045347690582,0.6779795289039612,0.5513155460357666,-0.22273409366607666,0.2901906371116638,-0.7731784582138062
-0.7637582063552637,-2.364346105050624,1.5059016475689642,3.542469024658203,2.4370107650756836,-1.7093470096588135,-0.5065221190452576,0.6916406750679016,0.5148481130599976,-0.44541269540786743,0.2628118395805359,-0.5871595740318298
-0.7702852464654901,-2.2980881492556415,1.5606898123109303,3.047990560531616,3.2069032192230225,-2.8076136112213135,-0.5361150503158569,0.6963399648666382,0.4771703779697418,-0.7577692866325378,0.2347819209098816,-0.46406298875808716
-0.761340030770005,-2.2190533640241616,1.6211908432505369,2.5383830070495605,4.229255199432373,-4.116993427276611,-0.5770574808120728,0.6898921132087708,0.43709665536880493,-1.0278619527816772,0.24220621585845947,-0.4121944010257721
-0.7346788342160999,-2.1263948030971207,1.6846258918475827,2.1282129287719727,5.6741862297058105,-5.5251665115356445,-0.6304312944412231,0.6703488826751709,0.39139366149902344,-1.152695655822754,0.2832034230232239,-0.4256191849708557
-0.6897785535951941,-2.0195304875096443,1.7486889841643471,2.092176914215088,7.279172420501709,-6.984119415283203,-0.6950173377990723,0.6363663673400879,0.3346472382545471,-1.2118430137634277,0.33969253301620483,-0.5048285722732544
-0.6262177657113259,-1.8992444337423966,1.8123561071801306,2.4472641944885254,8.935733795166016,-8.568154335021973,-0.7669371962547302,0.5860844254493713,0.2613659203052521,-1.331787109375,0.5003565549850464,-0.5617505311965942
-0.5422930338647036,-1.7670649018221338,1.873171367720557,2.9883854389190674,10.691555976867676,-10.201766967773438,-0.8400830626487732,0.5161014199256897,0.16703219711780548,-1.483403205871582,0.7434810996055603,-0.49605751037597656
-0.43820594468082225,-1.6284979818763476,1.9251878487360874,3.4433350563049316,11.908747673034668,-11.478641510009766,-0.9040074348449707,0.42431560158729553,0.05222069472074509,-1.5903316736221313,0.9198158979415894,-0.27232885360717773
-0.3188575829388027,-1.4943269094708638,1.9619582042232833,3.5487613677978516,11.93000602722168,-12.183349609375,-0.946819007396698,0.3134819269180298,-0.0725441575050354,-1.5739939212799072,1.0993444919586182,0.07349015027284622
-0.19216467267592685,-1.3740701839334517,1.979529002348533,3.2274625301361084,11.066022872924805,-12.327460289001465,-0.9626598954200745,0.19098417460918427,-0.19186186790466309,-1.4892596006393433,1.2472176551818848,0.38094866275787354
-0.06615775880250971,-1.2683462714282285,1.9779830333566724,2.680887222290039,10.012856483459473,-12.07373332977295,-0.9525212645530701,0.06610950827598572,-0.29720833897590637,-1.3038568496704102,1.2849799394607544,0.5846990942955017
0.053652515991796566,-1.172897020688486,1.9596640649573784,2.0911619663238525,9.036639213562012,-11.602263450622559,-0.9205505847930908,-0.05362677946686745,-0.38692507147789,-1.0266999006271362,1.1880567073822021,0.6692280769348145
0.16341864005281537,-1.0819550617011957,1.9273016266010845,1.5124787092208862,8.409374237060547,-10.899055480957031,-0.8711149096488953,-0.16269224882125854,-0.46334660053253174,-0.7532289028167725,0.997882068157196,0.644773542881012
0.26012483584480955,-0.9910413008271264,1.8838405940741987,1.0156508684158325,7.848226070404053,-9.998517990112305,-0.8084519505500793,-0.2572011947631836,-0.5293892025947571,-0.5233808755874634,0.8520193099975586,0.5703589916229248
0.34193294533031904,-0.8986891264231843,1.8317449964881807,0.46927741169929504,7.438528537750244,-9.058944702148438,-0.7372105121612549,-0.3353087604045868,-0.5865908265113831,-0.3620173931121826,0.6817900538444519,0.5364046096801758
0.408216458883373,-0.8059491879463946,1.7713118714161702,-0.19849000871181488,6.5974650382995605,-8.27643871307373,-0.6622037291526794,-0.39697298407554626,-0.6355302333831787,-0.3273439407348633,0.45161470770835876,0.5656296610832214
0.45936116243305203,-0.7153247379417611,1.7050742795581093,-0.6495996713638306,5.933048248291016,-7.44288969039917,-0.5878732204437256,-0.4433755874633789,-0.6766263246536255,-0.2804129123687744,0.3307809829711914,0.4239407777786255
0.49787703834771707,-0.6271656942348922,1.6369174436426046,-0.8032864332199097,5.367832183837891,-6.820101261138916,-0.5156074166297913,-0.4775613844394684,-0.7113959789276123,-0.29245221614837646,0.2736429274082184,0.16880863904953003
0.5282551788455019,-0.5428888823119744,1.568538921821875,-0.6632313132286072,4.733745574951172,-6.444941997528076,-0.4461911916732788,-0.5040271282196045,-0.7395066022872925,-0.3874879479408264,0.223952054977417,-0.08962547779083252
0.5546491298473808,-0.464145654180213,1.501443919823064,-0.2197686731815338,4.078755855560303,-6.135160446166992,-0.3805483281612396,-0.5266450643539429,-0.7601499557495117,-0.4111233651638031,0.18356645107269287,-0.3323945999145508
0.5803992312264634,-0.3914617006768168,1.436909133966862,0.3932492733001709,3.5180742740631104,-5.870378017425537,-0.31906041502952576,-0.5483578443527222,-0.7729839086532593,-0.35102924704551697,0.15239226818084717,-0.5205188989639282
0.6068292416646432,-0.3226629658631834,1.3746730563319078,0.9346997141838074,3.3154118061065674,-5.595940589904785,-0.26047950983047485,-0.5702656507492065,-0.7790683507919312,-0.28268754482269287,0.13105672597885132,-0.6047054529190063
0.6336791869489843,-0.25444301756012516,1.3143044015862004,1.3996362686157227,3.2648069858551025,-5.325033187866211,-0.2028387188911438,-0.5921136736869812,-0.7799088954925537,-0.24010859429836273,0.12374520301818848,-0.6083509922027588
0.6607698023488466,-0.1868569073782601,1.2545031571728222,1.7758677005767822,2.995774984359741,-5.146578311920166,-0.14667026698589325,-0.6137248277664185,-0.7757768630981445,-0.2620210647583008,0.11105459928512573,-0.5436964631080627
0.6873310699140055,-0.12131100543036444,1.1937061360969334,1.9841587543487549,2.4751341342926025,-5.030365943908691,-0.09353657811880112,-0.6344765424728394,-0.7672616839408875,-0.3186337947845459,0.10046470165252686,-0.46879178285598755
0.7121453182294765,-0.0598816262906453,1.1311754648436998,2.078106164932251,1.7073742151260376,-4.913946628570557,-0.04530101642012596,-0.6534591913223267,-0.7556049823760986,-0.35331952571868896,0.09951943159103394,-0.41363024711608887
0.7348529906070453,-0.004828261489069192,1.0670574455186121,2.1362712383270264,0.8016783595085144,-4.809305191040039,-0.0035822149366140366,-0.670478105545044,-0.7419207096099854,-0.35904285311698914,0.10260701179504395,-0.39392828941345215
0.7552514249134841,0.04345380689374326,1.0015072177089863,2.11350679397583,0.005207577720284462,-4.7127509117126465,0.03162872791290283,-0.685471773147583,-0.7274119257926941,-0.31670862436294556,0.12892276048660278,-0.3898366093635559
0.7730687205533874,0.08706128409932472,0.9351103217398993,2.058680534362793,-0.42828407883644104,-4.589700698852539,0.06223725527524948,-0.6983350515365601,-0.7130600810050964,-0.2111629843711853,0.13449227809906006,-0.40475302934646606
0.7886725340202478,0.12871755888994582,0.8686563351881273,2.061051607131958,-0.5625451803207397,-4.423811435699463,0.09046825021505356,-0.7094182968139648,-0.6989572048187256,-0.10519294440746307,0.06192690134048462,-0.4263174533843994
0.8031587936062929,0.16998447224990856,0.8029789302779765,2.1754634380340576,-0.5576851963996887,-4.191683769226074,0.11747591197490692,-0.7195532321929932,-0.6844286918640137,-0.01255643367767334,-0.04366081953048706,-0.44041872024536133
0.817761944364703,0.21040894347909658,0.7391023052707743,2.3486928939819336,-0.6295369863510132,-3.8708956241607666,0.1428300142288208,-0.729617178440094,-0.6687737703323364,0.06134787201881409,-0.084103524684906,-0.4469946622848511
0.8329596677084901,0.2478879182504644,0.6777936250780311,2.4974381923675537,-0.8634008169174194,-3.5232491493225098,0.16504888236522675,-0.7399255633354187,-0.6521265506744385,0.10704585909843445,-0.05069327354431152,-0.429980993270874
0.8488069149965611,0.2814297658200541,0.6193114603216789,2.6084277629852295,-1.1317085027694702,-3.169522762298584,0.1835455447435379,-0.7504924535751343,-0.6348795294761658,0.0862756222486496,0.010746479034423828,-0.38611656427383423
0.8650707335963327,0.3098729598118346,0.5635918864361049,2.609621047973633,-1.609191656112671,-2.853074073791504,0.19777840375900269,-0.7611411213874817,-0.617695689201355,0.000692710280418396,0.06534039974212646,-0.31702721118927
0.8809840990389852,0.33146399033017554,0.5109998603714486,2.5321879386901855,-2.099390983581543,-2.5437557697296143,0.20709972083568573,-0.7713655233383179,-0.6017516851425171,-0.02786993980407715,0.06460899114608765,-0.23589485883712769
0.8966515290003801,0.34671399737724146,0.46185557378127984,2.4874672889709473,-2.4363179206848145,-2.2491629123687744,0.21211887896060944,-0.7812410593032837,-0.5870842337608337,-0.004645094275474548,0.07366055250167847,-0.18778759241104126
0.9129536932578906,0.35763803928714183,0.4156415319739,2.5439648628234863,-2.588871717453003,-1.9778639078140259,0.21403220295906067,-0.791313111782074,-0.5727248191833496,0.009966820478439331,0.09531408548355103,-0.1590867042541504
0.9306280163138262,0.3677765859969693,0.37163838341789507,2.6376941204071045,-2.3235466480255127,-1.748730182647705,0.21476513147354126,-0.8019952178001404,-0.5573863983154297,0.023485630750656128,0.11156558990478516,-0.1315479874610901
0.9493416308158038,0.38159609722480403,0.32823915791272884,2.702662706375122,-1.9180138111114502,-1.6622107028961182,0.21681945025920868,-0.8130323886871338,-0.5403403043746948,-0.0015026628971099854,0.16035300493240356,-0.10007107257843018
0.9679469737897309,0.4007058965273502,0.28303630193819457,2.691535711288452,-1.6592118740081787,-1.737258791923523,0.22116558253765106,-0.8237233757972717,-0.5220780372619629,-0.09592141211032867,0.16582554578781128,-0.00830221176147461
0.9845802212192852,0.4252615489563442,0.2341983002732722,2.5095374584198,-1.5117355585098267,-1.9517470598220825,0.2282329499721527,-0.8330399394035339,-0.503938615322113,-0.19417530298233032,0.12346053123474121,0.13214290142059326
0.996700931904441,0.4543068392604192,0.1819291629690489,2.101746082305908,-1.3990038633346558,-2.2089810371398926,0.23832297325134277,-0.8396838903427124,-0.48798877000808716,-0.20733237266540527,0.10970354080200195,0.28172042965888977
1.0025860994105695,0.4856736394138573,0.12907372224793592,1.5357459783554077,-1.168212652206421,-2.333524465560913,0.2511986792087555,-0.8428654670715332,-0.4758959412574768,-0.1091393530368805,0.05815178155899048,0.4084520637989044
1.002231855921482,0.5165300907388612,0.08067823020202203,0.8940631747245789,-0.8020750880241394,-2.235694408416748,0.26590871810913086,-0.8426747918128967,-0.46817922592163086,0.04376843571662903,0.013298571109771729,0.47330617904663086
0.9964521532643823,0.5420060871256845,0.04234026766369013,0.1974973827600479,-0.5885084867477417,-1.8823567628860474,0.2802563011646271,-0.8395487666130066,-0.4654184579849243,0.2321949005126953,0.026682615280151367,0.49799591302871704
0.986953792366574,0.5546837492547271,0.01912670682631743,-0.4803352952003479,-0.8062778115272522,-1.2317296266555786,0.29032087326049805,-0.8343507051467896,-0.4685858488082886,0.41564226150512695,0.004623532295227051,0.5054662823677063
0.9761267499348237,0.548497884093563,0.014234077286873217,-1.0538121461868286,-1.2348427772521973,-0.3488973379135132,0.29210996627807617,-0.8283336758613586,-0.478053480386734,0.5744976997375488,0.007044613361358643,0.4699662923812866
0.9655614322661695,0.5236097436239541,0.02742792622453532,-1.4985910654067993,-1.5335787534713745,0.5278641581535339,0.28448301553726196,-0.8223685026168823,-0.49272653460502625,0.6317920088768005,0.056621432304382324,0.37028998136520386
0.9549255500492656,0.4847982113987152,0.054710929910781046,-1.853516936302185,-1.7276511192321777,1.134925127029419,0.26921120285987854,-0.8162707090377808,-0.5111040472984314,0.48638877272605896,0.10127449035644531,0.2502092719078064
0.9428723363891951,0.4386824533183075,0.08996420974647318,-2.1149141788482666,-1.722104549407959,1.4170457124710083,0.24952442944049835,-0.8092488646507263,-0.5318400263786316,0.22336071729660034,0.0888662338256836,0.1352030634880066
0.9281929932246006,0.39233976085578876,0.12717956797706415,-2.337639093399048,-1.5348116159439087,1.3990038633346558,0.2291361391544342,-0.8005383610725403,-0.5537462830543518,-0.044001221656799316,0.07811105251312256,0.006993293762207031
0.9101740763015618,0.34992919518722504,0.16210770515813797,-2.530761241912842,-1.3887271881103516,1.224389672279358,0.21036413311958313,-0.7896105647087097,-0.5764217972755432,-0.22339512407779694,0.08885073661804199,-0.11109346151351929
0.8894077531341884,0.3121958528040107,0.1927875885872277,-2.6039295196533203,-1.3532384634017944,1.0277520418167114,0.19346465170383453,-0.7766988277435303,-0.5994250178337097,-0.27419888973236084,0.07143765687942505,-0.21492135524749756
0.8673263912048778,0.278564543857149,0.2188455880611023,-2.5600435733795166,-1.3454753160476685,0.867557168006897,0.17787297070026398,-0.7626022100448608,-0.6219317317008972,-0.24780400097370148,0.047514379024505615,-0.3154919743537903
0.8451284417082929,0.2487581595824141,0.24064063930221724,-2.440613269805908,-1.305159568786621,0.723953902721405,0.16338735818862915,-0.7480563521385193,-0.643207848072052,-0.19482043385505676,0.05703163146972656,-0.4140431880950928
0.8238407061281238,0.22339406059604017,0.25807407313268776,-2.217756748199463,-1.157389760017395,0.5459872484207153,0.15051649510860443,-0.7337606549263,-0.6625256538391113,-0.16710278391838074,0.07059848308563232,-0.502009928226471
0.8044674588097765,0.20323153302307934,0.27104432169626297,-1.92414128780365,-0.9854962825775146,0.3740341067314148,0.13997183740139008,-0.7204614281654358,-0.6792224645614624,-0.13997182250022888,0.062014222145080566,-0.5617290735244751
0.7877248808362896,0.1867972686724552,0.280538977746665,-1.5997915267944336,-0.9518913626670837,0.28448036313056946,0.1310129016637802,-0.7087501287460327,-0.6931874752044678,-0.06237886846065521,0.04450458288192749,-0.571216881275177
0.774009743200893,0.17114937454730783,0.2883743334333625,-1.2738901376724243,-1.0668123960494995,0.3170012831687927,0.12179459631443024,-0.6990082859992981,-0.70466548204422,0.04061996191740036,0.028186261653900146,-0.53190678358078
0.7633716414774426,0.1540923785232887,0.29615572205041796,-0.9987923502922058,-1.2419955730438232,0.43612977862358093,0.11089307069778442,-0.6913614273071289,-0.7139482498168945,0.13408680260181427,0.012284338474273682,-0.45510393381118774
0.7552763993791738,0.13459290108369512,0.3049429651093194,-0.7868449687957764,-1.4397145509719849,0.5869219899177551,0.09769908338785172,-0.6854899525642395,-0.7214973568916321,0.19436940550804138,-0.004680275917053223,-0.3578636050224304
0.7489892497649459,0.11195653735648872,0.31524810496321626,-0.6491512656211853,-1.6682405471801758,0.7410571575164795,0.08182326704263687,-0.6808988451957703,-0.7277923822402954,0.20708666741847992,-0.03496718406677246,-0.25546878576278687
0.7435220413209958,0.08610597781436274,0.3271096720027013,-0.6139674782752991,-1.8687163591384888,0.8700886368751526,0.0633033812046051,-0.676884651184082,-0.7333620190620422,0.1877494752407074,-0.06215947866439819,-0.15807175636291504
0.7378613475937902,0.05798937159839649,0.34003711583607227,-0.6565141677856445,-1.9912981986999512,0.9335271120071411,0.04288281127810478,-0.6727070212364197,-0.7386652231216431,0.1471959352493286,-0.06462812423706055,-0.08297485113143921
0.731176074400768,0.028637345845542818,0.35302204389219255,-0.7586908936500549,-2.1210694313049316,0.9140724539756775,0.021314429119229317,-0.6677455306053162,-0.744084358215332,0.07933256030082703,-0.07087135314941406,-0.03263378143310547
0.7232172878565296,-0.0010208638936825124,0.3648334087434347,-0.8441844582557678,-2.2126855850219727,0.8144999742507935,-0.0007653214852325618,-0.6618000268936157,-0.7496799826622009,0.0029473304748535156,-0.08649086952209473,-0.012374460697174072
0.7143985690409702,-0.029500381584204767,0.3744400746557952,-0.882360577583313,-2.189152717590332,0.6444739103317261,-0.02228393405675888,-0.6551631689071655,-0.7551586627960205,-0.06557616591453552,-0.0825076699256897,-0.03652834892272949
0.7053683307907216,-0.055269661254353834,0.3808847512726129,-0.8654201626777649,-2.107933521270752,0.39332565665245056,-0.04205939546227455,-0.6483142971992493,-0.7602101564407349,-0.12247613072395325,-0.07904160022735596,-0.07679545879364014
0.6968826817732965,-0.07753272574517094,0.38356584202234295,-0.7877911329269409,-1.9737991094589233,0.12866471707820892,-0.0593961663544178,-0.641830325126648,-0.7645429968833923,-0.1607424020767212,-0.0794069766998291,-0.11393594741821289
0.6894770674205554,-0.09581015199931527,0.3827662832120868,-0.6918184161186218,-1.7685242891311646,-0.12136983871459961,-0.07381203770637512,-0.6361337900161743,-0.768040120601654,-0.15590903162956238,-0.06842547655105591,-0.13434946537017822
0.6833199615684385,-0.11018189033314349,0.3789665130775951,-0.5879063606262207,-1.5791163444519043,-0.33160164952278137,-0.08527117222547531,-0.6313710808753967,-0.770778477191925,-0.12006634473800659,-0.060691237449645996,-0.11728310585021973
0.6783178359995353,-0.12158412607442526,0.3728708726141653,-0.5242767930030823,-1.4690009355545044,-0.48407530784606934,-0.09443590044975281,-0.627484142780304,-0.7728813290596008,-0.0717170238494873,-0.05511772632598877,-0.07633137702941895
0.6736403575316386,-0.1311847261227352,0.36513382311498743,-0.5592997670173645,-1.4136580228805542,-0.5881282091140747,-0.1022343710064888,-0.6238352656364441,-0.7748404145240784,-0.0288691446185112,-0.05453985929489136,-0.01731961965560913
0.6685599400132433,-0.1393898691773486,0.3560247468849679,-0.6355823278427124,-1.3473291397094727,-0.6848524808883667,-0.10902747511863708,-0.619856595993042,-0.7771041393280029,-0.001675039529800415,-0.05685538053512573,0.026997268199920654
0.662852426944533,-0.14626735819063216,0.3455715181266501,-0.724822461605072,-1.326680302619934,-0.7752113938331604,-0.11488314718008041,-0.6153677701950073,-0.7798233032226562,-0.0030672848224639893,-0.0490151047706604,0.03392791748046875
0.6564495211925228,-0.152781736321334,0.33402259137315576,-0.8009846806526184,-1.379715085029602,-0.8295877575874329,-0.12055791914463043,-0.6103081703186035,-0.7829366326332092,0.011854305863380432,-0.06261968612670898,0.01877647638320923
0.6497717635138284,-0.15923625860504673,0.32192276040032125,-0.7998217344284058,-1.3560694456100464,-0.8582540154457092,-0.12625226378440857,-0.6050046682357788,-0.7861486077308655,0.05616867542266846,-0.06238412857055664,-0.02456611394882202
0.6436683616634058,-0.16494570555650356,0.30951892260170577,-0.7136651277542114,-1.2711751461029053,-0.8956268429756165,-0.13134253025054932,-0.6001337766647339,-0.7890427708625793,0.07570900022983551,-0.04769331216812134,-0.06953877210617065
0.6384719731965617,-0.1698180642524595,0.2967524471721556,-0.6563333868980408,-1.2286242246627808,-0.9425200819969177,-0.135710671544075,-0.5959691405296326,-0.7914565205574036,0.08138938248157501,-0.041863441467285156,-0.08305525779724121
0.6337629021602739,-0.17433132651834096,0.283627222702744,-0.6212447285652161,-1.23018479347229,-0.9716476202011108,-0.13976655900478363,-0.5921810865402222,-0.7935910820960999,0.08465182781219482,-0.02767658233642578,-0.08505582809448242
0.6296464050309625,-0.17884862520958483,0.27034627373481684,-0.5577877163887024,-1.229200839996338,-0.9912247657775879,-0.14378245174884796,-0.5888590216636658,-0.7953436970710754,0.08959850668907166,-0.020576894283294678,-0.09251946210861206
0.6263913117589515,-0.18311134417225108,0.2570226019939085,-0.4602278172969818,-1.170324683189392,-1.007361888885498,-0.14751972258090973,-0.5862250328063965,-0.7966041564941406,0.11254657804965973,-0.010637760162353516,-0.09756088256835938
0.6243019249136212,-0.18671459182312308,0.2438601824204206,-0.3444972038269043,-1.0891518592834473,-1.0069613456726074,-0.15061615407466888,-0.5845310091972351,-0.7972692251205444,0.12469148635864258,0.004422426223754883,-0.09053289890289307
0.6230812644674951,-0.18993767077018547,0.23098621952228177,-0.2993430495262146,-1.0465601682662964,-0.9936535358428955,-0.15331964194774628,-0.5835402011871338,-0.7974797487258911,0.12499931454658508,0.005766153335571289,-0.05203807353973389
0.6218304679682161,-0.19251202143576077,0.2182712836327988,-0.3444383442401886,-0.9328487515449524,-0.9847777485847473,-0.15551163256168365,-0.5825239419937134,-0.797798216342926,0.12771010398864746,-0.0017197132110595703,0.00897979736328125
0.6198445893616759,-0.19385437832321983,0.20528497510199756,-0.4538098871707916,-0.8524739146232605,-1.0149688720703125,-0.15680497884750366,-0.5809086561203003,-0.7987223267555237,0.11347001791000366,0.004263818264007568,0.055573463439941406
0.6165302741278991,-0.19453025578122454,0.19159391059401765,-0.6510590314865112,-0.9040287137031555,-1.0363718271255493,-0.15771609544754028,-0.5782077312469482,-0.8005008101463318,0.09646731615066528,0.020102322101593018,0.09363734722137451
0.6103486289725512,-0.19541324874727842,0.17708095376103164,-1.0088903903961182,-0.9285216927528381,-1.0472691059112549,-0.15911385416984558,-0.5731531977653503,-0.8038520812988281,0.1370343714952469,0.03836321830749512,0.3002204895019531
0.6014773293630644,-0.19525503409629666,0.16165979926230473,-1.1909995079040527,-0.764899730682373,-1.1030164957046509,-0.15996690094470978,-0.565861165523529,-0.8088335394859314,0.07573837041854858,0.04114198684692383,0.1681932806968689
0.5917391088554451,-0.1923674273282386,0.14468465200736522,-1.2422847747802734,-0.5783788561820984,-1.2785085439682007,-0.15867666900157928,-0.5578052997589111,-0.814662516117096,-0.02606147527694702,0.022511780261993408,0.07432132959365845
0.582284200146611,-0.18696334595077232,0.12577673723673816,-1.1836819648742676,-0.427196741104126,-1.4434887170791626,-0.15524527430534363,-0.549933135509491,-0.8206536769866943,-0.05801159143447876,0.021124601364135742,-0.040445566177368164
0.5742832244211471,-0.17958707921641717,0.10551085340546627,-0.9865887761116028,-0.3174772560596466,-1.5910489559173584,-0.14996889233589172,-0.5432331562042236,-0.8260793685913086,-0.046961039304733276,0.05014544725418091,-0.1686105728149414
0.5687691550684097,-0.1710678720384781,0.0843172511774984,-0.7138813138008118,-0.2724602222442627,-1.7082997560501099,-0.14343374967575073,-0.5385953783988953,-0.8302660584449768,-0.03179819881916046,0.06787705421447754,-0.2649030089378357
0.5657513886414329,-0.16217220740871008,0.0628775035702774,-0.49165108799934387,-0.24587203562259674,-1.7319045066833496,-0.13630421459674835,-0.5360502600669861,-0.8331093788146973,0.04783375561237335,0.07016903162002563,-0.28920507431030273
0.5642066535817201,-0.15324944434330276,0.04205318787637601,-0.38027074933052063,-0.19925500452518463,-1.6728100776672363,-0.12899149954319,-0.5347455739974976,-0.8351097702980042,0.1493924856185913,0.04414510726928711,-0.24571603536605835
0.5629258458753432,-0.14473031621511123,0.022484483073270074,-0.36844509840011597,-0.1909904032945633,-1.5415128469467163,-0.12197117507457733,-0.5336628556251526,-0.836855411529541,0.21396641433238983,0.011583447456359863,-0.19105291366577148
0.5612386271745251,-0.13746989190340622,0.004821152146792002,-0.3884470462799072,-0.2412186861038208,-1.3615707159042358,-0.11601531505584717,-0.5322352051734924,-0.8386096358299255,0.27585113048553467,0.013985753059387207,-0.15038883686065674
0.5588320732363542,-0.13193993388654157,-0.010753643591334848,-0.44400089979171753,-0.3046261668205261,-1.185441017150879,-0.11154427379369736,-0.5301963090896606,-0.8405056595802307,0.28929388523101807,0.01417464017868042,-0.11608314514160156
0.5555735541952821,-0.12793296293699982,-0.024578116475275517,-0.4992537498474121,-0.3513404130935669,-1.0580644607543945,-0.10839535295963287,-0.5274306535720825,-0.8426549434661865,0.2560088634490967,-0.016453564167022705,-0.08611708879470825
0.5516821388499002,-0.12498948751952862,-0.03731807159082968,-0.5419848561286926,-0.392045795917511,-0.9973509311676025,-0.10616961121559143,-0.524120569229126,-0.8450003862380981,0.19897356629371643,-0.03430533409118652,-0.07278525829315186
0.5473204810227998,-0.12250818240925343,-0.04969567931742519,-0.5783900022506714,-0.39610952138900757,-0.9909684062004089,-0.10435095429420471,-0.5204010009765625,-0.8475220799446106,0.1441153585910797,-0.02653491497039795,-0.0755583643913269
0.5427785529189371,-0.11970570016888163,-0.06225086083572192,-0.5712398290634155,-0.3305310606956482,-1.0294781923294067,-0.10225658863782883,-0.5165172219276428,-0.8501491546630859,0.09487131237983704,-0.012245535850524902,-0.10013777017593384
0.5385758103680641,-0.11557935696740558,-0.07543108060120908,-0.5206336379051208,-0.19029459357261658,-1.1148269176483154,-0.09899719059467316,-0.5129139423370361,-0.8527126312255859,0.05235105752944946,-0.014536619186401367,-0.13291358947753906
0.5350530545663432,-0.10940605885384365,-0.0895827701846063,-0.453130304813385,-0.023453081026673317,-1.2153609991073608,-0.09392799437046051,-0.5098866820335388,-0.855098307132721,0.02477516233921051,-0.027466773986816406,-0.15324831008911133
0.5322190916417555,-0.10156627018929199,-0.10455487009930255,-0.3830567002296448,0.05005016177892685,-1.2714251279830933,-0.08736754953861237,-0.5074467658996582,-0.8572425246238708,0.023356914520263672,-0.029525279998779297,-0.16151058673858643
0.5300629508333762,-0.0935688687116981,-0.1196222734803589,-0.29673147201538086,0.012959045358002186,-1.2591516971588135,-0.08061115443706512,-0.505587637424469,-0.859001100063324,0.05045975744724274,-0.02845466136932373,-0.15816503763198853
0.5287363831732405,-0.0864935803787673,-0.1341695705948744,-0.1898534893989563,-0.06871025264263153,-1.205155611038208,-0.07458937913179398,-0.5044426918029785,-0.8602173924446106,0.07461988925933838,-0.024930477142333984,-0.1481749415397644
0.5283550876865489,-0.08070915193274943,-0.14787289294041356,-0.08349020779132843,-0.15919721126556396,-1.1362390518188477,-0.0696277990937233,-0.5041134357452393,-0.8608261346817017,0.089418426156044,-0.025931119918823242,-0.13171231746673584
0.5288107980582525,-0.07662347867148948,-0.16061906447040863,-0.0028739264234900475,-0.3165343403816223,-1.0589836835861206,-0.0660925805568695,-0.5045069456100464,-0.8608742952346802,0.09029300510883331,-0.015695631504058838,-0.11144626140594482
0.5297940090095261,-0.0747417844581121,-0.17234114969396444,0.04303412139415741,-0.4791792035102844,-0.9683077931404114,-0.06443548947572708,-0.5053555965423584,-0.8605020642280579,0.0840887799859047,-0.01252758502960205,-0.08717554807662964
0.531071072354929,-0.07473025801358044,-0.1829669371266422,0.07555850595235825,-0.5813633799552917,-0.8758337497711182,-0.06437733769416809,-0.5064572095870972,-0.859858512878418,0.0843815803527832,-0.027569890022277832,-0.06459522247314453
0.5326722796013628,-0.07570556461953402,-0.19264784105869656,0.11379960179328918,-0.5831642150878906,-0.8133889436721802,-0.06515451520681381,-0.507837176322937,-0.8589856028556824,0.07334847748279572,-0.030508100986480713,-0.04845458269119263
0.5344480648658314,-0.07682614087318806,-0.20196095083422863,0.11608299612998962,-0.5916708707809448,-0.8103169798851013,-0.06604771316051483,-0.5093661546707153,-0.8580115437507629,0.03820040822029114,-0.022738277912139893,-0.05362480878829956
0.5363300204754261,-0.07828052850769382,-0.21134966709475397,0.1369546800851822,-0.6559075117111206,-0.8269105553627014,-0.06722044199705124,-0.5109847784042358,-0.8569573760032654,0.008153632283210754,-0.030229151248931885,-0.07012087106704712
0.5386836572572903,-0.08005396490836182,-0.22104327268945162,0.20590072870254517,-0.6635454297065735,-0.8678811192512512,-0.0686437264084816,-0.5130065083503723,-0.8556356430053711,-0.0004938691854476929,-0.03534853458404541,-0.0855569839477539
0.5420079475060096,-0.08070348832340463,-0.23142619862734853,0.3164474368095398,-0.5246099829673767,-0.9634265899658203,-0.06906160712242126,-0.5158571600914001,-0.8538863658905029,-0.019744575023651123,-0.011959552764892578,-0.10157328844070435
0.5463660238902518,-0.07943536022770556,-0.24308928334620689,0.3783915042877197,-0.4425332248210907,-1.0852257013320923,-0.06779967248439789,-0.5195857286453247,-0.8517240881919861,-0.045649439096450806,0.0032131075859069824,-0.10469686985015869
0.5511648411039927,-0.0770027555650255,-0.25589807901025863,0.4070424437522888,-0.4001830518245697,-1.1582417488098145,-0.06553500145673752,-0.5236799120903015,-0.8493906855583191,-0.026033028960227966,-0.012071371078491211,-0.07947289943695068
0.5564562217490976,-0.0736211564409803,-0.2694599525042749,0.4755397439002991,-0.34329766035079956,-1.2185405492782593,-0.06245763599872589,-0.5281803607940674,-0.8468320369720459,-0.0020870715379714966,-0.015917420387268066,-0.0648043155670166
0.5625302657833324,-0.06923304682108627,-0.283734756158864,0.5582053661346436,-0.29404377937316895,-1.2693860530853271,-0.05851803719997406,-0.5333282947540283,-0.8438818454742432,0.008377626538276672,-0.0031402111053466797,-0.055852651596069336
0.5692279652632182,-0.06425673421710756,-0.2983638126135167,0.604276716709137,-0.2822757959365845,-1.2725502252578735,-0.0540873222053051,-0.5389819145202637,-0.8405789732933044,0.033976197242736816,-0.005848348140716553,-0.028973639011383057
0.576076037158432,-0.059172857307784696,-0.3129972391102578,0.605220377445221,-0.28709110617637634,-1.258216381072998,-0.04959379509091377,-0.5447374582290649,-0.8371388912200928,0.05815393105149269,-0.007157564163208008,0.0062825679779052734
0.5827797495999278,-0.054161271694740165,-0.3276512039867446,0.5891385674476624,-0.3125820755958557,-1.2600747346878052,-0.04519909247756004,-0.5503469705581665,-0.8337117433547974,0.058519989252090454,0.0011069178581237793,0.029451489448547363
0.5891601298711492,-0.049173157701029396,-0.3424059467756609,0.552792489528656,-0.32459691166877747,-1.2475109100341797,-0.040866464376449585,-0.5556629300117493,-0.830402672290802,0.0498386025428772,0.010283350944519043,0.0325053334236145
0.5950736293103249,-0.04445737777144794,-0.3569403087111908,0.5152842998504639,-0.35048097372055054,-1.2054561376571655,-0.03680334985256195,-0.560569703578949,-0.8272890448570251,0.05902013182640076,-0.00345611572265625,0.02745378017425537
0.6007042991126726,-0.04007384706513303,-0.371102842548624,0.5121747255325317,-0.3644070625305176,-1.1796009540557861,-0.033049583435058594,-0.5652236342430115,-0.8242754340171814,0.07011312246322632,-0.03327178955078125,0.026790082454681396
0.6063032836558868,-0.03588575443586063,-0.38531840119832017,0.5096239447593689,-0.41133570671081543,-1.2015389204025269,-0.02948315255343914,-0.569833517074585,-0.8212310671806335,0.0661347508430481,-0.02672398090362549,0.030429065227508545
0.6116061633950954,-0.03181719446112485,-0.39994691559277884,0.4622661769390106,-0.43618011474609375,-1.2187690734863281,-0.026045197620987892,-0.5741832256317139,-0.8183124661445618,0.07119590044021606,-6.598234176635742e-05,0.04237252473831177
0.6163634599843455,-0.027733325508903305,-0.4145679960942432,0.41974297165870667,-0.42171329259872437,-1.189319372177124,-0.022627105936408043,-0.5780715942382812,-0.8156722784042358,0.1002332866191864,-0.026222169399261475,0.055937111377716064
0.6207850290919517,-0.02342542211941335,-0.4288755897321012,0.4087448716163635,-0.36715155839920044,-1.1575857400894165,-0.019053012132644653,-0.5816739201545715,-0.8131988644599915,0.12023401260375977,-0.05934774875640869,0.05947577953338623
0.6251051958441948,-0.018470373439605208,-0.4428099574046589,0.4041285514831543,-0.2553054392337799,-1.1169991493225098,-0.014976803213357925,-0.5851826071739197,-0.8107632398605347,0.13744381070137024,-0.05968433618545532,0.06289947032928467
0.6292625000088062,-0.012291279856364199,-0.4562985429141814,0.3854474723339081,-0.08878035843372345,-1.0760717391967773,-0.009936779737472534,-0.5885486602783203,-0.8084006905555725,0.14943259954452515,-0.05436503887176514,0.07835918664932251
0.6330008279845805,-0.0045283250615322556,-0.46937130711709474,0.33826345205307007,0.10029102861881256,-1.0399584770202637,-0.0036509763449430466,-0.5915668606758118,-0.8062476515769958,0.148975670337677,-0.05946451425552368,0.10353463888168335
0.6359478457810872,0.004740962139664827,-0.48215647449498783,0.24181504547595978,0.21985702216625214,-1.0169124603271484,0.003814132884144783,-0.5939403176307678,-0.8045000433921814,0.14091545343399048,-0.06938964128494263,0.1408342719078064
0.6374956812765348,0.014514999424616851,-0.49487400625063244,0.07721491903066635,0.2091955840587616,-1.0174297094345093,0.011663680896162987,-0.595184862613678,-0.8035041093826294,0.12587901949882507,-0.07272279262542725,0.1868659257888794
0.6369087538318213,0.023779229694687803,-0.5074281373151626,-0.16063842177391052,0.15393318235874176,-0.9896335005760193,0.019115224480628967,-0.5947130918502808,-0.8037107586860657,0.12739962339401245,-0.07632261514663696,0.2301938533782959
0.6337979346266883,0.03237172522083673,-0.5192501438941766,-0.40601304173469543,0.17152149975299835,-0.9256329536437988,0.026080068200826645,-0.5922093391418457,-0.8053619861602783,0.14751914143562317,-0.07946723699569702,0.24547123908996582
0.6283582284319124,0.041112339721308,-0.5301272494429173,-0.6060560345649719,0.31338024139404297,-0.8650251626968384,0.03325025364756584,-0.587817370891571,-0.8083100914955139,0.16081097722053528,-0.06426692008972168,0.22159433364868164
0.6212223814018962,0.051115534861337346,-0.5400830482616182,-0.7350786924362183,0.5037171244621277,-0.8087161183357239,0.04154739901423454,-0.5820295810699463,-0.8121055364608765,0.16700971126556396,-0.043504416942596436,0.1754782795906067
0.6130230583180113,0.06159953074586761,-0.5488981687829168,-0.8083627223968506,0.558998167514801,-0.7103961706161499,0.05035116523504257,-0.5753426551818848,-0.816361129283905,0.18695348501205444,-0.05002349615097046,0.13499516248703003
0.6044348913173478,0.07146218533563617,-0.5560887491703651,-0.8166081309318542,0.593891978263855,-0.5736026167869568,0.05875072255730629,-0.5682972073554993,-0.8207232356071472,0.20804917812347412,-0.04495346546173096,0.09019345045089722
0.5960826118839008,0.08080044523020985,-0.5614235919374517,-0.7754691243171692,0.6623550057411194,-0.4294852614402771,0.06679296493530273,-0.5614050030708313,-0.8248412609100342,0.20757529139518738,-0.015499293804168701,0.03793025016784668
0.5883525137842134,0.08931554084753146,-0.5649773251204319,-0.7096304297447205,0.6116793155670166,-0.28547853231430054,0.07419893890619278,-0.5549913048744202,-0.8285403847694397,0.19711756706237793,-0.01573312282562256,0.004367411136627197
0.581531773947332,0.09523625498507,-0.566676027555636,-0.6183913350105286,0.3630501329898834,-0.11253615468740463,0.07946128398180008,-0.5493045449256897,-0.8318355679512024,0.18694187700748444,-0.03826558589935303,-0.007565677165985107
0.5758268635896735,0.0971705199957285,-0.5661087470277137,-0.5208171010017395,0.0897030234336853,0.1026933342218399,0.08137282729148865,-0.5445284843444824,-0.8347856998443604,0.19107279181480408,-0.027202963829040527,-0.01930975914001465
0.5714155058425622,0.09502616639322654,-0.5628773258403734,-0.40108028054237366,-0.16197212040424347,0.35342657566070557,0.07980971038341522,-0.540823221206665,-0.8373413681983948,0.2137235850095749,-0.023446738719940186,-0.040374696254730225
0.5686980051610727,0.08895740977482593,-0.5568079543588883,-0.2226812094449997,-0.38808995485305786,0.6069421768188477,0.0748569443821907,-0.5385354161262512,-0.839271068572998,0.2220637947320938,-0.022362351417541504,-0.05571794509887695
0.5680486130016478,0.07961786476086036,-0.5482851940376042,-0.030858874320983887,-0.5567349195480347,0.802333652973175,0.06704318523406982,-0.5379881262779236,-0.8402820825576782,0.1910744309425354,-0.004873692989349365,-0.05823171138763428
0.5691497858112872,0.06770631520679592,-0.5378960942705865,0.1094076931476593,-0.6966866850852966,0.9450883865356445,0.05698949098587036,-0.5389160513877869,-0.840429425239563,0.15060628950595856,0.0023713111877441406,-0.02982509136199951
0.5712461743795805,0.053987351514762826,-0.5262249805257978,0.18279777467250824,-0.7720491886138916,1.0276082754135132,0.045393604785203934,-0.5406807661056519,-0.840002179145813,0.10675175487995148,0.007203042507171631,0.01898777484893799
0.5737125224916728,0.03949145573024974,-0.5140047461809478,0.20687222480773926,-0.7920911312103271,1.0341298580169678,0.033159930258989334,-0.5427538752555847,-0.8392369747161865,0.04092146456241608,0.028303861618041992,0.06441086530685425
0.5759082207605112,0.025123915469431733,-0.5018414922381804,0.15598316490650177,-0.7377156615257263,1.0119551420211792,0.021069161593914032,-0.5445967316627502,-0.8384333252906799,-0.00840441882610321,0.02781212329864502,0.11849313974380493
0.5769508966192546,0.012145715801680591,-0.49003961541150814,0.0025448701344430447,-0.5492890477180481,0.9586144685745239,0.010179434902966022,-0.5454709529876709,-0.838067889213562,-0.014741838909685612,0.004470646381378174,0.1684970259666443
0.5751996150122701,0.00327953951353369,-0.47892634685526186,-0.4273163378238678,-0.006894088815897703,0.8944208025932312,0.002751803258433938,-0.5440022945404053,-0.8390792012214661,-0.009374141693115234,-0.009296596050262451,0.23660117387771606
0.5689798788977385,-0.001361474247572142,-0.46911584704456855,-0.791135311126709,0.1394604593515396,0.7610273361206055,-0.0011469750897958875,-0.5387729406356812,-0.8424502611160278,0.026308685541152954,-0.014587044715881348,0.40256989002227783
0.5599608454542403,-0.0034024342708589158,-0.4604944216164432,-0.9649199843406677,0.382951945066452,0.6885574460029602,-0.0028827949427068233,-0.5311530232429504,-0.8472709655761719,-0.016862109303474426,-0.013311028480529785,0.19556808471679688
0.5504061799030847,-0.0024793687404875185,-0.4532188283197707,-0.9188500046730042,0.5361961126327515,0.5409684777259827,-0.0021131939720362425,-0.5230334401130676,-0.85230952501297,-0.05204029381275177,0.008812308311462402,0.06097346544265747
0.5421277538257592,2.9187385930300694e-05,-0.4478312559536581,-0.7087087035179138,0.5173791646957397,0.38347315788269043,2.500228765711654e-05,-0.5159597992897034,-0.8566128015518188,-0.07854676246643066,-0.0054329633712768555,-0.08053624629974365
0.5364482311144267,0.003090600367720819,-0.44413921146657614,-0.4240088164806366,0.46761611104011536,0.24655820429325104,0.002656457480043173,-0.5110863447189331,-0.8595252633094788,-0.082154780626297,-0.01427370309829712,-0.18928760290145874
0.5335615609766696,0.006387155368536423,-0.44180018270122107,-0.15716032683849335,0.43893375992774963,0.16224201023578644,0.005499310325831175,-0.5086030960083008,-0.8609835505485535,-0.05048225820064545,-0.012576043605804443,-0.24537020921707153
0.5332169267960981,0.009863292094072138,-0.4399035341075426,0.08330339938402176,0.45330923795700073,0.1744493991136551,0.008493896573781967,-0.5083063244819641,-0.8611344695091248,0.03194186091423035,-0.006982922554016113,-0.2586928606033325
0.5350773992198662,0.01357079708456778,-0.43759026415356383,0.2640153169631958,0.5200347900390625,0.23234331607818604,0.011673636734485626,-0.509907603263855,-0.8601499199867249,0.10710075497627258,0.013050973415374756,-0.22218650579452515
0.5378150643076728,0.01714412417805176,-0.4344304513929191,0.24907256662845612,0.4935653805732727,0.3211573660373688,0.014723165892064571,-0.5122607350349426,-0.8587037324905396,0.10933074355125427,-0.0021587610244750977,-0.12446582317352295
0.539788611001662,0.019143162654673137,-0.4299958421109944,0.1203228011727333,0.35803669691085815,0.4499841034412384,0.016420334577560425,-0.5139546990394592,-0.857660174369812,0.1482524871826172,-0.04421180486679077,-0.03220188617706299
0.5403754632213432,0.019097157844339796,-0.4237938921107893,-0.023200806230306625,0.2814883887767792,0.6092446446418762,0.016375115141272545,-0.5144580006599426,-0.8573591709136963,0.19485226273536682,-0.029456734657287598,0.010755777359008789
0.5396532132631854,0.017733678262121143,-0.4158655504059478,-0.14142192900180817,0.26052770018577576,0.7360013127326965,0.015212693251669407,-0.513838529586792,-0.8577520251274109,0.18969756364822388,0.0008075833320617676,0.012170910835266113
0.5378940390096776,0.015494976580471425,-0.4067270482704006,-0.2319193333387375,0.22741180658340454,0.8149296641349792,0.0133063904941082,-0.512328565120697,-0.8586863875389099,0.15908735990524292,-0.016312122344970703,0.006711900234222412
0.5353232636190783,0.012753953590892153,-0.3969173332558091,-0.296100378036499,0.23418697714805603,0.849320113658905,0.010969426482915878,-0.5101190805435181,-0.8600338101387024,0.12600868940353394,-0.04009753465652466,-0.009381473064422607
0.5323672930616328,0.010263111728360731,-0.38696896470358466,-0.3057423532009125,0.27880582213401794,0.8477930426597595,0.008842622861266136,-0.5075744390487671,-0.8615625500679016,0.08159619569778442,-0.039437830448150635,-0.044397592544555664
0.5295601546872131,0.008443044217002826,-0.3772632820810739,-0.2703520953655243,0.34088730812072754,0.8131986856460571,0.007286508101969957,-0.5051537752151489,-0.8629985451698303,0.04273177683353424,-0.0404546856880188,-0.07032054662704468
0.5270883876523811,0.007506023898382413,-0.3680789985353534,-0.23710516095161438,0.3880622386932373,0.763067364692688,0.006487210281193256,-0.5030190348625183,-0.8642509579658508,0.013303413987159729,-0.044252634048461914,-0.08061903715133667
0.5248731176362076,0.007146847567764287,-0.3596218301888856,-0.21263277530670166,0.3862343430519104,0.6976829767227173,0.006184739992022514,-0.5011032223701477,-0.8653653860092163,-0.008931353688240051,-0.04204857349395752,-0.07868063449859619
0.523002234054174,0.007095328759432701,-0.35178242502753154,-0.16722241044044495,0.3780137002468109,0.6576564908027649,0.006146798841655254,-0.49948328733444214,-0.8663017153739929,-0.02476254105567932,-0.024747610092163086,-0.08389359712600708
0.5216926982099624,0.006827524857795361,-0.34429781765693973,-0.10701454430818558,0.29956865310668945,0.6358696222305298,0.00591925997287035,-0.4983483850955963,-0.8669566512107849,-0.022612392902374268,-0.0063970088958740234,-0.09079176187515259
0.5208121504345843,0.005701782569524836,-0.33696192511057743,-0.0794079527258873,0.21212457120418549,0.6329219937324524,0.004945787135511637,-0.4975847601890564,-0.8674012422561646,-0.011385023593902588,-0.009846210479736328,-0.08345019817352295
0.5201710904280337,0.00403622312938958,-0.3296176829974091,-0.0530969612300396,0.19428808987140656,0.6391903162002563,0.0035023591481149197,-0.4970286190509796,-0.8677271008491516,8.343136869370937e-05,-0.01932874321937561,-0.08097285032272339
0.519933017351973,0.00230217433170386,-0.32214280276407353,0.0009612115100026131,0.19571447372436523,0.6575394868850708,0.0019979458302259445,-0.4968219995498657,-0.867850124835968,0.0055398643016815186,-0.014713585376739502,-0.09137839078903198
0.5202267592022325,0.00018067951927581112,-0.31430972052156336,0.05503112077713013,0.15220731496810913,0.7021718621253967,0.00015677679039072245,-0.4970768988132477,-0.8677064776420593,0.019557565450668335,-0.004082679748535156,-0.09889203310012817
0.5210309755330307,-0.0029269128068267355,-0.30585738853070366,0.10825572907924652,0.06520982831716537,0.7603598237037659,-0.002538526663556695,-0.49777457118034363,-0.8673027157783508,0.03272038698196411,-0.000714719295501709,-0.09647291898727417
0.522405530800031,-0.0072647736140694485,-0.2967765088943012,0.17983703315258026,-0.02533840760588646,0.803781270980835,-0.006295753177255392,-0.4989662766456604,-0.8665985465049744,0.02436213195323944,0.002094358205795288,-0.10041201114654541
0.524570794933223,-0.012687743050814396,-0.2872976410108707,0.26839113235473633,-0.1137114092707634,0.8277025818824768,-0.010981441475450993,-0.5008415579795837,-0.8654693365097046,0.0025585591793060303,0.0007500648498535156,-0.10782778263092041
0.5275678700435723,-0.019114918591101468,-0.2774822619990202,0.354033887386322,-0.17591558396816254,0.8577976822853088,-0.016514934599399567,-0.5034334063529968,-0.863876223564148,-0.005122065544128418,-0.0068662166595458984,-0.10285967588424683
0.5313080894552383,-0.02615837171566177,-0.2671676434943055,0.4301568865776062,-0.18470162153244019,0.8981581330299377,-0.022549739107489586,-0.5066615343093872,-0.8618500828742981,-0.005679041147232056,-0.010550320148468018,-0.0861479640007019
0.5357160224449276,-0.03353458061538035,-0.2564283945396236,0.5011386871337891,-0.20714259147644043,0.9127905964851379,-0.02883109450340271,-0.5104568600654602,-0.8594198822975159,-0.02419322542846203,-0.004588186740875244,-0.07049649953842163
0.5406465572302277,-0.04149183817820844,-0.24558915060588257,0.5479946136474609,-0.27282172441482544,0.9065452218055725,-0.03556390479207039,-0.5146904587745667,-0.8566381931304932,-0.0435529500246048,-0.0037420988082885742,-0.04938298463821411
0.5457794869612579,-0.05037960610469733,-0.2346755257224931,0.5596410036087036,-0.3825484812259674,0.9087671041488647,-0.043042391538619995,-0.5190845131874084,-0.8536384701728821,-0.043734386563301086,-0.004688620567321777,-0.023223161697387695
0.5509510115204358,-0.06054845790165696,-0.22368359934188337,0.5721660852432251,-0.49800530076026917,0.9012378454208374,-0.05155740678310394,-0.5234977602958679,-0.850465714931488,-0.03618064150214195,0.0001824498176574707,-0.003828108310699463
0.5560603022226261,-0.07149229635747147,-0.2127589759013631,0.5640202164649963,-0.5259844660758972,0.8770725131034851,-0.06066964194178581,-0.5278441309928894,-0.8471716046333313,-0.037429120391607285,0.010205090045928955,0.011203587055206299
0.5608861119046041,-0.0822044534194683,-0.20218519058401,0.5284310579299927,-0.48406982421875,0.8278085589408875,-0.06953105330467224,-0.531936764717102,-0.8439245820045471,-0.04973165690898895,0.010482966899871826,0.01940065622329712
0.5652317084603387,-0.09191292231216451,-0.19223163908484647,0.48445552587509155,-0.38502439856529236,0.7692381739616394,-0.07750796526670456,-0.5356115102767944,-0.8409000039100647,-0.06784729659557343,-0.002276003360748291,0.021747171878814697
0.5693310878818929,-0.10013519214462198,-0.18301509793244378,0.48135560750961304,-0.26931431889533997,0.6935750842094421,-0.08419916033744812,-0.5390687584877014,-0.8380425572395325,-0.08540228754281998,-0.003487884998321533,0.01254206895828247
0.5735086971856069,-0.10682371223001316,-0.17471202285579243,0.4871159493923187,-0.17410382628440857,0.6063222289085388,-0.08956161141395569,-0.5425826907157898,-0.8352141976356506,-0.1052626222372055,-0.0014693737030029297,0.005837917327880859
0.5776076277698442,-0.11208307593173358,-0.16732326661187563,0.4596153497695923,-0.0685100257396698,0.5404380559921265,-0.0937035083770752,-0.5460212230682373,-0.8325145244598389,-0.10672071576118469,-0.00375288724899292,0.005015134811401367
0.5815978755072214,-0.11596490199147146,-0.16054348570145957,0.4699065387248993,0.02498004585504532,0.4951414465904236,-0.09668160229921341,-0.5493597984313965,-0.8299738168716431,-0.08898735046386719,0.0017676949501037598,-0.007016599178314209
0.586009334415633,-0.11914783159937405,-0.15415299106803085,0.5306777358055115,0.033384982496500015,0.4596255421638489,-0.09903382509946823,-0.553040623664856,-0.8272475004196167,-0.07674744725227356,0.003144383430480957,-0.019310176372528076
0.5910355529248414,-0.12239785276107831,-0.14801792239779443,0.5838766098022461,-0.0007125576958060265,0.4299905002117157,-0.10138119757175446,-0.5572212338447571,-0.824151873588562,-0.06754887104034424,0.0039223432540893555,-0.011404156684875488
0.5964814866169375,-0.12575410897448094,-0.1421560614945675,0.6121055483818054,-0.011397693306207657,0.39468470215797424,-0.10376454144716263,-0.5617350339889526,-0.8207841515541077,-0.05932140350341797,0.009260118007659912,0.007490694522857666
0.6020407407051941,-0.12890444093606082,-0.13669746178737827,0.5967124104499817,0.0038243308663368225,0.35934215784072876,-0.10594669729471207,-0.5663256049156189,-0.8173436522483826,-0.061106547713279724,0.008220195770263672,0.03218734264373779
0.6072208134004818,-0.13136557811770844,-0.13173343593250117,0.5347081422805786,0.07387559115886688,0.3125016987323761,-0.10757225006818771,-0.5705872774124146,-0.8141611218452454,-0.06022866815328598,-0.0049436092376708984,0.05447179079055786
0.6118886939338604,-0.132693212168661,-0.1274948793797513,0.480983704328537,0.14330929517745972,0.252863347530365,-0.10829949378967285,-0.5744144916534424,-0.8113687038421631,-0.06780220568180084,-0.013720214366912842,0.057447195053100586
0.616256807102729,-0.13284744839310936,-0.12405488624795169,0.4590267539024353,0.22649072110652924,0.18944016098976135,-0.10809125751256943,-0.5779845714569092,-0.808857262134552,-0.07899677008390427,-0.01416313648223877,0.042835533618927
0.6205448457802728,-0.13176988454523833,-0.1214026848891951,0.4498968720436096,0.2922742962837219,0.12329798936843872,-0.10689297318458557,-0.5814785361289978,-0.8065088987350464,-0.08602390438318253,-0.0055574774742126465,0.018545031547546387
0.6249739961818728,-0.1297010785386099,-0.11957478552375124,0.46471789479255676,0.3305537700653076,0.055962346494197845,-0.10489010065793991,-0.5850762128829956,-0.8041666150093079,-0.09063604474067688,0.00013053417205810547,-0.001497507095336914
0.6296820409542456,-0.126783954434098,-0.11856760694215421,0.48197922110557556,0.3688516318798065,-0.016161691397428513,-0.10219436883926392,-0.5888878107070923,-0.8017277717590332,-0.09989304840564728,0.0024163126945495605,-0.010741710662841797
0.6345699591850612,-0.12296170945913504,-0.11843887470377872,0.48922330141067505,0.4079012870788574,-0.08172285556793213,-0.0987749993801117,-0.5928312540054321,-0.7992462515830994,-0.0981854647397995,-0.006213486194610596,-0.013299524784088135
