attitudeX,attitudeY,attitudeZ,gyroX,gyroY,gyroZ,gravityX,gravityY,gravityZ,accX,accY,accZ
0.39448383359020395,-0.05300003813626045,0.7137857222562916,0.6839710474014282,1.0210940837860107,1.1970402002334595,-0.04890647158026695,-0.38433170318603516,-0.9218987822532654,0.08732813596725464,0.01708322763442993,-0.1628028154373169
0.40155883346485477,-0.04740060340709841,0.72690544892423,0.8329581618309021,1.1058608293533325,1.1374391317367554,-0.04361368343234062,-0.3908536434173584,-0.91941899061203,0.05698041617870331,0.027023136615753174,-0.13923579454421997
0.4097308336072972,-0.04088009956116138,0.7393717389679196,0.8796680569648743,1.1683294773101807,1.0743669271469116,-0.03748593106865883,-0.3983624577522278,-0.9164617657661438,0.04465758800506592,0.04808175563812256,-0.0856439471244812
0.417993206646104,-0.03363267931738545,0.7511566028585667,0.8342441320419312,1.2171475887298584,1.0167022943496704,-0.030731292441487312,-0.40592724084854126,-0.9133885502815247,0.042266979813575745,0.050992608070373535,-0.03428906202316284
0.4254488636681492,-0.025926062453197285,0.7623564342201233,0.7034332156181335,1.2256008386611938,0.9775722622871399,-0.02361220121383667,-0.4127296805381775,-0.9105474948883057,0.03989335894584656,0.03449484705924988,0.0038549304008483887
0.4314276963960432,-0.018321301925991587,0.7731569141772489,0.5265982151031494,1.1761353015899658,0.9552741646766663,-0.016641583293676376,-0.4181680977344513,-0.908217191696167,0.04444313049316406,0.01429852843284607,0.028136014938354492
0.4356154843053235,-0.01146580297636545,0.7836945298306686,0.3382031321525574,1.068674087524414,0.936697244644165,-0.010394789278507233,-0.4219684898853302,-0.9065508842468262,0.05038809776306152,0.0004597604274749756,0.03861570358276367
0.43800103160775183,-0.005792039734844601,0.7940037352385872,0.157244011759758,0.9277524352073669,0.9196926951408386,-0.005245249252766371,-0.42413005232810974,-0.9055861234664917,0.051464155316352844,-0.0035279691219329834,0.0455549955368042
0.43878343250578544,-0.001485115786073841,0.8041052830279056,0.01098652370274067,0.7868645191192627,0.9040146470069885,-0.0013444290962070227,-0.42483845353126526,-0.9052681922912598,0.0488756000995636,-0.0012021362781524658,0.04703754186630249
0.4383358864459908,0.0015592500762130906,0.8140709592176298,-0.09795647114515305,0.665492832660675,0.8956150412559509,0.001411836827173829,-0.42443326115608215,-0.9054581522941589,0.041785828769207,0.0038248002529144287,0.04214632511138916
0.4369957150404886,0.003495968874017223,0.8240633198121058,-0.1713390052318573,0.5666995048522949,0.9081630706787109,0.003167436458170414,-0.4232194125652313,-0.9060216546058655,0.026312582194805145,0.009996205568313599,0.03327995538711548
0.4350848931122876,0.00448529444041727,0.8342497836859805,-0.21473895013332367,0.49043670296669006,0.9289825558662415,0.004067405126988888,-0.42148739099502563,-0.9068251252174377,0.003226332366466522,0.012811273336410522,0.028193533420562744
0.43283632306716846,0.00495688668081092,0.8445896858254219,-0.23930984735488892,0.4787023961544037,0.9393892288208008,0.004499742761254311,-0.41944724321365356,-0.9077685475349426,-0.035658158361911774,0.01540982723236084,0.029243767261505127
0.4305076380420815,0.005603572098108974,0.8549146165927823,-0.23264795541763306,0.5124287009239197,0.9254275560379028,0.005092242266982794,-0.41733217239379883,-0.9087397456169128,-0.07683902978897095,0.020863115787506104,0.03340405225753784
0.4284495685422769,0.006807236736239354,0.864881368194717,-0.18145015835762024,0.5547157526016235,0.8757463097572327,0.00619188928976655,-0.415461003780365,-0.9095898866653442,-0.10953962802886963,0.031000614166259766,0.04641544818878174
0.427211419498739,0.008836720462096933,0.874115166102518,-0.07125520706176758,0.6134704351425171,0.7956823706626892,0.0080424128100276,-0.4143344461917877,-0.9100891351699829,-0.1399698555469513,0.042050570249557495,0.05190432071685791
0.42735459581524593,0.011910745651147957,0.8823510242337244,0.09161270409822464,0.6761395931243896,0.6973060369491577,0.010839301161468029,-0.4144647717475891,-0.9100008010864258,-0.17781618237495422,0.051198810338974,0.05804157257080078
0.4294809864746397,0.015975957967528414,0.8894243099710826,0.3210938274860382,0.722434401512146,0.5939604640007019,0.014524435624480247,-0.4163989722728729,-0.9090659618377686,-0.2185801863670349,0.06366157531738281,0.07199931144714355
0.43409930131716534,0.021526855884554982,0.8954460035908347,0.5684351325035095,0.9314537048339844,0.5356218218803406,0.019528714939951897,-0.42059341073036194,-0.9070390462875366,-0.25370532274246216,0.08039876818656921,0.08831346035003662
0.4410666326519833,0.030738984695931153,0.9012448269725033,0.8078714609146118,1.3849742412567139,0.5394240021705627,0.027792789041996002,-0.42690426111221313,-0.90386962890625,-0.2563541531562805,0.12595519423484802,0.1372222900390625
0.4506587636214735,0.04348833505156097,0.9066800825156939,1.0590580701828003,1.594622254371643,0.5073903799057007,0.03913413733243942,-0.43555861711502075,-0.8993092775344849,-0.35991960763931274,0.12531694769859314,0.12419331073760986
0.46267385385580656,0.05793592813880388,0.911295221634739,1.2876046895980835,1.6683186292648315,0.43791916966438293,0.05181567370891571,-0.44634243845939636,-0.8933607935905457,-0.39637434482574463,0.09621432423591614,0.18549036979675293
0.4766735966646771,0.07256386431371754,0.9148477848923001,1.4403300285339355,1.5376851558685303,0.38004204630851746,0.06441831588745117,-0.45882612466812134,-0.8861878514289856,-0.4366258978843689,0.08124744892120361,0.19143986701965332
0.4912063604400086,0.08565737994962126,0.9177734279167628,1.365066409111023,1.3599380254745483,0.3702312409877777,0.07543730735778809,-0.47168996930122375,-0.8785316348075867,-0.4037606120109558,0.07840996980667114,0.2236853837966919
0.5031718465098481,0.09829559526938386,0.9209365493094941,0.9043124914169312,1.497615933418274,0.4043375551700592,0.08597399294376373,-0.48220667243003845,-0.8718286752700806,-0.38072797656059265,0.10436859726905823,0.28834784030914307
0.5091774209610244,0.11285091991188526,0.9248658129170845,0.19528158009052277,1.758825659751892,0.3933248519897461,0.09832628816366196,-0.4874591827392578,-0.8675917983055115,-0.39391952753067017,0.1316700577735901,0.3497084975242615
0.5082092291546856,0.129028402921551,0.9290125986757697,-0.44842007756233215,1.851691484451294,0.2928776741027832,0.11240894347429276,-0.48661357164382935,-0.866355299949646,-0.44640854001045227,0.11027082800865173,0.3575204610824585
0.5021191805102003,0.14572776056841694,0.9323636785889918,-0.7910107374191284,1.7963601350784302,0.10826282948255539,0.12728814780712128,-0.4812842309474945,-0.8672734498977661,-0.5109856128692627,0.0776282548904419,0.2777043581008911
0.4938354985967099,0.16263663947999693,0.9337102691078151,-0.8519803881645203,1.6895651817321777,-0.1314096301794052,0.14257454872131348,-0.4740065932273865,-0.8689017295837402,-0.6352960467338562,0.08077239990234375,0.08812475204467773
0.4854538136977265,0.1793855830070082,0.9323130205896656,-0.7328543066978455,1.5025993585586548,-0.3992551863193512,0.15781040489673615,-0.46660977602005005,-0.8702707886695862,-0.7115060091018677,0.08781039714813232,-0.039122581481933594
0.4782203774149135,0.1941957689977831,0.9274730816565596,-0.5291227698326111,0.9650976657867432,-0.7181329727172852,0.1713283658027649,-0.46019992232322693,-0.871127188205719,-0.7445247173309326,0.0803629457950592,-0.17301642894744873
0.4716414977287423,0.20535603987981546,0.9189724445912039,-0.4877912998199463,0.5327917337417603,-1.004603385925293,0.1816529631614685,-0.45434918999671936,-0.8721060752868652,-0.7622345685958862,0.08205002546310425,-0.20411157608032227
0.46392221558512753,0.21584988172679678,0.9079912438526679,-0.608353316783905,0.6788290739059448,-1.2336177825927734,0.19154001772403717,-0.4474591910839081,-0.8735517859458923,-0.702190637588501,0.13749220967292786,-0.16665518283843994
0.4550517155721107,0.23244851156485882,0.8950126251811121,-0.5844133496284485,1.49916672706604,-1.393410325050354,0.20691895484924316,-0.4395087659358978,-0.8740804195404053,-0.6243383288383484,0.19863355159759521,-0.19345498085021973
0.447398486442899,0.2581448006897879,0.8809552805941331,-0.23490767180919647,2.3940563201904297,-1.420270323753357,0.23016077280044556,-0.4326215386390686,-0.8717021346092224,-0.5449190139770508,0.19435560703277588,-0.3500080704689026
0.4442511574794961,0.29269246798002835,0.86538042263312,0.4096958339214325,3.1290557384490967,-1.4384170770645142,0.26052430272102356,-0.42978185415267944,-0.8645314574241638,-0.5137133598327637,0.16504189372062683,-0.5483255982398987
0.4470702447923872,0.3339710635203391,0.8477426971005606,1.0932891368865967,3.5456488132476807,-1.3956162929534912,0.29558053612709045,-0.4323255717754364,-0.8518959879875183,-0.5177179574966431,0.18894794583320618,-0.6567557454109192
0.45533402626519565,0.37824841475147786,0.8284775406517124,1.6235332489013672,3.5485408306121826,-1.2515361309051514,0.3316675126552582,-0.43976232409477234,-0.8346291184425354,-0.5278192758560181,0.2503398060798645,-0.6832999587059021
0.4670415088621259,0.42028179220319606,0.8091905099540343,1.810718297958374,3.0677762031555176,-1.0069161653518677,0.3643207848072052,-0.4502466022968292,-0.8151983618736267,-0.5156879425048828,0.312124103307724,-0.6362481713294983
0.47888559913403106,0.45506938428912114,0.7916465388708653,1.603624701499939,2.234999418258667,-0.8374214172363281,0.3900820314884186,-0.4607904255390167,-0.7971876263618469,-0.5075289011001587,0.3680475950241089,-0.5329972505569458
0.48723282995649814,0.4788798884952636,0.7752974665237666,1.1845022439956665,0.9773068428039551,-1.0467315912246704,0.4071645736694336,-0.4681825339794159,-0.7842334508895874,-0.6080312728881836,0.3914308547973633,-0.4397960901260376
0.4901762082057548,0.49133085657255715,0.7564045548380137,0.9201632142066956,-0.23060342669487,-1.659165620803833,0.4162452518939972,-0.4707813560962677,-0.7778847813606262,-0.8121345043182373,0.3568898141384125,-0.4345785975456238
0.4885275364183261,0.4962318804861346,0.7318908929164217,0.8522653579711914,-1.0054608583450317,-2.250986099243164,0.42042165994644165,-0.4693261682987213,-0.7765169143676758,-0.9237022399902344,0.439800500869751,-0.5969418883323669
0.48417773144191656,0.4986064297257862,0.7033028823711691,0.7843009829521179,-1.1489660739898682,-2.5806901454925537,0.42323657870292664,-0.465480774641037,-0.7773020267486572,-0.7335087656974792,0.6435813903808594,-0.7321889400482178
0.47744403956876696,0.5009473240295093,0.672328499135769,0.6484469175338745,-1.2301141023635864,-2.8591809272766113,0.4265506863594055,-0.45951053500175476,-0.7790408134460449,-0.7242190837860107,0.6495893001556396,-0.6774716377258301
0.4677956678618124,0.5031941965551736,0.6406235983130377,0.3541415333747864,-1.1804578304290771,-2.976052761077881,0.4304180145263672,-0.45091986656188965,-0.7819281816482544,-0.7806987762451172,0.6189954280853271,-0.5975121259689331
0.45457919347933107,0.5053255536470481,0.6104792731238097,-0.0664859488606453,-1.064728856086731,-3.011894702911377,0.4349307417869568,-0.4390842914581299,-0.7861553430557251,-0.735650897026062,0.6567357182502747,-0.5395740270614624
0.4374304123384401,0.5076419660553628,0.5822509722835771,-0.43557611107826233,-0.879698634147644,-3.093792200088501,0.4403465986251831,-0.42361322045326233,-0.7916101813316345,-0.7373741865158081,0.711439847946167,-0.5453038811683655
0.4178455091134445,0.5121474850514524,0.5543552310088915,-0.4376680552959442,-0.49751144647598267,-3.240123987197876,0.4478890001773834,-0.4057922661304474,-0.7966982126235962,-0.7592750787734985,0.7934266328811646,-0.7267544865608215
0.3993926669716743,0.5221369601261584,0.5234825061548389,0.0888730064034462,0.06378115713596344,-3.5024547576904297,0.4594818353652954,-0.3888588845729828,-0.798539400100708,-0.7529083490371704,0.8900185823440552,-1.077986478805542
0.3853469520208535,0.5402834218557288,0.48625629336104065,1.0067195892333984,0.7284113168716431,-3.827857494354248,0.4766586422920227,-0.3758806586265564,-0.7946761846542358,-0.7068527340888977,0.9769244194030762,-1.4125381708145142
0.3775982850487895,0.5675241859655964,0.44089240428152443,2.103480100631714,1.3230398893356323,-4.1201910972595215,0.4996774196624756,-0.36868900060653687,-0.7838309407234192,-0.6271951198577881,1.0580811500549316,-1.6360299587249756
0.37619988495829904,0.6019733046093539,0.38719856155502097,3.1500556468963623,1.5880162715911865,-4.324911117553711,0.5266693234443665,-0.3673887550830841,-0.7665799856185913,-0.5169952511787415,1.1231108903884888,-1.7120270729064941
0.3794121202423485,0.6395294978340009,0.32648595303194183,3.8660075664520264,1.3907527923583984,-4.450153350830078,0.5543738007545471,-0.370374470949173,-0.7453136444091797,-0.3843298554420471,1.1529215574264526,-1.6435260772705078
0.3836420922228107,0.6749604910879803,0.2616067286966327,4.079768657684326,0.8325891494750977,-4.534762859344482,0.5794433951377869,-0.3743002712726593,-0.7239783406257629,-0.26598209142684937,1.1357749700546265,-1.4234826564788818
0.38531256258206004,0.7043651154581796,0.19603935473044046,3.8546557426452637,0.11819169670343399,-4.596289157867432,0.60007244348526,-0.37584879994392395,-0.706152081489563,-0.13918066024780273,1.1066991090774536,-1.1526278257369995
0.38261964260713516,0.7258594517070283,0.13257040758652955,3.431588649749756,-0.5559297800064087,-4.604540824890137,0.6157805323600769,-0.37335196137428284,-0.6938462853431702,-0.024990737438201904,1.0813751220703125,-0.9576735496520996
0.37588812311075764,0.7401410570152094,0.07197642330895189,3.1162972450256348,-1.0312302112579346,-4.63824462890625,0.6273073554039001,-0.36709877848625183,-0.686821699142456,0.07487159967422485,1.0820798873901367,-0.8977577686309814
0.36695398259363793,0.7504911972969401,0.012348910792955617,3.14084529876709,-1.1695992946624756,-4.71157693862915,0.6365936994552612,-0.3587738871574402,-0.6826636791229248,0.1320982575416565,1.1364076137542725,-0.9770347476005554
0.3584724046110475,0.7614007334893863,-0.04944672309634217,3.5713601112365723,-0.9843456149101257,-4.837034702301025,0.6460795402526855,-0.350844144821167,-0.6778566837310791,0.13898515701293945,1.196577787399292,-1.1402432918548584
0.3524101083611808,0.7767935147229936,-0.1162278741724018,4.259644031524658,-0.5548855066299438,-4.972793102264404,0.6579155325889587,-0.3451608121395111,-0.6693363785743713,0.13151311874389648,1.270942211151123,-1.2590999603271484
0.34950493570756075,0.7988508665305623,-0.18939088725065478,5.035473346710205,-0.052246883511543274,-5.1026997566223145,0.6732338070869446,-0.3424327075481415,-0.6553595662117004,0.13354414701461792,1.3891856670379639,-1.2541711330413818
0.34902051619720903,0.8281493871375895,-0.268952011029444,5.700191497802734,0.4680742025375366,-5.208064556121826,0.6922652721405029,-0.3419775366783142,-0.6354684233665466,0.10906529426574707,1.4894537925720215,-1.1179494857788086
0.34902968861861966,0.8643797737092922,-0.3535699865874858,6.139065742492676,0.9770553708076477,-5.299798965454102,0.7148268222808838,-0.34198614954948425,-0.6099738478660583,0.07054305076599121,1.5604615211486816,-0.8968621492385864
0.34729701054819123,0.9062810089433653,-0.44141202391522244,6.36161470413208,1.3876551389694214,-5.387650012969971,0.7402159571647644,-0.3403574526309967,-0.5798596143722534,0.022525131702423096,1.5863902568817139,-0.6867266893386841
0.3422034276718503,0.9519118121505202,-0.530604096984323,6.422143936157227,1.683861494064331,-5.441600799560547,0.7672978639602661,-0.3355635702610016,-0.5464897751808167,0.028386950492858887,1.5952224731445312,-0.5325050354003906
0.3330405358849889,0.9994476507896126,-0.6197401312650008,6.43621301651001,1.8944627046585083,-5.465383529663086,0.7949522733688354,-0.32691800594329834,-0.5110533237457275,0.10987865924835205,1.601179599761963,-0.44417738914489746
0.31992117720009755,1.0475796198999348,-0.7080385746679019,6.443422794342041,2.0513436794281006,-5.441127300262451,0.8222647905349731,-0.31449174880981445,-0.4743160009384155,0.23535239696502686,1.585777759552002,-0.39906662702560425
0.30340616521224817,1.0957173820424952,-0.7948422831246009,6.445277690887451,2.244318962097168,-5.314847946166992,0.8486392498016357,-0.29877251386642456,-0.4365162253379822,0.389962375164032,1.5655725002288818,-0.3414226770401001
0.2849719152650853,1.1437776332031344,-0.8792594223332766,6.449060916900635,2.445932626724243,-4.986473560333252,0.8734955191612244,-0.28113049268722534,-0.3974558115005493,0.6212248802185059,1.5344569683074951,-0.28940337896347046
0.26686875819543326,1.1909731293699917,-0.96037853491943,6.441815376281738,2.5457041263580322,-4.410732269287109,0.8958544135093689,-0.2637123465538025,-0.35763198137283325,0.8622327446937561,1.4625954627990723,-0.24510541558265686
0.2515516407074635,1.2362099310133483,-1.0373521847086602,6.371525764465332,2.5244314670562744,-3.617588520050049,0.9148188233375549,-0.24890705943107605,-0.31804358959198,1.0263432264328003,1.370138168334961,-0.18859407305717468
0.24066003183800594,1.2779498313759248,-1.109146046971885,6.135003089904785,2.2777462005615234,-2.724432945251465,0.9298338890075684,-0.23834368586540222,-0.2803592383861542,1.1109070777893066,1.2908949851989746,-0.11505705118179321
0.2346393667667188,1.3135619722106822,-1.1744613812318703,5.693646430969238,1.7258083820343018,-1.8817530870437622,0.9405971765518188,-0.23249225318431854,-0.24743570387363434,1.0924381017684937,1.24186110496521,-0.024018168449401855
0.23272768183449422,1.3404145606833784,-1.2323849066710018,5.102490425109863,0.927905261516571,-1.2225372791290283,0.947332501411438,-0.23063252866268158,-0.2221931368112564,0.9885958433151245,1.2506978511810303,0.04421454668045044
0.23379749640948833,1.3564914794218719,-1.282564719734506,4.435241222381592,-0.0460047610104084,-0.7266942262649536,0.9505404233932495,-0.23167335987091064,-0.2068822979927063,0.8577480912208557,1.3022757768630981,0.08928275108337402
0.2371939631269824,1.3607626337346623,-1.3249652448152767,3.7435879707336426,-1.0668607950210571,-0.35401469469070435,0.9506403803825378,-0.23497608304023743,-0.20265530049800873,0.7247441411018372,1.3434202671051025,0.13309043645858765
0.24226570778283527,1.3538108936633613,-1.3598829066992444,3.090139865875244,-1.9397704601287842,-0.09958852827548981,0.9480327367782593,-0.2399027794599533,-0.20899972319602966,0.5949361324310303,1.3794291019439697,0.1895599663257599
0.24832441506411868,1.3381726648184291,-1.3881572481862807,2.5261619091033936,-2.5003132820129395,0.048096515238285065,0.9432166814804077,-0.2457801103591919,-0.2234598845243454,0.46310955286026,1.4204779863357544,0.2569833993911743
0.25460774465860203,1.3174695113576358,-1.4110622504872379,2.081726312637329,-2.729949712753296,0.0966576561331749,0.9368749856948853,-0.25186580419540405,-0.24254631996154785,0.3203728199005127,1.4388318061828613,0.32804128527641296
0.260562882735612,1.2945087559823623,-1.4299287704370356,1.7534210681915283,-2.7858071327209473,0.09599006921052933,0.9296000599861145,-0.25762447714805603,-0.26357805728912354,0.22515451908111572,1.4628857374191284,0.37779003381729126
0.2661599740066212,1.2710390062098997,-1.446025097098403,1.547605276107788,-2.7169880867004395,0.09686225652694702,0.9217663407325745,-0.2630285620689392,-0.28489065170288086,0.1959550976753235,1.484982967376709,0.40792223811149597
0.2719273383975745,1.2479901344781856,-1.4604407351227766,1.4545515775680542,-2.6507656574249268,0.15793739259243011,0.9135017991065979,-0.26858845353126526,-0.3055724501609802,0.22951871156692505,1.4948153495788574,0.41487112641334534
0.27868382838146283,1.2247817310158917,-1.4739624732916083,1.4438879489898682,-2.7351481914520264,0.2670742869377136,0.9044368267059326,-0.2750904858112335,-0.3260662853717804,0.3070499300956726,1.4912159442901611,0.4221508502960205
0.28683606794776456,1.1995475905532944,-1.4869504107549543,1.4568637609481812,-3.040754556655884,0.3858112394809723,0.893802285194397,-0.2829189896583557,-0.3479576110839844,0.389919638633728,1.494985580444336,0.4914206862449646
0.2962809608480063,1.1702645983894753,-1.499305285363055,1.4324651956558228,-3.5189032554626465,0.4513305723667145,0.8807312250137329,-0.2919652462005615,-0.37291932106018066,0.4120085835456848,1.418170690536499,0.6626531481742859
0.30557835397501143,1.1357418558990662,-1.510878088614659,1.3176958560943604,-4.050083637237549,0.320281445980072,0.8648356795310974,-0.30084478855133057,-0.4019348919391632,0.3411731719970703,1.273119568824768,0.9349091053009033
0.3124705424084729,1.0959757878874048,-1.521456688462559,1.0721657276153564,-4.495516777038574,0.02533688396215439,0.8463085889816284,-0.30741047859191895,-0.4350408911705017,0.2398424744606018,1.1316750049591064,1.296979308128357
0.3157886136812101,1.0526949364563742,-1.5305863295252828,0.7577923536300659,-4.641692638397217,-0.24595385789871216,0.8258023262023926,-0.3105661869049072,-0.4707432687282562,0.21913480758666992,0.9560587406158447,1.6918582916259766
0.316300706344728,1.0092336958736683,-1.5375919357218497,0.4351799786090851,-4.416191101074219,-0.318373441696167,0.8044351935386658,-0.31105291843414307,-0.5060930848121643,0.36682945489883423,0.7022577524185181,2.0465898513793945
0.31547234991535306,0.9682876698454083,-1.5414446563268362,0.07320515811443329,-3.9619414806365967,-0.1961437314748764,0.7832562327384949,-0.31026554107666016,-0.5387439727783203,0.6054766178131104,0.42691898345947266,2.3258533477783203
0.3137034966643562,0.931538203440911,-1.5406251504127153,-0.42972081899642944,-3.276911973953247,-0.005818003322929144,0.763372540473938,-0.30858349800109863,-0.5674845576286316,0.8021335005760193,0.20804330706596375,2.5929512977600098
0.3092394590514291,0.9013253055712749,-1.5342117935567066,-1.0821154117584229,-2.326345682144165,0.014888545498251915,0.746954083442688,-0.30433425307273865,-0.5911346077919006,0.8297365307807922,0.055509209632873535,2.8653197288513184
0.3000077885757576,0.879884914538029,-1.523408189782072,-1.6263225078582764,-1.2823024988174438,-0.16138555109500885,0.7362431287765503,-0.2955276370048523,-0.6087769865989685,0.7736597657203674,0.003657519817352295,2.9735231399536133
0.28655053591824814,0.8688955908376421,-1.511057400773623,-1.8581658601760864,-0.1901990920305252,-0.371405690908432,0.7324795722961426,-0.2826451063156128,-0.6193428039550781,0.7998080253601074,-0.05610001087188721,2.8248634338378906
0.27140576141872363,0.869226100818627,-1.4992746170454216,-1.785595417022705,0.8991914391517639,-0.45152342319488525,0.7358697056770325,-0.2680860161781311,-0.6217923760414124,0.9762121438980103,-0.1575121283531189,2.5239529609680176
0.2573892915746852,0.8803444580323313,-1.4886120462771646,-1.5798346996307373,1.8470994234085083,-0.35774537920951843,0.7455613017082214,-0.25455671548843384,-0.615905225276947,1.2541029453277588,-0.23459428548812866,2.248839855194092
0.2457797885043214,0.8998282650717602,-1.4781542262165943,-1.4738738536834717,2.5102241039276123,-0.1586884707212448,0.7596827149391174,-0.2433127462863922,-0.6030597686767578,1.4982212781906128,-0.2455483376979828,2.0778980255126953
0.2359856759044891,0.9235363240345072,-1.465789691399356,-1.6603987216949463,2.7440884113311768,0.08540063351392746,0.7756291627883911,-0.2338014543056488,-0.5862902402877808,1.6372735500335693,-0.1753934919834137,2.009813070297241
0.22656574642137828,0.9463623331805591,-1.4486809264339557,-2.1641225814819336,2.5417845249176025,0.3883032500743866,0.7905603647232056,-0.2246323674917221,-0.5696969032287598,1.7132084369659424,-0.0407484769821167,2.0060830116271973
0.21690736757963186,0.9641485625858441,-1.4240426877281371,-2.8821895122528076,2.061100721359253,0.8158987164497375,0.8023126721382141,-0.21521049737930298,-0.5567574501037598,1.8121129274368286,0.12770134210586548,1.9967904090881348
0.2069847627695172,0.9747724391749526,-1.3900004735765625,-3.7196009159088135,1.4762219190597534,1.30293869972229,0.8099096417427063,-0.2055099606513977,-0.5493742823600769,1.886242151260376,0.3029983639717102,1.9419370889663696
0.19660754158782193,0.9779058061215355,-1.3460115455194133,-4.548694610595703,0.9100308418273926,1.7897624969482422,0.8133518695831299,-0.19534336030483246,-0.547995924949646,1.895952820777893,0.5057071447372437,1.844123363494873
0.18585889760524885,0.9745480594988417,-1.2929423489089737,-5.239163875579834,0.43841877579689026,2.247457504272461,0.8131977915763855,-0.184790700674057,-0.551871120929718,1.8744547367095947,0.7361518144607544,1.6770236492156982
0.1750215623052789,0.9663169761517921,-1.2325483624290745,-5.734004497528076,0.08891801536083221,2.6566412448883057,0.8102280497550964,-0.17412936687469482,-0.5596511960029602,1.8287794589996338,0.9439352750778198,1.465489149093628
0.16467590329486512,0.9548286221364233,-1.1667419971319124,-6.0146164894104,-0.16926772892475128,3.0710525512695312,0.8051726222038269,-0.16393262147903442,-0.5699325799942017,1.8025696277618408,1.1314772367477417,1.229508876800537
0.15620427704962103,0.9413907322553801,-1.0972988041040315,-6.050263404846191,-0.3431488871574402,3.5371198654174805,0.7985354661941528,-0.15556982159614563,-0.581497311592102,1.8033931255340576,1.2934176921844482,0.9677429795265198
0.15095250671330937,0.9268656199601809,-1.0256790156293747,-5.900875568389893,-0.37542614340782166,4.013203144073486,0.7906477451324463,-0.15037988126277924,-0.5935167074203491,1.7927873134613037,1.4413344860076904,0.7250779271125793
0.14960491295451844,0.9127648856561997,-0.9529425876793981,-5.665572166442871,-0.2588714063167572,4.453072547912598,0.7823600172996521,-0.14904746413230896,-0.604729413986206,1.7512855529785156,1.5895076990127563,0.5393455028533936
0.15167146155248273,0.9003832452735671,-0.8793703200565443,-5.507915019989014,-0.006111862137913704,4.799922466278076,0.7745696902275085,-0.1510906219482422,-0.6141770482063293,1.6750304698944092,1.7457714080810547,0.44456028938293457
0.1558288379209233,0.8903473977620127,-0.8048887185555083,-5.428283214569092,0.2644977867603302,4.99564266204834,0.7678720951080322,-0.15519894659519196,-0.6215188503265381,1.5436055660247803,1.9000720977783203,0.4025399684906006
0.1604786413161481,0.8823218046472954,-0.7305612427274415,-5.309931755065918,0.45141279697418213,4.943103790283203,0.7622938752174377,-0.15979070961475372,-0.6271961331367493,1.3595932722091675,2.0125434398651123,0.308027982711792
0.16463377863308146,0.8760635166407911,-0.6587093280878055,-5.0184102058410645,0.6273366212844849,4.696075916290283,0.7578371167182922,-0.16389107704162598,-0.6315239071846008,1.2095088958740234,2.0994532108306885,0.13030320405960083
0.16918647348628732,0.8726683954972964,-0.5919143513857199,-4.431170463562012,0.9129835367202759,4.437659740447998,0.7551093101501465,-0.1683804988861084,-0.6336070895195007,1.1605706214904785,2.1326749324798584,-0.11866652965545654
0.1767218515292588,0.8731882207797795,-0.532043757468116,-3.5961012840270996,1.2414401769638062,4.287119388580322,0.7544447183609009,-0.17580343782901764,-0.6323814392089844,1.2348434925079346,2.113593339920044,-0.3788795471191406
0.18920653754180086,0.8779528759477132,-0.47917241778889,-2.7915263175964355,1.6257516145706177,4.282795429229736,0.7557014226913452,-0.18807965517044067,-0.6273286938667297,1.3498740196228027,2.0680389404296875,-0.49996012449264526
0.20654658178792312,0.8866524446562485,-0.43101444494850777,-2.339259147644043,1.9704196453094482,4.375067710876465,0.7584885954856873,-0.20508112013339996,-0.6185764074325562,1.452876091003418,2.028796434402466,-0.40290796756744385
0.22652733868724728,0.8991613210131523,-0.3842375705823671,-2.2798707485198975,2.6739394664764404,4.420446872711182,0.7628063559532166,-0.22459493577480316,-0.606369137763977,1.4812579154968262,2.055466651916504,-0.13938891887664795
0.24677428545308477,0.9171667245083699,-0.3355388966708048,-2.7260613441467285,3.0665481090545654,4.613611221313477,0.7698317170143127,-0.2442772388458252,-0.5896506309509277,1.4000444412231445,2.1177361011505127,0.16962188482284546
0.2666152726233987,0.9325861378802965,-0.2811767875947581,-3.2414743900299072,2.7104904651641846,4.821747303009033,0.774786114692688,-0.26346781849861145,-0.5747096538543701,1.39920973777771,2.029062271118164,0.23333996534347534
0.28581938438921173,0.9424824553474379,-0.22309658944008967,-3.4274611473083496,2.4848058223724365,4.845953941345215,0.7761986255645752,-0.281943678855896,-0.5639358162879944,1.2890784740447998,2.1211771965026855,0.05650472640991211
0.3053349601985597,0.9511971775792287,-0.16483306978405882,-3.2890708446502686,2.6632180213928223,4.793668746948242,0.7764556407928467,-0.3006126582622528,-0.5538489818572998,1.2489807605743408,2.262648820877075,-0.13134700059890747
0.325781678929594,0.9618886732997434,-0.10882142623366298,-3.040825605392456,2.9173929691314697,4.642204284667969,0.7771276235580444,-0.3200494349002838,-0.5418865084648132,1.167864441871643,2.2614405155181885,-0.28636056184768677
0.34631415450315634,0.9733639862447905,-0.05551754170238073,-2.9179370403289795,2.8420541286468506,4.418808460235596,0.7776967883110046,-0.33943310379981995,-0.5291246771812439,1.0994088649749756,2.2411513328552246,-0.3186842203140259
0.3662121858508106,0.983958480731779,-0.003897759939683238,-2.884742498397827,2.886678695678711,4.275174140930176,0.7774801254272461,-0.3580813705921173,-0.5170130133628845,1.117661476135254,2.263415813446045,-0.2776342034339905
0.38571490727346497,0.9945647153774396,0.04795313664490192,-3.0404491424560547,3.025386095046997,4.269580364227295,0.7769153714179993,-0.376221626996994,-0.5048363208770752,1.125214695930481,2.243790626525879,-0.1739051342010498
0.4047266154838526,1.004711462329456,0.10222086776251502,-3.3198955059051514,3.1621298789978027,4.3184685707092285,0.7758199572563171,-0.39376747608184814,-0.4930015504360199,1.128293752670288,2.2289726734161377,-0.1015571653842926
0.4231100159031536,1.013991688796404,0.15987173372601599,-3.6371536254882812,3.313418388366699,4.382472038269043,0.774084746837616,-0.41059818863868713,-0.4818732440471649,1.1116268634796143,2.2659754753112793,-0.08421260118484497
0.44076224886390025,1.0225144458466635,0.22104329651003088,-3.937891721725464,3.493285655975342,4.422046661376953,0.7718570232391357,-0.426628977060318,-0.47140684723854065,1.0680782794952393,2.3131799697875977,-0.09994328022003174
0.4575564360470675,1.0304301712746282,0.28501173008514274,-4.141999244689941,3.604475736618042,4.374610424041748,0.7693111896514893,-0.4417572319507599,-0.4615308940410614,1.0130527019500732,2.3491973876953125,-0.1711595058441162
0.4731231020711182,1.0375137504869836,0.3501338946641172,-4.228618621826172,3.6224632263183594,4.214548110961914,0.7665460109710693,-0.45566853880882263,-0.45251893997192383,0.9544317722320557,2.4140427112579346,-0.27270078659057617
0.4873244566256766,1.0435442511670485,0.41503534130304137,-4.230072975158691,3.5433859825134277,4.03588342666626,0.7635912299156189,-0.4682634770870209,-0.44458699226379395,0.9171185493469238,2.469881057739258,-0.3651816248893738
0.5006383239004384,1.0479185474619963,0.47928373644889727,-4.197145938873291,3.400397300720215,3.922804832458496,0.760059654712677,-0.47998562455177307,-0.4380902647972107,0.9168964624404907,2.4719138145446777,-0.4182329475879669
0.5134768313098077,1.0502997064171866,0.543133545833446,-4.1815409660339355,3.2520980834960938,3.8402774333953857,0.7556918859481812,-0.49120867252349854,-0.43317878246307373,0.9195706844329834,2.4507272243499756,-0.41145622730255127
0.5254635860428795,1.0505375592923254,0.6070348102730054,-4.240420341491699,3.1242763996124268,3.728459596633911,0.7506316900253296,-0.5016140937805176,-0.43004101514816284,0.8744903206825256,2.453564167022705,-0.35384872555732727
0.5358471466379717,1.0489316690913395,0.6716363192810406,-4.370213985443115,3.0942256450653076,3.5939648151397705,0.7453845143318176,-0.5105696320533752,-0.42862623929977417,0.7800061106681824,2.460902452468872,-0.26546552777290344
0.5441282073451642,1.0471086012323128,0.7370710291165363,-4.491835117340088,3.274531364440918,3.4194531440734863,0.740915060043335,-0.5176724195480347,-0.42785537242889404,0.689565896987915,2.452059745788574,-0.20417892932891846
0.5503052358418928,1.0474827607831372,0.8024400820113379,-4.51265287399292,3.592576742172241,3.2103700637817383,0.7382912039756775,-0.5229474306106567,-0.4259719252586365,0.62643963098526,2.4429914951324463,-0.21279150247573853
0.5549387801990527,1.051913937623769,0.8661978200119693,-4.394689559936523,3.966127872467041,2.9784700870513916,0.7380593419075012,-0.52689129114151,-0.42149004340171814,0.6005026698112488,2.452169179916382,-0.2874637544155121
0.5585846292971814,1.061372981496755,0.9269836968148919,-4.198375701904297,4.302700042724609,2.7196779251098633,0.74033123254776,-0.5299865007400513,-0.41355040669441223,0.6095985770225525,2.4418976306915283,-0.3812645971775055
0.5616127992683113,1.0746698691500398,0.9843755862427634,-4.014142990112305,4.387784481048584,2.4903407096862793,0.7443497180938721,-0.5325519442558289,-0.4029042422771454,0.6723220348358154,2.424321413040161,-0.45494481921195984
0.5641490156906179,1.0886678045916023,1.0393397501269042,-3.949465751647949,4.222105503082275,2.318387746810913,0.7487173676490784,-0.5346968770027161,-0.39181822538375854,0.7636270523071289,2.4258713722229004,-0.46461182832717896
0.5659720421588227,1.1005054218999724,1.0936492086816323,-4.031136512756348,3.9199485778808594,2.1987087726593018,0.7524327635765076,-0.5362365245819092,-0.38248559832572937,0.8366785645484924,2.418011426925659,-0.41004061698913574
0.5666308933856025,1.1111686752343308,1.1481431586448285,-4.084134578704834,4.1397271156311035,2.023294687271118,0.7561516165733337,-0.536792516708374,-0.3742837905883789,0.8486762046813965,2.412281036376953,-0.33061113953590393
0.5660483565238436,1.1236123414446049,1.2036126943829708,-4.386607646942139,4.174821376800537,1.971740484237671,0.7610324025154114,-0.5363009572029114,-0.3649809658527374,0.8264615535736084,2.382751703262329,-0.2723175287246704
0.5642377248635602,1.1327594251324504,1.2622720250497812,-4.670543193817139,3.94099497795105,1.9245423078536987,0.7652170658111572,-0.5347718596458435,-0.3584158718585968,0.8566243648529053,2.324551582336426,-0.2106606364250183
0.5613414644154366,1.1410408166518853,1.3222696754285446,-4.725761413574219,4.137546062469482,1.7968454360961914,0.7695637941360474,-0.5323222875595093,-0.35271042585372925,0.8796214461326599,2.4124646186828613,-0.282268762588501
0.5576222153946159,1.1531908495356913,1.3811454274351167,-4.646531581878662,4.50679874420166,1.6199305057525635,0.7755967378616333,-0.5291700959205627,-0.34413501620292664,0.8927230834960938,2.3907575607299805,-0.4051630198955536
0.5533663747874382,1.1699266868184985,1.4382220852541472,-4.569174766540527,4.801558494567871,1.4558483362197876,0.7833135724067688,-0.5255541801452637,-0.33198294043540955,0.9121820330619812,2.352412700653076,-0.4596429765224457
0.5488159179408822,1.1896268605745246,1.49377795637695,-4.508616924285889,4.873010635375977,1.3069478273391724,0.7919129133224487,-0.5216773748397827,-0.31737446784973145,1.0042295455932617,2.3623299598693848,-0.49991676211357117
0.5440803324202741,1.2093203623160942,1.5483802326752585,-4.5252790451049805,4.666104316711426,1.2002005577087402,0.8003110885620117,-0.5176314115524292,-0.30258873105049133,1.0818910598754883,2.3643264770507812,-0.5313193202018738
0.5392466386162253,1.2255099779228944,1.603722029064892,-4.7137627601623535,4.207666873931885,1.1750664710998535,0.8074496984481812,-0.5134896636009216,-0.290436327457428,1.1082607507705688,2.3322458267211914,-0.5005639791488647
0.5340747388210864,1.2355353450309872,1.6617494567128108,-5.021419525146484,3.7094857692718506,1.1675597429275513,0.8128179311752319,-0.5090448260307312,-0.28319692611694336,1.0321223735809326,2.2810022830963135,-0.42137759923934937
0.5279796266964335,1.2405263944014437,1.722818203265661,-5.295310020446777,3.462761163711548,1.107301115989685,0.8171411156654358,-0.5037891268730164,-0.2801376283168793,0.9059119820594788,2.252263069152832,-0.3899826109409332
0.5205807852518778,1.2438671094503102,1.7854559813774407,-5.414947032928467,3.437859058380127,0.9882614016532898,0.8215799331665039,-0.49738407135009766,-0.27859562635421753,0.8050680160522461,2.2308435440063477,-0.4530785083770752
0.5120255496554641,1.2486231136679402,1.8474946183154,-5.343741416931152,3.5207901000976562,0.8466981649398804,0.8269017934799194,-0.4899440407752991,-0.2760223150253296,0.7606074213981628,2.2023158073425293,-0.5804839730262756
0.5032729736659075,1.256059219457212,1.9067024013446865,-5.015973091125488,3.6074304580688477,0.7433403134346008,0.8329772353172302,-0.48229527473449707,-0.27118295431137085,0.7853546738624573,2.152247667312622,-0.7705802917480469
0.49525326611753784,1.2658600506597861,1.9612167467307804,-4.577846050262451,3.465837240219116,0.6497709155082703,0.839257538318634,-0.47525450587272644,-0.2641589939594269,0.8264376521110535,2.0570874214172363,-0.943390965461731
0.4880281921850463,1.2754693619519413,2.0108728592556426,-4.225429058074951,3.079158067703247,0.5660825967788696,0.8450202345848083,-0.4688851833343506,-0.2570749521255493,0.8111382126808167,1.9575631618499756,-0.9977315068244934
0.4814477314906688,1.2834008532901124,2.0574387196116333,-4.059397220611572,2.8439815044403076,0.5435663461685181,0.849973201751709,-0.4630628228187561,-0.2512338161468506,0.7313408851623535,1.8569531440734863,-0.9186879992485046
0.4752068443986932,1.2918284718069488,2.102708790706778,-4.000548362731934,3.0055103302001953,0.4979204833507538,0.8548218607902527,-0.4575223922729492,-0.24485275149345398,0.6176970601081848,1.7272214889526367,-0.8217365741729736
0.4688646337836194,1.304074886334901,2.1468953697865576,-3.891972541809082,3.439310073852539,0.40294817090034485,0.8605380654335022,-0.4518737494945526,-0.23512622714042664,0.5315212607383728,1.657135009765625,-0.8218653202056885
0.46273457641621574,1.3227262925712826,2.1885980561551577,-3.583493947982788,3.9999101161956787,0.31281721591949463,0.8674424886703491,-0.44639676809310913,-0.2197120189666748,0.5045056939125061,1.6157236099243164,-0.9641410708427429
0.4574815065960221,1.348524623526422,2.2259351023421416,-3.149545669555664,4.378702163696289,0.2346441000699997,0.8750965595245361,-0.44168999791145325,-0.19777701795101166,0.5021005272865295,1.556329369544983,-1.2212598323822021
0.4534594161798298,1.3774991610794072,2.2587681445634193,-2.7999019622802734,4.176604747772217,0.20044058561325073,0.8821953535079956,-0.4380779564380646,-0.17268192768096924,0.4901342988014221,1.4440593719482422,-1.4280107021331787
0.4502802725979891,1.40269472591628,2.2890781974435335,-2.7098376750946045,3.421233654022217,0.14115490019321442,0.8876344561576843,-0.43521788716316223,-0.15063433349132538,0.4367063641548157,1.3213720321655273,-1.4608616828918457
0.44633273050483313,1.4189106484840748,2.319685705193992,-2.87711238861084,2.4350805282592773,-0.0636153593659401,0.891651451587677,-0.4316604435443878,-0.1364801973104477,0.31232792139053345,1.2045791149139404,-1.3624515533447266
0.43988072434986925,1.424905801183566,2.3528134918458363,-3.234006404876709,1.6349449157714844,-0.31930118799209595,0.8951905369758606,-0.42583155632019043,-0.13153433799743652,0.16625654697418213,1.085270643234253,-1.228817105293274
0.430884930019826,1.4239955063871863,2.389589805083183,-3.5925121307373047,1.3302462100982666,-0.4702477753162384,0.8988237977027893,-0.4176750183105469,-0.13290415704250336,0.09607982635498047,0.9579886198043823,-1.150619387626648
0.4207260685184206,1.4215731403027816,2.4289578790504027,-3.748410940170288,1.4668996334075928,-0.44697093963623047,0.9026487469673157,-0.4084233045578003,-0.1357048898935318,0.10754412412643433,0.8284062147140503,-1.2673254013061523
0.41188782982328126,1.4217502196614071,2.4686153584658634,-3.6373629570007324,1.7416882514953613,-0.19411388039588928,0.9062070250511169,-0.4003399908542633,-0.13607576489448547,0.19132709503173828,0.7040051221847534,-1.5459920167922974
0.4063747239913031,1.4243393196471015,2.5062144894995027,-3.3153305053710938,1.682409405708313,0.10734131932258606,0.9087262153625488,-0.39528191089630127,-0.13404913246631622,0.22947275638580322,0.5964537262916565,-1.8569939136505127
0.40338303850591617,1.4250380646366199,2.5404779828202853,-3.004422187805176,1.0767258405685425,0.18093690276145935,0.909985363483429,-0.392532080411911,-0.13358525931835175,0.1099730134010315,0.5256345272064209,-2.0489861965179443
0.39997947931123745,1.4189417224477416,2.5725630575041896,-2.9635705947875977,0.19290412962436676,-0.004150660242885351,0.9104694724082947,-0.3893994390964508,-0.1393316239118576,-0.10625511407852173,0.4603986144065857,-2.0334742069244385
0.3936703894924407,1.4042590774078072,2.6054813648457302,-3.250110387802124,-0.5458774566650391,-0.2778818607330322,0.910730242729187,-0.38358062505722046,-0.15308842062950134,-0.30774885416030884,0.32072967290878296,-1.8859740495681763
0.3840269019699052,1.3834954279383864,2.6417382651448795,-3.6565773487091064,-0.7847344875335693,-0.4046837389469147,0.9109477400779724,-0.3746570944786072,-0.1726449579000473,-0.4027232527732849,0.08837166428565979,-1.813545823097229
0.37317244425013607,1.3622175311787033,2.6800592627198387,-3.6548030376434326,-0.6079913973808289,-0.2973606586456299,0.9109933376312256,-0.36457136273384094,-0.19281823933124542,-0.2854592800140381,-0.08295369148254395,-2.0487895011901855
0.36399062576408847,1.3447818794572493,2.7151019891387134,-3.035862922668457,-0.36763209104537964,-0.07376885414123535,0.9107170701026917,-0.3560062348842621,-0.20941320061683655,-0.059047818183898926,-0.10628929734230042,-2.5646955966949463
0.3587013337695266,1.3320157294416557,2.741798056086467,-2.027765989303589,-0.3479447662830353,0.19520491361618042,0.9097864627838135,-0.3510585129261017,-0.22146447002887726,0.12858933210372925,-0.0486760139465332,-3.019181728363037
0.3580624271659594,1.321397094749021,2.7583797894792133,-1.0408395528793335,-0.6633732914924622,0.4161732494831085,0.9076007008552551,-0.3504602015018463,-0.2311677783727646,0.1332775354385376,-0.015216678380966187,-3.170474052429199
0.3606482496245665,1.3094509422368814,2.766679492630685,-0.36450618505477905,-1.1462327241897583,0.4416722357273102,0.9038960337638855,-0.3528808653354645,-0.24175842106342316,-0.061992347240448,-0.01537477970123291,-2.9880847930908203
0.3635378562417005,1.294563086275078,2.769004826743065,0.08361567556858063,-1.6470636129379272,0.19658048450946808,0.8992119431495667,-0.3555831015110016,-0.25490906834602356,-0.3548699617385864,-0.012001186609268188,-2.668613910675049
0.364417534594454,1.2773450799327517,2.7663234632624847,0.43621551990509033,-1.935245156288147,-0.16768844425678253,0.8943901062011719,-0.3564051389694214,-0.27026256918907166,-0.5524559020996094,0.001745074987411499,-2.401139259338379
0.3633093912021378,1.2603708576692472,2.7591597275832243,0.7805079221725464,-1.9267983436584473,-0.4235154390335083,0.890049397945404,-0.35536953806877136,-0.2855249047279358,-0.5568585395812988,0.0016097724437713623,-2.1926703453063965
0.36176601770662337,1.245971726716919,2.7475629315664793,1.177361011505127,-1.7470651865005493,-0.52595055103302,0.8863648772239685,-0.35392647981643677,-0.29848554730415344,-0.44039613008499146,0.010802000761032104,-2.0540993213653564
0.3612724140787287,1.2349583978158634,2.7319910845691258,1.5244877338409424,-1.5494405031204224,-0.49953779578208923,0.8831886053085327,-0.3534647822380066,-0.30828657746315,-0.25309211015701294,0.07691442966461182,-1.9342976808547974
0.3625379741731999,1.2263809195172306,2.713850855453063,1.7297245264053345,-1.4551218748092651,-0.3864752948284149,0.8800899386405945,-0.3546483814716339,-0.31569933891296387,-0.11277127265930176,0.14955493807792664,-1.7590076923370361
0.3656042828905105,1.2183775422270102,2.694744484286961,1.8172937631607056,-1.514013409614563,-0.25926488637924194,0.8765104413032532,-0.3575136959552765,-0.3223559856414795,-0.030837833881378174,0.2160036265850067,-1.573350191116333
0.36993363548219177,1.2091899555573256,2.675382259032687,1.8557418584823608,-1.7225900888442993,-0.2025371938943863,0.8720559477806091,-0.3615535497665405,-0.3298446238040924,-0.01246732473373413,0.28713637590408325,-1.4326674938201904
0.37471415204939057,1.1976443079184174,2.655771561049657,1.884361743927002,-2.0018866062164307,-0.22304512560367584,0.866570234298706,-0.3660065233707428,-0.3392568826675415,-0.056191205978393555,0.3281341791152954,-1.323432207107544
0.3794049001079126,1.183505640360247,2.635777013811239,1.9025532007217407,-2.2761518955230713,-0.28465479612350464,0.8600879311561584,-0.37036776542663574,-0.35082241892814636,-0.093425452709198,0.37601348757743835,-1.2240524291992188
0.383915554736876,1.1673391131230293,2.6153805507308925,1.925650715827942,-2.441392183303833,-0.3402634561061859,0.852759063243866,-0.3745538592338562,-0.36402103304862976,-0.12474703788757324,0.4204218089580536,-1.1280443668365479
0.3883259803581166,1.150574443842095,2.5945681840773362,1.9509469270706177,-2.4403066635131836,-0.39477694034576416,0.8450203537940979,-0.3786395788192749,-0.37758779525756836,-0.14830410480499268,0.4662555158138275,-1.0514434576034546
0.3926963280679949,1.1347991325404923,2.5732420060411085,1.9923287630081177,-2.3039984703063965,-0.44687849283218384,0.8374509811401367,-0.38268089294433594,-0.3901681900024414,-0.16902446746826172,0.5571040511131287,-0.9969167113304138
0.3971772148815449,1.1214262515277322,2.5512441921310707,2.053771495819092,-2.0325968265533447,-0.47691068053245544,0.8306057453155518,-0.3868168294429779,-0.4005832076072693,-0.19411581754684448,0.6683566570281982,-0.9744167923927307
0.40209543214761134,1.1115816417316926,2.5283028606561704,2.173266887664795,-1.715936541557312,-0.4897119700908661,0.8249066472053528,-0.3913474977016449,-0.40789246559143066,-0.21537905931472778,0.78830486536026,-0.9936730265617371
0.40766622420566834,1.1053021995839163,2.503786777302123,2.351349115371704,-1.4703048467636108,-0.5272871255874634,0.8203681707382202,-0.3964678943157196,-0.4120793640613556,-0.2611945867538452,0.9061266779899597,-1.0411065816879272
0.41372388869636717,1.1022038246758064,2.4768066180528794,2.605923891067505,-1.2995262145996094,-0.6256621479988098,0.8169295787811279,-0.4020218253135681,-0.41352686285972595,-0.3291977047920227,1.049055576324463,-1.096513271331787
0.4198351667619544,1.1020964809370988,2.4460533067904957,2.964897394180298,-1.2183079719543457,-0.8324417471885681,0.8146780133247375,-0.4076099395751953,-0.41249701380729675,-0.4000509977340698,1.2075214385986328,-1.1673521995544434
0.4255663638124134,1.1044504372655108,2.409974579404314,3.4128682613372803,-1.2801634073257446,-1.1102102994918823,0.8135467767715454,-0.4128367006778717,-0.40952107310295105,-0.4620453119277954,1.3468271493911743,-1.236185073852539
0.4305888081136636,1.1080105039628803,2.3680562014589728,3.8147315979003906,-1.48858642578125,-1.3987617492675781,0.8131338357925415,-0.4174059331417084,-0.40569138526916504,-0.4517142176628113,1.4790514707565308,-1.2279144525527954
0.4345107180581858,1.1113910904359232,2.32167337082139,4.028775691986084,-1.7054729461669922,-1.6236348152160645,0.8130271434783936,-0.42096662521362305,-0.4022112190723419,-0.39637064933776855,1.5855937004089355,-1.0884960889816284
0.437125626249349,1.1140433894013668,2.2730800544539598,4.0588531494140625,-1.8402146100997925,-1.7874796390533447,0.8131004571914673,-0.42333710193634033,-0.3995665907859802,-0.3232780694961548,1.6563998460769653,-0.8929290771484375
0.43837158173445345,1.1162037173613557,2.2240847919616655,3.9949591159820557,-1.8427709341049194,-1.871678352355957,0.81348717212677,-0.4244655966758728,-0.3975771963596344,-0.22916710376739502,1.7165645360946655,-0.7267361283302307
0.439077090251916,1.1192263024183386,2.1752715052111915,4.006834506988525,-1.6627532243728638,-1.8481266498565674,0.8144155740737915,-0.4251042902469635,-0.39498579502105713,-0.058037400245666504,1.7567082643508911,-0.6441835165023804
0.4404445658663189,1.1246115006022892,2.126136546809925,4.111879348754883,-1.4253404140472412,-1.7481534481048584,0.8160055875778198,-0.4263416528701782,-0.39034304022789,0.12691128253936768,1.7631031274795532,-0.6616894006729126
0.44308707722299795,1.1320177195344365,2.076397241940336,4.220006465911865,-1.3531346321105957,-1.616260051727295,0.8178513646125793,-0.42873045802116394,-0.3838088810443878,0.2797590494155884,1.7814221382141113,-0.6896468997001648
0.44684908784274385,1.138716298572952,2.026410012449773,4.2515740394592285,-1.6235767602920532,-1.5075221061706543,0.8189334869384766,-0.43212616443634033,-0.37764376401901245,0.39967912435531616,1.8302432298660278,-0.6940266489982605
0.4508871680759481,1.14086460884062,1.9769919771327742,4.149593830108643,-2.2197024822235107,-1.4816018342971802,0.8181500434875488,-0.43576422333717346,-0.37515321373939514,0.4465135931968689,1.887943148612976,-0.6604607105255127
0.4539306537188336,1.1356254497301688,1.9290585488823146,3.935930013656616,-2.9398889541625977,-1.5883194208145142,0.8149669766426086,-0.4385015070438385,-0.3788736164569855,0.43846625089645386,1.9600011110305786,-0.5840474963188171
0.45472941673699274,1.1227388789597754,1.882633248767526,3.7063324451446533,-3.5716774463653564,-1.8429962396621704,0.8097010850906372,-0.43921923637390137,-0.3891921043395996,0.400473415851593,2.032984495162964,-0.5180953741073608
0.45260645958796947,1.1050076855584157,1.8364097511136315,3.5755505561828613,-3.9248557090759277,-2.1975512504577637,0.8035047054290771,-0.4373110234737396,-0.40390506386756897,0.37461113929748535,2.0995118618011475,-0.49372369050979614
0.44792099857875395,1.0861966550370694,1.7886709020557339,3.6556408405303955,-3.897853136062622,-2.5435245037078857,0.7975694537162781,-0.43309256434440613,-0.4198974072933197,0.4270857572555542,2.159639835357666,-0.5281769037246704
0.4425730859945399,1.0709811356211245,1.7374077768217417,4.006070137023926,-3.483945608139038,-2.731729507446289,0.7931098937988281,-0.4282660484313965,-0.43308761715888977,0.5913047790527344,2.1997199058532715,-0.6262080073356628
0.439177061864655,1.0628901700317879,1.6812565319604489,4.545568943023682,-2.8903279304504395,-2.7395317554473877,0.790846049785614,-0.42519477009773254,-0.4401951730251312,0.8318040370941162,2.2186975479125977,-0.7439936399459839
0.43895201871107714,1.0623913010855024,1.6200888863413703,5.067213535308838,-2.405510663986206,-2.6741456985473633,0.7907099723815918,-0.42499107122421265,-0.44063621759414673,0.9911046028137207,2.2434420585632324,-0.792197585105896
0.44138017188845485,1.0671787779367723,1.5549925530270405,5.416987419128418,-2.1929574012756348,-2.5978524684906006,0.7919042706489563,-0.4271877706050873,-0.4363463819026947,1.0613977909088135,2.2889888286590576,-0.7429595589637756
0.4451482546899531,1.07363923290709,1.4877447381901734,5.555820941925049,-2.2858400344848633,-2.560328245162964,0.7932863235473633,-0.4305917024612427,-0.43045052886009216,1.0858335494995117,2.3369789123535156,-0.6398924589157104
0.4488176386525038,1.0785121779168978,1.4199094153361338,5.5217719078063965,-2.5888214111328125,-2.592156171798706,0.7939766645431519,-0.4339005649089813,-0.4258301258087158,1.087355613708496,2.3862626552581787,-0.5356109142303467
0.4513950101073425,1.07982901042457,1.352408922938369,5.4139180183410645,-2.98042368888855,-2.6754016876220703,0.7935479283332825,-0.43622124195098877,-0.4242555797100067,1.1060340404510498,2.433993339538574,-0.4543607234954834
0.45253585643549776,1.0772053432225046,1.2854168213869601,5.299795150756836,-3.3346951007843018,-2.8044955730438232,0.7919933795928955,-0.43724754452705383,-0.42610007524490356,1.1380451917648315,2.476477861404419,-0.40793007612228394
0.4523141763498727,1.0717358011539728,1.2185819588513374,5.2406086921691895,-3.528045654296875,-2.937420606613159,0.7897359728813171,-0.43704816699028015,-0.43047183752059937,1.1735970973968506,2.4931700229644775,-0.38398122787475586
0.4512452382992573,1.0653648770743858,1.1513855354908809,5.242644786834717,-3.542830467224121,-3.0494589805603027,0.7873857617378235,-0.4360864758491516,-0.43572038412094116,1.2208082675933838,2.4971673488616943,-0.37868696451187134
0.449927691639832,1.059727634079012,1.0835018981024447,5.2949299812316895,-3.4318370819091797,-3.105563163757324,0.7854174375534058,-0.4349004328250885,-0.44043275713920593,1.2700177431106567,2.5058538913726807,-0.3653838634490967
0.4490221540156314,1.0558562301265442,1.0147646345817982,5.393596172332764,-3.2495944499969482,-3.1065189838409424,0.7840489745140076,-0.43408483266830444,-0.44366389513015747,1.3160792589187622,2.508883476257324,-0.35638487339019775
0.44882563997214703,1.0542317709157403,0.9450552979775287,5.501154899597168,-3.0592896938323975,-3.108795642852783,0.7834013104438782,-0.43390777707099915,-0.44497907161712646,1.3348543643951416,2.5199978351593018,-0.35082781314849854
0.44886828654293537,1.0543573803169555,0.8745163574330921,5.554471015930176,-2.953328847885132,-3.1504807472229004,0.7834411859512329,-0.4339462220668793,-0.44487157464027405,1.3218445777893066,2.555528163909912,-0.32311856746673584
0.4484642357476724,1.0552965712514326,0.8034666453042303,5.554341793060303,-2.906280994415283,-3.2241084575653076,0.7840110063552856,-0.4335821568965912,-0.4442219138145447,1.2968604564666748,2.595050811767578,-0.28273728489875793
0.4471679292904187,1.0568215280125561,0.7320846687072214,5.53619384765625,-2.847330331802368,-3.3231279850006104,0.7851763367652893,-0.43241366744041443,-0.4433017671108246,1.2717390060424805,2.6272990703582764,-0.25779375433921814
0.44481055113214674,1.05915697302243,0.6602797959342626,5.538538455963135,-2.76456618309021,-3.4270501136779785,0.7870962023735046,-0.43028688430786133,-0.441964715719223,1.2513865232467651,2.639835834503174,-0.2514861822128296
0.44144416737640985,1.062414263824276,0.5879191478218522,5.559595584869385,-2.6754002571105957,-3.5235133171081543,0.7897924184799194,-0.4272456467151642,-0.44010114669799805,1.244036316871643,2.642943859100342,-0.25783586502075195
0.4372728197196374,1.066655263686898,0.5148496779979944,5.615127086639404,-2.600310802459717,-3.589561939239502,0.7932053804397583,-0.42347046732902527,-0.4376048147678375,1.2459181547164917,2.65535831451416,-0.27163898944854736
0.43291088516869114,1.0716530347308757,0.4409776005551336,5.7255353927612305,-2.537060499191284,-3.5884714126586914,0.7969967722892761,-0.419514924287796,-0.43451517820358276,1.2701570987701416,2.642857789993286,-0.30176717042922974
0.4289776264677269,1.0773450049928996,0.366154076990852,5.870479583740234,-2.4598183631896973,-3.557760715484619,0.8009040951728821,-0.4159412682056427,-0.43074992299079895,1.3072044849395752,2.644197463989258,-0.32155418395996094
0.42563842259361834,1.0844091455624805,0.2900624658958756,6.045943737030029,-2.3224174976348877,-3.5289032459259033,0.8051502704620361,-0.4129023253917694,-0.42572835087776184,1.3062694072723389,2.655730724334717,-0.33107709884643555
0.4228903505466938,1.0935447985062894,0.21242021347889675,6.248669624328613,-2.1337480545043945,-3.489464044570923,0.8100107908248901,-0.41039788722991943,-0.41887474060058594,1.2937337160110474,2.6628546714782715,-0.33077430725097656
0.4208151069161273,1.1053576741794464,0.13301709165750433,6.471271514892578,-1.9084397554397583,-3.4392223358154297,0.815661609172821,-0.40850457549095154,-0.4096585512161255,1.2816132307052612,2.6658594608306885,-0.329767107963562
0.41924148657000415,1.120231527435818,0.05162913392331173,6.7043633460998535,-1.7027113437652588,-3.3983078002929688,0.8222419619560242,-0.40706774592399597,-0.3977610766887665,1.251732587814331,2.6713194847106934,-0.340077668428421
0.4176754982454585,1.1376617881425468,-0.03193515629886222,6.936576843261719,-1.5642170906066895,-3.3968942165374756,0.8296274542808533,-0.40563687682151794,-0.38363659381866455,1.2036519050598145,2.673306703567505,-0.34713730216026306
0.41556879684641,1.156889549258189,-0.11769350578305356,7.155365467071533,-1.5036081075668335,-3.4080522060394287,0.837630569934845,-0.40371039509773254,-0.36795762181282043,1.1808630228042603,2.6746304035186768,-0.34905287623405457
0.41283171376505406,1.1768472079549301,-0.20520456929786846,7.322731971740723,-1.5104974508285522,-3.355778217315674,0.845824122428894,-0.40120476484298706,-0.35159116983413696,1.212189793586731,2.679769277572632,-0.3333454132080078
0.4100806926023977,1.1969680015654551,-0.2935701689094817,7.45065975189209,-1.4930129051208496,-3.1899001598358154,0.8537509441375732,-0.3986833393573761,-0.334904283285141,1.2947018146514893,2.6872425079345703,-0.295436292886734
0.40788898739633045,1.2173318541405969,-0.3822170684157153,7.551087856292725,-1.4551596641540527,-2.9851136207580566,0.8612111806869507,-0.39667239785194397,-0.3177521228790283,1.3502146005630493,2.689915895462036,-0.2761962413787842
0.4061320079844755,1.237679776763719,-0.4709368169306405,7.634872913360596,-1.4879266023635864,-2.821462869644165,0.8681553602218628,-0.39505892992019653,-0.30039113759994507,1.3560420274734497,2.7130520343780518,-0.2908412218093872
0.4041459351875742,1.256896233241367,-0.5600821976967214,7.732102870941162,-1.7044103145599365,-2.7551300525665283,0.8745116591453552,-0.39323365688323975,-0.2838955223560333,1.3541259765625,2.706969738006592,-0.32053568959236145
0.40140349746780757,1.272734899163397,-0.6497515489306844,7.776719093322754,-2.1598215103149414,-2.7065162658691406,0.8799259066581726,-0.39071065187454224,-0.27032509446144104,1.4020106792449951,2.6368653774261475,-0.3163906931877136
0.3985897229718034,1.2827126122010297,-0.7386108487983959,7.6688313484191895,-2.745445966720581,-2.513963222503662,0.8836297988891602,-0.38811901211738586,-0.26184341311454773,1.5340337753295898,2.521740198135376,-0.22210440039634705
0.3974425572674659,1.285552947643854,-0.8244384264657728,7.375104904174805,-3.2977564334869385,-2.13956356048584,0.8847965598106384,-0.3870615065097809,-0.25945764780044556,1.7173609733581543,2.3788676261901855,-0.05429360270500183
0.39934861432922203,1.2816311238493223,-0.9048464584434192,6.885085105895996,-3.6609036922454834,-1.6787956953048706,0.8830634951591492,-0.38881829380989075,-0.26271483302116394,1.7996604442596436,2.240853786468506,0.14802974462509155
0.40392262770936194,1.2728727087661011,-0.9781785213821936,6.25366735458374,-3.7638773918151855,-1.3740110397338867,0.8790194392204285,-0.3930283188819885,-0.26991403102874756,1.6622402667999268,2.1124496459960938,0.3088696300983429
0.4089601804639601,1.2614151292882307,-1.0445822372072366,5.672357082366943,-3.746434211730957,-1.3327100276947021,0.8739721775054932,-0.3976554870605469,-0.27936112880706787,1.4174554347991943,2.041271209716797,0.3468049168586731
0.4127255144862725,1.2487759633428102,-1.1063617135211814,5.333070755004883,-3.682003974914551,-1.4690330028533936,0.8689450025558472,-0.40110746026039124,-0.28990885615348816,1.2242860794067383,2.044311285018921,0.22917887568473816
0.4151063190055993,1.2369333081342342,-1.166794373775564,5.305053234100342,-3.501389503479004,-1.6350144147872925,0.8645462989807129,-0.40328723192214966,-0.29986515641212463,1.111558437347412,2.074673891067505,0.02264338731765747
0.4168288443720914,1.2285259699058613,-1.228992712051358,5.537784099578857,-3.1638987064361572,-1.8128966093063354,0.8613391518592834,-0.4048628509044647,-0.30688944458961487,1.0251202583312988,2.080308437347412,-0.17737886309623718
0.4179789881157093,1.2257309757471224,-1.2952909735196398,5.9300689697265625,-2.7446532249450684,-2.0492992401123047,0.860039234161377,-0.4059142470359802,-0.3091379404067993,0.956092357635498,2.095550537109375,-0.32043975591659546
0.4183886325910529,1.229626806575192,-1.3669710353151832,6.399275302886963,-2.2781364917755127,-2.2648684978485107,0.8610801696777344,-0.40628859400749207,-0.30572935938835144,0.9339484572410583,2.109337329864502,-0.3745990991592407
0.4183100237004667,1.240533898755708,-1.444142069990082,6.861876964569092,-1.7880768775939941,-2.371480941772461,0.8643937706947327,-0.4062167704105377,-0.2963298559188843,0.9855512380599976,2.1184818744659424,-0.3509785830974579
0.4182487667575503,1.2585205565024244,-1.525795265112108,7.231471538543701,-1.2200040817260742,-2.3232064247131348,0.8696072697639465,-0.40616080164909363,-0.2807428240776062,1.0533052682876587,2.117830753326416,-0.2575109899044037
0.4185995374525708,1.2835191636454344,-1.610102486175488,7.436709880828857,-0.6303368210792542,-2.137446403503418,0.8762162923812866,-0.4064812958240509,-0.2588779926300049,1.1014904975891113,2.083834171295166,-0.1257350742816925
0.4192310788162043,1.314074881569885,-1.6948726721018073,7.442692756652832,-0.17238280177116394,-1.8866370916366577,0.883467972278595,-0.4070582389831543,-0.2319227159023285,1.0980384349822998,2.0385584831237793,0.013035297393798828
0.4198201258699692,1.3478814757195008,-1.778253345974491,7.329329013824463,0.12327032536268234,-1.6075645685195923,0.8905681371688843,-0.4075962007045746,-0.20187580585479736,1.0919911861419678,1.9797701835632324,0.1230182945728302
0.4203770390964876,1.3830933595026083,-1.8599022244010344,7.251128196716309,0.22804813086986542,-1.3141367435455322,0.8968997597694397,-0.40810468792915344,-0.1703561544418335,1.1549952030181885,1.9204338788986206,0.18183071911334991
0.42117786059586665,1.417479926366955,-1.9400340554531474,7.13191032409668,0.07047247141599655,-0.990458071231842,0.9019032120704651,-0.40883564949035645,-0.13937027752399445,1.2743662595748901,1.9050819873809814,0.24129891395568848
0.4230050713456256,1.448051052031429,-2.017359064276382,6.816272735595703,-0.30977633595466614,-0.5720347166061401,0.9049988985061646,-0.41050249338150024,-0.11164560168981552,1.340087652206421,1.889796257019043,0.41378480195999146
0.4268679154771244,1.4721545461674186,-2.0894210516631926,6.243581295013428,-0.8101050853729248,-0.10008195042610168,0.9058420062065125,-0.4140217900276184,-0.08964481204748154,1.3229024410247803,1.8104757070541382,0.6904595494270325
0.4336775810627923,1.4883477706518897,-2.15389658920706,5.506649494171143,-1.3137576580047607,0.4109046161174774,0.9043439030647278,-0.4202107787132263,-0.0747312605381012,1.257338047027588,1.7120351791381836,0.9807676076889038
0.44456924130058556,1.4963788371644344,-2.2099961858373396,4.766441345214844,-1.839378833770752,0.9656105041503906,0.9002971649169922,-0.4300690293312073,-0.06712181121110916,1.1922471523284912,1.6215821504592896,1.1938154697418213
0.4599376869186819,1.4961257173190097,-2.2582538983923977,4.112283706665039,-2.421738624572754,1.4257959127426147,0.8935831785202026,-0.4438922703266144,-0.06684868782758713,1.0456714630126953,1.558882474899292,1.38592529296875
0.4784563927029887,1.487075494357083,-2.299765834489214,3.540534257888794,-3.134990930557251,1.6409307718276978,0.8845973014831543,-0.4604094624519348,-0.07423274219036102,0.8219149708747864,1.594396948814392,1.603636384010315
0.4973440763194123,1.4688186099894234,-2.3346584067145777,2.9098966121673584,-3.715007781982422,1.4867489337921143,0.8742868304252625,-0.47709307074546814,-0.08946812897920609,0.463512122631073,1.664150595664978,1.970037579536438
0.5122074032458872,1.4444666782002162,-2.3620784662402983,2.173305034637451,-3.685431480407715,0.858389675617218,0.864718496799469,-0.4901025593280792,-0.10982444137334824,-0.02478325366973877,1.7027642726898193,2.4652321338653564
0.518875155374787,1.4207874384178258,-2.3820542137167275,1.4496127367019653,-2.917762517929077,-0.02339920401573181,0.8586254715919495,-0.4959036707878113,-0.12977635860443115,-0.40888792276382446,1.687355637550354,2.8561253547668457
0.5164663783801287,1.4045943239154064,-2.3960292734335344,0.8947322964668274,-1.6387816667556763,-0.8030677437782288,0.8575870990753174,-0.4938105046749115,-0.14385975897312164,-0.48582202196121216,1.6041314601898193,3.0013885498046875
0.5069998534794363,1.400915318414791,-2.406466857232154,0.6117416024208069,-0.10644984245300293,-1.329521656036377,0.8616209626197815,-0.4855566918849945,-0.1477975696325302,-0.2962369918823242,1.5047979354858398,2.8976755142211914
0.49304759865653164,1.4112371171977065,-2.415605206821028,0.5311516523361206,1.2641421556472778,-1.6525018215179443,0.8697048425674438,-0.47331270575523376,-0.1399591863155365,-0.001037299633026123,1.438781976699829,2.6481072902679443
0.47641628818019033,1.43282003519457,-2.4240085947316286,0.42813947796821594,2.2028753757476807,-1.8302500247955322,0.88019859790802,-0.45859748125076294,-0.1222231313586235,0.28468769788742065,1.3901464939117432,2.3980867862701416
0.4580988924569694,1.4601649727027113,-2.4298031599517236,0.11482113599777222,2.6760880947113037,-1.9104241132736206,0.8914117813110352,-0.4422438144683838,-0.09902241080999374,0.5065068602561951,1.3440077304840088,2.2491230964660645
0.43888176724436345,1.4880749917011824,-2.430430451119662,-0.385277658700943,2.799215316772461,-1.9056124687194824,0.9021320343017578,-0.4249274730682373,-0.07479625195264816,0.7006816864013672,1.3131873607635498,2.160123348236084
0.41959702577963404,1.5132794585774394,-2.4245415543964635,-0.951812207698822,2.693868398666382,-1.8498518466949463,0.9117429852485657,-0.4073924720287323,-0.052498504519462585,0.8719483613967896,1.3131998777389526,2.043175220489502
0.40087498258909476,1.5342583408104744,-2.411932716268486,-1.5298398733139038,2.4836997985839844,-1.7614942789077759,0.9201053380966187,-0.3902240991592407,-0.0336337648332119,0.9950862526893616,1.3201404809951782,1.896960735321045
0.383369347811533,1.5508301117766663,-2.392674573367017,-2.1186769008636475,2.296370267868042,-1.617448329925537,0.9272246956825256,-0.37404733896255493,-0.018515627831220627,1.077917456626892,1.3088159561157227,1.7764348983764648
0.36769745808406495,1.5636694034567327,-2.3667086943940565,-2.7481532096862793,2.171386241912842,-1.4330157041549683,0.9331337213516235,-0.3594677448272705,-0.006650485098361969,1.1370718479156494,1.298875093460083,1.6899237632751465
0.3543079670342035,1.5735392143601634,-2.333729712317695,-3.4146249294281006,2.119008779525757,-1.1959655284881592,0.9378832578659058,-0.34694141149520874,0.0025725148152559996,1.1814556121826172,1.3003867864608765,1.6113190650939941
0.34392819716571255,1.581031525484301,-2.293557844671261,-4.100223541259766,2.1110575199127197,-0.9043952822685242,0.9413880705833435,-0.33718782663345337,0.009635630995035172,1.2308988571166992,1.3220510482788086,1.5097277164459229
0.33691006482501995,1.5866027939749887,-2.246262640987206,-4.765267372131348,2.144991636276245,-0.6086017489433289,0.943662703037262,-0.3305724561214447,0.014917215332388878,1.2624682188034058,1.3716338872909546,1.374029278755188
0.33308861283489705,1.5906580663752468,-2.1922264877083357,-5.385126113891602,2.2028770446777344,-0.3371790051460266,0.9448505640029907,-0.3269634246826172,0.01876884326338768,1.2633707523345947,1.4512004852294922,1.2046045064926147
0.3319990982874845,1.5934571858108724,-2.1321781446697443,-5.9138503074646,2.252089738845825,-0.12618249654769897,0.9451499581336975,-0.3259336054325104,0.02142157591879368,1.2524056434631348,1.557561993598938,1.0029313564300537
0.333035388737473,1.5949175100122168,-2.067102727944585,-6.335751056671143,2.2700281143188477,0.04241744056344032,0.9447795152664185,-0.32691314816474915,0.022793620824813843,1.2493122816085815,1.6879665851593018,0.7715941667556763
0.3358258368853985,1.5950780354966554,-1.998237758946549,-6.628159046173096,2.2648653984069824,0.20185379683971405,0.9438601732254028,-0.32954898476600647,0.022923042997717857,1.2668942213058472,1.819783329963684,0.5359452962875366
0.3402994308299585,1.5943094645576117,-1.9267575148660467,-6.825073719024658,2.313610315322876,0.3732604384422302,0.9423942565917969,-0.33376938104629517,0.022162729874253273,1.2972145080566406,1.9343247413635254,0.326210618019104
0.3466128002723955,1.593304308089337,-1.8532591499439492,-6.998287677764893,2.4291832447052,0.5705339312553406,0.9402905106544495,-0.339713990688324,0.021167615428566933,1.3314074277877808,2.0367507934570312,0.17147457599639893
0.35498770230490406,1.5925560455020875,-1.777706206539479,-7.182249069213867,2.602138042449951,0.7857439517974854,0.9374286532402039,-0.34757882356643677,0.020401405170559883,1.3589885234832764,2.1334521770477295,0.0592341423034668
0.36547568808483744,1.592198108794905,-1.6998787338179884,-7.386682987213135,2.786336898803711,0.9934295415878296,0.9337399005889893,-0.3573935925960541,0.019986750558018684,1.3926913738250732,2.2259697914123535,-0.038358449935913086
0.3781058867356404,1.5914937389988542,-1.619258083042849,-7.645337104797363,2.8982229232788086,1.2103629112243652,0.9291664958000183,-0.36916080117225647,0.01923408918082714,1.4349844455718994,2.306096315383911,-0.12589311599731445
0.3928906835145092,1.5890179755861868,-1.5352104800965476,-7.932186126708984,2.889949083328247,1.4313033819198608,0.923652708530426,-0.3828604519367218,0.016832338646054268,1.4754865169525146,2.386904001235962,-0.21376240253448486
0.40935603076017507,1.5832030819267933,-1.447954358322863,-8.113385200500488,2.7219913005828857,1.5878612995147705,0.9173067808151245,-0.39801865816116333,0.011381384916603565,1.485662579536438,2.486290693283081,-0.35690152645111084
0.42627189976089885,1.5730525347417113,-1.358997543895498,-8.09068775177002,2.4391984939575195,1.6532325744628906,0.910511314868927,-0.413479208946228,0.0020543064456433058,1.4556996822357178,2.591198444366455,-0.5527287721633911
0.4425615452692995,1.5587625360604047,-1.2706871550651209,-7.834743976593018,2.1261398792266846,1.6686639785766602,0.9035921692848206,-0.4282556176185608,-0.010874164290726185,1.4238613843917847,2.6387505531311035,-0.7480522990226746
0.45790006896054747,1.5418758143279592,-1.1852753488665544,-7.4210004806518555,1.9414784908294678,1.7149327993392944,0.8966077566146851,-0.4420654773712158,-0.025937587022781372,1.42550528049469,2.619647264480591,-0.8805108666419983
0.4729915596715129,1.524606015987874,-1.1037331151122514,-6.993564128875732,1.9213777780532837,1.8460897207260132,0.889259934425354,-0.4555514454841614,-0.041104432195425034,1.471289873123169,2.5875399112701416,-0.9176816344261169
0.48868312621349785,1.5080155011651113,-1.0253682915114621,-6.6888604164123535,2.0070815086364746,2.0382320880889893,0.8812124133110046,-0.4694635570049286,-0.05539604276418686,1.506833791732788,2.518902063369751,-0.8647700548171997
0.5054612358473074,1.4921169947073245,-0.9484338631188273,-6.543038368225098,2.132701873779297,2.255009651184082,0.8722445368766785,-0.4842110574245453,-0.06876958161592484,1.4889311790466309,2.422260284423828,-0.7713183760643005
0.5232229382381516,1.4759085393170193,-0.8712603818052945,-6.494251251220703,2.1912190914154053,2.4246511459350586,0.8623166680335999,-0.4996744692325592,-0.0820697769522667,1.45820951461792,2.351282835006714,-0.7067334055900574
0.5411176072438316,1.4586179099498267,-0.7936323991532812,-6.38616943359375,2.2150027751922607,2.4866278171539307,0.851746141910553,-0.5150942802429199,-0.09595035016536713,1.4119563102722168,2.3239169120788574,-0.7272003889083862
0.5582093893611012,1.4413145511573053,-0.7170674647707508,-6.101222515106201,2.319401979446411,2.4633147716522217,0.8411045670509338,-0.5296682715415955,-0.10952045768499374,1.3873043060302734,2.3109641075134277,-0.804206371307373
0.5744230000604769,1.4259841973554006,-0.643577031972077,-5.701547145843506,2.488896608352661,2.4332761764526367,0.8307189345359802,-0.5433504581451416,-0.12114620208740234,1.4240875244140625,2.298980951309204,-0.8816767334938049
0.5903723653549006,1.4133776187959266,-0.5735011680291844,-5.371356964111328,2.6794779300689697,2.480243682861328,0.820461630821228,-0.5566704273223877,-0.1302335411310196,1.4859806299209595,2.2415459156036377,-0.8831484913825989
0.606954807746744,1.402517555977042,-0.504874213205093,-5.286876201629639,2.8546364307403564,2.624478816986084,0.8097862005233765,-0.5703688263893127,-0.13757085800170898,1.600446343421936,2.147395133972168,-0.7923761010169983
0.6244278973820071,1.3903998738811119,-0.43387267391480583,-5.528183937072754,2.875605821609497,2.8114826679229736,0.798132598400116,-0.5846332311630249,-0.14556273818016052,1.6834195852279663,2.076927661895752,-0.6522583961486816
0.6423142315231782,1.3729543648495404,-0.3570581967925791,-5.932474136352539,2.6900758743286133,3.0092339515686035,0.7850921154022217,-0.5990501046180725,-0.15738293528556824,1.7043793201446533,2.0555014610290527,-0.5488243699073792
0.6599549015759779,1.3481899292088475,-0.27363751920702606,-6.2496137619018555,2.458003044128418,3.1811516284942627,0.7705264091491699,-0.6130812168121338,-0.17441463470458984,1.69462251663208,2.063490152359009,-0.5766534805297852
0.6768442313589925,1.3178671681161924,-0.1857861276090037,-6.272988319396973,2.3798165321350098,3.321075201034546,0.7547505497932434,-0.6263360381126404,-0.19507615268230438,1.6759440898895264,2.07894229888916,-0.7241286039352417
0.69316051566466,1.2863440662236358,-0.09720694516162581,-6.024596214294434,2.53493595123291,3.447028160095215,0.7383191585540771,-0.6389715075492859,-0.2158704549074173,1.6830370426177979,2.092661142349243,-0.9117998480796814
0.7094568061646159,1.2571422734277071,-0.010135328596983835,-5.690465450286865,2.856222629547119,3.564190626144409,0.7216999530792236,-0.6514217257499695,-0.23409149050712585,1.6755931377410889,2.0790340900421143,-1.0119259357452393
0.7258874647244346,1.2314031672605996,0.0753212429088835,-5.429542064666748,3.208723783493042,3.655978202819824,0.7052475810050964,-0.6637994647026062,-0.24899065494537354,1.648817539215088,2.024395227432251,-1.0011314153671265
0.7422882426343294,1.2077664845982659,0.16078044261307164,-5.351672649383545,3.479238986968994,3.772753953933716,0.6888948678970337,-0.6759759187698364,-0.26168766617774963,1.6414885520935059,1.9939539432525635,-0.9216467142105103
0.758413063591989,1.1833909933590316,0.24912123051822638,-5.471869468688965,3.6614394187927246,3.945415735244751,0.6721314787864685,-0.6877703070640564,-0.274246484041214,1.6632871627807617,2.016078472137451,-0.7950131893157959
0.7739997346486094,1.1560196516384442,0.34229676579186413,-5.635437488555908,3.755298614501953,4.141585826873779,0.6544827818870544,-0.699001133441925,-0.28818321228027344,1.6713380813598633,2.0541343688964844,-0.6936283111572266
0.7886481548985206,1.1247248422197933,0.44040908720692834,-5.763366222381592,3.7740204334259033,4.293473720550537,0.6358391046524048,-0.7094011306762695,-0.3040703535079956,1.6474251747131348,2.1444902420043945,-0.6581031084060669
0.8013946666104526,1.0896043922346743,0.5424016432766157,-5.826732635498047,3.7406115531921387,4.327399253845215,0.6167039275169373,-0.7183270454406738,-0.32199764251708984,1.560664176940918,2.264133930206299,-0.6434106826782227
0.8110642120502916,1.0524904790612966,0.645732799536372,-5.74075174331665,3.7408149242401123,4.169311046600342,0.5982697606086731,-0.7250205278396606,-0.34120190143585205,1.4054992198944092,2.3752126693725586,-0.680587649345398
0.8169526352758142,1.0179938807561026,0.745769857002849,-5.401507377624512,3.915476083755493,3.815495252609253,0.5825021862983704,-0.7290634512901306,-0.35938504338264465,1.2311575412750244,2.4254441261291504,-0.769612729549408
0.8198593831623756,0.9922714186375549,0.8378553045892382,-4.858142375946045,4.40045690536499,3.402221441268921,0.5712894201278687,-0.7310498952865601,-0.3730875551700592,1.1197810173034668,2.401261806488037,-0.8680471181869507
0.8212752045478657,0.979917408400129,0.9201084670613313,-4.320972919464111,5.153501510620117,3.02182674407959,0.5657768845558167,-0.7320151925086975,-0.37953972816467285,1.1103096008300781,2.3711752891540527,-0.8945691585540771
0.8220164235876555,0.9813789727509913,0.9941234508924311,-3.9739859104156494,5.924351215362549,2.7044358253479004,0.5658797025680542,-0.7325199842453003,-0.3784106373786926,1.1592179536819458,2.361701011657715,-0.8303142786026001
0.8218480166787078,0.9932948667352135,1.0628299684447717,-3.858705997467041,6.436123371124268,2.409069776535034,0.5704518556594849,-0.7324053645133972,-0.3717082738876343,1.2109659910202026,2.3749682903289795,-0.7523151636123657
0.8197008212223902,1.0102031243990541,1.1290423531659908,-3.982255220413208,6.542022228240967,2.071139097213745,0.5779855847358704,-0.7309417128562927,-0.36284559965133667,1.2273123264312744,2.386566162109375,-0.7040488719940186
0.8142487128325265,1.0269680804439973,1.1946834220661142,-4.2208123207092285,6.301083564758301,1.6981343030929565,0.5873887538909912,-0.7272101044654846,-0.3551619350910187,1.2074568271636963,2.3829259872436523,-0.7035385966300964
0.8052001255843002,1.0404473136731183,1.2599102935883766,-4.3903985023498535,5.770802021026611,1.3434216976165771,0.5977745056152344,-0.7209693193435669,-0.3505265414714813,1.2141609191894531,2.39420223236084,-0.8013288974761963
0.7934714659450827,1.0499707861808274,1.3230829015472845,-4.354020118713379,5.157723426818848,1.0450997352600098,0.6083788275718689,-0.7127923369407654,-0.3490017056465149,1.2175946235656738,2.3736658096313477,-0.9750338792800903
0.7804544306729929,1.057582644093918,1.3818565892794623,-4.10160493850708,4.680235385894775,0.7934843897819519,0.6190488934516907,-0.7036024332046509,-0.34888699650764465,1.2161715030670166,2.3321118354797363,-1.1403708457946777
0.7674426373580842,1.0665789270982977,1.4344567380273106,-3.7106759548187256,4.473585605621338,0.6098871231079102,0.6301254630088806,-0.6942970156669617,-0.3476977050304413,1.2096115350723267,2.275214433670044,-1.2182660102844238
0.7557446867592659,1.0796207370195698,1.480779696411807,-3.286888360977173,4.527805328369141,0.5511263012886047,0.6417244076728821,-0.68583083152771,-0.3432578444480896,1.2122032642364502,2.1788880825042725,-1.1975593566894531
0.7463890025534071,1.0984265338585304,1.5221056546821967,-2.9414353370666504,4.856914043426514,0.6024872064590454,0.6537511348724365,-0.6789922118186951,-0.33403462171554565,1.193401575088501,2.0559606552124023,-1.1054489612579346
0.7393862006142858,1.1231223948143245,1.5605544586480016,-2.7740912437438965,5.225734710693359,0.6484793424606323,0.6660701036453247,-0.673834502696991,-0.31983983516693115,1.1236027479171753,1.9481112957000732,-0.9754939079284668
0.7335424089006817,1.1511064132217335,1.5985120063558016,-2.8433735370635986,5.391115188598633,0.6409702897071838,0.6783431768417358,-0.6695051789283752,-0.302677184343338,0.9948441386222839,1.868647575378418,-0.8403280973434448
0.7274339147508507,1.178492659103686,1.6380824489407921,-3.061584711074829,5.2824177742004395,0.5449779629707336,0.6901429891586304,-0.6649552583694458,-0.2855469286441803,0.8417173624038696,1.8287888765335083,-0.745840311050415
0.7199830314013358,1.2030061609144729,1.6794742278836405,-3.2483835220336914,5.0281243324279785,0.35795456171035767,0.7015385627746582,-0.6593719124794006,-0.27031898498535156,0.6825251579284668,1.805902123451233,-0.7617548704147339
0.7107587405402054,1.2255119465965725,1.7208066059355587,-3.297118663787842,4.768872261047363,0.08422928303480148,0.7131370902061462,-0.6524089574813843,-0.2565109133720398,0.5710883140563965,1.7997784614562988,-0.8654829859733582
0.699574058318106,1.2457444806740121,1.7614399215363887,-3.270005702972412,4.490931510925293,-0.15119150280952454,0.7250504493713379,-0.6438918709754944,-0.2443459928035736,0.5175184607505798,1.7501540184020996,-0.9706045389175415
0.6873218772253122,1.2641466001841895,1.8006480010154744,-3.2135655879974365,4.159156322479248,-0.2924533784389496,0.7368900179862976,-0.6344693899154663,-0.23332694172859192,0.5241115093231201,1.6416716575622559,-1.024668574333191
0.6748735092992596,1.2798273948790313,1.8390798772501173,-3.224895715713501,3.771846055984497,-0.31209099292755127,0.7479665875434875,-0.6247985363006592,-0.22399228811264038,0.5683022737503052,1.5477111339569092,-1.0223150253295898
0.6630348988192084,1.2911526514501503,1.8781304655968942,-3.3124947547912598,3.303166389465332,-0.23012757301330566,0.7575120329856873,-0.6155115962028503,-0.2175336480140686,0.5989179015159607,1.4372127056121826,-0.9723619222640991
0.6520914703232075,1.297568689009784,1.9185464867215951,-3.4166829586029053,2.926220178604126,-0.13716913759708405,0.7653325796127319,-0.6068500876426697,-0.21447382867336273,0.5427118539810181,1.324699878692627,-0.9235723614692688
0.6416199134882498,1.3015236901487062,1.9596370233054297,-3.423731803894043,2.826728343963623,-0.14142823219299316,0.7722584009170532,-0.5984939932823181,-0.21312418580055237,0.4511150121688843,1.2433761358261108,-0.9053144454956055
0.6307611950947484,1.3069003469683032,1.9993014828450981,-3.269727945327759,2.9645745754241943,-0.2809874713420868,0.779621422290802,-0.5897596478462219,-0.21065181493759155,0.3611867427825928,1.1754987239837646,-0.9492602348327637
0.6190536943746756,1.3163449482443672,2.0359546183056336,-3.0652015209198,3.188115358352661,-0.4488319158554077,0.7882046699523926,-0.5802647471427917,-0.20500332117080688,0.3217959403991699,1.107074499130249,-1.0175613164901733
0.6067981875530578,1.329472995402843,2.070118027759044,-2.9561262130737305,3.325476884841919,-0.5405644774436951,0.797673761844635,-0.5702401399612427,-0.19632326066493988,0.34578943252563477,1.0222969055175781,-1.0436211824417114
0.5945148081323397,1.343787834259022,2.1036532587451284,-3.000476598739624,3.2744460105895996,-0.5527387261390686,0.8071664571762085,-0.5601068735122681,-0.18644742667675018,0.387123703956604,0.9227167367935181,-1.0332638025283813
0.5826802898340456,1.3556807515658622,2.138548506267973,-3.17191743850708,2.9079761505126953,-0.46683549880981445,0.8157457709312439,-0.5502639412879944,-0.1782374233007431,0.4447522759437561,0.8205428123474121,-1.0377354621887207
0.572027365773461,1.3606703517156788,2.175956013254514,-3.385713577270508,2.1014420986175537,-0.28128567337989807,0.8223114609718323,-0.541337788105011,-0.1753777712583542,0.5447081923484802,0.7394425868988037,-1.0662908554077148
0.5632024477288315,1.3547023099806326,2.2161600767454046,-3.5934243202209473,0.9995906352996826,-0.0011293846182525158,0.8258841633796692,-0.5338967442512512,-0.18129947781562805,0.620801568031311,0.6994088888168335,-1.0679527521133423
0.5564427681731667,1.3366881615482609,2.2591059533145836,-3.7823548316955566,-0.01638396829366684,0.29052361845970154,0.8259761333465576,-0.5281689763069153,-0.1969795674085617,0.5983555316925049,0.6683056950569153,-1.0022848844528198
0.5505725056936707,1.3091129586884862,2.3044607910860724,-3.962916612625122,-0.6786937713623047,0.43891841173171997,0.8232118487358093,-0.5231752395629883,-0.22047658264636993,0.4227445125579834,0.612301766872406,-0.887235164642334
0.5436463678131684,1.2760979061069144,2.351946483145689,-4.1992950439453125,-0.9344823956489563,0.44046124815940857,0.8189332485198975,-0.5172600746154785,-0.24857640266418457,0.18643778562545776,0.5502343773841858,-0.7567031383514404
0.5341009912544854,1.2416171419824216,2.40162551068914,-4.482624530792236,-0.813456654548645,0.3497726321220398,0.8145125508308411,-0.5090674161911011,-0.2782440185546875,-0.0042861104011535645,0.5142096281051636,-0.6420592665672302
0.5211347266182996,1.2095693569937975,2.453162313945925,-4.740775108337402,-0.3712855577468872,0.22095228731632233,0.8112855553627014,-0.4978645443916321,-0.3065071702003479,-0.15645462274551392,0.4871528744697571,-0.6502951383590698
0.5049395488750879,1.1828931148948463,2.5054575425233288,-4.869165897369385,0.15342800319194794,0.1071799099445343,0.8101797103881836,-0.48375454545021057,-0.3310442566871643,-0.22302156686782837,0.44922390580177307,-0.8308819532394409
0.4870802108256115,1.1623486304388952,2.5562314201196643,-4.666127681732178,0.5548688769340515,0.08241500705480576,0.8110084533691406,-0.4680476486682892,-0.3509938418865204,-0.17404556274414062,0.4409785270690918,-1.1496469974517822
0.47038902692659684,1.148600381413675,2.6019103581212097,-4.020859718322754,0.8984166979789734,0.13704416155815125,0.8131200671195984,-0.45323309302330017,-0.36526086926460266,-0.10285401344299316,0.3997662663459778,-1.5881081819534302
0.45698773091289374,1.1429619684375771,2.6389605019201734,-3.0818281173706055,1.2833880186080933,0.14233970642089844,0.8165012001991272,-0.44124695658683777,-0.3723265528678894,-0.1100803017616272,0.3143700957298279,-2.0345489978790283
0.4470966337401554,1.1459825793171456,2.665703756461221,-2.119154691696167,1.6359082460403442,0.03478953242301941,0.8215585350990295,-0.43234938383102417,-0.371639221906662,-0.18154388666152954,0.20920482277870178,-2.331165313720703
0.43972925408920077,1.156145532664807,2.6831555920087227,-1.3850862979888916,1.8573592901229858,-0.08854193240404129,0.8281859159469604,-0.4256944954395294,-0.3645440936088562,-0.24194324016571045,0.09921741485595703,-2.4505956172943115
0.43424587203744835,1.1702089583025406,2.6937323813401997,-0.8155918121337891,1.793764591217041,-0.15670953691005707,0.8353673815727234,-0.42072638869285583,-0.35376620292663574,-0.23717713356018066,-0.002399832010269165,-2.4833614826202393
0.43066167927423354,1.1845976163620664,2.6983374901493264,-0.23403996229171753,1.4139816761016846,-0.19856885075569153,0.8417624235153198,-0.41747215390205383,-0.3422759771347046,-0.19762802124023438,-0.04889747500419617,-2.549233913421631
0.42912927942785084,1.1965562580214184,2.69684551376809,0.3622356951236725,0.8300415873527527,-0.17452716827392578,0.846389889717102,-0.41607919335365295,-0.33241891860961914,-0.10955822467803955,-0.029324889183044434,-2.5873961448669434
0.4301990509031299,1.2045185824871723,2.6901178783678703,0.825935423374176,0.2069452553987503,-0.06186138466000557,0.8485937118530273,-0.4170517325401306,-0.32550960779190063,-0.04100710153579712,-0.015199273824691772,-2.481924533843994
0.4334816368240585,1.207797133091119,2.680209244480373,1.0514787435531616,-0.37605080008506775,0.023058298975229263,0.8483719825744629,-0.42003294825553894,-0.32223784923553467,-0.08602768182754517,-0.04334595799446106,-2.225552558898926
0.43755386044083905,1.2058343460911962,2.6694399402822175,1.029259204864502,-0.9081342816352844,0.026286300271749496,0.8461330533027649,-0.42372503876686096,-0.3232892155647278,-0.19497954845428467,-0.07531368732452393,-1.9078508615493774
0.44104617025718784,1.1988581542415888,2.659605131068755,0.8665396571159363,-1.2902926206588745,-0.016499511897563934,0.8424735069274902,-0.4268857538700104,-0.328644335269928,-0.2795766592025757,-0.09134858846664429,-1.6297296285629272
0.443679143209441,1.1884011095301834,2.6514681152449606,0.6908643841743469,-1.4562145471572876,-0.028147365897893906,0.8379451036453247,-0.4292652904987335,-0.33701542019844055,-0.2810298204421997,-0.06916308403015137,-1.4525201320648193
0.4459767416312474,1.1766559380578623,2.6448627080306646,0.6020490527153015,-1.4287989139556885,0.006269729696214199,0.8330162167549133,-0.431339293718338,-0.34645408391952515,-0.23473435640335083,-0.025096923112869263,-1.3863492012023926
0.44871102805579144,1.1656128926431364,2.6387578279140973,0.6386289596557617,-1.2938750982284546,0.07287195324897766,0.8280526399612427,-0.4338045120239258,-0.35516560077667236,-0.19687283039093018,0.009533882141113281,-1.4084604978561401
0.45257928990844837,1.1561710493299526,2.631995707907138,0.7958308458328247,-1.186111569404602,0.14640982449054718,0.8231202363967896,-0.4372865855693817,-0.3622892498970032,-0.15303057432174683,0.09375017881393433,-1.4594881534576416
0.45789419730197234,1.1480856463611417,2.6233337921326467,1.0612173080444336,-1.2020357847213745,0.18567946553230286,0.8180329203605652,-0.4420602023601532,-0.3679738938808441,-0.11542677879333496,0.2333352267742157,-1.5081857442855835
0.4646975415582969,1.1404277154879718,2.6117574171436413,1.3844637870788574,-1.3707404136657715,0.1888076215982437,0.8124390244483948,-0.44815242290496826,-0.37296414375305176,-0.11682134866714478,0.36055174469947815,-1.5360933542251587
0.4726795700456879,1.1319675978060202,2.596766555819346,1.7016862630844116,-1.6832358837127686,0.1197861060500145,0.8059906959533691,-0.45527368783950806,-0.3782920837402344,-0.16336679458618164,0.4436616897583008,-1.5069923400878906
0.48091203162009,1.1216609823088457,2.5782371705929314,1.9534214735031128,-2.060549259185791,-0.061232149600982666,0.7986456155776978,-0.46258795261383057,-0.38493847846984863,-0.25637876987457275,0.4812188744544983,-1.4105021953582764
0.48814302569121193,1.1096610479811533,2.5568082418746756,2.0566952228546143,-2.2895219326019287,-0.3086393177509308,0.7909526228904724,-0.4689866006374359,-0.3929955065250397,-0.3214550018310547,0.5012284517288208,-1.2420752048492432
0.49361905438853615,1.0974063317615117,2.533749235459857,2.0477168560028076,-2.2890820503234863,-0.5375732183456421,0.7837797999382019,-0.47381600737571716,-0.4014817774295807,-0.3068205714225769,0.5344544649124146,-1.0571668148040771
0.4975547096386013,1.0865951499008222,2.5098919443287686,2.0293586254119873,-2.110288381576538,-0.68265700340271,0.7777371406555176,-0.4772781729698181,-0.4090605080127716,-0.23673677444458008,0.5643752813339233,-0.9580200910568237
0.5009500714012151,1.0783299381948759,2.485396019085126,2.083239793777466,-1.8774197101593018,-0.714781641960144,0.7728972434997559,-0.48025909066200256,-0.4147060811519623,-0.13622426986694336,0.5951882600784302,-0.9562350511550903
0.5051418525518443,1.0725918930919958,2.4601454633250945,2.2031571865081787,-1.7025718688964844,-0.6395097970962524,0.7687296867370605,-0.4839315712451935,-0.41816845536231995,-0.04059559106826782,0.6373128890991211,-1.004774570465088
0.510983996648273,1.0685028299904036,2.4340321434634173,2.345550537109375,-1.6588475704193115,-0.5251134634017944,0.7645223140716553,-0.48903578519821167,-0.4199400246143341,0.015583217144012451,0.7122412919998169,-1.0528992414474487
0.518363886479199,1.0647006671002104,2.407073808162377,2.460217237472534,-1.7588123083114624,-0.4535256326198578,0.759742796421051,-0.4954596161842346,-0.42108282446861267,0.004020631313323975,0.8117132186889648,-1.0851885080337524
0.5267161226644245,1.0598468273844301,2.379082774293038,2.5770366191864014,-2.0171804428100586,-0.45812517404556274,0.7540538907051086,-0.5026972889900208,-0.422727108001709,-0.03730279207229614,0.9346430897712708,-1.113588809967041
0.5354405675118856,1.0525321278834368,2.349397138041603,2.72342586517334,-2.4619388580322266,-0.5503587126731873,0.7471032738685608,-0.5102199912071228,-0.4260425567626953,-0.07406860589981079,1.0802273750305176,-1.1484355926513672
0.5439372028438865,1.0412091011080862,2.3176145499968728,2.819652557373047,-3.067380428314209,-0.7124956846237183,0.7384632229804993,-0.5175089836120605,-0.43226882815361023,-0.08050429821014404,1.226264476776123,-1.1388218402862549
0.5513279877861639,1.024489274543584,2.2842119379593666,2.7999284267425537,-3.7269275188446045,-0.9372413158416748,0.7278449535369873,-0.5238189101219177,-0.44255560636520386,-0.0915839672088623,1.3170775175094604,-1.0369212627410889
0.5567204410865393,1.0020390402919133,2.250460899314286,2.5974061489105225,-4.259943962097168,-1.1744139194488525,0.7153365015983582,-0.528404712677002,-0.4572550058364868,-0.07356709241867065,1.331291675567627,-0.8864491581916809
0.5593256327926256,0.9746196117502235,2.2182114945666336,2.2291018962860107,-4.582793712615967,-1.381264567375183,0.7013899683952332,-0.5306147336959839,-0.4759202301502228,-0.01912379264831543,1.3089197874069214,-0.7376722097396851
0.5592108417544741,0.943806590047508,2.188553161925716,1.8785405158996582,-4.660487174987793,-1.5047715902328491,0.6864441633224487,-0.5305173993110657,-0.49733859300613403,0.07738029956817627,1.3208616971969604,-0.6710115671157837
0.5576419157720721,0.912571981538489,2.160571735178274,1.7582862377166748,-4.488492965698242,-1.5833741426467896,0.6712352633476257,-0.5291868448257446,-0.5190418362617493,0.19190865755081177,1.3688626289367676,-0.761536717414856
0.5562683230012658,0.8844343763438952,2.1316682102040074,1.9362435340881348,-4.147242069244385,-1.6899034976959229,0.6569285988807678,-0.5280207991600037,-0.5381810069084167,0.2841572165489197,1.4704341888427734,-0.9474145770072937
0.5564583744082107,0.8621409253058282,2.098682244756047,2.400576591491699,-3.7718424797058105,-1.884176254272461,0.6446923017501831,-0.5281822085380554,-0.5526259541511536,0.3603888750076294,1.6329643726348877,-1.1338974237442017
0.5592032869536906,0.8468977406194074,2.058676593494412,3.081943988800049,-3.499540328979492,-2.15736722946167,0.6351052522659302,-0.5305110216140747,-0.5614261627197266,0.4279745817184448,1.8179409503936768,-1.276327133178711
0.5650424187673384,0.8386611409071915,2.0098659140054327,3.836275339126587,-3.3379170894622803,-2.4587602615356445,0.6281448602676392,-0.5354516506195068,-0.5645577907562256,0.5066817998886108,1.9928491115570068,-1.3301259279251099
0.5735898244521451,0.8368366960046952,1.9520912710257354,4.495002746582031,-3.2327041625976562,-2.7679433822631836,0.6236926317214966,-0.5426508188247681,-0.5626167058944702,0.5793866515159607,2.1190361976623535,-1.2709250450134277
0.5837481952487389,0.8409252938948805,1.8863699795014846,4.994422435760498,-3.1034650802612305,-3.0511314868927,0.6218473315238953,-0.5511553287506104,-0.5563576817512512,0.627923846244812,2.1854021549224854,-1.110802412033081
0.5944072414109607,0.8508100559183674,1.8144851331608463,5.3174147605896,-2.872016429901123,-3.249464750289917,0.6228640079498291,-0.5600177645683289,-0.5462788939476013,0.6918027997016907,2.229161500930786,-0.9097604751586914
0.6048477426641827,0.8664791100218157,1.738421023601883,5.506518840789795,-2.5451982021331787,-3.3459815979003906,0.6268569231033325,-0.5686368346214294,-0.5326374769210815,0.76970374584198,2.2623472213745117,-0.717438817024231
0.6147576684136327,0.8880769882728234,1.6598701538865634,5.6238627433776855,-2.101235866546631,-3.334580421447754,0.63381028175354,-0.5767605900764465,-0.5153948068618774,0.849740743637085,2.2885067462921143,-0.5773327946662903
0.6241514201865224,0.9157182502997057,1.5797571398634458,5.740070819854736,-1.670530915260315,-3.2633190155029297,0.6434875726699829,-0.5844088792800903,-0.49435821175575256,0.9091399908065796,2.3268861770629883,-0.5203664898872375
0.6330299025964581,0.9484808106847725,1.4981195141974362,5.894036293029785,-1.3914082050323486,-3.164069175720215,0.6550939679145813,-0.5915902853012085,-0.469971239566803,0.9604151248931885,2.3882975578308105,-0.5311273336410522
0.6414709901192553,0.984488710238656,1.4145980401208562,6.073271751403809,-1.3677353858947754,-3.0613036155700684,0.6674046516418457,-0.5983746647834778,-0.44330427050590515,1.0134882926940918,2.4492201805114746,-0.5740754008293152
0.6490125837388871,1.0210660910307578,1.3291684844773266,6.200035095214844,-1.5950758457183838,-3.001586675643921,0.6793023943901062,-0.6044000387191772,-0.41623175144195557,1.0299108028411865,2.4790186882019043,-0.5835546255111694
0.6547053401017344,1.0555570847003832,1.2424986870193597,6.198538780212402,-2.0218536853790283,-3.0015673637390137,0.6902464628219604,-0.6089255213737488,-0.3908572494983673,1.050857663154602,2.5021140575408936,-0.533047080039978
0.6576169793275687,1.085014278291794,1.1563835842265964,6.010456085205078,-2.5595080852508545,-3.024170160293579,0.6998881697654724,-0.6112325191497803,-0.369528591632843,1.0856496095657349,2.5167958736419678,-0.423501193523407
0.6573496485211582,1.106976101735303,1.0734245067430903,5.656636714935303,-3.0710370540618896,-3.030470609664917,0.7079804539680481,-0.6110209226608276,-0.3541429936885834,1.1174132823944092,2.4886608123779297,-0.28433048725128174
0.6542026434435345,1.12195236353595,0.9948173064515101,5.225869178771973,-3.4593565464019775,-3.007850408554077,0.714933454990387,-0.6085267066955566,-0.3443334400653839,1.1248950958251953,2.4380249977111816,-0.1768609881401062
0.6487217443841652,1.130740053399457,0.9214440002685137,4.82047176361084,-3.619865655899048,-2.9812963008880615,0.7209384441375732,-0.6041682958602905,-0.3394533395767212,1.1057369709014893,2.3942837715148926,-0.1359189748764038
0.6414469493755295,1.1361811415356577,0.85244628502826,4.550790786743164,-3.5373787879943848,-2.9959022998809814,0.7267419695854187,-0.5983554124832153,-0.33736729621887207,1.0641210079193115,2.383328676223755,-0.16438734531402588
0.6327285573770018,1.141394509712479,0.7856018283482595,4.473965644836426,-3.338841199874878,-3.077702283859253,0.7332063317298889,-0.591347336769104,-0.3357331454753876,1.0065550804138184,2.4106833934783936,-0.27567121386528015
0.6225353654354777,1.1484226221543512,0.7183781714144174,4.587879657745361,-3.1365456581115723,-3.2728986740112305,0.7410074472427368,-0.5830967426300049,-0.3330255448818207,0.9295552968978882,2.458646059036255,-0.42660272121429443
0.6103286297983824,1.1579252995088922,0.6487024008620887,4.792823791503906,-3.010997772216797,-3.5571749210357666,0.7506026029586792,-0.5731368064880371,-0.32880061864852905,0.8729935884475708,2.524278163909912,-0.5770983695983887
0.5955699812326465,1.1689738266909993,0.5760225142386928,4.996933937072754,-3.017606258392334,-3.874513626098633,0.7618921995162964,-0.5609806776046753,-0.32376086711883545,0.8559057116508484,2.592352867126465,-0.6826783418655396
0.5779292912616948,1.1802233332998642,0.5008447614691719,5.158511638641357,-3.023355007171631,-4.181276798248291,0.774517297744751,-0.5462906956672668,-0.3188880383968353,0.8413732647895813,2.640803813934326,-0.7398430109024048
0.5575155018436357,1.1923381509925244,0.423651121810423,5.361109256744385,-2.7948405742645264,-4.450358867645264,0.7885233163833618,-0.5290795564651489,-0.3135373890399933,0.8449605107307434,2.679119348526001,-0.7911226749420166
0.5351381608591368,1.2089046957807146,0.3434718507841728,5.792730331420898,-2.1497881412506104,-4.639378070831299,0.804482102394104,-0.509959876537323,-0.3045479953289032,0.8889535665512085,2.7196614742279053,-0.8922904133796692
0.512146823544092,1.2348409819763086,0.25789571255884086,6.563743591308594,-1.1832339763641357,-4.710518836975098,0.8229629993438721,-0.4900497496128082,-0.2873725891113281,1.014439344406128,2.7561020851135254,-1.0491142272949219
0.48967351177254004,1.2732701871180954,0.16423914117144622,7.62533712387085,-0.1237592101097107,-4.636717319488525,0.8437141180038452,-0.47033777832984924,-0.25870615243911743,1.1829277276992798,2.761063575744629,-1.2042913436889648
0.4681590726321291,1.3234307852164011,0.06138643050940898,8.717103958129883,0.6040262579917908,-4.360522270202637,0.8652365207672119,-0.45124420523643494,-0.21850474178791046,1.4402596950531006,2.784374237060547,-1.261170506477356
0.44786159435000095,1.3782789531684234,-0.047506536323068456,9.311060905456543,0.6514312624931335,-3.797212600708008,0.8847229480743408,-0.43303900957107544,-0.17246045172214508,1.6981170177459717,2.7994637489318848,-1.0914250612258911
0.4291918466985105,1.4285149591561228,-0.15506391376735731,9.123262405395508,0.22946561872959137,-3.0991973876953125,0.9001139402389526,-0.41613608598709106,-0.12894071638584137,1.8034535646438599,2.714704751968384,-0.6766776442527771
0.4120742254649028,1.4684329548848778,-0.2548998269279083,8.474397659301758,-0.4181750416755676,-2.516195774078369,0.9114956855773926,-0.4005107879638672,-0.09363102912902832,1.7337374687194824,2.596036911010742,-0.3127257823944092
0.3961600167672585,1.4966307708818787,-0.34579931381103546,7.878291606903076,-1.0557267665863037,-2.133603811264038,0.9200136065483093,-0.38587862253189087,-0.06835870444774628,1.6304168701171875,2.5529470443725586,-0.2119300365447998
0.3808481893731513,1.516566195114532,-0.43097149793443024,7.67359733581543,-1.3488950729370117,-1.9294958114624023,0.9269849061965942,-0.3717080056667328,-0.050319854170084,1.5375689268112183,2.5593912601470947,-0.3675574064254761
0.36564381135038776,1.5339839620693718,-0.515636177326364,7.94281530380249,-1.2832320928573608,-1.8204638957977295,0.9332608580589294,-0.35755062103271484,-0.034371066838502884,1.4597595930099487,2.6139440536499023,-0.6322091817855835
0.35026628466738396,1.5542112203038756,-0.6042910496268163,8.555315017700195,-0.820404052734375,-1.6806763410568237,0.939152181148529,-0.3431479334831238,-0.015577367506921291,1.3770709037780762,2.6536033153533936,-0.8413410186767578
0.3347422042553593,1.581443702605199,-0.6994050356433336,9.29738998413086,-0.10397964715957642,-1.4676028490066528,0.9444414973258972,-0.32852569222450256,0.010056204162538052,1.3642284870147705,2.6837198734283447,-0.9145362377166748
0.31857539346473,1.616319336405643,-0.8009697286969287,9.940704345703125,0.5477945804595947,-1.2167649269104004,0.9486987590789795,-0.31321394443511963,0.043217480182647705,1.361100435256958,2.761852979660034,-0.8349350690841675
0.3012959681786723,1.6563858878456954,-0.9065931640301358,10.24803352355957,0.9921278357505798,-0.9008734822273254,0.9514570236206055,-0.2967580556869507,0.08163422346115112,1.360051155090332,2.7803549766540527,-0.6331479549407959
0.28340611363599316,1.6973401948222298,-1.0120081417836775,10.086104393005371,1.0840277671813965,-0.5080302357673645,0.9524316191673279,-0.2796275019645691,0.12117186188697815,1.405677080154419,2.7465617656707764,-0.3263874053955078
0.26625996607696617,1.734446010986109,-1.1129169033971502,9.534709930419922,0.8406510949134827,-0.0704350695014,0.9518718123435974,-0.2631250321865082,0.15717917680740356,1.4510974884033203,2.673891544342041,-0.01086270809173584
0.25153308065178037,1.7638195463122062,-1.2063992656306746,8.735723495483398,0.3582001030445099,0.3532017469406128,0.9505452513694763,-0.24888908863067627,0.18579044938087463,1.4862223863601685,2.557727098464966,0.2184910774230957
0.23997796364732896,1.785297289674902,-1.2915770364020456,7.873910903930664,-0.17424380779266357,0.7089515924453735,0.9490827322006226,-0.23768122494220734,0.2067599892616272,1.4788042306900024,2.451685667037964,0.3554805517196655
0.2316048191753988,1.7990803561725788,-1.3688081985051357,7.117369651794434,-0.6452597379684448,0.9420245885848999,0.9480480551719666,-0.22953978180885315,0.22026382386684418,1.4161028861999512,2.374696731567383,0.3661618232727051
0.22601291866988585,1.8071011782755253,-1.4394467083510731,6.516690254211426,-0.9115276336669922,1.133233904838562,0.9474840760231018,-0.22409363090991974,0.22815775871276855,1.3194684982299805,2.284411668777466,0.3065711259841919
0.22303602076562232,1.81210773778553,-1.505768361975182,6.19114875793457,-1.017790675163269,1.3424938917160034,0.9469736814498901,-0.22119145095348358,0.2330569475889206,1.2660391330718994,2.19952392578125,0.19873622059822083
0.22240091526319336,1.8155653974288428,-1.5707014833043134,6.109095573425293,-1.154219627380371,1.579745888710022,0.9462980031967163,-0.22057203948497772,0.23636378347873688,1.2920594215393066,2.145437717437744,0.06664523482322693
0.22440496523551498,1.817498429299388,-1.6355256953445605,5.996885299682617,-1.311781406402588,1.8834178447723389,0.9454090595245361,-0.22252628207206726,0.23808421194553375,1.319758415222168,2.1340253353118896,0.06259030103683472
0.22994790421769715,1.8180143026671,-1.6992384767440034,5.712630271911621,-1.4379825592041016,2.210442304611206,0.9440755248069763,-0.2279268056154251,0.23826636373996735,1.265732765197754,2.073599338531494,0.1862940788269043
0.23910675154046568,1.8170306489022816,-1.7604507590872256,5.351978302001953,-1.594448208808899,2.4437670707702637,0.9422452449798584,-0.23683488368988037,0.23681879043579102,1.1593782901763916,2.0197174549102783,0.31065118312835693
0.25082862789215565,1.8143687557789494,-1.8186749888797316,5.015478134155273,-1.7388533353805542,2.542872667312622,0.940113365650177,-0.2482067346572876,0.2336241900920868,1.0322835445404053,2.008765697479248,0.3675415515899658
0.26395208854773616,1.810765181629549,-1.8742628263505663,4.783422470092773,-1.7829201221466064,2.5508108139038086,0.93770432472229,-0.26089778542518616,0.22944095730781555,0.911249041557312,2.011569023132324,0.3752647936344147
0.27734263971538314,1.8076509978037552,-1.9284067445438917,4.716665267944336,-1.708661437034607,2.4963650703430176,0.9349339604377747,-0.2738008201122284,0.22567956149578094,0.797121524810791,2.014340400695801,0.33654576539993286
0.29028054674663134,1.8065783348567996,-1.9827376794385427,4.805581092834473,-1.5251399278640747,2.4450674057006836,0.9316529631614685,-0.28622105717658997,0.22383028268814087,0.6974973082542419,2.011669635772705,0.29344260692596436
0.30220064012303477,1.8086899547054114,-2.038599590063161,5.003804683685303,-1.3061537742614746,2.3548030853271484,0.9277967810630798,-0.29762184619903564,0.22497710585594177,0.5950304865837097,2.0170278549194336,0.2914260923862457
0.31226324406238043,1.8140043832468804,-2.0967289583092064,5.245572566986084,-1.1476455926895142,2.2241461277008057,0.9236343502998352,-0.3072132170200348,0.2291717380285263,0.47919774055480957,2.039391040802002,0.34497058391571045
0.320129278690605,1.821939526468504,-2.1569441033486285,5.420001983642578,-0.9970163702964783,2.0819242000579834,0.9194175601005554,-0.3146892786026001,0.23588578402996063,0.3534553647041321,2.0504984855651855,0.4950253963470459
0.3257620896763915,1.832081824492122,-2.2178317545729214,5.3992838859558105,-0.8430720567703247,1.9141521453857422,0.9152508974075317,-0.32003089785575867,0.2447367012500763,0.19444453716278076,2.0191123485565186,0.7471150159835815
0.3294568390912855,1.842775128413354,-2.276511062328312,5.042651176452637,-0.8054280281066895,1.7124578952789307,0.9114362597465515,-0.32352912425994873,0.2541901767253876,0.034852683544158936,1.9556397199630737,1.0843565464019775
0.3321102946080248,1.8514295826602942,-2.329394953004688,4.3794684410095215,-0.9140517115592957,1.5179765224456787,0.9083743095397949,-0.32603874802589417,0.2618298828601837,-0.08488798141479492,1.8655284643173218,1.4419512748718262
0.33462198879740845,1.8557594000032966,-2.3741988199009243,3.5756959915161133,-1.1553833484649658,1.310093641281128,0.9064433574676514,-0.32841214537620544,0.26552942395210266,-0.17760729789733887,1.7660951614379883,1.7224923372268677
0.3372261221584265,1.8544772317599876,-2.4097629965401888,2.693025827407837,-1.4302566051483154,1.0637503862380981,0.9059589505195618,-0.33087071776390076,0.2641267478466034,-0.28066903352737427,1.6709433794021606,1.9234952926635742
0.3400182959132268,1.8475622350530476,-2.435463766589301,1.8038347959518433,-1.6250087022781372,0.8065404295921326,0.9068714380264282,-0.3335043489933014,0.257602334022522,-0.3858906626701355,1.585945725440979,2.078289270401001
0.34260168885983644,1.8366562327818172,-2.4515812859618134,0.9914509057998657,-1.5908361673355103,0.497049480676651,0.9087924957275391,-0.3359387218952179,0.24746964871883392,-0.4775334596633911,1.520859956741333,2.1670353412628174
0.34405282507252716,1.824672482538331,-2.4590716905764514,0.3118891417980194,-1.2656000852584839,0.1473601907491684,0.9112200140953064,-0.3373051583766937,0.23643873631954193,-0.5296893119812012,1.4609928131103516,2.168285369873047
0.3439769134860394,1.8146840890439098,-2.4594315872766783,-0.23051145672798157,-0.7407874464988708,-0.12503765523433685,0.9135609865188599,-0.33723369240760803,0.22733163833618164,-0.47628992795944214,1.3894797563552856,2.076577663421631
0.3430303185906462,1.8079940583372784,-2.454166484368719,-0.670602023601532,-0.25137221813201904,-0.2807505428791046,0.9153713583946228,-0.33634239435195923,0.22128978371620178,-0.3058894872665405,1.334251880645752,1.9438560009002686
0.34176949867988277,1.804290436650425,-2.4446372896193838,-1.0004937648773193,0.1403152495622635,-0.3748176097869873,0.9165965914726257,-0.33515477180480957,0.21799606084823608,-0.14282333850860596,1.304606556892395,1.7812714576721191
0.3404811717710844,1.802912902100801,-2.431840860644622,-1.278295874595642,0.4262638986110687,-0.4273207485675812,0.9173153042793274,-0.33394068479537964,0.21683230996131897,-0.020602047443389893,1.2737904787063599,1.6138865947723389
0.33934863394285614,1.8028952548147086,-2.4161102005517385,-1.5485751628875732,0.6036860942840576,-0.47219792008399963,0.9176864624023438,-0.3328729569911957,0.2169029414653778,0.0656050443649292,1.261400818824768,1.4961097240447998
0.33840727558562994,1.8032515257210517,-2.3974112865350534,-1.8315138816833496,0.7001484632492065,-0.5155278444290161,0.9179136157035828,-0.33198511600494385,0.21730196475982666,0.1386810541152954,1.2641445398330688,1.4069502353668213
0.3379806720492134,1.8032998762426944,-2.375564073456487,-2.152592897415161,0.7454786896705627,-0.5021136999130249,0.918040931224823,-0.3315826952457428,0.21737898886203766,0.22372835874557495,1.256585717201233,1.333448052406311
0.33873834327074714,1.802351050843592,-2.3502364000080616,-2.522205352783203,0.7396120429039001,-0.4438149929046631,0.918002188205719,-0.3322973847389221,0.21645015478134155,0.31196314096450806,1.2459173202514648,1.2764086723327637
0.34081043639759645,1.8001083527388737,-2.3209984820777,-2.925185203552246,0.7618589997291565,-0.41417044401168823,0.9178125262260437,-0.3342510163784027,0.21423377096652985,0.3574711084365845,1.268088936805725,1.2200008630752563
0.34378425498782217,1.796675801949871,-2.287571439149206,-3.3188724517822266,0.7844442129135132,-0.42421719431877136,0.9175698161125183,-0.3370523154735565,0.210858553647995,0.3683951497077942,1.3101816177368164,1.1406886577606201
0.3472162921700846,1.7918654984264508,-2.2501676716796246,-3.669719696044922,0.7859165668487549,-0.4673945903778076,0.9174395203590393,-0.34028154611587524,0.20618750154972076,0.3691205382347107,1.358271598815918,1.044102430343628
0.35064927081604325,1.7859416092629554,-2.2091585942456478,-3.97599458694458,0.8342031240463257,-0.5237351059913635,0.9174981713294983,-0.34350764751434326,0.20049850642681122,0.3773016333580017,1.4062517881393433,0.9414997100830078
0.354043843472171,1.7794816585967044,-2.1647976697950098,-4.285351276397705,0.9353929758071899,-0.5556749105453491,0.9176281690597534,-0.34669366478919983,0.19432468712329865,0.4038592576980591,1.4489275217056274,0.8524281978607178
0.3576535429294713,1.7728693937935602,-2.116947148232613,-4.615687847137451,1.0716608762741089,-0.5607567429542542,0.9176611304283142,-0.35007721185684204,0.18800050020217896,0.43817394971847534,1.4875283241271973,0.7831603288650513
0.3615374215327561,1.766369297776052,-2.065701107330419,-4.906337261199951,1.2306787967681885,-0.5658711194992065,0.9175230860710144,-0.35371267795562744,0.1817660927772522,0.46710532903671265,1.5339035987854004,0.6838496923446655
0.36549753518932526,1.7604560094679862,-2.011710547513867,-5.104846477508545,1.422359585762024,-0.5837063193321228,0.9171990156173706,-0.35741400718688965,0.176071897149086,0.5065375566482544,1.5903851985931396,0.5376427173614502
0.36901507752404283,1.7558501980366177,-1.9562273968950217,-5.148380279541016,1.6316114664077759,-0.6520388126373291,0.9167585968971252,-0.3606970012187958,0.1716131716966629,0.5632979869842529,1.6703741550445557,0.36419913172721863
0.3713733211501738,1.7533409665431388,-1.900927946304218,-5.0306477546691895,1.8615660667419434,-0.7622601389884949,0.916347324848175,-0.36289548873901367,0.16915740072727203,0.6324959397315979,1.7519640922546387,0.19195698201656342
0.37234279691525635,1.7536686294172774,-1.8468593025560047,-4.886466979980469,2.121509313583374,-0.8635378479957581,0.9159457087516785,-0.36379867792129517,0.1693936288356781,0.7150663733482361,1.793501377105713,0.0808657556772232
0.37252380968987436,1.7568638945596884,-1.793720622258741,-4.841972827911377,2.363966226577759,-0.8998391628265381,0.9153351187705994,-0.36396729946136475,0.17230728268623352,0.8131043314933777,1.8001701831817627,0.06815589964389801
0.3729260981452209,1.7619894430872012,-1.7400779099442258,-4.981034278869629,2.5406439304351807,-0.8836954832077026,0.91429603099823,-0.36434197425842285,0.1769687384366989,0.9038345217704773,1.8022081851959229,0.12242390215396881
0.3743631975862573,1.767524439966709,-1.6840601234039785,-5.291919708251953,2.621063709259033,-0.8357471227645874,0.9127880930900574,-0.36567991971969604,0.18192408978939056,0.9647602438926697,1.8055297136306763,0.17731358110904694
0.3772850102149059,1.7719330154468966,-1.624438808816776,-5.666362762451172,2.613290786743164,-0.7804661393165588,0.910926103591919,-0.3683978021144867,0.18573209643363953,1.011223316192627,1.835988163948059,0.1847207248210907
0.3815204462330314,1.7745577347898012,-1.5609820964006795,-6.006962776184082,2.596667528152466,-0.7583586573600769,0.9088994860649109,-0.37233203649520874,0.18780501186847687,1.0433404445648193,1.910509467124939,0.12559521198272705
0.38636850495870906,1.775783753100923,-1.4943149677241128,-6.2394118309021,2.6362528800964355,-0.8018132448196411,0.9068905711174011,-0.3768271207809448,0.18854953348636627,1.049743890762329,1.9976767301559448,0.005740642547607422
0.39084772274103385,1.7768036491134078,-1.425893061789388,-6.270140171051025,2.742466926574707,-0.9101160168647766,0.9050366282463074,-0.38097235560417175,0.18912723660469055,1.062798023223877,2.0917420387268066,-0.15888437628746033
0.3937790053358956,1.7791227296319068,-1.3581931005724242,-6.021856307983398,2.8810646533966064,-1.0775229930877686,0.9034988880157471,-0.38368093967437744,0.19099374115467072,1.097843885421753,2.1610703468322754,-0.37841761112213135
0.394806428207689,1.7842332513660344,-1.2938105605203705,-5.601315498352051,3.0715830326080322,-1.1821556091308594,0.9021251797676086,-0.3846295177936554,0.19552494585514069,1.179814338684082,2.1723339557647705,-0.5628193616867065
0.39503305099245406,1.7930011903257432,-1.2337162402032815,-5.223109245300293,3.2811238765716553,-1.1433053016662598,0.900291383266449,-0.38483870029449463,0.20340794324874878,1.3006365299224854,2.12589693069458,-0.620873212814331
0.39599559945224205,1.804790364703728,-1.1767283846773458,-5.070393085479736,3.42988657951355,-1.034219741821289,0.8974698781967163,-0.3857269287109375,0.2139212191104889,1.3786072731018066,2.0638275146484375,-0.5433127880096436
0.39856063098937417,1.817609823608326,-1.120306764694272,-5.1539692878723145,3.459937572479248,-0.9443178772926331,0.8936915397644043,-0.38809219002723694,0.2251659482717514,1.3839879035949707,2.021423578262329,-0.4146190881729126
0.4027600789360737,1.829320261522043,-1.062185154444175,-5.399332046508789,3.379134178161621,-0.9211587905883789,0.8894100785255432,-0.3919590711593628,0.2351970672607422,1.3458651304244995,2.0068883895874023,-0.3108196258544922
0.40813007932915485,1.8384842545569993,-1.0011729367671265,-5.670940399169922,3.2410292625427246,-0.957074761390686,0.8851748108863831,-0.3968936800956726,0.24277739226818085,1.3052701950073242,2.0233891010284424,-0.2699381113052368
0.41401618056368417,1.844860492710329,-0.9373420480164935,-5.8722639083862305,3.1185801029205322,-1.0342614650726318,0.8813445568084717,-0.40228942036628723,0.24777992069721222,1.3114960193634033,2.0809240341186523,-0.29116082191467285
0.4199586598934074,1.8492209655260785,-0.8715116972912758,-5.9923319816589355,3.073740005493164,-1.0894843339920044,0.8779417872428894,-0.40772271156311035,0.250959187746048,1.3539459705352783,2.124595880508423,-0.34594523906707764
0.42631819178089136,1.8523673735804511,-0.8041989576757146,-6.133434295654297,3.0605359077453613,-1.0611838102340698,0.8746392726898193,-0.41352134943008423,0.25299471616744995,1.4337713718414307,2.1468892097473145,-0.3708384037017822
0.4341172855683291,1.8538391111714305,-0.7346926860685784,-6.418166160583496,2.999019145965576,-0.9455039501190186,0.8711426258087158,-0.4206097424030304,0.25337323546409607,1.5330779552459717,2.1580212116241455,-0.34143173694610596
0.44434266690653784,1.8520899428709956,-0.6614157730189325,-6.8637871742248535,2.8498291969299316,-0.7765463590621948,0.8674072623252869,-0.42986446619033813,0.2506420314311981,1.5927979946136475,2.1773619651794434,-0.2991497218608856
0.4574965728489646,1.8456620247192486,-0.583065002131985,-7.379719257354736,2.676665782928467,-0.5630382895469666,0.8634832501411438,-0.44170352816581726,0.24350541830062866,1.605938196182251,2.2084271907806396,-0.28728291392326355
0.4734808998110099,1.8341245553913068,-0.4993867822044108,-7.825656414031982,2.518383502960205,-0.3289935886859894,0.8593076467514038,-0.45598700642585754,0.2316594421863556,1.6028199195861816,2.26271915435791,-0.3360905647277832
0.4916067294888325,1.8182558649660001,-0.4113108572750386,-8.112810134887695,2.4821372032165527,-0.1092897281050682,0.8547207117080688,-0.4720429480075836,0.21593457460403442,1.6029512882232666,2.3585939407348633,-0.4400099813938141
0.510635443467759,1.7999706172556122,-0.32055591038909714,-8.176824569702148,2.572533130645752,0.038233682513237,0.8496235609054565,-0.4887317419052124,0.19819384813308716,1.593766212463379,2.467949390411377,-0.5800603628158569
0.5292614395207322,1.7812519069959207,-0.2291237403377594,-8.048591613769531,2.766082525253296,0.13143153488636017,0.8441349267959595,-0.5048959851264954,0.18032306432724,1.563305377960205,2.534879446029663,-0.7295022010803223
0.5467851800517048,1.7641240737863255,-0.138897232495966,-7.7699480056762695,3.036566734313965,0.18955102562904358,0.8382868766784668,-0.5199438333511353,0.1641138345003128,1.5441288948059082,2.5742347240448,-0.8545435667037964
0.5628654472436211,1.749594035147785,-0.05114170102851481,-7.441118240356445,3.2743120193481445,0.20625539124011993,0.8322471976280212,-0.5336117744445801,0.15041013062000275,1.525281548500061,2.6074795722961426,-0.9508252143859863
0.5773590874374473,1.7373086907225816,0.0342040572944401,-7.177349090576172,3.4550068378448486,0.18174977600574493,0.8263177275657654,-0.5458130240440369,0.1388780176639557,1.4650030136108398,2.6197876930236816,-0.9837418794631958
0.590367920225308,1.7266016655110528,0.11793272482321505,-6.99500036239624,3.611926555633545,0.14056111872196198,0.8206731081008911,-0.5566667318344116,0.12891004979610443,1.3963831663131714,2.6191210746765137,-0.9710426330566406
0.6018369027657875,1.7172793367140193,0.2006550089744888,-6.839493274688721,3.7915687561035156,0.06649833917617798,0.8154692649841309,-0.5661575794219971,0.12031416594982147,1.3358979225158691,2.6155807971954346,-0.9550766944885254
0.6116732201376779,1.7096375294277828,0.2822542670706741,-6.668397426605225,3.9556233882904053,-0.027135100215673447,0.8108102083206177,-0.574238121509552,0.11330284178256989,1.3104819059371948,2.6169779300689697,-0.9729982614517212
0.619766182615165,1.703508404792157,0.36270387484416333,-6.53128719329834,4.084102630615234,-0.1421586275100708,0.8068564534187317,-0.5808448195457458,0.10771270096302032,1.299588918685913,2.6019935607910156,-0.9885263442993164
0.6263838140573461,1.6986677058999953,0.44223937841376854,-6.407495498657227,4.197688579559326,-0.21532787382602692,0.8035383820533752,-0.5862189531326294,0.10331327468156815,1.300541877746582,2.550177574157715,-0.9936940670013428
0.6320368162183204,1.695030807719709,0.5204786594472784,-6.239194393157959,4.238455295562744,-0.24984590709209442,0.8006075620651245,-0.5907893180847168,0.09997795522212982,1.2926695346832275,2.463653087615967,-1.0278191566467285
0.6368583884527967,1.692101437653943,0.5967264956722294,-6.0241804122924805,4.17207145690918,-0.29936814308166504,0.7980599999427795,-0.5946726202964783,0.0972864106297493,1.2657980918884277,2.3941874504089355,-1.086345911026001
0.6405735644350538,1.6895525077948563,0.6701070270032571,-5.707042217254639,4.032774925231934,-0.3728964328765869,0.7961060404777527,-0.5976554155349731,0.09498947858810425,1.2361814975738525,2.336074113845825,-1.1688268184661865
0.6429407153482564,1.6882507623081686,0.7387639562091846,-5.214405536651611,3.907721519470215,-0.4545137882232666,0.7948218584060669,-0.5995516180992126,0.09378702938556671,1.2098472118377686,2.2574191093444824,-1.2704684734344482
0.6436848466867758,1.689837918587701,0.8008112783763279,-4.637790679931641,3.8266913890838623,-0.5604828596115112,0.7942286729812622,-0.600147008895874,0.0949953943490982,1.1873080730438232,2.1910743713378906,-1.356836199760437
0.6431423832789634,1.6948322989113926,0.8560638850468658,-4.118485450744629,3.77978253364563,-0.6029751896858215,0.7940673232078552,-0.5997129678726196,0.09900113940238953,1.1398162841796875,2.0617644786834717,-1.331453561782837
