attitudeX,attitudeY,attitudeZ,gyroX,gyroY,gyroZ,gravityX,gravityY,gravityZ,accX,accY,accZ
0.3795790862902978,0.2148222144663132,-1.2095336394798133,0.46941837668418884,-0.4337163269519806,-0.6490064263343811,0.19800017774105072,-0.37052956223487854,-0.9074711203575134,0.0385720431804657,0.04769936203956604,0.05801427364349365
0.38235967188486053,0.21327503734366435,-1.2170260640545065,0.3653125464916229,-0.41704145073890686,-0.5870259404182434,0.19637708365917206,-0.3731107711791992,-0.906765878200531,0.04008832573890686,0.05449199676513672,0.100186288356781
0.3841816118511899,0.21181028792772785,-1.223696275368248,0.2433757185935974,-0.3745027780532837,-0.5485051870346069,0.19490545988082886,-0.37480053305625916,-0.9063864350318909,0.021860837936401367,0.06538283824920654,0.11967378854751587
0.3845581541255583,0.2103194444125423,-1.2297341452243211,0.057870037853717804,-0.3823274075984955,-0.525640070438385,0.19352447986602783,-0.37514960765838623,-0.9065379500389099,0.0018032193183898926,0.06081855297088623,0.1721476912498474
0.38295918162981285,0.20825516152138915,-1.2350576322889857,-0.16930904984474182,-0.42984431982040405,-0.5032528042793274,0.19177649915218353,-0.3736669421195984,-0.9075212478637695,-0.0022623836994171143,0.04610651731491089,0.24808216094970703
0.37917673212324926,0.2052998120198777,-1.2396288575711216,-0.3958645761013031,-0.5008674263954163,-0.47931593656539917,0.18938039243221283,-0.37015581130981445,-0.909461259841919,-0.001575276255607605,0.04110002517700195,0.32060933113098145
0.37330221365151695,0.20122127431430178,-1.2435058653250697,-0.6043282747268677,-0.5946176052093506,-0.4577547311782837,0.18610095977783203,-0.36469221115112305,-0.9123409390449524,0.0004224032163619995,0.04030561447143555,0.3673885464668274
0.36552407570250406,0.1958311206030781,-1.2466863522201723,-0.7975499629974365,-0.7111535668373108,-0.42589497566223145,0.1817270964384079,-0.3574388027191162,-0.9160855412483215,0.005940690636634827,0.04382491111755371,0.39768344163894653
0.3560427370651016,0.18896773607643322,-1.24904913651556,-0.9706264138221741,-0.8159263134002686,-0.36662232875823975,0.1760641187429428,-0.3485679030418396,-0.9205986261367798,0.01457911729812622,0.0598410964012146,0.4209343194961548
0.3451797875858044,0.18090274931534978,-1.2503684167925875,-1.107627272605896,-0.8765467405319214,-0.27578821778297424,0.16930516064167023,-0.3383658528327942,-0.9256588220596313,0.02146017551422119,0.08171305060386658,0.43037378787994385
0.3333976139574549,0.1718796578554065,-1.2505658538959346,-1.192152738571167,-0.936582624912262,-0.17231321334838867,0.1616167426109314,-0.3272554278373718,-0.9310123324394226,0.017521366477012634,0.10687276721000671,0.4246799349784851
0.3212684730834043,0.16182610277151252,-1.2498121661544785,-1.2071292400360107,-1.0270346403121948,-0.09410156309604645,0.152877077460289,-0.31577038764953613,-0.936438798904419,-0.006194412708282471,0.12738540768623352,0.4158852696418762
0.30941712450298253,0.15041030993220533,-1.2486614844449269,-1.1515711545944214,-1.1814329624176025,-0.06788753718137741,0.14272792637348175,-0.30450350046157837,-0.941757082939148,-0.05096161365509033,0.13394078612327576,0.41268908977508545
0.29838238924610494,0.13760474030729847,-1.247831687484236,-1.0447592735290527,-1.3189159631729126,-0.0974244475364685,0.13110975921154022,-0.29397445917129517,-0.9467783570289612,-0.1087251752614975,0.12885910272598267,0.4092112183570862
0.2884101728017866,0.12400470510346635,-1.247798867470908,-0.9286185503005981,-1.378419280052185,-0.16110461950302124,0.11857853084802628,-0.2844284176826477,-0.9513356685638428,-0.17485301196575165,0.11618503928184509,0.42002469301223755
0.279370009533702,0.11059181404200401,-1.2488887827626194,-0.848088800907135,-1.3442294597625732,-0.2670147716999054,0.10608753561973572,-0.27575013041496277,-0.9553571343421936,-0.2395104467868805,0.11435794830322266,0.4681745171546936
0.2706532025549221,0.09802507988575077,-1.251441267090646,-0.8501650094985962,-1.2880234718322754,-0.40967151522636414,0.09430541843175888,-0.2673609256744385,-0.9589706063270569,-0.29834601283073425,0.11640572547912598,0.5401473641395569
0.2614338189238891,0.08629541566647393,-1.255643855753823,-0.9165785908699036,-1.2730438709259033,-0.562157928943634,0.0832597017288208,-0.2584659159183502,-0.962425708770752,-0.3192979693412781,0.12133517861366272,0.608574390411377
0.25116884194059547,0.07486969982361735,-1.2612241446709553,-1.049174427986145,-1.2806859016418457,-0.6660524010658264,0.07245274633169174,-0.24853628873825073,-0.9659090638160706,-0.3130228817462921,0.12426872551441193,0.6677828431129456
0.23912732241116544,0.06369750680889069,-1.267489663429197,-1.2700949907302856,-1.2422071695327759,-0.6967345476150513,0.061843156814575195,-0.23685486614704132,-0.9695747494697571,-0.30247431993484497,0.14331850409507751,0.7312172055244446
0.22459627150993003,0.053005813720197276,-1.273610098459466,-1.5589505434036255,-1.1731854677200317,-0.6545165181159973,0.05165033042430878,-0.22271278500556946,-0.9735149145126343,-0.29362428188323975,0.17853862047195435,0.7750591039657593
0.20714836617590154,0.04269305514768692,-1.2793046052506807,-1.8579075336456299,-1.128336787223816,-0.6229588985443115,0.04176764562726021,-0.2056700736284256,-0.9777296781539917,-0.3105970621109009,0.2258574664592743,0.7975844144821167
0.18690249924736438,0.032551023532241534,-1.2848374564428087,-2.1267025470733643,-1.1106188297271729,-0.611632227897644,0.031978484243154526,-0.18581622838974,-0.9820640087127686,-0.3437308669090271,0.281732976436615,0.7884604930877686
0.16440666129483186,0.02233348825172905,-1.2904102021417294,-2.316037654876709,-1.1282384395599365,-0.6038143634796143,0.022030504420399666,-0.16366702318191528,-0.9862695932388306,-0.3635527789592743,0.3291028141975403,0.7565333247184753
0.14053403235241207,0.011398123971390537,-1.2961256828659529,-2.4134726524353027,-1.237218976020813,-0.6068631410598755,0.0112855089828372,-0.14007189869880676,-0.990077018737793,-0.38027361035346985,0.35180285573005676,0.7073163986206055
0.11620791562565035,-0.0011059340392930745,-1.3022170078147517,-2.4255619049072266,-1.4188865423202515,-0.6242663860321045,-0.0010984748369082808,-0.11594653874635696,-0.9932548403739929,-0.4144594371318817,0.35969045758247375,0.6384117603302002
0.09188117521159297,-0.015836430843036896,-1.3088037584840793,-2.436509609222412,-1.6606872081756592,-0.6377850770950317,-0.015768971294164658,-0.09175194799900055,-0.9956570267677307,-0.4709559381008148,0.37985315918922424,0.597204327583313
0.06746253020910527,-0.03317514821551788,-1.3158303926085508,-2.4695658683776855,-1.8993487358093262,-0.6415109634399414,-0.033093612641096115,-0.06741137057542801,-0.9971762895584106,-0.5301846265792847,0.4403056502342224,0.5809317827224731
0.04266217135161667,-0.052658444460465845,-1.3234997378980857,-2.545220136642456,-2.0551652908325195,-0.6766076683998108,-0.05258622020483017,-0.04264923185110092,-0.9977052211761475,-0.5844377875328064,0.5128335952758789,0.5704744458198547
0.017004274514548504,-0.07354484818883873,-1.3323309507525045,-2.6764752864837646,-2.1600468158721924,-0.7630115747451782,-0.07346794754266739,-0.017003454267978668,-0.9971526265144348,-0.6232178807258606,0.573506772518158,0.5823729634284973
-0.009856946937821763,-0.09551482407331176,-1.342916269872613,-2.843975067138672,-2.2208237648010254,-0.8899855017662048,-0.0953650251030922,0.009856787510216236,-0.9953935742378235,-0.6494928002357483,0.6155399680137634,0.5932634472846985
-0.03826951603273446,-0.11820645498985792,-1.355500158759529,-3.061002731323242,-2.2373318672180176,-0.9945310354232788,-0.11784502118825912,0.03826017677783966,-0.9922946691513062,-0.6646257638931274,0.649041473865509,0.6101230382919312
-0.06868449274092359,-0.14143915373734242,-1.369986263291763,-3.332371473312378,-2.241997241973877,-1.0748711824417114,-0.1406356543302536,0.06863050162792206,-0.9876798391342163,-0.659382700920105,0.6902195811271667,0.6345762014389038
-0.1015868074514212,-0.16539028409650017,-1.3864036102370243,-3.6560163497924805,-2.2566158771514893,-1.1456449031829834,-0.16378851234912872,0.10141216963529587,-0.9812690019607544,-0.6628411412239075,0.726209282875061,0.6539832949638367
-0.1373982938831972,-0.19040782198391668,-1.4050203110950106,-4.024040222167969,-2.2884035110473633,-1.219204068183899,-0.18747572600841522,0.13696639239788055,-0.9726731777191162,-0.6796355247497559,0.7680781483650208,0.6608750820159912
-0.1761414326723849,-0.2169175044962342,-1.426152274545803,-4.37290096282959,-2.3488292694091797,-1.2928411960601807,-0.2118903249502182,0.17523202300071716,-0.9614552855491638,-0.7054528594017029,0.806747317314148,0.6366109251976013
-0.21705677987419555,-0.24580626757332066,-1.450007471658027,-4.623633861541748,-2.49150013923645,-1.3820445537567139,-0.23762862384319305,0.21535639464855194,-0.947182297706604,-0.760891318321228,0.8434509634971619,0.5598074197769165
-0.25882288053708513,-0.2781740562715157,-1.476863189809078,-4.751163959503174,-2.6975929737091064,-1.4835759401321411,-0.26545393466949463,0.25594282150268555,-0.9295307993888855,-0.8268465399742126,0.877525806427002,0.447887122631073
-0.3001882821179281,-0.3142179607368334,-1.5066012191624785,-4.794233322143555,-2.835707426071167,-1.5552301406860352,-0.29525133967399597,0.2957000732421875,-0.9085087180137634,-0.8866335153579712,0.9120025634765625,0.3176884651184082
-0.3404866108485074,-0.3529902023346533,-1.5389797520914787,-4.801096439361572,-2.8437893390655518,-1.6055912971496582,-0.32585904002189636,0.3339458107948303,-0.88447505235672,-0.9713364839553833,0.9270557165145874,0.18711787462234497
-0.37931444534941156,-0.39359886505127867,-1.574185041798697,-4.796999931335449,-2.7717089653015137,-1.695339322090149,-0.35625386238098145,0.37028372287750244,-0.8578887581825256,-1.0948569774627686,0.9335340261459351,0.07489931583404541
-0.41602719436712626,-0.4358852897218234,-1.612756268903117,-4.754410743713379,-2.6764392852783203,-1.855290412902832,-0.386199027299881,0.4041297137737274,-0.8291739821434021,-1.262925148010254,0.9292747974395752,-0.038715362548828125
-0.44984557815432563,-0.4801881034455376,-1.6552409553013898,-4.694926738739014,-2.6056926250457764,-2.0623369216918945,-0.4159889817237854,0.43482649326324463,-0.7986733317375183,-1.4200706481933594,0.9046052694320679,-0.14067292213439941
-0.48051439659519585,-0.5271938041715897,-1.7018007946564744,-4.67079496383667,-2.603560447692871,-2.2523584365844727,-0.44613659381866455,0.46223539113998413,-0.7663553953170776,-1.5283812284469604,0.8659963607788086,-0.1944904923439026
-0.508131048265241,-0.5775966409826415,-1.7524809022059638,-4.692237854003906,-2.6480441093444824,-2.43155837059021,-0.4770263433456421,0.48654526472091675,-0.7319286465644836,-1.612313985824585,0.8363611698150635,-0.22086060047149658
-0.5327345389041969,-0.6317604044289448,-1.8076879616476826,-4.777740955352783,-2.6591670513153076,-2.646029233932495,-0.5087264776229858,0.5078908205032349,-0.6951577067375183,-1.6986711025238037,0.7998331189155579,-0.23929047584533691
-0.553950037286452,-0.6895131933946579,-1.8685239825048823,-4.943347454071045,-2.560223340988159,-2.9706830978393555,-0.5410257577896118,0.5260506272315979,-0.6561721563339233,-1.8002065420150757,0.7777366042137146,-0.26532137393951416
-0.5711741662185051,-0.7504121972806689,-1.936443087146034,-5.201671123504639,-2.342844009399414,-3.375051259994507,-0.5736937522888184,0.5406202077865601,-0.6153091192245483,-1.8887848854064941,0.7934251427650452,-0.2979903817176819
-0.5842489259658962,-0.8141260452960108,-2.012222960841125,-5.582566738128662,-2.091632604598999,-3.750861644744873,-0.6065150499343872,0.5515730381011963,-0.5726313591003418,-1.9046238660812378,0.8583390116691589,-0.3285222053527832
-0.5933090962024964,-0.8804385435238654,-2.0961494115388812,-6.036063194274902,-1.8098913431167603,-4.086353778839111,-0.6392473578453064,0.5591076612472534,-0.5279785394668579,-1.8711285591125488,0.9424792528152466,-0.3805754780769348
-0.5978348381284034,-0.9481639988183098,-2.1871089616013335,-6.382462024688721,-1.5093653202056885,-4.340615749359131,-0.6714497804641724,0.5628541707992554,-0.4820273518562317,-1.7988109588623047,0.9900022149085999,-0.530255913734436
-0.5968094653760591,-1.0150782281604602,-2.282079968442706,-6.483396530151367,-1.149969220161438,-4.525172710418701,-0.7026674747467041,0.5620063543319702,-0.4363568425178528,-1.7154691219329834,1.0079855918884277,-0.7862077951431274
-0.5886127149548934,-1.07703055070851,-2.3774305180002893,-6.318434238433838,-0.5377191305160522,-4.797248363494873,-0.7323673367500305,0.5552077293395996,-0.39418578147888184,-1.7105038166046143,1.034498691558838,-1.0803167819976807
-0.5718406766549115,-1.1296589949339637,-2.470373837544008,-6.007523536682129,0.22313539683818817,-5.162018775939941,-0.7604035139083862,0.5411807894706726,-0.359040230512619,-1.7351561784744263,1.0598475933074951,-1.297347068786621
-0.5467760311599108,-1.1706005786202245,-2.559380641406693,-5.686936378479004,1.0456795692443848,-5.528323650360107,-0.7867099642753601,0.5199360251426697,-0.33279716968536377,-1.6881892681121826,1.0765604972839355,-1.3948181867599487
-0.514553712649277,-1.198655433467641,-2.643872735251998,-5.359178066253662,1.8983702659606934,-5.874216079711914,-0.8109267950057983,0.49214640259742737,-0.3165275752544403,-1.5863205194473267,1.0934553146362305,-1.3994605541229248
-0.47661830445181996,-1.2133523763712408,-2.7238168526251294,-5.053404331207275,2.7528369426727295,-6.174629211425781,-0.8323898911476135,0.45877698063850403,-0.3108871877193451,-1.4497146606445312,1.1161435842514038,-1.3456069231033325
-0.43462117611984263,-1.2153267529800258,-2.799917690080909,-4.806202411651611,3.5159385204315186,-6.402677536010742,-0.8503249883651733,0.4210668206214905,-0.3156740665435791,-1.2847458124160767,1.1671746969223022,-1.2178800106048584
-0.3905722137430087,-1.206351905305987,-2.873035734499718,-4.613143444061279,4.090213298797607,-6.492031097412109,-0.8639593720436096,0.38071760535240173,-0.3295879662036896,-1.0653313398361206,1.2066388130187988,-1.0466785430908203
-0.3466266181237285,-1.1889121542592322,-2.9437339541664564,-4.4450364112854,4.442240238189697,-6.440374851226807,-0.8727725148200989,0.3397270143032074,-0.35050469636917114,-0.8338466286659241,1.2167762517929077,-0.8850604295730591
-0.3044509851011291,-1.1650736494480978,-3.011909664074762,-4.215615272521973,4.644979953765869,-6.243722438812256,-0.8765625357627869,0.29976946115493774,-0.37653204798698425,-0.6212554574012756,1.21184241771698,-0.7637114524841309
-0.2650369978094047,-1.136152270536726,-3.076642904679009,-3.874039649963379,4.737174034118652,-5.972561836242676,-0.8753493428230286,0.261944979429245,-0.40638434886932373,-0.47879183292388916,1.1933619976043701,-0.7142668962478638
-0.22828310049244613,-1.103125072211616,-3.1369710573740774,-3.4237420558929443,4.775106906890869,-5.707704067230225,-0.8694627285003662,0.2263054996728897,-0.43911319971084595,-0.4307386875152588,1.182584285736084,-0.6996349692344666
-0.19343990741582712,-1.0672114561982633,3.0904945898943796,-2.945435047149658,4.690923690795898,-5.513391971588135,-0.8595224022865295,0.1922357678413391,-0.4735679626464844,-0.42317718267440796,1.1696110963821411,-0.6625556945800781
-0.15979447212028441,-1.0303165935865093,3.0387703534329034,-2.518247604370117,4.456976413726807,-5.36771821975708,-0.8465378284454346,0.15911529958248138,-0.5079920291900635,-0.42702168226242065,1.1402162313461304,-0.6036564707756042
-0.1271233554545877,-0.9941197511627002,2.9902817034356612,-2.1487531661987305,4.141002178192139,-5.224543571472168,-0.8315150737762451,0.12678124010562897,-0.540841281414032,-0.4228947162628174,1.1254465579986572,-0.5444706082344055
-0.09541279997268326,-0.9589262311453555,2.9446893371933154,-1.7976397275924683,3.902351140975952,-5.0615739822387695,-0.8148521184921265,0.09526810050010681,-0.5717867016792297,-0.42408525943756104,1.1312791109085083,-0.5223447680473328
-0.06489955870071655,-0.9237554753369325,2.902002161977203,-1.4862432479858398,3.8080546855926514,-4.837619304656982,-0.796191394329071,0.06485401093959808,-0.6015589237213135,-0.4223144054412842,1.1366230249404907,-0.5227087140083313
-0.03627286954762712,-0.8875153704101865,2.8620962726724,-1.2566795349121094,3.8318333625793457,-4.547830104827881,-0.7749953866004944,0.03626491501927376,-0.6309255361557007,-0.4012436270713806,1.1530660390853882,-0.4893747568130493
-0.010367220225110984,-0.849493171258214,2.8246854576785205,-1.1088074445724487,3.925010919570923,-4.206980228424072,-0.750905454158783,0.010367034934461117,-0.6603283286094666,-0.37461328506469727,1.1659177541732788,-0.44358396530151367
0.012280061104285464,-0.8095911005120899,2.7895660675672334,-1.009861946105957,4.022208213806152,-3.8494958877563477,-0.7239505648612976,-0.012279752641916275,-0.6897425055503845,-0.3311641216278076,1.1525843143463135,-0.406555712223053
0.03171414256000338,-0.7680893834983034,2.7568804329127667,-0.8780356645584106,4.102914810180664,-3.4919259548187256,-0.6944130063056946,-0.03170882537961006,-0.7188777923583984,-0.2840721011161804,1.1035470962524414,-0.40108686685562134
0.048592660439545916,-0.7253607295059409,2.727083377017151,-0.6823610067367554,4.175918102264404,-3.150160551071167,-0.662622332572937,-0.04857353866100311,-0.7473769783973694,-0.2782498598098755,1.061863899230957,-0.4294571876525879
0.06372725878310136,-0.6816696485058513,2.7004787884657615,-0.43813449144363403,4.231010913848877,-2.845259189605713,-0.6288114190101624,-0.0636841356754303,-0.7749454975128174,-0.31534141302108765,1.0585113763809204,-0.4454066753387451
0.0780096370912435,-0.6374433678926062,2.6770621151234906,-0.16630272567272186,4.24887228012085,-2.5826046466827393,-0.5933328866958618,-0.07793053984642029,-0.8011759519577026,-0.3849080801010132,1.0762062072753906,-0.44339191913604736
0.09200739101599784,-0.5932429195636141,2.656875760122203,0.1314713954925537,4.214362144470215,-2.298152446746826,-0.556688129901886,-0.09187763184309006,-0.8256251215934753,-0.42884641885757446,1.0890547037124634,-0.42469531297683716
0.10613012620344456,-0.5496494943493869,2.6403290373181205,0.4644450843334198,4.146068572998047,-1.9882092475891113,-0.5194491744041443,-0.10593100637197495,-0.8479099273681641,-0.43228721618652344,1.0807844400405884,-0.39928245544433594
0.12114379216186767,-0.5069475700118146,2.627427693966934,0.8386514782905579,4.08096170425415,-1.7370482683181763,-0.4819526970386505,-0.12084769457578659,-0.8678233623504639,-0.4665336012840271,1.0704936981201172,-0.37628674507141113
0.13810841690433576,-0.4650066368505327,2.6177995256301965,1.2660260200500488,4.033132076263428,-1.5220789909362793,-0.4441588819026947,-0.13766978681087494,-0.885307788848877,-0.5388122797012329,1.0663654804229736,-0.34284162521362305
0.1576407986129607,-0.42402792272809925,2.6112957708570974,1.6942212581634521,3.93274188041687,-1.3180739879608154,-0.4063333570957184,-0.1569886952638626,-0.9001376032829285,-0.5520711541175842,1.0165314674377441,-0.28141146898269653
0.18003044537727017,-0.38503436889363424,2.6070296570671974,2.0711374282836914,3.672941207885742,-1.222541093826294,-0.36952078342437744,-0.17905952036380768,-0.9118070602416992,-0.5534681081771851,0.9439215660095215,-0.18014240264892578
0.20511348080749234,-0.3499164842635878,2.603600830916015,2.339069128036499,3.1693849563598633,-1.2076188325881958,-0.33563312888145447,-0.20367826521396637,-0.9197095036506653,-0.5689231157302856,0.8864785432815552,-0.05436581373214722
0.23205262471972,-0.3205635115252502,2.599839835838992,2.4784841537475586,2.516155958175659,-1.2566910982131958,-0.30665555596351624,-0.2299756109714508,-0.92361980676651,-0.5861055850982666,0.8744152784347534,0.05557781457901001
0.2599251617277885,-0.2971291988953172,2.594924019139222,2.5248005390167236,1.9437850713729858,-1.3317774534225464,-0.2829418182373047,-0.25700822472572327,-0.9240620732307434,-0.625184953212738,0.9041334390640259,0.09674578905105591
0.2881596028040584,-0.27756019999268156,2.5888529212674944,2.54484486579895,1.6766555309295654,-1.3750722408294678,-0.2627122104167938,-0.2841881811618805,-0.9220734238624573,-0.6525404453277588,0.9459160566329956,0.042404234409332275
0.31654485701334517,-0.25825199540818733,2.5820323379973273,2.5730392932891846,1.8199286460876465,-1.3663510084152222,-0.24270221590995789,-0.31128495931625366,-0.9188020825386047,-0.6788065433502197,0.9754694700241089,-0.05769932270050049
0.3451088246272829,-0.23565958210429977,2.57500543300744,2.6268343925476074,2.2442400455474854,-1.3116228580474854,-0.2197178304195404,-0.33829909563064575,-0.9150288701057434,-0.6656123399734497,0.9595301151275635,-0.1431071162223816
0.3738607099288056,-0.20845821390246932,2.5676644347397852,2.655421733856201,2.647104263305664,-1.2896397113800049,-0.19265639781951904,-0.36521217226982117,-0.910770833492279,-0.6563425660133362,0.9336783289909363,-0.14976072311401367
0.40248444402572087,-0.17754167281477148,2.559688348363617,2.6625189781188965,2.893528938293457,-1.2414189577102661,-0.1624976098537445,-0.3917054533958435,-0.9056276082992554,-0.6396874189376831,0.9378937482833862,-0.06928694248199463
0.43093307601570946,-0.14482798364873656,2.5513321255885177,2.6996586322784424,2.916120767593384,-1.1792521476745605,-0.1311277598142624,-0.417718768119812,-0.8990642428398132,-0.5460267066955566,0.9001405835151672,0.008897066116333008
0.4595612427783051,-0.11286496929638896,2.5421720703901247,2.750154733657837,2.62912654876709,-1.1956756114959717,-0.1009402871131897,-0.44355490803718567,-0.8905448317527771,-0.477413535118103,0.8726015090942383,0.06995773315429688
0.4884569599364096,-0.08417419950302166,2.5315296431774934,2.797581911087036,2.110511064529419,-1.2473844289779663,-0.0742429569363594,-0.46926385164260864,-0.8799315094947815,-0.4508576989173889,0.9019725322723389,0.114565908908844
0.5175634661230477,-0.059696222836420836,2.5194258198810857,2.839574098587036,1.6272529363632202,-1.2714027166366577,-0.05184683948755264,-0.49476420879364014,-0.8674792647361755,-0.4213434159755707,0.9636210203170776,0.11006355285644531
0.5468095621143407,-0.03803209689100365,2.506229175966011,2.877359390258789,1.3956221342086792,-1.275112509727478,-0.03247871994972229,-0.5199646353721619,-0.8535701036453247,-0.4014506936073303,1.0317139625549316,0.05072891712188721
0.576280791007831,-0.016279458693634914,2.492063629720888,2.933507204055786,1.470417857170105,-1.2744821310043335,-0.013649643398821354,-0.5449091792106628,-0.8383839726448059,-0.38655781745910645,1.074633240699768,-0.026743590831756592
0.606134869255895,0.00797465471239142,2.4769066174858914,3.010821580886841,1.6868430376052856,-1.2602232694625854,0.006553949322551489,-0.5696951150894165,-0.8218299746513367,-0.34491753578186035,1.082161545753479,-0.07975077629089355
0.6365608131592276,0.03542712288390971,2.460716062799519,3.115683078765869,1.9010370969772339,-1.2263915538787842,0.028482580557465553,-0.5944333672523499,-0.8036403059959412,-0.2949925661087036,1.103466510772705,-0.08469581604003906
0.6677914471318894,0.06551898554434539,2.443763446650025,3.241244316101074,2.028744697570801,-1.136894702911377,0.051408130675554276,-0.6192533373832703,-0.7835065126419067,-0.2171795666217804,1.1171019077301025,-0.06219661235809326
0.7000701287231105,0.09686697588715579,2.4263479284106517,3.395098924636841,2.0083374977111816,-1.0233668088912964,0.07396777719259262,-0.6442713141441345,-0.7612116932868958,-0.12557294964790344,1.1172785758972168,-0.024524331092834473
0.7336369443404123,0.12826997369005488,2.4082892571377013,3.5582752227783203,1.8786814212799072,-0.924057126045227,0.09501072764396667,-0.6695753931999207,-0.7366421818733215,-0.07033723592758179,1.1290785074234009,0.014260649681091309
0.7684915733778875,0.15940684511896158,2.3892006436123006,3.7150309085845947,1.7336366176605225,-0.8314584493637085,0.11412238329648972,-0.6950515508651733,-0.709844708442688,-0.030641496181488037,1.1413558721542358,0.05144321918487549
0.8044200441690772,0.19057944042525954,2.368819677084925,3.8217384815216064,1.613484501838684,-0.7523524165153503,0.13137374818325043,-0.7204285264015198,-0.6809725165367126,0.024372756481170654,1.1204681396484375,0.08941984176635742
0.8402459983188469,0.2225891163996912,2.346890233238862,3.748739242553711,1.5764473676681519,-0.6989672183990479,0.1473056972026825,-0.7448073029518127,-0.6508172154426575,0.0555599182844162,1.0875349044799805,0.16336005926132202
0.8736726877571247,0.2562086477842064,2.323749257910415,3.407302141189575,1.647324562072754,-0.6589206457138062,0.16269612312316895,-0.766692042350769,-0.6210582852363586,0.06740649044513702,1.056196928024292,0.28811150789260864
0.9021718124689732,0.2916321627302988,2.3004401587678687,2.8332860469818115,1.8221198320388794,-0.6292415857315063,0.17823319137096405,-0.7846750617027283,-0.5937322974205017,0.07603931427001953,1.0165324211120605,0.4107489585876465
0.9241163997315296,0.32868210441055384,2.278386740933604,2.1397247314453125,2.0936999320983887,-0.5978461503982544,0.1944974958896637,-0.7980886697769165,-0.5702852606773376,0.08537927269935608,0.9704214334487915,0.47693198919296265
0.9389196494612003,0.3668440481896659,2.2590935089179887,1.4233453273773193,2.4376280307769775,-0.5559805035591125,0.2118527889251709,-0.8069204688072205,-0.5513598322868347,0.0862124115228653,0.940389096736908,0.48513680696487427
0.9472475890794249,0.40585622858865394,2.2437033389773675,0.8109170794487,2.864732265472412,-0.48638084530830383,0.23053477704524994,-0.8118113875389099,-0.5364848375320435,0.07960015535354614,0.9249095916748047,0.43043631315231323
0.9507101718031887,0.44562858803324384,2.23261923378969,0.3739831745624542,3.2497546672821045,-0.40285825729370117,0.2504710257053375,-0.8138284087181091,-0.5243545174598694,0.07849326729774475,0.9147804975509644,0.33735811710357666
0.9512389977852621,0.4851976507498423,2.2253071107562965,0.1264776736497879,3.42352294921875,-0.30507445335388184,0.27081698179244995,-0.8141356110572815,-0.5136549472808838,0.09807950258255005,0.9128599762916565,0.24123984575271606
0.9506830292679542,0.5230158896073729,2.2210982604477234,0.028159627690911293,3.4138846397399902,-0.16890013217926025,0.29027026891708374,-0.8138126134872437,-0.5034403204917908,0.12789684534072876,0.9297336339950562,0.16202497482299805
0.9504759750202412,0.557989672971564,2.2196120724880797,0.035700760781764984,3.312985420227051,0.004160354845225811,0.30778560042381287,-0.8136922717094421,-0.4931255877017975,0.14047184586524963,0.9721853137016296,0.10712411999702454
0.9516909756155482,0.5900898303926028,2.220139733348826,0.1468336582183838,3.168067693710327,0.1752340942621231,0.32290342450141907,-0.814397931098938,-0.48217156529426575,0.1499054729938507,1.0019437074661255,0.05185854434967041
0.9551208554451105,0.6200726308694698,2.221252130985944,0.3505067825317383,2.9797606468200684,0.3131139278411865,0.33558785915374756,-0.8163835406303406,-0.46999871730804443,0.15618771314620972,1.0105974674224854,0.0005773305892944336
0.9611494980943228,0.6485758704448485,2.2213745295668534,0.6149424314498901,2.7149415016174316,0.40621671080589294,0.3458668291568756,-0.8198502659797668,-0.45631295442581177,0.1573069989681244,1.0242265462875366,-0.03103742003440857
0.9699025562879955,0.6762677852345003,2.2190813394549194,0.9239842295646667,2.4326817989349365,0.4607412815093994,0.3538637161254883,-0.8248306512832642,-0.4409477710723877,0.1677885353565216,1.0396438837051392,-0.04061955213546753
0.981293326609302,0.7040359918168994,2.213403535590359,1.2279419898986816,2.166264533996582,0.49852225184440613,0.3598647713661194,-0.8312171101570129,-0.42376354336738586,0.19673007726669312,1.0390112400054932,-0.027621924877166748
0.9951689873740179,0.7320751589022211,2.2043958221451976,1.5026381015777588,1.9332622289657593,0.5899175405502319,0.3638589084148407,-0.8388509750366211,-0.4048897922039032,0.2405722439289093,1.0478200912475586,0.009824514389038086
1.0117053462446208,0.7602210866169387,2.1930288778541027,1.7385185956954956,1.7745146751403809,0.7639844417572021,0.3654998242855072,-0.8477376103401184,-0.3843836784362793,0.2902161478996277,1.0762379169464111,0.05131489038467407
1.0310825720057626,0.7880836843965413,2.180649371598164,1.9151568412780762,1.6855813264846802,1.02166748046875,0.36434996128082275,-0.8578557968139648,-0.362398236989975,0.32766664028167725,1.1186285018920898,0.10299888253211975
1.0531471275019453,0.8152572758671586,2.1685476257490612,2.0072405338287354,1.6578165292739868,1.2919127941131592,0.36019399762153625,-0.8689848184585571,-0.3393014669418335,0.35074350237846375,1.1486175060272217,0.17085978388786316
1.0772181679826287,0.8414841983610671,2.1576517191697646,2.0015175342559814,1.6683882474899292,1.5253437757492065,0.35326600074768066,-0.8806432485580444,-0.3157065808773041,0.3497522175312042,1.1570409536361694,0.24601972103118896
1.102429451778769,0.8662105912731526,2.1485647714271603,1.9326854944229126,1.6557656526565552,1.7062416076660156,0.3439352214336395,-0.8923067450523376,-0.29239925742149353,0.325879842042923,1.1595796346664429,0.3250073194503784
1.128223839560556,0.8893870270957833,2.1412743228629005,1.8438591957092285,1.6662752628326416,1.8351433277130127,0.3326275050640106,-0.9036529660224915,-0.26975923776626587,0.2799060046672821,1.2000398635864258,0.3918601870536804
1.1543382371458866,0.9115330218906693,2.135575317960311,1.764278531074524,1.717218279838562,1.9552897214889526,0.3197532594203949,-0.9145274758338928,-0.24778485298156738,0.24349436163902283,1.264564037322998,0.45016223192214966
1.1810494765372874,0.9326208031993133,2.1314200399914136,1.7184269428253174,1.7121360301971436,2.0982584953308105,0.3051731288433075,-0.9250052571296692,-0.22635050117969513,0.243853360414505,1.310686469078064,0.5018937587738037
1.2089444504814775,0.9518682712890207,2.128580237325535,1.7257351875305176,1.582861304283142,2.2906320095062256,0.2883387804031372,-0.9352428317070007,-0.2053813934326172,0.2853001654148102,1.329240083694458,0.549558699131012
1.2388305468832874,0.9680623203839601,2.1271023365374653,1.7831610441207886,1.3557714223861694,2.5428662300109863,0.2684745192527771,-0.945403516292572,-0.18475288152694702,0.3506966531276703,1.3327174186706543,0.5936121940612793
1.271268828829657,0.9801397322202782,2.127187289239353,1.8497397899627686,1.0609939098358154,2.817446708679199,0.24507680535316467,-0.9554760456085205,-0.16432571411132812,0.3897804021835327,1.3678600788116455,0.6309700012207031
1.305611559325804,0.9862031075605519,2.1301007876307105,1.8630472421646118,0.700649082660675,3.047286033630371,0.21856456995010376,-0.9650440812110901,-0.14463578164577484,0.37253043055534363,1.4446735382080078,0.6831795573234558
1.3418175520348268,0.9832642298404726,2.1383878165081907,1.7872602939605713,0.3139841556549072,3.186962604522705,0.18892067670822144,-0.973898708820343,-0.12581877410411835,0.33743125200271606,1.5131442546844482,0.7396341562271118
1.3781380625965527,0.9657661700046509,2.1575285243866027,1.6049392223358154,-0.0628492459654808,3.2537569999694824,0.15747970342636108,-0.9814987182617188,-0.10890460014343262,0.28313302993774414,1.5794601440429688,0.7760342359542847
1.4134700233052548,0.9217784381957076,2.1999648621856327,1.3254770040512085,-0.3538733720779419,3.3229944705963135,0.12482129037380219,-0.9876497387886047,-0.09469640254974365,0.2565263509750366,1.660257339477539,0.7784885764122009
1.446990440918518,0.8267313536079416,2.29159198701618,0.987761914730072,-0.485188752412796,3.451594829559326,0.09085346758365631,-0.9923458099365234,-0.08363710343837738,0.2608768939971924,1.7431089878082275,0.7328680753707886
1.47686996198092,0.6285388162872761,2.48598375610277,0.6444472074508667,-0.4840419888496399,3.643026828765869,0.05514400452375412,-0.9955921769142151,-0.07586406171321869,0.2672131657600403,1.8289661407470703,0.6504796147346497
1.4975755960788457,0.23528591880423605,2.8760352928133246,0.3426560163497925,-0.408943235874176,3.9167497158050537,0.017054149881005287,-0.9973205327987671,-0.07114016264677048,0.28583285212516785,1.900640845298767,0.5423163175582886
1.497726160751388,-0.3337682210958925,-2.8402429278948156,0.09912430495023727,-0.29812803864479065,4.21835470199585,-0.023917004466056824,-0.9973315596580505,-0.06897664070129395,0.30704382061958313,1.9484882354736328,0.4227517247200012
1.474337198194923,-0.7752071862478699,-2.3995620127740973,-0.0728418380022049,-0.14487625658512115,4.439296722412109,-0.06740420311689377,-0.9953514337539673,-0.06879222393035889,0.26923221349716187,1.9937949180603027,0.30887407064437866
1.4378857873065638,-1.0143758181957254,-2.1594256253108264,-0.16733266413211823,0.03427378088235855,4.610049724578857,-0.11252908408641815,-0.9911803603172302,-0.06999018788337708,0.18706825375556946,2.0682830810546875,0.20176517963409424
1.3954605250043672,-1.1456880758496804,-2.025359616867864,-0.17627568542957306,0.21355494856834412,4.766291618347168,-0.15891245007514954,-0.9846680164337158,-0.07194182276725769,0.11768321692943573,2.1465485095977783,0.10770846158266068
1.349808687873068,-1.2261882995367914,-1.9399903309639146,-0.12554831802845,0.40795719623565674,4.922558307647705,-0.20630617439746857,-0.9756814241409302,-0.07404948025941849,0.08370181918144226,2.2402384281158447,0.024763651192188263
1.3016695500304303,-1.2816218789482747,-1.8784222885828692,-0.026941828429698944,0.4312781095504761,5.1305012702941895,-0.2548500597476959,-0.9640034437179565,-0.07582144439220428,0.008283257484436035,2.3909292221069336,-0.013305127620697021
1.2508504497029647,-1.3256396388326936,-1.8285079406808724,0.14425230026245117,0.30218803882598877,5.408746242523193,-0.30511102080345154,-0.9492524266242981,-0.07633547484874725,-0.027072817087173462,2.546863079071045,-0.03915822505950928
1.1969588422673123,-1.364828273954848,-1.784645201731006,0.3483269512653351,0.10638286173343658,5.730198383331299,-0.35747188329696655,-0.9309328198432922,-0.0746869295835495,-0.06417423486709595,2.6690309047698975,-0.05977344512939453
1.139589397915404,-1.4011104198198376,-1.7450160677871311,0.5615944862365723,-0.07082414627075195,6.0865478515625,-0.4119647145271301,-0.9084619283676147,-0.07058335095643997,-0.11492127180099487,2.7776637077331543,-0.08308792114257812
1.0784524774798676,-1.4352762543982305,-1.7084600189153378,0.8015414476394653,-0.20739378035068512,6.445109844207764,-0.46835851669311523,-0.8812273740768433,-0.06386342644691467,-0.1861671805381775,2.863222122192383,-0.12542176246643066
1.0140042873749164,-1.4673605008167143,-1.674094905324682,1.0717312097549438,-0.23812079429626465,6.703423500061035,-0.5256407856941223,-0.8489547967910767,-0.05456482246518135,-0.3176513910293579,2.9169023036956787,-0.18777519464492798
0.9472362682492632,-1.4954834095308172,-1.6423334412391544,1.227970004081726,-0.08008966594934464,6.860567569732666,-0.5822736620903015,-0.8118047714233398,-0.043935827910900116,-0.5055406093597412,2.946906089782715,-0.2212008237838745
0.8787617563133013,-1.515937100730401,-1.6151545902122844,1.166923999786377,0.31332314014434814,6.978699207305908,-0.6371449828147888,-0.7699493169784546,-0.03498838469386101,-0.7020425796508789,2.992971897125244,-0.19535821676254272
0.8088143049336732,-1.5266835021223157,-1.5938270608403864,0.9673969745635986,0.702372670173645,7.095588207244873,-0.6896849274635315,-0.7234691381454468,-0.030443701893091202,-0.880932629108429,3.0538220405578613,-0.14794671535491943
0.7371644617634261,-1.5306780288667736,-1.5767848775701847,0.8931901454925537,0.8397465348243713,7.290886878967285,-0.7397816181182861,-0.6721912622451782,-0.029694711789488792,-0.9942271113395691,3.0933797359466553,-0.1603991985321045
0.6631996851636931,-1.533394532763777,-1.5602111277004178,1.0862617492675781,0.7150363922119141,7.534209251403809,-0.7874752879142761,-0.6156414151191711,-0.02946672961115837,-1.028198480606079,3.054255485534668,-0.27013951539993286
0.5875617544680227,-1.5386666544943333,-1.5415976200458616,1.3902000188827515,0.3871472179889679,7.613790988922119,-0.8318650722503662,-0.5543333292007446,-0.026736753061413765,-1.1260052919387817,2.9961822032928467,-0.355587363243103
0.5124240943504971,-1.5471753265286583,-1.5215985819037914,1.5589960813522339,0.007899557240307331,7.426716327667236,-0.8713155388832092,-0.49029141664505005,-0.02058517374098301,-1.3025126457214355,2.9356801509857178,-0.34004098176956177
0.43995221485076014,-1.5569852911276956,-1.5026618840090051,1.4980558156967163,-0.20603935420513153,7.082736968994141,-0.9046857357025146,-0.42589622735977173,-0.012495441362261772,-1.4664080142974854,2.8372273445129395,-0.2878584861755371
0.36981165102953023,-1.5651735828804676,-1.486240992786881,1.3863109350204468,-0.08058975636959076,6.97750186920166,-0.932380735874176,-0.3614398241043091,-0.005242593586444855,-1.4829177856445312,2.7159929275512695,-0.32311123609542847
0.2993691771014794,-1.568899832078764,-1.4713441376176701,1.387559175491333,0.3258911967277527,7.076204299926758,-0.9555210471153259,-0.294917494058609,-0.0018121427856385708,-1.3903957605361938,2.634700298309326,-0.485004186630249
0.22772499103709076,-1.5681580608747103,-1.456074092533255,1.5464929342269897,0.5669997930526733,7.229117393493652,-0.974179208278656,-0.22576183080673218,-0.0025701497215777636,-1.4620389938354492,2.6414265632629395,-0.6158074736595154
0.1541697319499875,-1.5668532558023638,-1.4381538702731835,1.9413784742355347,0.3078332245349884,7.435624599456787,-0.9881318211555481,-0.15355972945690155,-0.0038962941616773605,-1.5368773937225342,2.6807050704956055,-0.7040961980819702
0.07923522141878506,-1.5693120777161118,-1.4158337445627136,2.4360721111297607,-0.30885910987854004,7.4989142417907715,-0.996861457824707,-0.07915233820676804,-0.0014795917086303234,-1.704066276550293,2.7737019062042236,-0.7591099739074707
0.0039509255222040214,-1.576222232275159,-1.388970682774951,2.937288761138916,-0.8044105172157288,7.49039363861084,-0.9999775886535645,-0.003950915299355984,0.005425837356597185,-1.9723124504089355,2.928206205368042,-0.7746213674545288
-0.07074909619764108,-1.5840065058771782,-1.358060479165869,3.3355443477630615,-0.9070426225662231,7.311831474304199,-0.9974113702774048,0.0706900879740715,0.01317674946039915,-2.1857247352600098,2.978961944580078,-0.809807538986206
-0.14289721898379312,-1.5884426018486808,-1.3248275716116031,3.4322121143341064,-0.6500537395477295,6.960952281951904,-0.9896533489227295,0.14241139590740204,0.017465507611632347,-2.386155128479004,2.9237964153289795,-0.7880648374557495
-0.21227697878715934,-1.5868698551520153,-1.2918197001805862,3.2682547569274902,-0.18625029921531677,6.795244216918945,-0.9774273633956909,0.2106863111257553,0.015712060034275055,-2.4155168533325195,2.774512529373169,-0.7110092639923096
-0.2811225735118957,-1.5782100141161868,-1.2597570642980118,3.111508369445801,0.3319113552570343,6.87318229675293,-0.9607182741165161,0.2774343192577362,0.007122595328837633,-2.2854061126708984,2.653916358947754,-0.7126736640930176
-0.35070136136467733,-1.563928861036946,-1.226729663703765,3.1993186473846436,0.38316839933395386,6.983963966369629,-0.9391099214553833,0.34355655312538147,-0.0064494069665670395,-2.2266616821289062,2.560999870300293,-0.8026021122932434
-0.4200668916884527,-1.548470355993422,-1.188525887793414,3.7043702602386475,-0.25782278180122375,6.908686637878418,-0.9128342866897583,0.40782153606414795,-0.02038329839706421,-2.2843856811523438,2.458465814590454,-0.9726128578186035
-0.48642920113965576,-1.5352519111128389,-1.1402820109795373,4.589986801147461,-1.3560805320739746,6.538434028625488,-0.8834494948387146,0.46747225522994995,-0.031414926052093506,-2.5444376468658447,2.5387229919433594,-1.1713132858276367
-0.5473828427614162,-1.5228463710056623,-1.0775743305450305,5.783413887023926,-2.312889337539673,6.044094085693359,-0.8529081344604492,0.5204542279243469,-0.040928278118371964,-2.867978096008301,2.824241876602173,-1.3350024223327637
-0.6012211915196831,-1.504936280019811,-0.996926831386031,7.067048072814941,-2.8173916339874268,5.408753395080566,-0.8228577375411987,0.5656499266624451,-0.054271943867206573,-2.9992551803588867,2.9751062393188477,-1.441150426864624
-0.6454590326127988,-1.4762662803752615,-0.8978145385531631,8.19266128540039,-2.980865716934204,4.654910087585449,-0.7952572703361511,0.6015651822090149,-0.07540043443441391,-3.0224764347076416,3.005521059036255,-1.390511393547058
-0.678378196044707,-1.4341467113414856,-0.7817660765244484,9.14238452911377,-2.8393235206604004,3.9711623191833496,-0.7713332772254944,0.627531111240387,-0.10606339573860168,-2.9400923252105713,3.0601062774658203,-1.2516330480575562
-0.6995218979305354,-1.377220745348784,-0.6510645260714097,9.88663387298584,-2.4984123706817627,3.423875093460083,-0.7508590817451477,0.6438519358634949,-0.1471910923719406,-2.791377067565918,3.177665948867798,-1.060770869255066
-0.7076129431793441,-1.309533906443668,-0.5110194289952888,10.456218719482422,-2.117363452911377,2.953805923461914,-0.7341275215148926,0.6500216722488403,-0.19628643989562988,-2.6722445487976074,3.3009519577026367,-0.8329646587371826
-0.7028188402979517,-1.2351984462171792,-0.36583663194989663,10.86240291595459,-1.8386582136154175,2.613074541091919,-0.7204567790031433,0.646371066570282,-0.2512892782688141,-2.5125296115875244,3.3721225261688232,-0.5751876831054688
-0.685080263684142,-1.1585795601011961,-0.22038543510383024,11.161576271057129,-1.4412850141525269,2.219758987426758,-0.7095032930374146,0.6327351927757263,-0.31024399399757385,-2.438079833984375,3.3804636001586914,-0.33418041467666626
-0.6537976366880578,-1.0834535067713682,-0.07912904351012952,11.421509742736816,-1.1089630126953125,1.771323323249817,-0.7013681530952454,0.608205258846283,-0.37171098589897156,-2.5033130645751953,3.4014992713928223,-0.11142802238464355
-0.6098921842636492,-1.0152534394574673,0.05479623587301944,11.592616081237793,-1.159052848815918,1.3898814916610718,-0.6964371204376221,0.5727790594100952,-0.4323187470436096,-2.5057570934295654,3.5207724571228027,0.15106874704360962
-0.5554481390815948,-0.9608513780985292,0.17931284036245534,11.669095039367676,-1.725921869277954,0.9608489274978638,-0.6964523792266846,0.5273241400718689,-0.4867066442966461,-2.3944900035858154,3.607273578643799,0.435879647731781
-0.4918861839292542,-0.9252595375117154,0.29370351861758437,11.757832527160645,-2.628809690475464,0.3899078965187073,-0.7040768265724182,0.4722892940044403,-0.5303005576133728,-2.298257827758789,3.609574317932129,0.5938991904258728
-0.4199495965858081,-0.9094724536681549,0.3994439718795131,12.004526138305664,-3.4828531742095947,-0.24646565318107605,-0.7206076383590698,0.4077144265174866,-0.5607973337173462,-2.247577667236328,3.671967029571533,0.5541902780532837
-0.34003347625091873,-0.9096302293170988,0.49922187900259607,12.345239639282227,-3.8679280281066895,-0.998146653175354,-0.7440854907035828,0.3335186541080475,-0.5788800120353699,-2.1938722133636475,3.7689595222473145,0.3606030344963074
-0.2518816453234586,-0.9209810924119688,0.5930068317658025,12.510764122009277,-3.8242039680480957,-2.0461435317993164,-0.7710717916488647,0.2492266744375229,-0.5859473943710327,-2.2299656867980957,3.7439069747924805,0.2519935369491577
-0.1560264776575386,-0.9398923323144069,0.6803411182788296,12.56474781036377,-3.444484233856201,-3.0429599285125732,-0.7976855635643005,0.15539419651031494,-0.5827094316482544,-2.273344039916992,3.698655605316162,0.28874891996383667
-0.055588138160010896,-0.9631160759862756,0.7631874440230112,12.367091178894043,-2.9428834915161133,-3.6777255535125732,-0.8197065591812134,0.055559515953063965,-0.5700826048851013,-2.122370958328247,3.7601144313812256,0.4030751585960388
0.04403595271381062,-0.9897809931227186,0.8414185699511745,11.58730697631836,-2.4377708435058594,-4.0063934326171875,-0.8350954651832581,-0.04402172192931175,-0.5483408570289612,-1.8321256637573242,3.7169954776763916,0.7024087905883789
0.13738345938442278,-1.0167139389440099,0.9120211615673741,10.167036056518555,-1.6210544109344482,-4.125529766082764,-0.8423710465431213,-0.13695169985294342,-0.5212055444717407,-1.596426010131836,3.4582712650299072,1.0509905815124512
0.22129306612800229,-1.0386225845443506,0.9716907040344644,8.502899169921875,-0.63034987449646,-4.1485915184021,-0.840692937374115,-0.21949134767055511,-0.49503424763679504,-1.5239768028259277,3.1368651390075684,1.2646265029907227
0.29687328634038895,-1.0530958648616728,1.0200924658666188,7.194254398345947,0.1697673499584198,-4.233027458190918,-0.8309475779533386,-0.29253169894218445,-0.47323498129844666,-1.572754144668579,2.8069512844085693,1.2320849895477295
0.36825079039519804,-1.062315490237679,1.060966917566464,6.579908847808838,0.5929350852966309,-4.384382724761963,-0.8149253129959106,-0.35998404026031494,-0.45421159267425537,-1.6557471752166748,2.540236234664917,0.9982331991195679
0.43897863456263375,-1.0717894182047696,1.099507944208997,6.4584174156188965,0.4558885097503662,-4.555962085723877,-0.794806182384491,-0.4250151515007019,-0.4331802725791931,-1.6596920490264893,2.4090240001678467,0.7847732901573181
0.5107749690308735,-1.0879840163230168,1.1389035515765475,6.443908214569092,-0.122349813580513,-4.762885570526123,-0.7726482152938843,-0.48885345458984375,-0.4050149619579315,-1.5801960229873657,2.3188247680664062,0.7552651762962341
0.5828103657213306,-1.1138895788043055,1.1798825454187694,6.254032611846924,-0.7761781811714172,-4.851365089416504,-0.7492744326591492,-0.5503725409507751,-0.36834487318992615,-1.385994791984558,2.1767306327819824,0.8472266793251038
0.6523396558761682,-1.1479678239609141,1.22173177761463,5.767189025878906,-1.1267343759536743,-4.7757463455200195,-0.7246810793876648,-0.6070473194122314,-0.32608431577682495,-1.127415418624878,2.0200722217559814,0.9561043977737427
0.7169435303389411,-1.1845807916257962,1.2621194986481827,5.009622573852539,-1.0310331583023071,-4.59381103515625,-0.6982923150062561,-0.6570837497711182,-0.28395208716392517,-0.9319719076156616,1.8497564792633057,1.0335400104522705
0.775426475772285,-1.2174000385961088,1.2984524492676135,4.15662145614624,-0.5556148290634155,-4.356127738952637,-0.669991672039032,-0.7000206708908081,-0.24714794754981995,-0.8109195232391357,1.6537256240844727,1.036927580833435
0.8281129196834415,-1.241824364626436,1.3291022324690742,3.372220277786255,0.06401805579662323,-4.126322269439697,-0.6400023698806763,-0.7366564869880676,-0.21848183870315552,-0.7626465559005737,1.4698566198349,0.9670474529266357
0.8762421474201814,-1.2577833573269943,1.3540317107185689,2.7939541339874268,0.4473525583744049,-3.9629626274108887,-0.6089434027671814,-0.7683390974998474,-0.19708625972270966,-0.7782942056655884,1.3478832244873047,0.8705023527145386
0.9220684857790381,-1.2701281446010986,1.3757893086374995,2.5883193016052246,0.43582770228385925,-3.950269937515259,-0.5770692229270935,-0.7968530654907227,-0.17893099784851074,-0.847292959690094,1.2207880020141602,0.7084261178970337
0.9681128694048623,-1.2866017110048171,1.3994550240149186,2.7383205890655518,0.06575443595647812,-4.04906702041626,-0.5441173315048218,-0.8238174319267273,-0.15893737971782684,-0.9076648950576782,1.0833847522735596,0.5011767148971558
1.0155191469003595,-1.3145570303733007,1.4301680407896888,3.018026113510132,-0.5386022925376892,-4.159233093261719,-0.5099665522575378,-0.8497543334960938,-0.1336105763912201,-0.8698704838752747,0.9497299194335938,0.34549403190612793
1.0635737428424896,-1.3590808796858094,1.4713169073246926,3.2298076152801514,-1.2597441673278809,-4.172444820404053,-0.4749055802822113,-0.8740969896316528,-0.102074533700943,-0.7565092444419861,0.8242006897926331,0.2771996259689331
1.1100608954033802,-1.4224418866700559,1.5248291630640844,3.2959930896759033,-1.9103375673294067,-4.036306381225586,-0.4397231936454773,-0.8957257866859436,-0.06571772694587708,-0.6253402233123779,0.7474408745765686,0.2640971541404724
1.1527804253347627,-1.5044640294760616,1.5914769581035948,3.2174150943756104,-2.3773770332336426,-3.8175554275512695,-0.4050554037094116,-0.9138962030410767,-0.02690773271024227,-0.5561414957046509,0.6994185447692871,0.25823092460632324
1.190527738116777,-1.6021703951847224,1.6700903078573084,2.9909677505493164,-2.6407737731933594,-3.5991806983947754,-0.37098732590675354,-0.9285649657249451,0.011643202044069767,-0.5613552331924438,0.6545324325561523,0.25253212451934814
1.2233145821372255,-1.7115535743434867,1.757916297124908,2.6390299797058105,-2.781480312347412,-3.4571189880371094,-0.3371632397174835,-0.9402332305908203,0.047774095088243484,-0.6388346552848816,0.6223774552345276,0.23426926136016846
1.2524331152336725,-1.8272562300833952,1.8508793342548766,2.133516311645508,-2.7483062744140625,-3.4356322288513184,-0.302775114774704,-0.9497490525245667,0.07939806580543518,-0.8052724003791809,0.6322746276855469,0.21860599517822266
1.2799229514107695,-1.9440095629057657,1.9450881018152304,1.5157926082611084,-2.5966641902923584,-3.530627727508545,-0.26704657077789307,-0.957993745803833,0.10456594079732895,-0.9820226430892944,0.6557171940803528,0.20878851413726807
1.3081096135794263,-2.0608547527406444,2.040618675855207,0.8558972477912903,-2.3682937622070312,-3.7589964866638184,-0.2291138768196106,-0.9656957983970642,0.12222382426261902,-1.1414763927459717,0.6744511723518372,0.1773824840784073
1.3390165919005592,-2.1823672695720315,2.1429746286654594,0.1720772385597229,-2.0629048347473145,-4.1046833992004395,-0.18807461857795715,-0.9732590913772583,0.13188916444778442,-1.2509970664978027,0.7070695161819458,0.1377793550491333
1.3735977796049827,-2.3200398411965866,2.2645240665296393,-0.49387866258621216,-1.699783444404602,-4.485202789306641,-0.14345549046993256,-0.9806193113327026,0.1334400624036789,-1.2788314819335938,0.7762888669967651,0.10206401348114014
1.410873036222507,-2.497937730904649,2.4298221830977167,-1.0978951454162598,-1.3317385911941528,-4.801615238189697,-0.09556469321250916,-0.9872394800186157,0.12737877666950226,-1.2163554430007935,0.8907277584075928,0.058641061186790466
1.4472550941742985,-2.764752646400454,2.6876922272982706,-1.632027506828308,-0.962145984172821,-5.014774799346924,-0.04534553363919258,-0.9923784732818604,0.11458032578229904,-1.079211950302124,1.0339281558990479,0.01995634287595749
1.4737899577225138,3.0819754943013895,3.1181712986216925,-1.9545373916625977,-0.7625520825386047,-5.028393268585205,0.0057707116939127445,-0.9952985644340515,0.09668145328760147,-0.9020262360572815,1.1824171543121338,-0.047304168343544006
1.4757349274546578,2.512664156273866,-2.600871241957158,-1.9403421878814697,-0.7743672132492065,-4.848525047302246,0.05583818256855011,-0.9954850673675537,0.07675616443157196,-0.7280031442642212,1.3257920742034912,-0.20070338249206543
1.4516310226908904,2.0836150677203,-2.177643159107973,-1.5904734134674072,-0.8576149940490723,-4.618785381317139,0.10359050333499908,-0.992908239364624,0.058328211307525635,-0.6066270470619202,1.404926061630249,-0.3756195306777954
1.4149470468935013,1.8571778742760454,-1.9588508299180836,-1.0705673694610596,-1.0831488370895386,-4.398754119873047,0.14889658987522125,-0.9878800511360168,0.04384652525186539,-0.5563979148864746,1.4348406791687012,-0.46901750564575195
1.3749516343917112,1.7444619263096757,-1.857126620711169,-0.5764011144638062,-1.4183416366577148,-4.161839962005615,0.1916676163673401,-0.9808836579322815,0.033624790608882904,-0.5118123292922974,1.4427367448806763,-0.44735169410705566
1.3353733002798502,1.6844758727208688,-1.8120756987781488,-0.21565863490104675,-1.7636116743087769,-3.9203832149505615,0.23174908757209778,-0.9724157452583313,0.026459207758307457,-0.46797043085098267,1.4230382442474365,-0.3342747688293457
1.2975333564368052,1.646702589708809,-1.7932787408189108,-0.027493104338645935,-2.1483824253082275,-3.676605701446533,0.2690977156162262,-0.9628954529762268,0.02046552300453186,-0.4297727346420288,1.4070024490356445,-0.17796683311462402
1.262030989644674,1.6154906197725785,-1.7854218209356634,-0.010661926120519638,-2.570842981338501,-3.413559913635254,0.3035791516304016,-0.9527094960212708,0.013577298261225224,-0.397329181432724,1.3865015506744385,-0.02737128734588623
1.229192632630445,1.5834328520866192,-1.780657947910992,-0.11566129326820374,-2.900343179702759,-3.140878200531006,0.3349715769290924,-0.9422186613082886,0.004233102314174175,-0.3866683840751648,1.3692207336425781,0.08664822578430176
1.1990097023728896,1.548202992080743,-1.7751810366601783,-0.3036991059780121,-3.083101987838745,-2.874828815460205,0.3631877899169922,-0.9316797852516174,-0.008207019418478012,-0.4081859588623047,1.3789912462234497,0.16454851627349854
1.1713876267536396,1.5096629784945816,-1.767257727487809,-0.5180544257164001,-3.120330810546875,-2.607853889465332,0.388147234916687,-0.9212911128997803,-0.02375834435224533,-0.4325961172580719,1.3790242671966553,0.19282567501068115
1.146049762676273,1.4692291005799902,-1.7570118118874365,-0.696555495262146,-3.0654494762420654,-2.363145589828491,0.4099658131599426,-0.9111431837081909,-0.041782863438129425,-0.4572833776473999,1.355280876159668,0.19275325536727905
1.1226977996101233,1.428458638855743,-1.7455931553825441,-0.8158355951309204,-3.0026586055755615,-2.1511006355285645,0.42887118458747864,-0.9012725353240967,-0.06146015226840973,-0.4936752915382385,1.3468444347381592,0.19691234827041626
1.1008229176703739,1.3883286691243393,-1.7342060834848545,-0.880562424659729,-2.9630496501922607,-2.0030527114868164,0.44534456729888916,-0.89158034324646,-0.08217500150203705,-0.5411850214004517,1.332956075668335,0.21588772535324097
1.0798906709054692,1.3485135335247909,-1.7235781996586081,-0.9128047227859497,-3.1915478706359863,-1.884478211402893,0.4598262906074524,-0.881906270980835,-0.1039288341999054,-0.5949887037277222,1.3178346157073975,0.25920218229293823
1.0599265423645337,1.3051312078148458,-1.7138693713414377,-0.9537060856819153,-3.698267698287964,-1.7753850221633911,0.47178325057029724,-0.8723195791244507,-0.12837070226669312,-0.6322141885757446,1.3349967002868652,0.38989102840423584
1.0406214065053354,1.2593924436517228,-1.7049751094424126,-0.9762579798698425,-3.882373809814453,-1.6426833868026733,0.4813629984855652,-0.8627186417579651,-0.15493926405906677,-0.607736349105835,1.2748280763626099,0.3755354881286621
1.0229421146833046,1.2129193059175707,-1.6971882853012028,-0.9358589053153992,-4.045165538787842,-1.432993769645691,0.48785656690597534,-0.8536441326141357,-0.1824490875005722,-0.6356379389762878,1.2474887371063232,0.2979428172111511
1.0069301229607277,1.165836644220129,-1.6902613357402108,-0.9368359446525574,-4.1615400314331055,-1.2729312181472778,0.49122992157936096,-0.8451951146125793,-0.21056658029556274,-0.6927375793457031,1.2881578207015991,0.32068923115730286
0.9917272548204656,1.1186484444197233,-1.6838718107996238,-0.9544485211372375,-4.160087585449219,-1.2275224924087524,0.4922527074813843,-0.8369724750518799,-0.23909053206443787,-0.7889447212219238,1.2760441303253174,0.3402562141418457
0.9761094151989753,1.0735615385708055,-1.6789884245093258,-0.970476508140564,-4.007380485534668,-1.32524573802948,0.4924059510231018,-0.8283239603042603,-0.26723727583885193,-0.8865710496902466,1.2474830150604248,0.33672574162483215
0.9593005486498981,1.0318125915357539,-1.6758685873133132,-1.0287859439849854,-3.8121182918548584,-1.42998468875885,0.49270403385162354,-0.8187901973724365,-0.29466116428375244,-0.8987100124359131,1.237140417098999,0.35618457198143005
0.9411505366350695,0.9922503118474677,-1.6729791463457189,-1.194787621498108,-3.594364643096924,-1.4466646909713745,0.4930266737937927,-0.8082361221313477,-0.3219919204711914,-0.8369446396827698,1.2543727159500122,0.421631783246994
0.9223011077663301,0.953279932863671,-1.6680704453842128,-1.4051188230514526,-3.423206090927124,-1.315125584602356,0.4924428164958954,-0.7969935536384583,-0.3497162461280823,-0.7258260250091553,1.3141748905181885,0.4518127143383026
0.9038467694422387,0.912840980171565,-1.6605027250283073,-1.5121179819107056,-3.4541220664978027,-1.0885658264160156,0.48945748805999756,-0.7857123017311096,-0.37826934456825256,-0.6241011023521423,1.3387517929077148,0.4777108430862427
0.8868988418210069,0.8703331848402942,-1.6512173122380052,-1.5022329092025757,-3.59822678565979,-0.8117699027061462,0.48305317759513855,-0.7751160860061646,-0.4072526693344116,-0.5608577728271484,1.3270264863967896,0.4845079183578491
0.872238353837424,0.8248752823015465,-1.6406439796550447,-1.4442037343978882,-3.835547685623169,-0.489704966545105,0.4723435640335083,-0.7657703757286072,-0.43644842505455017,-0.5483171939849854,1.3192524909973145,0.48372015357017517
0.8597498704830541,0.7759389078523667,-1.6282344562989532,-1.4547094106674194,-4.030107021331787,-0.19370101392269135,0.4570910930633545,-0.7576793432235718,-0.46582141518592834,-0.589323878288269,1.3399243354797363,0.5496989488601685
0.8480556388220509,0.7235154959338731,-1.6134455322026362,-1.5868362188339233,-4.192389011383057,0.00568512873724103,0.4378906190395355,-0.749995768070221,-0.49574005603790283,-0.6957336664199829,1.3701281547546387,0.6408358812332153
0.8354121414830648,0.668629009196331,-1.5967244160264062,-1.7761564254760742,-4.247432231903076,0.06354816257953644,0.41588082909584045,-0.7415730953216553,-0.5264147520065308,-0.8598353862762451,1.4037282466888428,0.7100085020065308
0.8206106754235838,0.6133959268961224,-1.5795881144704262,-1.9786173105239868,-4.252147674560547,0.013818290084600449,0.392461895942688,-0.7315623164176941,-0.5574855804443359,-1.02895188331604,1.4612376689910889,0.7386379241943359
0.8029053847596633,0.558111322256752,-1.562879401142054,-2.242333173751831,-4.371092319488525,-0.04949037358164787,0.3678601384162903,-0.7193772792816162,-0.5892157554626465,-1.1200727224349976,1.5154740810394287,0.7702003121376038
0.7819116391437525,0.5011454739762647,-1.546177138064048,-2.554260492324829,-4.62525749206543,-0.03113025799393654,0.3408980071544647,-0.7046371698379517,-0.6223142743110657,-1.1399855613708496,1.5900436639785767,0.8133543133735657
0.7579485016764371,0.44104711000289937,-1.5286177398361107,-2.835083484649658,-4.919897556304932,0.11727678775787354,0.3100254535675049,-0.6874330043792725,-0.6567496657371521,-1.115125060081482,1.6762330532073975,0.8105276823043823
0.73178786795929,0.37748856662365354,-1.5097396885314374,-3.0435593128204346,-5.189550399780273,0.35240837931632996,0.2742217183113098,-0.6682008504867554,-0.6915996670722961,-1.1054595708847046,1.7431062459945679,0.7528331875801086
0.7037488561093385,0.31131244040775313,-1.4896854669108202,-3.235429525375366,-5.354318141937256,0.5890464782714844,0.23353607952594757,-0.6470804214477539,-0.7257739901542664,-1.1773685216903687,1.8000192642211914,0.6882678270339966
0.6732240369357538,0.24462237018234453,-1.4694186991000264,-3.4820401668548584,-5.348289966583252,0.7273515462875366,0.18934786319732666,-0.6235098242759705,-0.7585399746894836,-1.3330552577972412,1.8680472373962402,0.6538646221160889
0.639061402114319,0.1803149279223655,-1.4507187851036922,-3.808051824569702,-5.176036357879639,0.7086332440376282,0.14394783973693848,-0.5964423418045044,-0.7896426916122437,-1.546703577041626,1.947074055671692,0.6455692052841187
0.6001984422694134,0.12083918462980468,-1.4353960814032025,-4.246406555175781,-4.897869110107422,0.5842163562774658,0.09947683662176132,-0.5648062229156494,-0.8192058801651001,-1.7316333055496216,2.0417349338531494,0.6420665979385376
0.555298461125149,0.06700567075800833,-1.424360499989359,-4.864096641540527,-4.640193462371826,0.40890952944755554,0.05689501389861107,-0.5271969437599182,-0.8478363156318665,-1.8052623271942139,2.1105709075927734,0.678173840045929
0.5030031481760994,0.018228258199918197,-1.418319955917119,-5.5992751121521,-4.48982048034668,0.18701830506324768,0.015969600528478622,-0.48205888271331787,-0.8759932518005371,-1.8251127004623413,2.17244291305542,0.7204604148864746
0.44357667970558756,-0.026878899663572046,-1.4176066405412113,-6.218497276306152,-4.435342311859131,0.00792711228132248,-0.02427470125257969,-0.4291727542877197,-0.9028961658477783,-1.8239614963531494,2.2485697269439697,0.6502716541290283
0.3794116294503014,-0.06951625618885972,-1.4213216886266218,-6.563413619995117,-4.351438045501709,-0.05339182913303375,-0.0645204558968544,-0.37037399411201477,-0.926639199256897,-1.7964568138122559,2.3281071186065674,0.4311710596084595
0.3130821073682398,-0.11039044730365748,-1.4281311951285205,-6.700589179992676,-4.261752605438232,-0.024264303967356682,-0.10481106489896774,-0.3079923689365387,-0.9455978870391846,-1.7780320644378662,2.435739040374756,0.20472264289855957
0.24659086341831116,-0.15019675493092394,-1.437223275481944,-6.6495537757873535,-4.166594505310059,0.023376431316137314,-0.14510631561279297,-0.24409937858581543,-0.9588324427604675,-1.772374153137207,2.539433240890503,0.014191389083862305
0.18128214248337787,-0.18892015664630493,-1.4483407327638247,-6.564723491668701,-4.015635967254639,0.026511773467063904,-0.1847209930419922,-0.1802908480167389,-0.966112494468689,-1.7836933135986328,2.620110273361206,-0.13026195764541626
0.11657110548567552,-0.2263606421771296,-1.4625434966947752,-6.6670660972595215,-3.8804404735565186,-0.12634378671646118,-0.2229093462228775,-0.11630727350711823,-0.9678760170936584,-1.7875276803970337,2.678654670715332,-0.15826833248138428
0.05101043710707551,-0.2639326016185456,-1.481327167723037,-6.9232354164123535,-3.9494526386260986,-0.3110313415527344,-0.2605396509170532,-0.05098831653594971,-0.9641157984733582,-1.7090954780578613,2.67067813873291,-0.14643412828445435
-0.015508752015928698,-0.3045237296805151,-1.5043220441876188,-7.055811882019043,-4.234477996826172,-0.34551456570625305,-0.2998027801513672,0.015508130192756653,-0.9538751244544983,-1.5254383087158203,2.6281991004943848,-0.25903069972991943
-0.08084657910634438,-0.3499241745527746,-1.529422143121639,-6.8438544273376465,-4.583266258239746,-0.1822604089975357,-0.3417068123817444,0.08075853437185287,-0.9363303184509277,-1.399000644683838,2.5683350563049316,-0.557794988155365
-0.142157326451696,-0.4003474351475367,-1.5540628204057325,-6.272574424743652,-4.899491310119629,0.11394082009792328,-0.3858068883419037,0.14167900383472443,-0.9116359353065491,-1.398876428604126,2.4751269817352295,-0.9161991477012634
-0.1967298261325107,-0.4539162819444581,-1.5770931600209317,-5.497267246246338,-4.976381301879883,0.21871571242809296,-0.43003058433532715,0.19546328485012054,-0.8814010620117188,-1.5902788639068604,2.3253650665283203,-1.2233657836914062
-0.24310034500861663,-0.5089806341921039,-1.600506599073764,-4.832849025726318,-4.968744277954102,-0.014724028296768665,-0.4729593098163605,0.2407129555940628,-0.8475651741027832,-1.9245169162750244,2.1541998386383057,-1.3248286247253418
-0.28213968240729104,-0.5652249348125434,-1.626755694741342,-4.493668079376221,-4.874732494354248,-0.34727323055267334,-0.514428973197937,0.2784113585948944,-0.8110795021057129,-2.196401834487915,2.134491443634033,-1.191148281097412
-0.3169815132826154,-0.6229017851871655,-1.6576874805762358,-4.623032569885254,-4.804265022277832,-0.6388270258903503,-0.554330050945282,0.31169986724853516,-0.7717262506484985,-2.2526462078094482,2.242865562438965,-0.9028037190437317
-0.3512919440192624,-0.6830077671965221,-1.6952985872481703,-5.1525654792785645,-4.698517799377441,-0.8032876253128052,-0.5925852060317993,0.3441111445426941,-0.7283064723014832,-2.0882468223571777,2.215550661087036,-0.6380875110626221
-0.38795224026721453,-0.7451942708685418,-1.7406437075246146,-5.910769939422607,-4.401460647583008,-0.7480983138084412,-0.6277209520339966,0.37829363346099854,-0.6803383827209473,-1.8496503829956055,2.1335015296936035,-0.5283254981040955
-0.42834135786124355,-0.8082227706642401,-1.7940801842739507,-6.666491985321045,-3.9194905757904053,-0.5783795714378357,-0.6577364206314087,0.41536256670951843,-0.628376305103302,-1.7402586936950684,2.151867628097534,-0.5723225474357605
-0.470721902341336,-0.8715029802381566,-1.8557851995023593,-7.186196804046631,-3.3376266956329346,-0.5478112697601318,-0.6820642948150635,0.45352980494499207,-0.5736714005470276,-1.8061864376068115,2.1447062492370605,-0.7994363903999329
-0.5111681513743008,-0.9350498722033236,-1.9255047355747315,-7.393942356109619,-2.7780046463012695,-0.7304628491401672,-0.7017759680747986,0.48919641971588135,-0.5178778171539307,-1.9636597633361816,2.032196521759033,-1.1404626369476318
-0.5456811121034386,-0.9991018495706416,-2.0020033500736356,-7.32242488861084,-2.2972235679626465,-1.1011565923690796,-0.7188524007797241,0.5190004110336304,-0.46248215436935425,-2.1236767768859863,1.949596881866455,-1.447979211807251
-0.571203891607552,-1.0628085574976511,-2.0832228558967607,-7.053440093994141,-1.8003069162368774,-1.5953847169876099,-0.7350217700004578,0.5406452417373657,-0.4092012047767639,-2.23655104637146,1.8656504154205322,-1.6969541311264038
-0.5866607955130246,-1.1236241539348844,-2.166507167114988,-6.70047664642334,-1.2205976247787476,-2.0309343338012695,-0.7509081363677979,0.5535832643508911,-0.36011460423469543,-2.234260320663452,1.7778528928756714,-1.843727469444275
-0.5932506196037819,-1.1791626753450886,-2.2493729757188636,-6.3789567947387695,-0.6474260091781616,-2.334040403366089,-0.7663518786430359,0.5590591430664062,-0.3164771795272827,-2.1244866847991943,1.7337112426757812,-1.8300071954727173
-0.5928407744831838,-1.2287553474367252,-2.3308180296177743,-6.17336893081665,-0.16336482763290405,-2.5516374111175537,-0.781313955783844,0.558719277381897,-0.27817502617836,-2.0043458938598633,1.7334253787994385,-1.6722185611724854
-0.5870103685190899,-1.2734074086409322,-2.4109404819071796,-6.067049026489258,0.13067878782749176,-2.709747552871704,-0.7960530519485474,0.5538743138313293,-0.24397245049476624,-1.847867727279663,1.6833081245422363,-1.4647220373153687
-0.5766824367929991,-1.3148366870106556,-2.489690630841591,-5.9856719970703125,0.21489575505256653,-2.850369691848755,-0.8109657168388367,0.545245885848999,-0.2122296392917633,-1.671746015548706,1.5597344636917114,-1.3119096755981445
-0.5619182434703565,-1.3547019535282767,-2.566797497838046,-5.9160943031311035,0.11909600347280502,-3.049933910369873,-0.8265531659126282,0.5328104496002197,-0.1814466416835785,-1.539123773574829,1.4364583492279053,-1.2288774251937866
-0.5420733849993385,-1.3937334181019148,-2.642186210479422,-5.863255023956299,-0.00895374920219183,-3.3339078426361084,-0.8432474732398987,0.5159132480621338,-0.15088799595832825,-1.4471120834350586,1.3214432001113892,-1.2141022682189941
-0.5167894993369134,-1.4314896201855432,-2.7155273107484272,-5.804225444793701,-0.1289888173341751,-3.625232219696045,-0.8609875440597534,0.4940914511680603,-0.12072328478097916,-1.3361865282058716,1.214343547821045,-1.2647595405578613
-0.48644682193268923,-1.4671134882955403,-2.786314104188225,-5.742773532867432,-0.15184392035007477,-3.8672831058502197,-0.8792521953582764,0.4674878418445587,-0.0914914458990097,-1.2205555438995361,1.1537736654281616,-1.3656160831451416
-0.4519084402209173,-1.498121049391643,-2.8540933349939506,-5.654880046844482,0.11781630665063858,-4.038691997528076,-0.8972407579421997,0.43668317794799805,-0.06532226502895355,-1.1346654891967773,1.1621785163879395,-1.5013891458511353
-0.41436503999535584,-1.5216101007066876,-2.918579015799602,-5.533899307250977,0.6259545087814331,-4.122573375701904,-0.9142651557922363,0.4026087820529938,-0.04500555247068405,-1.0409808158874512,1.1609439849853516,-1.6347582340240479
-0.3751919527283329,-1.5354272824526292,-2.9796422832035763,-5.35946798324585,1.3348954916000366,-4.135311603546143,-0.929855465888977,0.3664511442184448,-0.0329018197953701,-0.9450987577438354,1.1605111360549927,-1.7290611267089844
-0.3357611932685341,-1.537638560978064,-3.0371217872455674,-5.100650787353516,2.2218973636627197,-4.071377277374268,-0.9436408877372742,0.32948794960975647,-0.03130049630999565,-0.8227318525314331,1.1430003643035889,-1.7806960344314575
-0.29736341312057246,-1.5280224133005873,-3.090764121819174,-4.758549690246582,2.985645055770874,-3.9562458992004395,-0.955237865447998,0.29300034046173096,-0.040884196758270264,-0.646294116973877,1.053663969039917,-1.7764832973480225
-0.2606065982442404,-1.5097759449376684,-3.1402334982461784,-4.313756465911865,3.3040924072265625,-3.850961446762085,-0.9644355177879333,0.2576667070388794,-0.058923374861478806,-0.48675161600112915,0.940605878829956,-1.719885230064392
-0.22554198219074625,-1.4878008702912384,3.0986725541699216,-3.7109668254852295,3.147782325744629,-3.7306301593780518,-0.9713180661201477,0.22363464534282684,-0.08080059289932251,-0.3911392092704773,0.8453960418701172,-1.6857552528381348
-0.19201236694887688,-1.4663164895101701,3.06090914693204,-2.9843132495880127,2.668203353881836,-3.614321708679199,-0.9762693643569946,0.1908346712589264,-0.10237323492765427,-0.40872514247894287,0.8452980518341064,-1.6793802976608276
-0.1593582818291302,-1.4478295269572912,3.0304922956157303,-2.2026753425598145,2.082319498062134,-3.537538528442383,-0.9798741340637207,0.1586846560239792,-0.12110299617052078,-0.5412592887878418,0.9173955917358398,-1.6697906255722046
-0.12660117752295302,-1.4327694557490451,3.0076307067524803,-1.4243794679641724,1.5865535736083984,-3.531611442565918,-0.9825621843338013,0.12626326084136963,-0.13648785650730133,-0.693524181842804,0.9599946141242981,-1.6663075685501099
-0.09283505620923298,-1.4203956886255722,2.9916789650329774,-0.7585521340370178,1.2660400867462158,-3.5883846282958984,-0.9844537377357483,0.09270176291465759,-0.1491890698671341,-0.8032965660095215,0.930766224861145,-1.6421165466308594
-0.05771474825854718,-1.408823152744505,2.9808190060826973,-0.3169219493865967,1.2535030841827393,-3.657818078994751,-0.9852678179740906,0.05768271163105965,-0.16099736094474792,-0.8580854535102844,0.8798630237579346,-1.5613384246826172
-0.02175760011777839,-1.3950583592205816,2.9725031937330835,-0.14738138020038605,1.5922116041183472,-3.6782398223876953,-0.9843647480010986,0.02175588347017765,-0.17479340732097626,-0.8655192852020264,0.8406097888946533,-1.4328726530075073
0.014144679370842598,-1.376514687055103,2.9641576826949807,-0.19287201762199402,2.133211135864258,-3.660548686981201,-0.9810884594917297,-0.01414420735090971,-0.19304242730140686,-0.8654080629348755,0.8512108325958252,-1.278011679649353
0.04934776355197811,-1.3514138860973826,2.9542224721899433,-0.30301129817962646,2.818169116973877,-3.6085522174835205,-0.9748438596725464,-0.04932773858308792,-0.21736197173595428,-0.8836003541946411,0.8985098600387573,-1.1649775505065918
0.08331644930036815,-1.318816184482327,2.9427346853623186,-0.32446375489234924,3.5211257934570312,-3.5087192058563232,-0.965061366558075,-0.08322009444236755,-0.24845720827579498,-0.8722493648529053,0.9377427101135254,-1.1096055507659912
0.116081320220851,-1.2792842140342509,2.930673140605518,-0.21629466116428375,4.091233730316162,-3.4329147338867188,-0.9513645172119141,-0.11582079529762268,-0.285466730594635,-0.8757228851318359,0.9787663221359253,-1.0634713172912598
0.14835500822247616,-1.2351961462182393,2.9187036555103583,-0.04599717631936073,4.335877895355225,-3.4216861724853516,-0.9338412284851074,-0.1478114128112793,-0.32571837306022644,-0.8783993721008301,0.9898523092269897,-0.982204020023346
0.18063700622451132,-1.1900818458292624,2.9070280280131575,0.15830323100090027,4.2376933097839355,-3.4084973335266113,-0.9132938981056213,-0.1796562522649765,-0.3655380606651306,-0.8600673675537109,1.0092459917068481,-0.8751846551895142
0.21306564050109544,-1.1468282623278498,2.896080508371397,0.41779303550720215,3.946462631225586,-3.3732199668884277,-0.8908531069755554,-0.21145720779895782,-0.4020780026912689,-0.8490914106369019,1.0751351118087769,-0.8038851618766785
0.24602113190235883,-1.106757456875943,2.886816204560534,0.7985020279884338,3.621436357498169,-3.326519012451172,-0.867325484752655,-0.24354684352874756,-0.43408700823783875,-0.844344437122345,1.1362011432647705,-0.8052623867988586
0.2801152069109848,-1.0702095488806282,2.880556038519965,1.3012347221374512,3.354628562927246,-3.2432165145874023,-0.8431069850921631,-0.27646636962890625,-0.46123403310775757,-0.8391439318656921,1.1786727905273438,-0.8581781983375549
0.3156347307826633,-1.03658821644048,2.8783829608810825,1.8357905149459839,3.2436606884002686,-3.1083083152770996,-0.8181544542312622,-0.3104199171066284,-0.4840068817138672,-0.8483493328094482,1.2538707256317139,-0.9007129073143005
0.35241094322247973,-1.0043554771577667,2.8804584517854477,2.3224151134490967,3.3488082885742188,-2.933624029159546,-0.7919580936431885,-0.3451615869998932,-0.5036525130271912,-0.882922887802124,1.3766556978225708,-0.8934269547462463
0.3902868595480556,-0.9716332763051296,2.886454359010972,2.7564351558685303,3.6129953861236572,-2.7580533027648926,-0.7637071013450623,-0.3804537057876587,-0.5215423107147217,-0.8765363693237305,1.4297243356704712,-0.8477203845977783
0.4293819601200753,-0.9380253444515562,2.8957795920501677,3.120393991470337,3.8085362911224365,-2.621652126312256,-0.7331902384757996,-0.4163089394569397,-0.5376977920532227,-0.8250830173492432,1.396350383758545,-0.7554540634155273
0.4694868069757542,-0.9047130722293334,2.907039492332599,3.2961511611938477,3.7708258628845215,-2.5248992443084717,-0.7011763453483582,-0.4524286687374115,-0.5510535836219788,-0.7962753176689148,1.3819482326507568,-0.5762657523155212
0.5098481357487613,-0.8735537773952623,2.9182966175378304,3.2957096099853516,3.469677209854126,-2.480588912963867,-0.6691164374351501,-0.48804470896720886,-0.5604422688484192,-0.7942471504211426,1.3888320922851562,-0.36858904361724854
0.5499113228926348,-0.8457747764590717,2.9280789514809196,3.187790870666504,3.050544023513794,-2.4756276607513428,-0.638136625289917,-0.5226116180419922,-0.5653837323188782,-0.8201457858085632,1.3804302215576172,-0.2301027774810791
0.5895141124440079,-0.8208892331856334,2.9357605898994628,3.079456329345703,2.763582229614258,-2.505861759185791,-0.6082403659820557,-0.5559571981430054,-0.5665290355682373,-0.8426567912101746,1.3346589803695679,-0.1926567554473877
0.6289512769370159,-0.7966949307091649,2.941017362283884,2.9653427600860596,2.6807961463928223,-2.597917079925537,-0.5782211422920227,-0.5882970094680786,-0.5653024911880493,-0.8903762102127075,1.2792912721633911,-0.21442162990570068
0.6682568481147472,-0.770729757115279,2.94281102988266,2.7770485877990723,2.7203903198242188,-2.7357637882232666,-0.5468096733093262,-0.6196187138557434,-0.5630912780761719,-0.9566845297813416,1.2652332782745361,-0.20766061544418335
0.7068308874913956,-0.7413661900057417,2.9400487043714283,2.517467737197876,2.7777647972106934,-2.8457021713256836,-0.5135113000869751,-0.6494271755218506,-0.56084805727005,-0.9698870778083801,1.253263235092163,-0.18259066343307495
0.7437866828753139,-0.7078985602242338,2.932388963578528,2.2455573081970215,2.9000182151794434,-2.8902957439422607,-0.4785171151161194,-0.677079439163208,-0.5590928792953491,-0.9798110723495483,1.2695019245147705,-0.17926466464996338
0.778636877615137,-0.6690037029321183,2.9203193578264943,2.0169973373413086,3.2155957221984863,-2.865445613861084,-0.44150611758232117,-0.7023097276687622,-0.5584204792976379,-1.0035316944122314,1.3065423965454102,-0.21152275800704956
0.8111806405349908,-0.6230223533080945,2.904040696253323,1.787479281425476,3.6421940326690674,-2.8671908378601074,-0.40181779861450195,-0.7251006960868835,-0.5592596530914307,-1.027930736541748,1.3071777820587158,-0.23346489667892456
0.8410642614162768,-0.5682759778691087,2.882280500032447,1.4830459356307983,4.068239212036133,-2.912113666534424,-0.35878828167915344,-0.7453530430793762,-0.5618894696235657,-1.0728217363357544,1.3096535205841064,-0.19322216510772705
0.8672487224468115,-0.5041319146399761,2.8539565533522553,1.1043254137039185,4.473430156707764,-2.9399912357330322,-0.31249648332595825,-0.7625519633293152,-0.5664454698562622,-1.086948037147522,1.323846459388733,-0.11879622936248779
0.888838418762353,-0.43014917077802595,2.8196006148607577,0.7794542908668518,5.010680198669434,-2.8960371017456055,-0.2628450393676758,-0.776340126991272,-0.5728947520256042,-1.0650968551635742,1.3406710624694824,-0.08980965614318848
0.9057344615978621,-0.34753738195106343,2.7811713161460787,0.5243486166000366,5.442140102386475,-2.8093459606170654,-0.21017669141292572,-0.7868785858154297,-0.5802135467529297,-0.9978157877922058,1.3370647430419922,-0.08462709188461304
0.9179637736158769,-0.2588386351776213,2.739923135647009,0.30833297967910767,5.731558799743652,-2.715646266937256,-0.15547886490821838,-0.7943663597106934,-0.5872038006782532,-0.978203296661377,1.3611540794372559,-0.04743969440460205
0.9260685523755049,-0.16677007446613915,2.698210815660579,0.2285446673631668,5.994650840759277,-2.5250823497772217,-0.09976169466972351,-0.7992634177207947,-0.5926429629325867,-0.9400179386138916,1.4008870124816895,-0.03630906343460083
0.9315674507165648,-0.07372285913994264,2.658527952466631,0.30469298362731934,6.206701278686523,-2.3104681968688965,-0.04394151642918587,-0.802556037902832,-0.5949562788009644,-0.8796424269676208,1.399388313293457,-0.06298744678497314
0.9360960830571627,0.018893919505171438,2.6215492293218627,0.4849235415458679,6.3143486976623535,-2.09096097946167,0.011202222667634487,-0.8052494525909424,-0.5928304195404053,-0.837664008140564,1.3797123432159424,-0.05904030799865723
0.9408071501949773,0.10946956187400884,2.5875568916425373,0.709069550037384,6.2516889572143555,-1.8429009914398193,0.06436372548341751,-0.8080338835716248,-0.5856095552444458,-0.7781393527984619,1.3515214920043945,-0.012702763080596924
0.9461907899532063,0.1963852626075163,2.556244696626301,0.8977422118186951,5.997336387634277,-1.6221719980239868,0.11410487443208694,-0.8111938834190369,-0.5735368728637695,-0.7427669763565063,1.3398499488830566,0.0717821717262268
0.951730822769357,0.2783510812282352,2.526779034430608,0.9628500938415527,5.553615093231201,-1.4502031803131104,0.15944230556488037,-0.8144210577011108,-0.5579394698143005,-0.7228578329086304,1.3101943731307983,0.1780719757080078
0.9564738136729601,0.3540967833513958,2.499046574410709,0.9231805205345154,5.037380695343018,-1.29263436794281,0.19986461102962494,-0.8171641230583191,-0.5406449437141418,-0.6884509921073914,1.2608134746551514,0.25643473863601685
0.9601449061737546,0.4232808186609161,2.4735716509679246,0.866121232509613,4.6216559410095215,-1.1303192377090454,0.23552684485912323,-0.8192746639251709,-0.5227964520454407,-0.6587293148040771,1.224853277206421,0.25903308391571045
0.9633623048993206,0.4871961844153559,2.4506422499855596,0.8719167709350586,4.3935747146606445,-0.9311574697494507,0.2672024965286255,-0.821115255355835,-0.5043535828590393,-0.6532040238380432,1.2239320278167725,0.19528687000274658
0.9670732527245517,0.5477323660784923,2.4300812997797783,0.9299342632293701,4.320348262786865,-0.7304565906524658,0.29563722014427185,-0.8232277035713196,-0.4846595227718353,-0.6675549149513245,1.2578742504119873,0.1206916868686676
0.9717396128802441,0.6067622837445971,2.411259381088465,1.0064539909362793,4.363497257232666,-0.5444507002830505,0.3215210735797882,-0.8258678913116455,-0.46321314573287964,-0.6892273426055908,1.290482759475708,0.07563996315002441
0.9773855965466647,0.665495901865293,2.393670173801546,1.0694578886032104,4.448336601257324,-0.3733108937740326,0.3452726900577545,-0.8290382623672485,-0.43986639380455017,-0.6798673868179321,1.3109413385391235,0.06459176540374756
0.9840438748970848,0.7247828441809434,2.376742461559725,1.1585184335708618,4.575478553771973,-0.21796222031116486,0.3670613467693329,-0.8327431082725525,-0.4144936501979828,-0.6489827632904053,1.3107551336288452,0.055439114570617676
0.9920464084370324,0.7857973604230367,2.359661512199465,1.291872501373291,4.742508888244629,-0.046312443912029266,0.38692617416381836,-0.837147057056427,-0.38661739230155945,-0.5975890159606934,1.2980692386627197,0.037709981203079224
1.0018862686715018,0.8488555283594101,2.3420290923589926,1.4409879446029663,4.865193843841553,0.18157769739627838,0.4043181240558624,-0.8424886465072632,-0.35600513219833374,-0.5251372456550598,1.2962698936462402,0.0400567352771759
1.0139162790777214,0.9130959738340486,2.3238844619329875,1.5688356161117554,4.862822532653809,0.4443770945072174,0.4182867705821991,-0.8489082455635071,-0.3230958580970764,-0.461423397064209,1.3217170238494873,0.07601034641265869
1.0279848153551732,0.9772513800339521,2.3050448647052377,1.6655162572860718,4.709303855895996,0.6769565343856812,0.42819705605506897,-0.856259822845459,-0.28890544176101685,-0.4183703660964966,1.3419013023376465,0.12993943691253662
1.0437717384012652,1.0406991087203377,2.2846242769345055,1.7679725885391235,4.424872875213623,0.878471851348877,0.43393591046333313,-0.8643074035644531,-0.2543070912361145,-0.3850467801094055,1.3304940462112427,0.15800896286964417
1.061061818674547,1.1033668227023914,2.2616337658250503,1.8736008405685425,4.0839385986328125,1.0612126588821411,0.43560314178466797,-0.8728740811347961,-0.21986474096775055,-0.34777361154556274,1.3234663009643555,0.16986176371574402
1.079634045040941,1.165711458244669,2.23528301080989,1.973473072052002,3.735250234603882,1.2338773012161255,0.4334796667098999,-0.8817852735519409,-0.18587608635425568,-0.3167499899864197,1.3243818283081055,0.17597319185733795
1.0994011667969332,1.2280616591543632,2.205273765471424,2.0432229042053223,3.3936538696289062,1.4309403896331787,0.4277171790599823,-0.8909355998039246,-0.15261663496494293,-0.2819347381591797,1.3315788507461548,0.1820356249809265
1.1205839791503458,1.2910143312774636,2.171262614750854,2.117725133895874,3.0900721549987793,1.676666498184204,0.4182358682155609,-0.9003547430038452,-0.1201668232679367,-0.2313462197780609,1.3221688270568848,0.17427456378936768
1.1435452414977827,1.355603736859146,2.1325298723815003,2.1789591312408447,2.796152114868164,1.9651247262954712,0.404813289642334,-0.9101082682609558,-0.08848287165164948,-0.16885137557983398,1.289975881576538,0.15241724252700806
1.1683628932741192,1.4226951118211972,2.088505670523065,2.184661626815796,2.5626823902130127,2.2617173194885254,0.38737139105796814,-0.9201106429100037,-0.05779334157705307,-0.14712169766426086,1.2710473537445068,0.13771891593933105
1.1946711950815212,1.493520782443914,2.039238452733923,2.095219135284424,2.496661424636841,2.526825189590454,0.3662230372428894,-0.9300949573516846,-0.02835655026137829,-0.1706206500530243,1.2638046741485596,0.12816429138183594
1.221799931017208,1.5687860381756253,1.985994321488591,1.8707165718078613,2.6033523082733154,2.725625991821289,0.34195414185523987,-0.9397163987159729,-0.0006874274113215506,-0.22388169169425964,1.2452125549316406,0.13163840770721436
1.249123433775603,1.6477425874432805,1.9312425163404632,1.5087491273880005,2.8456039428710938,2.843107223510742,0.31521865725517273,-0.9487078785896301,0.024302879348397255,-0.2881495952606201,1.2441637516021729,0.14471876621246338
1.2760468217992103,1.729848815849873,1.8766471725788276,1.1578315496444702,3.1595423221588135,2.876770496368408,0.2868332862854004,-0.9568749666213989,0.04601018875837326,-0.3469987213611603,1.222072720527649,0.12658202648162842
1.3023131238195522,1.8184749186983458,1.8188581968125563,0.9641685485839844,3.4374842643737793,2.9298696517944336,0.2571741044521332,-0.9641743898391724,0.06503177434206009,-0.35364022850990295,1.1883108615875244,0.04329036921262741
1.3275778513001681,1.9196936120657346,1.7506432496178561,0.9442819356918335,3.592742681503296,3.038377046585083,0.22631730139255524,-0.9705678820610046,0.08232956379652023,-0.3375997543334961,1.2045310735702515,-0.06726910173892975
1.3520538862251814,2.0465531944560387,1.6574360865128366,1.0125341415405273,3.5953404903411865,3.1486976146698,0.1929035484790802,-0.9761711359024048,0.09938960522413254,-0.3548603653907776,1.2614799737930298,-0.13025808334350586
1.3736771380176036,2.203877754308861,1.532980186149016,1.0727609395980835,3.4819283485412598,3.210615634918213,0.15789200365543365,-0.980634868144989,0.11586824804544449,-0.41486531496047974,1.3338299989700317,-0.142006516456604
1.3907671719623538,2.3920074877625903,1.3762580387820833,1.025802731513977,3.3347153663635254,3.2111589908599854,0.12199874222278595,-0.9838384985923767,0.13106562197208405,-0.48593616485595703,1.4151740074157715,-0.11948420107364655
1.4024759487935448,2.6016250351221246,1.1969025919386451,0.8141421675682068,3.2493674755096436,3.1253199577331543,0.08612692356109619,-0.9858675599098206,0.1436920166015625,-0.5403810739517212,1.4906740188598633,-0.076995849609375
1.4094834928676252,2.817420542931018,1.0112732938528033,0.45373785495758057,3.279716968536377,2.957130193710327,0.05115944519639015,-0.9870172739028931,0.15224841237068176,-0.5514646768569946,1.516283631324768,-0.043941497802734375
1.4131089624273525,3.0299350668012406,0.8298566997558857,0.10102429240942001,3.377110242843628,2.818618059158325,0.017497651278972626,-0.9875931143760681,0.15605632960796356,-0.4961048662662506,1.4783310890197754,-0.061039820313453674
1.4132900573020168,-3.038528834683481,0.6471553706344823,-0.0823075920343399,3.449800968170166,2.9348549842834473,-0.016137560829520226,-0.9876214861869812,0.1560235470533371,-0.3664155900478363,1.4777491092681885,-0.14711236953735352
1.407212731905675,-2.812818545431215,0.4537248000215519,-0.030446261167526245,3.465794563293457,3.3682260513305664,-0.05258312076330185,-0.9866499900817871,0.15413232147693634,-0.20075857639312744,1.5650343894958496,-0.2787661552429199
1.3909236120586386,-2.590371849196695,0.2629206023666631,0.20501507818698883,3.378325939178467,3.875278949737549,-0.09369757771492004,-0.9838664531707764,0.15240676701068878,-0.12380125373601913,1.6301677227020264,-0.4160480499267578
1.3635759155890537,-2.4012149841046146,0.10359128664856193,0.44703808426856995,3.1349196434020996,4.256253242492676,-0.13878615200519562,-0.9786065816879272,0.15188097953796387,-0.22014640271663666,1.6927635669708252,-0.4753519296646118
1.328137527916754,-2.2556602424556025,-0.015259677691556074,0.5311675667762756,2.766653299331665,4.479923248291016,-0.18610161542892456,-0.9707025289535522,0.15199622511863708,-0.3924659490585327,1.8009027242660522,-0.4357181787490845
1.2884597076315747,-2.145360556039835,-0.10281669276924274,0.4484618008136749,2.359989643096924,4.56178617477417,-0.23386576771736145,-0.9604070782661438,0.1514109969139099,-0.5268154144287109,1.900470495223999,-0.36605632305145264
1.246964820608455,-2.0603119891846746,-0.16892760545304325,0.3646470308303833,2.0265250205993652,4.5494160652160645,-0.28083181381225586,-0.9480232000350952,0.14961770176887512,-0.5904450416564941,1.9624581336975098,-0.37778234481811523
1.2046285489112896,-1.9953139821316268,-0.21755234211298788,0.4466566741466522,1.8220354318618774,4.459634780883789,-0.32625919580459595,-0.9337062835693359,0.14746986329555511,-0.5764354467391968,1.9490262269973755,-0.5076534748077393
1.1613741852075503,-1.9495149795773905,-0.24794501206541866,0.8627674579620361,1.7026424407958984,4.393738269805908,-0.3698708117008209,-0.9173510074615479,0.14718185365200043,-0.5371421575546265,1.8621906042099,-0.7241623401641846
1.11500405723024,-1.9229931718269682,-0.2588137320977027,1.6263610124588013,1.612034797668457,4.616087436676025,-0.4131547510623932,-0.8979125618934631,0.1518426537513733,-0.4571760892868042,1.8672577142715454,-0.954103946685791
1.0617987721547426,-1.9134460015187373,-0.2522005224230886,2.565032482147217,1.4500914812088013,5.185517311096191,-0.4589742124080658,-0.873233437538147,0.16372570395469666,-0.3589121699333191,2.020404577255249,-1.078322172164917
0.999439485851648,-1.9164378322392466,-0.233052459308296,3.454535961151123,1.2146073579788208,5.851247787475586,-0.5087916851043701,-0.8411679863929749,0.18321439623832703,-0.36930590867996216,2.2268948554992676,-1.049440622329712
0.928944262800522,-1.927008593621288,-0.20736002046384178,4.071163654327393,0.8705212473869324,6.301156997680664,-0.5610976815223694,-0.8009883165359497,0.2087758183479309,-0.5365128517150879,2.3480615615844727,-0.8987934589385986
0.8543247274366457,-1.9413518441762965,-0.18037894594049123,4.32853889465332,0.4561312198638916,6.355764389038086,-0.6121534705162048,-0.7541276216506958,0.23782309889793396,-0.8220812082290649,2.3805618286132812,-0.6820979118347168
0.7802322114174922,-1.9567535465030936,-0.15507941722014076,4.302340984344482,0.18398138880729675,6.063952445983887,-0.6584664583206177,-0.7034444808959961,0.2675592005252838,-1.1110953092575073,2.353377342224121,-0.5122185945510864
0.7098251917850211,-1.970698466591522,-0.13223694200482192,4.168885231018066,0.15020662546157837,5.609865188598633,-0.6986315250396729,-0.6517012119293213,0.2952961027622223,-1.2459332942962646,2.243788003921509,-0.4646991193294525
0.6436835698514421,-1.9821840769802586,-0.11029480354354435,4.20357608795166,0.3187403678894043,5.174741268157959,-0.733153223991394,-0.6001459360122681,0.31986162066459656,-1.2266247272491455,2.049562931060791,-0.574561357498169
0.5797543363771788,-1.991241122188211,-0.08671181919470819,4.496896266937256,0.5760994553565979,4.966719150543213,-0.7637357711791992,-0.5478184223175049,0.34147095680236816,-1.1449860334396362,1.9753392934799194,-0.7676031589508057
0.5146021391008626,-1.9978339060901587,-0.060374906051062854,4.939533233642578,0.8408838510513306,5.054245471954346,-0.7923157811164856,-0.49218854308128357,0.3605356514453888,-1.0512663125991821,2.053086519241333,-0.8825387954711914
0.44586472812361694,-2.0013632422056076,-0.03183788673120605,5.322009086608887,1.0739152431488037,5.323039531707764,-0.819890022277832,-0.43123823404312134,0.3765815198421478,-1.0403698682785034,2.193887948989868,-0.86147540807724
0.37339456523945297,-2.0010795074817387,-0.0033216117114742527,5.399448871612549,1.2404530048370361,5.6219096183776855,-0.8462230563163757,-0.36477819085121155,0.3883857727050781,-1.137221097946167,2.3424394130706787,-0.7012825012207031
0.2993345058734214,-1.9969852576403633,0.02250252125649387,5.110568046569824,1.2482126951217651,5.758639812469482,-0.870058536529541,-0.2948843836784363,0.39502084255218506,-1.285474419593811,2.3855063915252686,-0.4659131169319153
0.2269301881888179,-1.9911531174274777,0.044511464790492825,4.688910007476807,1.035862684249878,5.634570121765137,-0.8895371556282043,-0.2249874770641327,0.39762359857559204,-1.39671790599823,2.2095913887023926,-0.29801419377326965
0.15799532797617832,-1.9858666711558908,0.06439797707552912,4.483142852783203,0.7893487811088562,5.323724746704102,-0.9036902785301208,-0.15733882784843445,0.3982316553592682,-1.4581413269042969,1.9080865383148193,-0.3518601953983307
0.09306089395244954,-1.9812645643001627,0.08598194736052692,4.671696186065674,0.6874475479125977,4.800681114196777,-0.9129664897918701,-0.09292662888765335,0.3973120450973511,-1.5901157855987549,1.6372992992401123,-0.5710333585739136
0.03187523299720044,-1.9754661826833633,0.11290252311396647,5.08832311630249,0.8358281850814819,4.295925617218018,-0.9187655448913574,-0.031869836151599884,0.39351531863212585,-1.9112515449523926,1.6858158111572266,-0.7485568523406982
-0.026838602813717777,-1.964905460919343,0.1454537616010624,5.423825740814209,1.3216859102249146,3.9800524711608887,-0.9230065941810608,0.026835380122065544,0.38384753465652466,-2.137509822845459,1.949360966682434,-0.7208377718925476
-0.0834121840793567,-1.9464490359790199,0.1816822494795624,5.444774627685547,1.9584101438522339,3.770437717437744,-0.9270340800285339,0.08331549167633057,0.3656042516231537,-2.214277505874634,2.047116756439209,-0.5159338712692261
-0.13705538426788744,-1.9197841730464882,0.2179550931269989,5.020090103149414,2.5574288368225098,3.6913511753082275,-0.9309070706367493,0.1366267055273056,0.3387402296066284,-2.1740732192993164,1.9814153909683228,-0.19555190205574036
-0.18740075456814304,-1.886929257952574,0.25026515610651806,4.236973285675049,2.8850204944610596,3.7203986644744873,-0.9338041543960571,0.18630579113960266,0.3054502606391907,-2.0114166736602783,1.7991220951080322,0.12442025542259216
-0.2345769063552927,-1.8536857562868554,0.2765640204704754,3.4701573848724365,2.568082094192505,3.7446441650390625,-0.9339543581008911,0.23243150115013123,0.2714867889881134,-1.8361262083053589,1.5840206146240234,0.299344539642334
-0.279320468788719,-1.8264952517933606,0.29925001517706484,3.19907808303833,1.6158288717269897,3.670370101928711,-0.9299898147583008,0.27570250630378723,0.24311916530132294,-1.7638882398605347,1.4090356826782227,0.1656636893749237
-0.321765719060443,-1.8097644223693514,0.3248614228037694,3.6996235847473145,0.19184204936027527,3.3136703968048096,-0.9217196702957153,0.31624215841293335,0.22455236315727234,-1.9653500318527222,1.3955804109573364,-0.20637917518615723
-0.3619580712084976,-1.8012473806717395,0.3614905675981803,4.920538902282715,-0.8617545366287231,2.893974542617798,-0.9104816317558289,0.3541060984134674,0.21361646056175232,-2.413599729537964,1.6822556257247925,-0.6649104356765747
-0.40083431035124406,-1.7924432289898922,0.41460869503332254,6.380190849304199,-1.2725540399551392,2.4279983043670654,-0.8982114791870117,0.3901866674423218,0.20241133868694305,-2.686795234680176,1.8144947290420532,-0.993854284286499
-0.4360437050524536,-1.7774629161680724,0.48400596626062303,7.372579097747803,-1.3422540426254272,1.7210628986358643,-0.887141227722168,0.42235666513442993,0.1859980821609497,-2.8967180252075195,1.7642583847045898,-0.9426814317703247
-0.4642861577960752,-1.7554069429758306,0.5637012144092806,7.681522369384766,-1.153024435043335,1.027348518371582,-0.8789482116699219,0.4477846324443817,0.1641320288181305,-2.927906036376953,1.6654510498046875,-0.5794610977172852
-0.4841782881008397,-1.7260323517937362,0.6480034518225742,7.723872184753418,-0.6253268718719482,0.3331736922264099,-0.8744150400161743,0.4654812514781952,0.13684169948101044,-2.7704520225524902,1.4232364892959595,-0.2871408462524414
-0.49492922803017614,-1.6878276941817212,0.7353257689781704,7.781745433807373,0.005690122954547405,-0.2801003158092499,-0.873982846736908,0.47496938705444336,0.10275295376777649,-2.7147011756896973,1.2223725318908691,-0.16114842891693115
-0.49718090106899854,-1.643617767795512,0.8248460223591857,7.850582122802734,0.13784974813461304,-0.76743483543396,-0.8766010403633118,0.47694963216781616,0.06394843012094498,-2.7134408950805664,1.3373661041259766,0.05688583105802536
-0.49132657517499617,-1.6007630784842912,0.9161780010039027,8.125174522399902,-0.30242007970809937,-1.2091656923294067,-0.8813119530677795,0.4717959463596344,0.026417965069413185,-2.7666831016540527,1.5613003969192505,0.27390551567077637
-0.478317005918306,-1.5629878560650659,1.0108143195287944,8.529693603515625,-0.9794778823852539,-1.5484950542449951,-0.8877438902854919,0.4602857232093811,-0.006932063028216362,-2.798733711242676,1.7478442192077637,0.36713099479675293
-0.45895735319825465,-1.5324033214950137,1.1076838686467383,8.746000289916992,-1.6398637294769287,-1.9279091358184814,-0.8958542346954346,0.44301360845565796,-0.03441144526004791,-2.735050916671753,1.8095804452896118,0.4608793258666992
-0.4321709090966406,-1.5098937909105077,1.2032435403291886,8.649364471435547,-2.0461997985839844,-2.5721218585968018,-0.9063752889633179,0.4188430905342102,-0.05526890233159065,-2.7297637462615967,1.734248399734497,0.5787521004676819
-0.3965577913669052,-1.4936304861923018,1.293859422243362,8.316832542419434,-1.916966438293457,-3.3708720207214355,-0.9196510314941406,0.3862455487251282,-0.07110683619976044,-2.7957115173339844,1.655563473701477,0.6261757612228394
-0.35209993000596235,-1.4789069628442122,1.377616171261829,7.907718181610107,-1.203133463859558,-4.135237693786621,-0.934690535068512,0.3448696732521057,-0.08613067865371704,-2.836305618286133,1.6576786041259766,0.5968117713928223
-0.3003626053278268,-1.4616706556575065,1.4538245380937782,7.430315971374512,-0.2485121637582779,-4.647892951965332,-0.9495471715927124,0.29586660861968994,-0.10403325408697128,-2.819251537322998,1.7860883474349976,0.6044451594352722
-0.24422072706944625,-1.4420423444237118,1.5219737994957305,6.889874458312988,0.4592130482196808,-4.8939971923828125,-0.962294340133667,0.2418002486228943,-0.12458845227956772,-2.701890230178833,1.968282699584961,0.7183994054794312
-0.18552824169637708,-1.4221468872387768,1.5827398602003935,6.4769287109375,0.8850420117378235,-5.054954528808594,-0.9720000624656677,0.18446573615074158,-0.14556097984313965,-2.61761474609375,2.0393805503845215,0.7918012142181396
-0.12454088422689591,-1.4037730095419638,1.6380931076928285,6.202524185180664,1.0286659002304077,-5.254631996154785,-0.9784466028213501,0.12421918660402298,-0.16496022045612335,-2.6474382877349854,2.070772886276245,0.7643101215362549
-0.06005511453425149,-1.3894759633790115,1.6884784966783952,5.874050617218018,0.8445659279823303,-5.697887897491455,-0.981833279132843,0.06001901999115944,-0.18000337481498718,-2.7417383193969727,2.0963072776794434,0.7815505266189575
0.00929245306074329,-1.382028039303615,1.734000145621861,5.617854118347168,0.3875083327293396,-6.202810287475586,-0.9821937084197998,-0.009292319416999817,-0.18764109909534454,-2.77201771736145,2.121703863143921,0.7798957228660583
0.08264616678271021,-1.3826139886416418,1.7770803180112489,5.583959579467773,-0.10627193003892899,-6.526246070861816,-0.9789929986000061,-0.08255211263895035,-0.18643511831760406,-2.646266460418701,2.2217886447906494,0.6567872166633606
0.158278389133171,-1.3910398221868367,1.820812374375641,5.692226409912109,-0.508577823638916,-6.6959710121154785,-0.9715888500213623,-0.15761834383010864,-0.17655515670776367,-2.4859611988067627,2.3441569805145264,0.5202898383140564
0.234701579605349,-1.406584907836141,1.8665414586667424,5.700699329376221,-0.8001640439033508,-6.7740888595581055,-0.9595000743865967,-0.23255275189876556,-0.15899254381656647,-2.3156309127807617,2.3983700275421143,0.4970204830169678
0.3107011298877237,-1.4283620254451632,1.9130843287913335,5.413039207458496,-1.034744143486023,-6.825361728668213,-0.9424777030944824,-0.3057262599468231,-0.13515637814998627,-2.1116604804992676,2.363328218460083,0.6059662699699402
0.3851797554153509,-1.4549635020884253,1.958340342132312,4.885481834411621,-1.1828835010528564,-6.780582427978516,-0.9205207228660583,-0.37572571635246277,-0.10710597038269043,-1.8821372985839844,2.274529457092285,0.7379194498062134
0.45656916434226635,-1.4846515766524013,2.0006643606363976,4.202349662780762,-1.289766788482666,-6.590075492858887,-0.8942418694496155,-0.44087129831314087,-0.07722536474466324,-1.6108849048614502,2.151259422302246,0.8070837259292603
0.5242911743106065,-1.516132775789115,2.0392300906032985,3.5302257537841797,-1.3587708473205566,-6.4064555168151855,-0.8643859624862671,-0.5005995035171509,-0.04729752615094185,-1.4124083518981934,2.008030414581299,0.791590690612793
0.589193371776802,-1.5489795887931184,2.075163857237735,3.0744526386260986,-1.4021254777908325,-6.29339599609375,-0.8311914801597595,-0.555690586566925,-0.01813676580786705,-1.3022466897964478,1.8785512447357178,0.6583344340324402
0.6520742022972835,-1.5844359703451976,2.1114918252593897,2.9009389877319336,-1.4619783163070679,-6.215906620025635,-0.7947530150413513,-0.6068363189697266,0.010840820148587227,-1.188462257385254,1.7699222564697266,0.45392656326293945
0.7129597991734161,-1.6251319375499855,2.1517408693145508,2.927412271499634,-1.5919709205627441,-6.117861747741699,-0.7553130388259888,-0.6540755033493042,0.04108083248138428,-1.0333070755004883,1.6738660335540771,0.27238035202026367
0.771061032187821,-1.6736630126450587,2.198471870965442,3.0087127685546875,-1.7907581329345703,-5.962306976318359,-0.7133806943893433,-0.6968965530395508,0.0736430436372757,-0.839216411113739,1.5787935256958008,0.16369211673736572
0.8253442405299931,-1.7317841800060247,2.2527608924387414,3.045210599899292,-2.044832229614258,-5.750599384307861,-0.6695334911346436,-0.7347813248634338,0.10872768610715866,-0.6499398946762085,1.486841082572937,0.12903478741645813
0.87488615386016,-1.7996547328752235,2.3140649977190373,2.937952756881714,-2.2857887744903564,-5.491580963134766,-0.6243683695793152,-0.7674705386161804,0.14544005692005157,-0.49848002195358276,1.4153130054473877,0.15466973185539246
0.9191087173928114,-1.8748361700835838,2.3800216963238703,2.6324031352996826,-2.4058172702789307,-5.1587605476379395,-0.5787103176116943,-0.7950613498687744,0.18158091604709625,-0.3779088854789734,1.3374502658843994,0.2187485545873642
0.9579443570069858,-1.9528914870530731,2.446701937059231,2.148714303970337,-2.4171390533447266,-4.766936302185059,-0.5337219834327698,-0.8180108666419983,0.21447306871414185,-0.2756345272064209,1.2465236186981201,0.2970014214515686
0.9921633775966932,-2.0301871807582863,2.5108474857981578,1.6193286180496216,-2.405520439147949,-4.393333435058594,-0.4901810586452484,-0.8372110724449158,0.2424878180027008,-0.2315596342086792,1.1529611349105835,0.34450244903564453
1.0228591759515158,-2.105691748354264,2.5714444977037227,1.1425094604492188,-2.440913438796997,-4.059019088745117,-0.4481652081012726,-0.8536009192466736,0.26554325222969055,-0.26860105991363525,1.0574126243591309,0.3455253541469574
1.0509162015469686,-2.179665758146227,2.6284381039078375,0.6987863183021545,-2.5346481800079346,-3.783400297164917,-0.4075033664703369,-0.8678787350654602,0.2841265797615051,-0.33262428641319275,0.9811140298843384,0.3259961009025574
1.0775000315063983,-2.253410938884818,2.6828882818954933,0.33532723784446716,-2.6730101108551025,-3.6294898986816406,-0.3674258291721344,-0.8807767629623413,0.2987153232097626,-0.4421902596950531,0.9079372882843018,0.2875120937824249
1.1031036223014743,-2.3292948791282364,2.7374881829461346,0.08577705919742584,-2.805104970932007,-3.5210490226745605,-0.327241986989975,-0.8926108479499817,0.3100937604904175,-0.5628489255905151,0.838533878326416,0.2117566466331482
1.1274397769384108,-2.408234917068647,2.793306375696459,-0.14157430827617645,-2.93623948097229,-3.3655409812927246,-0.28714123368263245,-0.903316855430603,0.31869783997535706,-0.6265245676040649,0.8103299140930176,0.1550111472606659
1.1505692554671518,-2.489630417756762,2.849811821152319,-0.39348486065864563,-3.0601346492767334,-3.2125203609466553,-0.24753332138061523,-0.9129963517189026,0.3242913782596588,-0.70052570104599,0.8334370255470276,0.14148303866386414
1.1729835458385771,-2.574409466360257,2.9080317163852443,-0.6266741156578064,-3.1983401775360107,-3.137188196182251,-0.2081356644630432,-0.9219105243682861,0.3267427682876587,-0.7985171675682068,0.8534747362136841,0.12514618039131165
1.1950198447845002,-2.6650511644162966,2.9702005506622515,-0.8422487378120422,-3.4038069248199463,-3.1044435501098633,-0.16834400594234467,-0.9302229285240173,0.3261072635650635,-0.8774018287658691,0.8674023151397705,0.09599664807319641
1.2162939592290116,-2.763520081783078,3.037838698588917,-1.0203280448913574,-3.6240158081054688,-3.022972583770752,-0.1281336098909378,-0.9378193616867065,0.3226087987422943,-0.9322912096977234,0.9235219955444336,0.05596169829368591
1.2363374327138494,-2.868685216480421,3.1104227429525184,-1.2083392143249512,-3.7000632286071777,-2.877156972885132,-0.08847631514072418,-0.9445880651473999,0.31611013412475586,-0.963586688041687,1.0200273990631104,0.013998538255691528
1.2554434771391185,-2.977995853187464,-3.096344826559294,-1.4584213495254517,-3.6482479572296143,-2.6913084983825684,-0.05051378160715103,-0.9506869912147522,0.3060104250907898,-0.9880604147911072,1.0975072383880615,-0.0038254857063293457
1.274255626599068,-3.0912477701539807,-3.015404169855045,-1.7472081184387207,-3.525705099105835,-2.5449960231781006,-0.014705243520438671,-0.9563530683517456,0.29184332489967346,-1.0314984321594238,1.1449211835861206,-0.016437530517578125
1.292920340649694,3.0715402321847227,-2.925829536445089,-2.0150222778320312,-3.356926441192627,-2.4829957485198975,0.01920059137046337,-0.9616402387619019,0.27364039421081543,-1.0940296649932861,1.169297218322754,-0.040074288845062256
1.3107514200806107,2.9384114724896873,-2.8220979621768603,-2.245363235473633,-3.2534217834472656,-2.476379156112671,0.05188409984111786,-0.9663784503936768,0.2518351078033447,-1.1536601781845093,1.2082301378250122,-0.06120702624320984
1.3264992764925352,2.7881582517859815,-2.700360282855377,-2.4215147495269775,-3.199312925338745,-2.483548164367676,0.08371779322624207,-0.9703075885772705,0.2269233614206314,-1.1859211921691895,1.2545485496520996,-0.08027128875255585
1.3384060085046499,2.6200277004291435,-2.560268443759306,-2.504441499710083,-3.1811416149139404,-2.483193874359131,0.11474598199129105,-0.9731186628341675,0.19968266785144806,-1.1997069120407104,1.3002214431762695,-0.11202099919319153
1.3446377171227193,2.438719558392863,-2.4067530557118384,-2.4871702194213867,-3.1490490436553955,-2.4959096908569336,0.14494909346103668,-0.9745349884033203,0.17108957469463348,-1.215124249458313,1.3424242734909058,-0.15650223195552826
1.343795172437976,2.2551350238205576,-2.2503383872982603,-2.3876097202301025,-3.0577516555786133,-2.528658390045166,0.1743820160627365,-0.9743456840515137,0.14227177202701569,-1.2196396589279175,1.3530535697937012,-0.20100297033786774
1.3358508555845812,2.081129287687863,-2.102674742612266,-2.302088975906372,-2.982503890991211,-2.563884973526001,0.20312775671482086,-0.972527027130127,0.11371009796857834,-1.2160366773605347,1.372399091720581,-0.1983049213886261
1.322003722856589,1.9230322213616526,-1.970622993861413,-2.2740836143493652,-2.973994016647339,-2.570094585418701,0.23111578822135925,-0.9692104458808899,0.08494993299245834,-1.1860413551330566,1.4153317213058472,-0.14424562454223633
1.3036550483108094,1.783328390912377,-1.8569113282616334,-2.2607431411743164,-2.9500479698181152,-2.549832582473755,0.25803515315055847,-0.9645294547080994,0.055681657046079636,-1.1366667747497559,1.4471803903579712,-0.09930659085512161
1.2818131492329827,1.6618933130404645,-1.7612277744036995,-2.255574941635132,-2.915057897567749,-2.54459285736084,0.2837962210178375,-0.9585341215133667,0.02592473290860653,-1.0848826169967651,1.4578016996383667,-0.07630932331085205
1.2571918499140056,1.5568411949735763,-1.6818172550954218,-2.2477827072143555,-2.910796880722046,-2.54184889793396,0.3084592819213867,-0.9512277841567993,-0.004304869566112757,-1.0370817184448242,1.4485118389129639,-0.06522947549819946
1.2304350802372457,1.4661327712106147,-1.6169084002814156,-2.2168521881103516,-2.914675235748291,-2.5335440635681152,0.3320007026195526,-0.942634105682373,-0.034875813871622086,-0.9877471923828125,1.44329035282135,-0.06445896625518799
1.202339655383226,1.3879002686634583,-1.5645829320408897,-2.1681997776031494,-2.889313220977783,-2.4911272525787354,0.354168564081192,-0.9328843355178833,-0.06550810486078262,-0.9363219141960144,1.4404985904693604,-0.07397257536649704
1.1735532724411721,1.3203843909512072,-1.5226476105605211,-2.1178314685821533,-2.8093419075012207,-2.4468486309051514,0.37481117248535156,-0.9221311211585999,-0.09586948901414871,-0.8938694000244141,1.4412503242492676,-0.07972872257232666
1.1442695439306418,1.2617572996849855,-1.4889059408050427,-2.0828418731689453,-2.712465524673462,-2.4263298511505127,0.39411234855651855,-0.9104081392288208,-0.12582756578922272,-0.854637861251831,1.4308854341506958,-0.07656502723693848
1.1145915339022763,1.2109490880333438,-1.462244106934038,-1.997222900390625,-2.612194538116455,-2.4197499752044678,0.4123276174068451,-0.8977308869361877,-0.15512938797473907,-0.7909287214279175,1.3819533586502075,-0.0878363847732544
1.084903930906642,1.1678967605107236,-1.442984374015889,-1.8141061067581177,-2.562533378601074,-2.4299049377441406,0.4296041429042816,-0.8842585682868958,-0.18310385942459106,-0.7226186990737915,1.323269248008728,-0.13139508664608002
1.0558073964738708,1.1318995591470407,-1.4314341069700012,-1.5573102235794067,-2.6021454334259033,-2.412851095199585,0.4458443224430084,-0.8702981472015381,-0.20929424464702606,-0.6583077311515808,1.2617318630218506,-0.17422020435333252
1.0282345069933732,1.1018237058254985,-1.427224549455672,-1.2332640886306763,-2.6710596084594727,-2.347115993499756,0.46058470010757446,-0.8563887476921082,-0.23336634039878845,-0.5942975282669067,1.224766492843628,-0.20715497434139252
1.0028354125118717,1.0767365834871923,-1.4297682399447533,-0.8784719109535217,-2.7678332328796387,-2.272109270095825,0.47358766198158264,-0.8429995775222778,-0.25508105754852295,-0.5485236644744873,1.2067843675613403,-0.22132891416549683
0.9798476442655703,1.0554883994183593,-1.4384359937124154,-0.5140204429626465,-2.920661449432373,-2.2057924270629883,0.48479828238487244,-0.8304125070571899,-0.274564653635025,-0.5131949186325073,1.166197419166565,-0.22043049335479736
0.95953942683931,1.036928871298223,-1.4527115607287502,-0.1332714855670929,-3.1423990726470947,-2.1159756183624268,0.4940366744995117,-0.8189273476600647,-0.29203692078590393,-0.4837217926979065,1.133624792098999,-0.20588788390159607
0.9423972097933861,1.019808828581525,-1.471924288928118,0.2503163814544678,-3.394700288772583,-1.98031747341156,0.5008531808853149,-0.8089696168899536,-0.307756632566452,-0.451887845993042,1.1052954196929932,-0.18223360180854797
0.9297956039316886,1.0038819733483186,-1.4956340885325468,0.6102596521377563,-3.6273066997528076,-1.799065113067627,0.5044482946395874,-0.801497757434845,-0.32114377617836,-0.4187701940536499,1.0643455982208252,-0.1537097692489624
0.9197895496941373,0.9876906371205882,-1.5219165680984335,0.9197854995727539,-3.7811636924743652,-1.6115549802780151,0.5058521032333374,-0.795474112033844,-0.3336682915687561,-0.4055103659629822,1.0341216325759888,-0.10911130905151367
0.9129379280724168,0.9714011183553347,-1.5498960298230855,1.1090513467788696,-3.893552541732788,-1.4262703657150269,0.5048383474349976,-0.7913034558296204,-0.3449304401874542,-0.40234506130218506,1.0231150388717651,-0.029703378677368164
0.9083396683045512,0.9535942025772256,-1.5775372770127147,1.106582522392273,-4.017839431762695,-1.2678372859954834,0.5015785694122314,-0.7884836196899414,-0.35596707463264465,-0.4078591465950012,1.026597023010254,0.09781885147094727
0.9046437214534512,0.931984679054483,-1.6023461856775936,0.9007138013839722,-4.195575714111328,-1.120680332183838,0.4961058795452118,-0.7862050533294678,-0.36845701932907104,-0.44103696942329407,1.0702168941497803,0.25323784351348877
0.9008453425630017,0.9045119708339701,-1.6221887240283854,0.573792040348053,-4.39158296585083,-0.9701119065284729,0.4881415069103241,-0.7838521003723145,-0.3837885856628418,-0.45959237217903137,1.092186450958252,0.3724818527698517
0.896487498322563,0.870597091460795,-1.6364145146610145,0.24723733961582184,-4.588143348693848,-0.8177205324172974,0.47745481133461,-0.7811386585235596,-0.4023172855377197,-0.46788761019706726,1.0474960803985596,0.40326330065727234
0.8917189981892795,0.8309301888566295,-1.645294871524188,-0.04094249755144119,-4.67190408706665,-0.6198076009750366,0.4638705849647522,-0.778152585029602,-0.4234415292739868,-0.5031009912490845,1.029998779296875,0.3662058115005493
0.887027874389871,0.7874569986434233,-1.6487093123091021,-0.29145780205726624,-4.498385429382324,-0.3433491289615631,0.44761133193969727,-0.7751976251602173,-0.4457720220088959,-0.5461984872817993,1.0561730861663818,0.3063677251338959
0.8827798768320243,0.7425684679604346,-1.6466612858326226,-0.49612632393836975,-4.111260414123535,-0.06417831778526306,0.42937999963760376,-0.7725070714950562,-0.4678307771682739,-0.5836769342422485,1.0461887121200562,0.25239187479019165
0.8785874097484059,0.698721429345744,-1.6400521626782334,-0.6913133263587952,-3.621797561645508,0.1279948502779007,0.41054055094718933,-0.7698380947113037,-0.48867765069007874,-0.660952627658844,1.0273301601409912,0.23040735721588135
0.8732750117533843,0.6563478273588923,-1.629937566041199,-0.9503445029258728,-3.3113813400268555,0.19805850088596344,0.39196130633354187,-0.7664366364479065,-0.5088626146316528,-0.756768524646759,1.0553771257400513,0.27680695056915283
0.8655525543346292,0.6139099035028714,-1.6173885604968699,-1.2478052377700806,-3.2613863945007324,0.1827370673418045,0.3734183609485626,-0.7614535689353943,-0.5298557877540588,-0.8401542901992798,1.126932144165039,0.33800703287124634
0.855006675176114,0.5700800162726043,-1.6033964999771335,-1.508683681488037,-3.383218288421631,0.15669868886470795,0.3541580140590668,-0.7545753121376038,-0.5524384379386902,-0.8838211297988892,1.214810848236084,0.3579651117324829
0.8419649028447603,0.5236788730226182,-1.5884510480752208,-1.7365530729293823,-3.640451192855835,0.18548212945461273,0.3330453932285309,-0.7459532022476196,-0.5767448544502258,-0.9035257697105408,1.3318601846694946,0.34793925285339355
0.826952980604082,0.47406234317783463,-1.57221420911052,-1.928937554359436,-3.827695846557617,0.30031585693359375,0.3091087341308594,-0.7358716130256653,-0.6024489402770996,-0.8862115144729614,1.429978609085083,0.3165602684020996
0.8104615588497689,0.42300028096829906,-1.554887569559147,-2.0502030849456787,-3.8057870864868164,0.3888547718524933,0.28290054202079773,-0.7246053218841553,-0.6284220814704895,-0.8499935865402222,1.4353749752044678,0.24264943599700928
0.7926715457006663,0.37338422090012297,-1.5381470490699718,-2.119021415710449,-3.6872167587280273,0.36917272210121155,0.25604748725891113,-0.7122310996055603,-0.6535797715187073,-0.8576864004135132,1.425060749053955,0.17054754495620728
0.7735192420566984,0.3262947025676598,-1.5231083188773586,-2.203160047531128,-3.589937925338745,0.3234454393386841,0.22932912409305573,-0.6986574530601501,-0.6777064204216003,-0.8645983338356018,1.4657015800476074,0.14956915378570557
0.7528715412059983,0.28090081857634913,-1.5091627524663673,-2.3289153575897217,-3.551085948944092,0.3842514157295227,0.20229625701904297,-0.68373703956604,-0.7011275887489319,-0.8269453644752502,1.555227518081665,0.16310268640518188
0.7309044114895482,0.23471720130369647,-1.4945485215139187,-2.447296380996704,-3.724781036376953,0.5920751690864563,0.17316333949565887,-0.6675432920455933,-0.7241549491882324,-0.7322454452514648,1.6577472686767578,0.15555143356323242
0.7081211413826486,0.1843636088243475,-1.4779351136447465,-2.505751848220825,-4.152061462402344,0.9092217087745667,0.13924790918827057,-0.6504077911376953,-0.7467126846313477,-0.6333733201026917,1.7308521270751953,0.10552310943603516
0.6852024471045374,0.12803738072284634,-1.4585854082509337,-2.4520084857940674,-4.583560466766357,1.3109235763549805,0.09886753559112549,-0.6328297853469849,-0.7679529190063477,-0.5827237963676453,1.7687855958938599,-0.0005865097045898438
0.6629902832258463,0.06694616397448784,-1.435952091877312,-2.2886602878570557,-4.733233451843262,1.7729978561401367,0.05272457003593445,-0.6154764294624329,-0.7863897681236267,-0.5860040187835693,1.7819039821624756,-0.1540094017982483
0.6417925210724013,0.004520315127082204,-1.4098354178587773,-2.08003830909729,-4.511377334594727,2.197178602218628,0.0036208685487508774,-0.598632276058197,-0.8010157942771912,-0.6095169186592102,1.7200617790222168,-0.32117652893066406
0.6208968232567192,-0.055368767969648715,-1.3813229377341831,-1.9890615940093994,-4.055942058563232,2.4757676124572754,-0.045011572539806366,-0.581764817237854,-0.8121106028556824,-0.6629810333251953,1.610924482345581,-0.41071343421936035
0.5982839333906302,-0.11040560236419816,-1.3521888400764586,-2.1440610885620117,-3.613430976867676,2.6394975185394287,-0.09104329347610474,-0.5632253289222717,-0.8212723731994629,-0.70461106300354,1.5010610818862915,-0.38224929571151733
0.5711749604876644,-0.16121636288655358,-1.3239060221992938,-2.611876964569092,-3.4406001567840576,2.7485644817352295,-0.13503916561603546,-0.5406208634376526,-0.8303574323654175,-0.682725191116333,1.3600789308547974,-0.294291615486145
0.5369007286688842,-0.2092769842017352,-1.2981908846855434,-3.321953773498535,-3.445648431777954,2.8018994331359863,-0.17852148413658142,-0.5114752650260925,-0.8405492901802063,-0.7003085613250732,1.2766578197479248,-0.24613583087921143
0.49403029384492936,-0.2547410674692324,-1.276015113904987,-4.108796119689941,-3.4221198558807373,2.9280643463134766,-0.2218635380268097,-0.47417810559272766,-0.8520162105560303,-0.7404625415802002,1.2614858150482178,-0.32770174741744995
0.4428210606996012,-0.29680209379074096,-1.2564507838987888,-4.7267022132873535,-3.150235652923584,3.2212677001953125,-0.26425448060035706,-0.42849013209342957,-0.8640403747558594,-0.7355777025222778,1.232689380645752,-0.5961494445800781
0.3856336023465056,-0.3328560646031006,-1.2377794933136095,-5.006344318389893,-2.492915153503418,3.5469374656677246,-0.3027476966381073,-0.3761462867259979,-0.8757041692733765,-0.7810688614845276,1.2155780792236328,-0.9945350289344788
0.32601066944847895,-0.36015030511043106,-1.2190817844401889,-4.953733921051025,-1.656510353088379,3.7634713649749756,-0.3338523209095001,-0.32026639580726624,-0.8865506649017334,-0.8498024940490723,1.1206051111221313,-1.3686068058013916
0.26690424814566094,-0.3791365951129012,-1.20054481088865,-4.752587795257568,-1.0997943878173828,3.759384870529175,-0.35701337456703186,-0.26374655961990356,-0.896091103553772,-0.908565878868103,0.8969863057136536,-1.602627158164978
0.20973573016431107,-0.39321631718056294,-1.1838615509874233,-4.605710983276367,-0.9749605655670166,3.4975426197052,-0.37476465106010437,-0.20820142328739166,-0.9034398794174194,-1.0338352918624878,0.7372541427612305,-1.639498233795166
0.15467275754519227,-0.40640160713634055,-1.1716568791682296,-4.593414783477783,-1.2463396787643433,2.9376320838928223,-0.3905874192714691,-0.15405677258968353,-0.9075835943222046,-1.1895060539245605,0.5889780521392822,-1.586114525794983
0.10198914219825776,-0.42196065730176274,-1.166812648127155,-4.638040065765381,-1.7354105710983276,2.150146007537842,-0.407421737909317,-0.10181242227554321,-0.907547116279602,-1.3863557577133179,0.4410763382911682,-1.5880430936813354
0.05236038797129776,-0.4408571455698213,-1.170186957798244,-4.611733436584473,-2.019153594970703,1.399648666381836,-0.4261299967765808,-0.05233646556735039,-0.9031468033790588,-1.4451011419296265,0.2927844822406769,-1.7460994720458984
0.0066703926290170796,-0.45990233102671974,-1.1797669160259008,-4.396244049072266,-1.764704942703247,0.8785592913627625,-0.44385072588920593,-0.0066703432239592075,-0.8960759043693542,-1.3474549055099487,0.19256818294525146,-2.0534327030181885
-0.03430264419330589,-0.47468482696814196,-1.1925041718658846,-4.032949924468994,-1.1098922491073608,0.55622398853302,-0.4567892551422119,0.03429591655731201,-0.8889135718345642,-1.190000295639038,0.19310583174228668,-2.344728946685791
-0.07079715089566921,-0.48258747071051045,-1.2060755412039605,-3.683300018310547,-0.3230070173740387,0.42314955592155457,-0.46291017532348633,0.07073802500963211,-0.8835781216621399,-0.9667163491249084,0.205308735370636,-2.4695558547973633
-0.10456227043754097,-0.4835934817111275,-1.2190147239710596,-3.500159978866577,0.31698551774024963,0.44863268733024597,-0.4624241292476654,0.10437183827161789,-0.8804944753646851,-0.6839382648468018,0.2040082961320877,-2.409376621246338
-0.13783289516712666,-0.4798509620493508,-1.231010327146232,-3.492798328399658,0.6823834180831909,0.5170753598213196,-0.45726874470710754,0.1373968869447708,-0.8786509037017822,-0.45999816060066223,0.18459409475326538,-2.2434499263763428
-0.17152494408215502,-0.47419597658329543,-1.2426656720427032,-3.5172319412231445,0.775461733341217,0.5226397514343262,-0.4499226212501526,0.17068511247634888,-0.8766049742698669,-0.3433971107006073,0.13703888654708862,-2.0904970169067383
-0.20464581751532226,-0.469053933679168,-1.2541654946263443,-3.3569886684417725,0.6536796689033508,0.46174657344818115,-0.44260984659194946,0.20322038233280182,-0.873383104801178,-0.2966175079345703,0.060375213623046875,-2.0493922233581543
-0.234795971628297,-0.466082607384163,-1.2649436507529555,-2.919278860092163,0.40384766459465027,0.3765175938606262,-0.43705976009368896,0.23264455795288086,-0.8688240647315979,-0.2873818278312683,-0.02279043197631836,-2.1203880310058594
