attitudeX,attitudeY,attitudeZ,gyroX,gyroY,gyroZ,gravityX,gravityY,gravityZ,accX,accY,accZ
1.076986368790029,0.45653449215876696,2.4009548869378277,0.009895291179418564,-0.2744123935699463,0.14621704816818237,0.20895124971866608,-0.8805333971977234,-0.42544135451316833,0.015276521444320679,-0.044545888900756836,0.07900553941726685
1.0775403567972548,0.449759977749467,2.4048497936083346,-0.06474805623292923,-0.3954264521598816,0.22769112884998322,0.20585227012634277,-0.8807958364486694,-0.4264078736305237,0.029346540570259094,-0.05832153558731079,0.10524064302444458
1.0778597958240113,0.4405068717095197,2.410278519410421,-0.09577782452106476,-0.4975334405899048,0.2606083154678345,0.2017778754234314,-0.8809470534324646,-0.4280397295951843,0.01913870871067047,-0.07040786743164062,0.09045404195785522
1.078074364527567,0.42986233540236485,2.416242152244408,-0.09912754595279694,-0.5748756527900696,0.27407246828079224,0.1971314698457718,-0.8810485601425171,-0.4299914240837097,-0.0009951591491699219,-0.07915639877319336,0.0592789351940155
1.0784451911576134,0.4184928909279981,2.4226043865600806,-0.0778888463973999,-0.5728463530540466,0.3082696199417114,0.19209732115268707,-0.8812239170074463,-0.43190640211105347,-0.003453075885772705,-0.08612221479415894,0.023748815059661865
1.079292810481967,0.40686670517488477,2.4294851658873156,-0.023063411936163902,-0.5408980250358582,0.358958899974823,0.1867673546075821,-0.8816242814064026,-0.43342435359954834,0.009811460971832275,-0.10221660137176514,-0.01822078227996826
1.0809293180082584,0.3952664455024141,2.4368176262770396,0.05656598508358002,-0.47872304916381836,0.40368789434432983,0.18117129802703857,-0.8823954463005066,-0.43422964215278625,0.023189514875411987,-0.12332653999328613,-0.05977386236190796
1.083438342344192,0.3846700757331787,2.4440705924330146,0.15014493465423584,-0.3603423535823822,0.4139293432235718,0.17572854459285736,-0.8835731744766235,-0.43407130241394043,0.019934728741645813,-0.13969635963439941,-0.09440180659294128
1.0868478368813264,0.37566549828996326,2.450656408365931,0.25829413533210754,-0.28511708974838257,0.4134422242641449,0.1707065850496292,-0.8851646780967712,-0.4328311085700989,-0.016531944274902344,-0.1443457007408142,-0.11788931488990784
1.0913163592796078,0.36780259311595465,2.4564107174993226,0.3843655288219452,-0.27396029233932495,0.41189146041870117,0.165874183177948,-0.8872349262237549,-0.43046489357948303,-0.04238496720790863,-0.14053601026535034,-0.12934976816177368
1.0969776476519293,0.360678363807047,2.4612709157909896,0.5161357522010803,-0.2898409962654114,0.41298434138298035,0.16102805733680725,-0.8898323774337769,-0.4269291162490845,-0.04181128740310669,-0.13017183542251587,-0.13088667392730713
1.1038567997090838,0.3536624735669279,2.4655344319893584,0.6378344893455505,-0.3715289235115051,0.4367482662200928,0.15590506792068481,-0.892950177192688,-0.4222957491874695,-0.030661076307296753,-0.11528950929641724,-0.11189943552017212
1.1119650809724837,0.34532089648852576,2.4698397393978584,0.7554689645767212,-0.5245928764343262,0.48190978169441223,0.14992119371891022,-0.8965707421302795,-0.4167546331882477,0.0030785202980041504,-0.09253436326980591,-0.07996490597724915
1.1212296485836633,0.3352876395519588,2.4746409076116,0.8478060960769653,-0.6133195757865906,0.5363285541534424,0.1429930031299591,-0.9006354808807373,-0.41037625074386597,0.04478149116039276,-0.06780916452407837,-0.05109551548957825
1.1312827845138793,0.3235921249245573,2.4804920586984402,0.8890467882156372,-0.6728851795196533,0.5948317050933838,0.13529783487319946,-0.9049587845802307,-0.4034155607223511,0.05761885643005371,-0.03421962261199951,-0.024318993091583252
1.141741110347995,0.30950873812419444,2.4882445359420036,0.8976128101348877,-0.7330132722854614,0.6814502477645874,0.1267133206129074,-0.9093592166900635,-0.39624419808387756,0.057429566979408264,0.0014461278915405273,0.006107300519943237
1.152532324048007,0.2928696761941471,2.498525786718422,0.9179820418357849,-0.7193173170089722,0.7691603302955627,0.11726295948028564,-0.9137954115867615,-0.3888793885707855,0.06515567749738693,0.0272141695022583,0.030084073543548584
1.163726818691382,0.2738823298932147,2.511291527875296,0.9452954530715942,-0.756831705570221,0.8377750515937805,0.1070849597454071,-0.9182850122451782,-0.38116344809532166,0.07492171227931976,0.0573078989982605,0.04420340061187744
1.175079695537555,0.25207673218975774,2.5262150009712103,0.9392340779304504,-0.8612425327301025,0.8816157579421997,0.09614212810993195,-0.9227205514907837,-0.3732874095439911,0.07933378219604492,0.08519625663757324,0.05575183033943176
1.1861479244103579,0.22714805824322673,2.543543907014199,0.896984875202179,-0.8994356989860535,0.9251981377601624,0.08450248837471008,-0.9269304275512695,-0.36559468507766724,0.07949879765510559,0.0968371033668518,0.07149660587310791
1.1965913300557756,0.19979679838518347,2.563418082197015,0.8343786001205444,-0.8919712901115417,0.9604759812355042,0.07254737615585327,-0.9307985305786133,-0.3582613170146942,0.0635761097073555,0.08689600229263306,0.0795745849609375
1.2062644877850561,0.16995620282276389,2.585586690823265,0.7769981026649475,-0.9475826025009155,0.9705134034156799,0.06030013784766197,-0.9342907667160034,-0.35137537121772766,0.053286101669073105,0.0889844298362732,0.08291202783584595
1.2152795434796138,0.13805704888571665,2.609328935463838,0.7552120685577393,-0.98325514793396,0.9628795385360718,0.04790165275335312,-0.9374667406082153,-0.34476280212402344,0.04139261692762375,0.09556317329406738,0.07698610424995422
1.2239919028272084,0.10508424327141999,2.634131318277118,0.7750238180160522,-0.9540514349937439,0.9411734342575073,0.035651836544275284,-0.940463662147522,-0.33801934123039246,0.036689918488264084,0.09738510847091675,0.05345797538757324
1.2327462040373116,0.07176444719096589,2.6593738017920274,0.8255060911178589,-0.9674243927001953,0.904349148273468,0.023780139163136482,-0.9434031248092651,-0.33079472184181213,0.038384005427360535,0.09344285726547241,0.02316206693649292
1.2418042244357963,0.037713723124281825,2.684951177709591,0.895574688911438,-1.0059359073638916,0.871540904045105,0.01218201220035553,-0.9463684558868408,-0.3228595554828644,0.05208783596754074,0.09985673427581787,0.0024248063564300537
1.251224841827497,0.0032272400062950918,2.7111047116728146,0.9474437832832336,-0.8995224237442017,0.834237277507782,0.0010138661600649357,-0.9493701457977295,-0.31415778398513794,0.07129734009504318,0.11411947011947632,-0.0207880437374115
1.2603879926135577,-0.03096423710390419,2.7386347199844665,0.8984403014183044,-0.7261876463890076,0.8629900813102722,-0.009456438943743706,-0.952208936214447,-0.30530112981796265,0.07123909890651703,0.1248164176940918,-0.028683483600616455
1.267970830577087,-0.06835613887255262,2.7711485936932134,0.6906476616859436,-0.5372973680496216,1.0595803260803223,-0.020369183272123337,-0.9544976949691772,-0.2975218892097473,0.11222690343856812,0.16691535711288452,0.006475508213043213
1.2723404307427149,-0.11270847292203673,2.8130635733738236,0.41638174653053284,-0.2910556495189667,1.3273944854736328,-0.03307119011878967,-0.9557916522026062,-0.2921788692474365,0.19783541560173035,0.26943618059158325,0.060855478048324585
1.273363174221474,-0.16245158718825684,2.863582845254227,0.19817128777503967,-0.049243420362472534,1.5854120254516602,-0.047400057315826416,-0.9560918807983398,-0.289208322763443,0.2643493413925171,0.2611914873123169,0.08120033144950867
1.2716085695696215,-0.21679226687263017,2.9199069592198383,0.10148841142654419,-0.055444590747356415,1.7142841815948486,-0.06339894235134125,-0.9555761814117432,-0.28784510493278503,0.2538284659385681,0.20083081722259521,0.05847477912902832
1.2683579898911366,-0.27256539032324106,2.977449546324658,0.09938151389360428,-0.1147012710571289,1.760921835899353,-0.08018181473016739,-0.9546130895614624,-0.2868533134460449,0.26417210698127747,0.23320811986923218,0.033282577991485596
1.2641444728561044,-0.3298320288622878,3.0360914875513574,0.1436280757188797,-0.13942205905914307,1.8607856035232544,-0.09777048230171204,-0.9533495903015137,-0.285597026348114,0.2567058205604553,0.22732114791870117,-0.022691816091537476
1.2589783167314366,-0.38900640239588546,3.096962859857765,0.19319607317447662,-0.08475033193826675,1.9721362590789795,-0.11635581403970718,-0.9517773985862732,-0.28386813402175903,0.32373785972595215,0.19713878631591797,-0.07404220104217529
1.252727447090658,-0.44752692204807426,-3.124639449040788,0.20794758200645447,0.10630511492490768,2.0201005935668945,-0.13533110916614532,-0.9498411417007446,-0.28193479776382446,0.3836525082588196,0.20954585075378418,-0.12301835417747498
1.2452709840717848,-0.5016664386875386,-3.0650555162159017,0.18401360511779785,0.3844798505306244,2.0160155296325684,-0.15379105508327484,-0.9474828243255615,-0.2804010212421417,0.3887762427330017,0.21840262413024902,-0.16901633143424988
1.2366287489269367,-0.5488742070464798,-3.0092048114089938,0.13398505747318268,0.7513881325721741,1.9855172634124756,-0.17111767828464508,-0.9446836709976196,-0.2798064649105072,0.38338249921798706,0.20599043369293213,-0.1977175772190094
1.2268240818250364,-0.5879534388510076,-2.9579763894146116,0.04619839787483215,1.084035038948059,1.9473628997802734,-0.1870473027229309,-0.9414225220680237,-0.2806008458137512,0.4079333543777466,0.186021089553833,-0.208062082529068
1.2158256421399805,-0.6192961220261883,-2.9118468195536327,-0.06459736078977585,1.3062987327575684,1.906967043876648,-0.20174695551395416,-0.9376567006111145,-0.28301581740379333,0.4426220655441284,0.16620302200317383,-0.1885572373867035
1.2037803121434674,-0.6439487277616889,-2.870858282128356,-0.16796906292438507,1.4265203475952148,1.8604931831359863,-0.21542736887931824,-0.9334022402763367,-0.28696879744529724,0.4636266827583313,0.13402503728866577,-0.15196570754051208
1.1909165523611347,-0.6631994394920319,-2.8342963124535627,-0.2497134655714035,1.5458307266235352,1.8300151824951172,-0.22828516364097595,-0.9287092089653015,-0.29220715165138245,0.4842053949832916,0.10030972957611084,-0.12519726157188416
1.1773474493156177,-0.6780333024585002,-2.801220968250022,-0.3268512189388275,1.6169710159301758,1.819037914276123,-0.24047747254371643,-0.9235923290252686,-0.29857632517814636,0.5303332805633545,0.0864495038986206,-0.12332940101623535
1.1630982041341646,-0.6893532061345858,-2.7708527853941587,-0.3864242434501648,1.7288780212402344,1.8228236436843872,-0.2521873116493225,-0.9180359244346619,-0.3059599697589874,0.5745901465415955,0.06883871555328369,-0.1308383047580719
1.1483190825281373,-0.6970517431799711,-2.7424644643374405,-0.423039048910141,1.9426478147506714,1.834383249282837,-0.26321715116500854,-0.9120759963989258,-0.31437885761260986,0.6169158220291138,0.04136389493942261,-0.16201600432395935
1.1332024931559035,-0.7010325353070979,-2.715367447141226,-0.43392765522003174,2.1986353397369385,1.8453054428100586,-0.273328959941864,-0.905773937702179,-0.3238283693790436,0.6368390321731567,0.01933002471923828,-0.20844414830207825
1.1180183290547088,-0.7015990020487681,-2.6889919434367795,-0.4220437705516815,2.4558045864105225,1.8574498891830444,-0.2823576033115387,-0.8992353081703186,-0.33414092659950256,0.6221249103546143,-0.0019181370735168457,-0.24763113260269165
1.1029026021722907,-0.6993139637428797,-2.6629071900627936,-0.3923250138759613,2.677478790283203,1.8664218187332153,-0.2903103828430176,-0.8925201892852783,-0.3451489210128784,0.591396689414978,-0.025967299938201904,-0.26984158158302307
1.0884094416186758,-0.694744974309357,-2.6371799975866894,-0.3139529824256897,2.807894468307495,1.7955611944198608,-0.29698070883750916,-0.8858901858329773,-0.35637199878692627,0.536421537399292,-0.06821125745773315,-0.28310883045196533
1.075444568497443,-0.6883031307558408,-2.6125754673372543,-0.20780818164348602,2.8248541355133057,1.637488842010498,-0.30194973945617676,-0.8798015713691711,-0.3671177625656128,0.4511043131351471,-0.12939929962158203,-0.2975400388240814
1.064538950666632,-0.6802060458130565,-2.5898103099501046,-0.09969410300254822,2.7988555431365967,1.4382890462875366,-0.30498406291007996,-0.8745654821395874,-0.37698790431022644,0.3474491834640503,-0.20384925603866577,-0.30189111828804016
1.0559317141649152,-0.67014819943612,-2.569323166116136,0.006458960473537445,2.803861141204834,1.203197956085205,-0.3058412969112396,-0.8703594207763672,-0.3859218657016754,0.25538039207458496,-0.27858150005340576,-0.3047522306442261
1.0496532430541408,-0.6570943993880956,-2.551780225028693,0.06549988687038422,2.87267804145813,0.9447742700576782,-0.3041095435619354,-0.8672506213188171,-0.39420023560523987,0.16163820028305054,-0.3221260905265808,-0.3109391927719116
1.0450931223397202,-0.6396711734492276,-2.5381075976346135,0.024080544710159302,3.000411033630371,0.7039139866828918,-0.29955312609672546,-0.8649712800979614,-0.40260738134384155,0.0581132173538208,-0.334979772567749,-0.30187588930130005
1.0414492810099922,-0.6167856838868567,-2.5287988821798426,-0.06121855974197388,3.210456132888794,0.4842850863933563,-0.2920827269554138,-0.8631369471549988,-0.4119251072406769,-0.03389081358909607,-0.34821242094039917,-0.2737746238708496
1.0386462692805356,-0.5877305584247043,-2.523883753523593,-0.11359281837940216,3.4533212184906006,0.240713968873024,-0.28133299946784973,-0.8617181777954102,-0.42224833369255066,-0.11879831552505493,-0.3742588758468628,-0.27396470308303833
1.037114099691803,-0.5531478687094544,-2.523111623519704,-0.09191354364156723,3.593409776687622,-0.0043057845905423164,-0.26725852489471436,-0.8609397411346436,-0.4328460395336151,-0.20669475197792053,-0.3854285478591919,-0.3003695607185364
1.037313350555722,-0.5150688784320152,-2.525558701889421,0.006565360818058252,3.5946969985961914,-0.2263503074645996,-0.25050193071365356,-0.8610410690307617,-0.44255751371383667,-0.2887437045574188,-0.40890204906463623,-0.31807810068130493
1.039439924568001,-0.4754816521243361,-2.5305282506283833,0.1283143162727356,3.46563720703125,-0.4137166440486908,-0.23195184767246246,-0.8621205687522888,-0.45049577951431274,-0.34611213207244873,-0.43542569875717163,-0.32051581144332886
1.0432582498023273,-0.4358153313536484,-2.5377291293859856,0.23761044442653656,3.2263076305389404,-0.5742853283882141,-0.21251337230205536,-0.8640490174293518,-0.45635220408439636,-0.3887134790420532,-0.45348620414733887,-0.2957385182380676
1.0484678714157853,-0.3968373010955292,-2.547205448611563,0.33020827174186707,2.939275026321411,-0.7108527421951294,-0.1928263157606125,-0.8666598796844482,-0.4601289629936218,-0.4402760863304138,-0.46520334482192993,-0.2498627007007599
1.0547289716178545,-0.35905229451513127,-2.558999255086602,0.4026033878326416,2.563091516494751,-0.8397822380065918,-0.17339667677879333,-0.8697665333747864,-0.46199533343315125,-0.4843333959579468,-0.4842677116394043,-0.20557692646980286
1.0618108215190536,-0.3233013194306332,-2.5730686702499637,0.47131112217903137,2.148129463195801,-0.9289947748184204,-0.154811829328537,-0.8732393383979797,-0.4620458483695984,-0.5164070129394531,-0.4956875443458557,-0.17062953114509583
1.069537159641485,-0.2898181028218545,-2.5884169199535862,0.5574020147323608,1.8949788808822632,-0.9513320326805115,-0.1373249590396881,-0.8769782185554504,-0.46049025654792786,-0.5437052845954895,-0.48592156171798706,-0.1715901494026184
1.0778793824401869,-0.25801003735611294,-2.6038782552578534,0.6521990895271301,1.764711856842041,-0.9175794124603271,-0.12073968350887299,-0.8809562921524048,-0.45753467082977295,-0.5732605457305908,-0.4646703600883484,-0.23403966426849365
1.0868618347061307,-0.22787643018865533,-2.618519552766941,0.7658606767654419,1.686912178993225,-0.8495162129402161,-0.10510783642530441,-0.8851711750030518,-0.4532376229763031,-0.59047931432724,-0.4395662546157837,-0.2942602038383484
1.0967578978498909,-0.19978419659632357,-2.6317434938401596,0.9177205562591553,1.577850341796875,-0.7619239091873169,-0.09059267491102219,-0.8897320628166199,-0.44740352034568787,-0.5904528498649597,-0.4351121187210083,-0.3391110301017761
1.1079562476866758,-0.17480894004661265,-2.643197619205412,1.0974253416061401,1.37333345413208,-0.6765150427818298,-0.07765376567840576,-0.8947880268096924,-0.43968671560287476,-0.6123181581497192,-0.41554510593414307,-0.3754686117172241
1.120873259993005,-0.15287322347780183,-2.6535710656304947,1.3107117414474487,1.1579011678695679,-0.661981999874115,-0.06622535735368729,-0.9004805684089661,-0.42982447147369385,-0.6687294244766235,-0.4034133553504944,-0.39071714878082275
1.13585479642199,-0.1321627965552609,-2.6649704786167008,1.5145673751831055,0.9239843487739563,-0.7402437329292297,-0.05552579462528229,-0.9068946838378906,-0.41768279671669006,-0.7626656889915466,-0.4008749723434448,-0.3894616365432739
1.1525596713068387,-0.11078339662362267,-2.6797428892092654,1.6494414806365967,0.6664513945579529,-0.8859293460845947,-0.04490265995264053,-0.9138065576553345,-0.4036599099636078,-0.8463021516799927,-0.3831446170806885,-0.3587457239627838
1.17029463759864,-0.0867750156174221,-2.6999645150378555,1.7205479145050049,0.42820098996162415,-1.073377013206482,-0.033789437264204025,-0.920865535736084,-0.3884134292602539,-0.894875705242157,-0.37626880407333374,-0.2992699146270752
1.1884393288918818,-0.05833186922634859,-2.72740624919168,1.7462362051010132,0.1949867159128189,-1.282364845275879,-0.02175176329910755,-0.9277877807617188,-0.37247368693351746,-0.9329906105995178,-0.3497236371040344,-0.24445465207099915
1.2062975505410896,-0.02402798673100638,-2.763091931641415,1.7123496532440186,0.03201323747634888,-1.4639430046081543,-0.008564697578549385,-0.934302568435669,-0.35637813806533813,-0.9775955677032471,-0.2927786111831665,-0.19650909304618835
1.2229367654922718,0.016588984687752526,-2.8063805373266635,1.6007932424545288,-0.01083058025687933,-1.5614898204803467,0.0056546954438090324,-0.9401044845581055,-0.3408392369747162,-1.0031980276107788,-0.21245265007019043,-0.15200462937355042
1.2374378740966043,0.06258367788286638,-2.8552440935676526,1.4271652698516846,0.0012673614546656609,-1.5835373401641846,0.0204651840031147,-0.9449487328529358,-0.3265780806541443,-0.9842255115509033,-0.11413329839706421,-0.11023560166358948
1.2493547406800989,0.11249773275855851,-2.907901867907242,1.2500742673873901,0.0015622498467564583,-1.5897036790847778,0.035467006266117096,-0.9487809538841248,-0.3139375150203705,-0.9342859387397766,-0.04493230581283569,-0.074582040309906
1.2588283782108494,0.16519647072275898,-2.963634375168495,1.1192976236343384,-0.06367108225822449,-1.5875706672668457,0.05047382786870003,-0.9517313838005066,-0.3027537167072296,-0.900403618812561,0.012675046920776367,-0.048900604248046875
1.2663391921956029,0.21869511347094864,-3.021120228266262,1.0267832279205322,-0.20251108705997467,-1.5491266250610352,0.0650380551815033,-0.9540098309516907,-0.29263508319854736,-0.8816426396369934,0.08012384176254272,-0.026121288537979126
1.2721760021931128,0.27045712329457444,-3.078510275649115,0.9308010339736938,-0.4208761751651764,-1.4747426509857178,0.07860247045755386,-0.9557433128356934,-0.28350719809532166,-0.8577772378921509,0.1543670892715454,0.005827486515045166
1.2764426210719444,0.3173149188928084,-3.133552493672735,0.8208715915679932,-0.748175859451294,-1.3523330688476562,0.09052276611328125,-0.9569898247718811,-0.27563774585723877,-0.8230361938476562,0.22806233167648315,0.06036645174026489
1.2796042029066714,0.3560612663709247,3.099359121726229,0.7452074289321899,-1.140300989151001,-1.1760724782943726,0.10007696598768234,-0.9579023122787476,-0.2690872550010681,-0.7633154988288879,0.27885574102401733,0.11428654193878174
1.282581552634545,0.3850564770692248,3.055045714679074,0.739906907081604,-1.5596920251846313,-0.9679595232009888,0.10676433891057968,-0.9587528109550476,-0.2634284794330597,-0.6955246925354004,0.3045170307159424,0.1345982551574707
1.2863559894059542,0.40385006373927645,3.017158631837392,0.7869857549667358,-1.9473308324813843,-0.7161520719528198,0.1102730929851532,-0.9598188400268555,-0.2580459713935852,-0.6436898112297058,0.34022051095962524,0.11885499954223633
1.2915872865863334,0.4127692322417446,2.986097673673867,0.86634761095047,-2.2300877571105957,-0.4600284695625305,0.11055430769920349,-0.961273729801178,-0.2524488568305969,-0.5814863443374634,0.3569343090057373,0.08684495091438293
1.2984963083793404,0.4140275240012924,2.9605191062634684,0.9639588594436646,-2.4426639080047607,-0.2765366733074188,0.10819745063781738,-0.9631548523902893,-0.24622340500354767,-0.5336277484893799,0.34358710050582886,0.04837769269943237
1.3068709237031049,0.41130215530369946,2.93719276893819,1.0691512823104858,-2.6032063961029053,-0.1927681416273117,0.10429762303829193,-0.9653733968734741,-0.2391158938407898,-0.5412788391113281,0.3281664252281189,0.019541621208190918
1.3163225643759788,0.40721201656653544,2.9138605258960295,1.136293649673462,-2.735025405883789,-0.15471743047237396,0.0997004434466362,-0.9677959084510803,-0.23115162551403046,-0.5603022575378418,0.28571271896362305,0.012431830167770386
1.3261598987044743,0.4013940982966366,2.8907340827081778,1.1127747297286987,-2.929380416870117,-0.12095476686954498,0.09462945908308029,-0.97022545337677,-0.22295264899730682,-0.5435125231742859,0.2586166262626648,0.04012155532836914
1.3354800055138434,0.3916180799710842,2.869598626166557,0.9873770475387573,-3.1350584030151367,-0.08844609558582306,0.08899003267288208,-0.9724406599998474,-0.21549953520298004,-0.49472126364707947,0.2503185272216797,0.10844361782073975
1.343477289981842,0.37687402948952986,2.851705388928863,0.8028114438056946,-3.3061771392822266,-0.07050564140081406,0.08293825387954712,-0.9742740988731384,-0.20954979956150055,-0.4459906816482544,0.22355705499649048,0.16160644590854645
1.3499147661389437,0.3558077074840697,2.8385746532769547,0.6148497462272644,-3.48498272895813,-0.007875816896557808,0.07631954550743103,-0.9757046699523926,-0.20536759495735168,-0.4336651861667633,0.22054719924926758,0.1782676875591278
1.355201037772935,0.3271055955201671,2.8313676934417256,0.5029070973396301,-3.676659107208252,0.06982993334531784,0.06873614341020584,-0.9768491983413696,-0.20258574187755585,-0.3841201066970825,0.2150084376335144,0.15976929664611816
1.36040481271858,0.29170490266987964,2.8291683871901623,0.5385971665382385,-3.840587615966797,0.16152708232402802,0.06006000563502312,-0.9779492020606995,-0.2000197023153305,-0.2980819344520569,0.1651594638824463,0.08910331130027771
1.3668591364002354,0.24999926372714454,2.831823914915158,0.6871570348739624,-3.996650218963623,0.2916666567325592,0.05010581761598587,-0.9792767763137817,-0.19623088836669922,-0.20748506486415863,0.11187565326690674,-0.030255556106567383
1.3752748572548714,0.2009171976792187,2.84058905029282,0.8776801228523254,-4.1036882400512695,0.42154476046562195,0.038771677762269974,-0.9809464812278748,-0.19036975502967834,-0.10595623403787613,0.06232172250747681,-0.13876257836818695
1.3854670478482165,0.1448665599966487,2.855770761938277,1.026881217956543,-4.1253790855407715,0.4830595552921295,0.026601335033774376,-0.982875645160675,-0.1823401302099228,-0.05026783049106598,-0.012149989604949951,-0.2189968228340149
1.3964814476461276,0.08548064575819132,2.874630077779412,1.0700169801712036,-4.04836893081665,0.4262372851371765,0.01480715349316597,-0.9848455786705017,-0.17280016839504242,-0.07330947369337082,-0.061907291412353516,-0.267004132270813
1.4067874189526637,0.028672068459654382,2.891689190981221,0.9332128167152405,-3.9665446281433105,0.2565370202064514,0.004680770915001631,-0.9865806698799133,-0.16320720314979553,-0.14130811393260956,-0.08425050973892212,-0.26101791858673096
1.414712081731322,-0.01969173057846768,2.9011319689388055,0.6432086825370789,-3.8419320583343506,0.055041197687387466,-0.0030609038658440113,-0.9878435730934143,-0.15542098879814148,-0.16792921721935272,-0.10750854015350342,-0.2159629464149475
1.4197147586404621,-0.055711374284690904,2.899810469248218,0.36910301446914673,-3.632119655609131,-0.12729771435260773,-0.008380661718547344,-0.9886088967323303,-0.15027432143688202,-0.15212669968605042,-0.12612193822860718,-0.2116643786430359
1.4228432942872877,-0.07914524178612703,2.8881536202470723,0.25562864542007446,-3.3674020767211914,-0.2504441440105438,-0.011654980480670929,-0.9890748858451843,-0.1469530463218689,-0.1017485037446022,-0.13397204875946045,-0.3054397702217102
1.425807996696524,-0.09369721564825743,2.870244398633446,0.3077869415283203,-3.0990638732910156,-0.32111379504203796,-0.013517742976546288,-0.9895076155662537,-0.14384804666042328,-0.014192378148436546,-0.1537725329399109,-0.46314680576324463
1.4299522473283857,-0.10144396743213503,2.848138620728455,0.46328410506248474,-2.839512825012207,-0.38603475689888,-0.014216222800314426,-0.9900978803634644,-0.1396576315164566,0.08115637302398682,-0.18577492237091064,-0.6060243248939514
1.435866208280742,-0.10399987168588669,2.823106844948396,0.6435610055923462,-2.6526341438293457,-0.41650640964508057,-0.01396500039845705,-0.9909107089042664,-0.13379454612731934,0.15368953347206116,-0.20528674125671387,-0.6941781044006348
1.4434860079324434,-0.1034491433700108,2.7964057875635997,0.7997482419013977,-2.5500316619873047,-0.4406873881816864,-0.01311128307133913,-0.991907000541687,-0.12628889083862305,0.21353529393672943,-0.18741440773010254,-0.7136008143424988
1.4525407483283506,-0.09768705960927875,2.7652466105604057,0.925480306148529,-2.495635986328125,-0.5085023045539856,-0.011506736278533936,-0.9930159449577332,-0.11741688847541809,0.2464613914489746,-0.18198692798614502,-0.6943661570549011
1.4627425548168134,-0.08265291035246318,2.7250825477831357,1.0258334875106812,-2.4885613918304443,-0.5776051878929138,-0.00890351738780737,-0.9941678643226624,-0.10747634619474411,0.23467235267162323,-0.16707175970077515,-0.6701269745826721
1.4737724133119416,-0.055783145666376314,2.6731669042691535,1.1004884243011475,-2.4752018451690674,-0.6391939520835876,-0.0054009961895644665,-0.9952968955039978,-0.09672083705663681,0.26248088479042053,-0.13681364059448242,-0.6369372010231018
1.4852024800829564,-0.009401030666764235,2.6019964487396496,1.1378440856933594,-2.4195480346679688,-0.7418326735496521,-0.0008036605431698263,-0.9963390827178955,-0.08548390865325928,0.33396387100219727,-0.12620407342910767,-0.6070975065231323
1.4962452338414,0.07173080545389873,2.4972756838435104,1.1157361268997192,-2.2156310081481934,-0.8629234433174133,0.0053380560129880905,-0.997222363948822,-0.07429022341966629,0.37906113266944885,-0.1030888557434082,-0.5987446308135986
1.5057505723025668,0.20143689635801695,2.346818367037447,1.0483464002609253,-1.8561856746673584,-0.9561082720756531,0.013004840351641178,-0.9978852868080139,-0.06368477642536163,0.4169723689556122,-0.05944192409515381,-0.6111963987350464
1.5126654252739626,0.3862776313559324,2.1452073525090034,0.9919149875640869,-1.4181360006332397,-1.018819808959961,0.02188829332590103,-0.9983108639717102,-0.053817905485630035,0.46450063586235046,-0.005320727825164795,-0.6376190781593323
1.5161479835062963,0.6177005315668811,1.901890714902222,0.9300185441970825,-0.8765981793403625,-1.0417826175689697,0.03163399174809456,-0.9985071420669556,-0.044527117162942886,0.5059787034988403,0.04858660697937012,-0.6778393983840942
1.515970105218994,0.8566445946610358,1.656509765213766,0.8472778797149658,-0.3593702018260956,-0.9545791745185852,0.04140934720635414,-0.9984974265098572,-0.03589252755045891,0.5354489684104919,0.12264293432235718,-0.7057153582572937
1.5135051088304574,1.065277062546981,1.4457855933826909,0.8212150931358337,-0.015076205134391785,-0.795221745967865,0.05009938403964043,-0.9983593225479126,-0.027729542925953865,0.6066234111785889,0.20430713891983032,-0.6820789575576782
1.5104618931457536,1.24840801453255,1.2631163261570586,0.9163991808891296,0.1468583643436432,-0.6230065822601318,0.05718999728560448,-0.9981804490089417,-0.019103867933154106,0.7069546580314636,0.23243343830108643,-0.6530459523200989
1.5075886688723668,1.4278652913263548,1.0848372341370998,1.1027940511703491,0.14047104120254517,-0.44226446747779846,0.06252183020114899,-0.9980030655860901,-0.008997665718197823,0.7554558515548706,0.2496510148048401,-0.643086850643158
1.504534396212508,1.619868231076313,0.8934732729792346,1.3473057746887207,0.07086453586816788,-0.2885896861553192,0.06613517552614212,-0.9978054761886597,0.0032479865476489067,0.7689781188964844,0.24556231498718262,-0.6338787078857422
1.4998457105977319,1.8261699519924246,0.6875729203718549,1.5730582475662231,0.1316692978143692,-0.217978373169899,0.06859220564365387,-0.9974840879440308,0.017907630652189255,0.7699848413467407,0.225419819355011,-0.6267640590667725
1.492252295209396,2.0211755716851645,0.4945062684296478,1.6314334869384766,0.3827889859676361,-0.21285319328308105,0.07063984125852585,-0.9969170093536377,0.03415598347783089,0.7093586921691895,0.23660200834274292,-0.6146310567855835
1.4822467059626814,2.1766406601053916,0.34396718148887534,1.5380319356918335,0.7115306258201599,-0.2547292709350586,0.07269471138715744,-0.996082067489624,0.0503593385219574,0.6074808835983276,0.25538986921310425,-0.5509545803070068
1.4708256739644434,2.289139201662432,0.2396993609552565,1.4213459491729736,1.026477336883545,-0.3439830541610718,0.07514268904924393,-0.9950070977210999,0.06568524986505508,0.5206059813499451,0.24729585647583008,-0.4614373445510864
1.4586367346537283,2.3696181805960137,0.1704137966922799,1.3230960369110107,1.2821236848831177,-0.4136215150356293,0.07807336002588272,-0.9937167167663574,0.08019807189702988,0.4587153494358063,0.23727744817733765,-0.4035472869873047
1.446532113154876,2.4287830916683975,0.12456849642678905,1.1935620307922363,1.4383610486984253,-0.4171024560928345,0.0810558870434761,-0.992289125919342,0.09376848489046097,0.4149461090564728,0.2810310125350952,-0.3615298271179199
1.435354433015642,2.4761535540115935,0.09180500033525728,1.0827933549880981,1.5403505563735962,-0.34339895844459534,0.08336781710386276,-0.9908417463302612,0.10622035712003708,0.4144805073738098,0.3427703380584717,-0.2949564456939697
1.4250959443332338,2.5198230385852782,0.06361925700130056,1.0466110706329346,1.6128818988800049,-0.26107165217399597,0.08456752449274063,-0.9894044399261475,0.11801481992006302,0.44614821672439575,0.35675960779190063,-0.255145788192749
1.4150746132659504,2.56250163189266,0.037017253245516774,1.0641895532608032,1.6701164245605469,-0.21440722048282623,0.08487681299448013,-0.9878998398780823,0.12980684638023376,0.45323944091796875,0.3731690049171448,-0.26062071323394775
1.404929888426655,2.6041003088347385,0.012161253315819206,1.0808762311935425,1.7530070543289185,-0.18585935235023499,0.08453214168548584,-0.9862756729125977,0.14182625710964203,0.43251171708106995,0.3864831328392029,-0.2690999507904053
1.3946927537542544,2.6443282380332542,-0.010234520230005562,1.0740708112716675,1.8957394361495972,-0.16595782339572906,0.0835719183087349,-0.9845337867736816,0.15397702157497406,0.408096581697464,0.40473031997680664,-0.27032554149627686
1.3847115036942736,2.6828402806244465,-0.029288854720600853,1.01078200340271,2.066314935684204,-0.14365123212337494,0.08192960917949677,-0.9827361106872559,0.16588439047336578,0.3790534734725952,0.44054538011550903,-0.2606722116470337
1.3755622347247387,2.719499402211297,-0.044818285823560504,0.8933313488960266,2.2198896408081055,-0.10138525813817978,0.07947458326816559,-0.9810022711753845,0.17696978151798248,0.3554465174674988,0.487548291683197,-0.22602702677249908
1.3677917840468024,2.754788462299632,-0.05762543529295951,0.7350398302078247,2.3316714763641357,-0.04620889201760292,0.07605505734682083,-0.9794652462005615,0.18671882152557373,0.35413581132888794,0.5254854559898376,-0.17135341465473175
1.3617143113114278,2.7884730469348904,-0.06772183949518193,0.5455908179283142,2.4427385330200195,-0.009524114429950714,0.07178018242120743,-0.9782218933105469,0.19475433230400085,0.35549622774124146,0.5749169588088989,-0.11568360030651093
1.3575895012715764,2.8202006043385586,-0.07445909134890902,0.3293754458427429,2.6015138626098633,-0.0005847150459885597,0.06684053689241409,-0.9773573875427246,0.20076149702072144,0.3286671042442322,0.6311658024787903,-0.08555790781974792
1.3554669061345537,2.8506760628186343,-0.07794581553251755,0.12757496535778046,2.824101686477661,0.01876208558678627,0.06128668040037155,-0.9769060611724854,0.204690620303154,0.289436399936676,0.6757128834724426,-0.07430461049079895
1.3550131063442004,2.8824937392246786,-0.08076065224484394,0.005434608552604914,2.9878063201904297,0.07816684991121292,0.054857682436704636,-0.976809024810791,0.20696566998958588,0.28414666652679443,0.7074608206748962,-0.08639097213745117
1.3554994624994567,2.917942867204665,-0.08595808060329427,-0.040486279875040054,3.0964674949645996,0.16601307690143585,0.047382697463035583,-0.9769130349159241,0.20831692218780518,0.3262591063976288,0.7244105339050293,-0.10985219478607178
1.3564863329848718,2.958945031130662,-0.09566099988730406,-0.07464201003313065,3.223668336868286,0.2842579782009125,0.038628607988357544,-0.9771233797073364,0.20913547277450562,0.3414981961250305,0.7639580965042114,-0.13342155516147614
1.3583001251645568,3.0073342897914146,-0.11158309744448265,-0.18937444686889648,3.3441691398620605,0.4462439715862274,0.028230221942067146,-0.9775075316429138,0.20900298655033112,0.33674463629722595,0.8094470500946045,-0.12764331698417664
1.3616520646174393,3.065201096003295,-0.13644717346005017,-0.37550410628318787,3.365817070007324,0.667714536190033,0.01584528014063835,-0.9782089591026306,0.20701824128627777,0.311974436044693,0.8740522861480713,-0.06791934370994568
1.3668155226860728,3.1351977350979037,-0.17384755532269042,-0.5958151817321777,3.3197853565216064,0.9039403796195984,0.001295410213060677,-0.979267954826355,0.20256592333316803,0.2681747078895569,0.9103743433952332,0.01468852162361145
1.3733648007510517,-3.0653554090244546,-0.22466798859814033,-0.7782336473464966,3.2569642066955566,1.0655543804168701,-0.014939576387405396,-0.9805735945701599,0.19558185338974,0.18364062905311584,0.9129923582077026,0.06255090236663818
1.3802756888549033,-2.972563755940924,-0.286417615607326,-0.8757594227790833,3.204921245574951,1.1135122776031494,-0.03185681998729706,-0.9819057583808899,0.18667133152484894,0.034038737416267395,0.8721340298652649,0.055714234709739685
1.3867527292040496,-2.874935635655109,-0.35322677678680653,-0.9271933436393738,3.1951792240142822,1.0243803262710571,-0.04822351038455963,-0.9831117391586304,0.1765378713607788,-0.16033369302749634,0.7944979071617126,0.021322593092918396
1.3929408694274095,-2.778573600420787,-0.4193555370844468,-0.9944754838943481,3.0642306804656982,0.8549244999885559,-0.06282344460487366,-0.9842253923416138,0.16538859903812408,-0.334958016872406,0.6952239871025085,0.01651117205619812
1.3995726795609609,-2.6854746499027393,-0.483731898842872,-1.1242603063583374,2.888658285140991,0.6696252822875977,-0.07505040615797043,-0.9853770136833191,0.1529695689678192,-0.437782347202301,0.5988565683364868,0.0673518180847168
1.4074351977856316,-2.5917214945477394,-0.5502546274769737,-1.3344683647155762,2.769728422164917,0.5254364013671875,-0.08499014377593994,-0.9866862297058105,0.13866253197193146,-0.5022749304771423,0.5577767491340637,0.12062980234622955
1.4167339909532146,-2.487117336511907,-0.6279209900915542,-1.5962010622024536,2.8476831912994385,0.4514397978782654,-0.09341413527727127,-0.9881558418273926,0.1217455118894577,-0.5598604679107666,0.5505489110946655,0.12901712954044342
1.427031921506825,-2.3619424814656904,-0.7249766196408143,-1.8447051048278809,3.001891613006592,0.3633916974067688,-0.10072331130504608,-0.9896836876869202,0.10188792645931244,-0.6119232773780823,0.5527787208557129,0.08315515518188477
1.4373452647486262,-2.2118777254065396,-0.8453777285301003,-2.011885166168213,3.160677194595337,0.263653427362442,-0.10663753747940063,-0.9911085963249207,0.07957570999860764,-0.6766724586486816,0.5097548365592957,0.01750040054321289
1.4465095952932139,-2.037540628067214,-0.989333795595093,-2.0882139205932617,3.129582643508911,0.11405542492866516,-0.11070781946182251,-0.9922863245010376,0.05578311160206795,-0.7382607460021973,0.4060894250869751,-0.04134857654571533
1.4539820089008282,-1.847205200876649,-1.1505959529005287,-2.05531907081604,2.9134604930877686,-0.09865868091583252,-0.11212502419948578,-0.9931849837303162,0.03180653229355812,-0.8105434775352478,0.25804704427719116,-0.0598982609808445
1.4596313985292972,-1.6529504008289158,-1.3184215371601382,-1.8895461559295654,2.587400197982788,-0.3348515033721924,-0.11056220531463623,-0.9938275218009949,0.009103626012802124,-0.9343292117118835,0.14290589094161987,-0.07303822040557861
1.4638321867710202,-1.4653702022750983,-1.482930800618037,-1.690985918045044,2.2376577854156494,-0.5332361459732056,-0.10616741329431534,-0.9942848086357117,-0.011234472505748272,-1.0387758016586304,0.07167738676071167,-0.09231191873550415
1.4663859063227473,-1.2831501627593984,-1.6454046453381919,-1.5801126956939697,1.9016165733337402,-0.6262507438659668,-0.09993882477283478,-0.9945541620254517,-0.029567014425992966,-1.1002564430236816,0.035020530223846436,-0.0745745301246643
1.4666712604155632,-1.106307271789551,-1.8056709350605022,-1.5053077936172485,1.5923410654067993,-0.6495400667190552,-0.09292560815811157,-0.9945839047431946,-0.046560585498809814,-1.0873416662216187,-0.02319258451461792,-0.0048923492431640625
1.4645976158437337,-0.9400547036064689,-1.9587634991080052,-1.4608170986175537,1.1951942443847656,-0.677428126335144,-0.08560427278280258,-0.9943662285804749,-0.06251262128353119,-1.0487645864486694,-0.060550153255462646,0.045239388942718506
1.4606246130129976,-0.7874208729666792,-2.1026851820129466,-1.4174418449401855,0.714684247970581,-0.74545818567276,-0.07790253311395645,-0.9939372539520264,-0.0775880217552185,-1.0246975421905518,-0.09137457609176636,0.08019698411226273
1.4554545080935661,-0.6500422079570659,-2.236173950594134,-1.3328001499176025,0.2408815324306488,-0.845122754573822,-0.06965255737304688,-0.9933555126190186,-0.09161543101072311,-1.0171394348144531,-0.14308857917785645,0.08377212285995483
1.4499437534131934,-0.5260618062055754,-2.360541158721106,-1.2110495567321777,-0.12421656399965286,-0.9893699288368225,-0.06053626909852028,-0.9927062392234802,-0.10425801575183868,-1.0447036027908325,-0.17456060647964478,0.03327381610870361
1.4444541137656908,-0.4093765188684945,-2.4805653382623554,-1.1084755659103394,-0.35183054208755493,-1.1622737646102905,-0.050155431032180786,-0.9920294284820557,-0.1155947744846344,-1.085205316543579,-0.19222038984298706,-0.04936826229095459
1.438885107477211,-0.2948973216707985,-2.600652293130701,-0.9965054392814636,-0.5759477019309998,-1.3668551445007324,-0.03822779282927513,-0.9913123250007629,-0.12585113942623138,-1.096278429031372,-0.19650804996490479,-0.1075780987739563
1.4334324388743536,-0.18001313867541008,-2.723643471618569,-0.8390364646911621,-0.8242020010948181,-1.5838193893432617,-0.024516796693205833,-0.9905803799629211,-0.13472019135951996,-1.0877115726470947,-0.20413696765899658,-0.13583368062973022
1.4277156681593568,-0.06719916014283545,-2.847211738918407,-0.7340502142906189,-1.0964444875717163,-1.6898672580718994,-0.009574949741363525,-0.9897814393043518,-0.14227162301540375,-1.0269546508789062,-0.1777753233909607,-0.14657753705978394
1.4208015086937695,0.034831126635109594,-2.963056412170043,-0.7096285223960876,-1.4276460409164429,-1.6644132137298584,0.00520390085875988,-0.9887718558311462,-0.1493433266878128,-0.86509770154953,-0.11576616764068604,-0.10259486734867096
1.4124788229223684,0.11870405222779294,-3.064322915078241,-0.710167646408081,-1.826231598854065,-1.5645806789398193,0.01867060922086239,-0.9874939322471619,-0.15654757618904114,-0.7021422982215881,-0.01613759994506836,-0.03264641761779785
1.4032407151012838,0.18264845399312754,3.133568179329218,-0.70148766040802,-2.204822301864624,-1.4601995944976807,0.030291734263300896,-0.985995352268219,-0.16399884223937988,-0.5868865847587585,0.08949577808380127,-0.005862295627593994
1.3934048367502172,0.23156910566746264,3.060557370227457,-0.7144455909729004,-2.3826138973236084,-1.4042162895202637,0.040499042719602585,-0.9843073487281799,-0.17175233364105225,-0.505693793296814,0.1635066270828247,-0.03215116262435913
1.3828311318635524,0.2695815400601604,2.9974196514106413,-0.7688281536102295,-2.429048776626587,-1.3461931943893433,0.04976629093289375,-0.9823864698410034,-0.1801118701696396,-0.43776679039001465,0.19658929109573364,-0.08417065441608429
1.3714388633015477,0.29888352544414193,2.9429060569400294,-0.8337283134460449,-2.419400453567505,-1.320096492767334,0.05831339210271835,-0.9801940321922302,-0.18925954401493073,-0.34815412759780884,0.19978338479995728,-0.10561679303646088
1.3590102920135232,0.32266862218354886,2.8940058215739115,-0.9304905533790588,-2.402815341949463,-1.3483425378799438,0.06665622442960739,-0.9776570200920105,-0.19935840368270874,-0.2649289667606354,0.17451071739196777,-0.09832561016082764
1.3451783937606345,0.34155738658451834,2.849994349654026,-1.0670392513275146,-2.442413806915283,-1.3533222675323486,0.0749325230717659,-0.9746560454368591,-0.21078652143478394,-0.20716524124145508,0.16604697704315186,-0.06999078392982483
1.3301774735063239,0.35257500983924583,2.8127100399513525,-1.1636850833892822,-2.62431001663208,-1.281712293624878,0.08229004591703415,-0.9711906909942627,-0.22364503145217896,-0.10928289592266083,0.1861717700958252,-0.031756818294525146
1.3149540110060067,0.3529357298491366,2.784299374455747,-1.209098219871521,-2.8193111419677734,-1.063770055770874,0.08747148513793945,-0.9674504995346069,-0.2374626100063324,0.02555030584335327,0.22828418016433716,-0.03426620364189148
1.300510667942556,0.339759518391543,2.767892613935354,-1.2171475887298584,-2.9912984371185303,-0.711232602596283,0.0889827162027359,-0.96369469165802,-0.2517431080341339,0.15845370292663574,0.2958328127861023,-0.07827422022819519
1.2873765120666818,0.31337713209551954,2.7635515368304877,-1.1936876773834229,-3.1296491622924805,-0.37035056948661804,0.08620558679103851,-0.960104763507843,-0.2660213112831116,0.2902591824531555,0.31172847747802734,-0.13102790713310242
1.2753852024738348,0.27767702052523935,2.7676896925804364,-1.1747987270355225,-3.218243360519409,-0.11612389236688614,0.07980603724718094,-0.9566825032234192,-0.27998095750808716,0.3580142855644226,0.266970157623291,-0.18062105774879456
1.2639107428314615,0.23776686971958452,2.7758262969226357,-1.176735758781433,-3.2042956352233887,-0.025223050266504288,0.07115241140127182,-0.9532790184020996,-0.293592244386673,0.3531181216239929,0.18144381046295166,-0.21214532852172852
1.252156814679785,0.19980296748158627,2.7827471163476782,-1.2215111255645752,-3.069611072540283,-0.07661380618810654,0.0621776320040226,-0.9496625065803528,-0.30704256892204285,0.31224241852760315,0.06739938259124756,-0.26330071687698364
1.2396499995339838,0.16639478782020953,2.7867468705210268,-1.2891101837158203,-2.8598108291625977,-0.11842752993106842,0.053850241005420685,-0.9456702470779419,-0.320637047290802,0.23594456911087036,0.02809816598892212,-0.329769104719162
1.22658822347734,0.13579963728061414,2.7899349172509913,-1.3180105686187744,-2.6812655925750732,-0.04757572337985039,0.0456850491464138,-0.9413429498672485,-0.3343445658683777,0.22413598001003265,0.056485891342163086,-0.3940187096595764
1.2139509245123679,0.1044953810343493,2.7952573621495427,-1.2236403226852417,-2.598867893218994,0.11426513642072678,0.036435943096876144,-0.9370034337043762,-0.34741467237472534,0.2901325225830078,0.06090492010116577,-0.44839242100715637
1.202765614436924,0.0709875287028111,2.80342297043393,-1.0599839687347412,-2.5902512073516846,0.25486963987350464,0.025518350303173065,-0.9330376386642456,-0.35887250304222107,0.3561496138572693,0.06899362802505493,-0.49389562010765076
1.1929069308061044,0.036719670051167275,2.8126570742999206,-0.9631673097610474,-2.5341286659240723,0.30313941836357117,0.013545031659305096,-0.9294454455375671,-0.3687109053134918,0.3816879689693451,0.049104928970336914,-0.5077083706855774
1.1832678520267101,0.004653439750640292,2.8211803486730656,-0.9982587695121765,-2.2833173274993896,0.29043108224868774,0.0017585348105058074,-0.9258458614349365,-0.3778972327709198,0.3855398893356323,0.020954012870788574,-0.4856588840484619
1.1726619250521215,-0.02235546774624149,2.827770622944615,-1.130350947380066,-1.8953914642333984,0.22871091961860657,-0.008666479028761387,-0.9217858910560608,-0.38760247826576233,0.3881676495075226,0.022310853004455566,-0.4640212655067444
1.1605509186980285,-0.04244716144188422,2.8313795441062513,-1.2832777500152588,-1.4723306894302368,0.1366204023361206,-0.016924308612942696,-0.9170229434967041,-0.3984752297401428,0.4050619602203369,0.03332555294036865,-0.4599539637565613
1.1471557081682502,-0.05636585089471686,2.8324309329017714,-1.3833380937576294,-1.134538173675537,0.08880575001239777,-0.023158712312579155,-0.9115983843803406,-0.4104290306568146,0.44156980514526367,0.05266600847244263,-0.47256678342819214
1.1331784627189767,-0.06628912173813956,2.83227853533298,-1.3988007307052612,-0.8932015895843506,0.06829168647527695,-0.028071625158190727,-0.9057637453079224,-0.422852098941803,0.5088911652565002,0.07792884111404419,-0.48924216628074646
1.1195065704500762,-0.07342818885020849,2.8313599858447436,-1.3337554931640625,-0.711491048336029,0.04960661754012108,-0.03199521079659462,-0.899885356426239,-0.4349513053894043,0.5627415180206299,0.06867820024490356,-0.5150763988494873
1.106371499157172,-0.07957688517652324,2.830796207208747,-1.3049381971359253,-0.6394541263580322,0.11587751656770706,-0.035605572164058685,-0.894079327583313,-0.4464912414550781,0.5831059813499451,0.07259202003479004,-0.5182458758354187
1.0931274476774302,-0.08750190907988237,2.8324536512266536,-1.3260401487350464,-0.654401957988739,0.2610592246055603,-0.040174201130867004,-0.8880689740180969,-0.4579513370990753,0.6222510933876038,0.10868072509765625,-0.4420579969882965
1.0796068435354331,-0.09789677747913685,2.83689808622257,-1.3302887678146362,-0.6322569847106934,0.39520424604415894,-0.046101730316877365,-0.8817724585533142,-0.4694164991378784,0.6833391189575195,0.10749596357345581,-0.3602498173713684
1.0659062461115238,-0.10905198473660477,2.8429416584759344,-1.3434340953826904,-0.5213829278945923,0.45182693004608154,-0.05264516919851303,-0.8752276301383972,-0.48083776235580444,0.7108023166656494,0.07211196422576904,-0.3519565761089325
1.0517830292676942,-0.11811714220597751,2.848792822385895,-1.4091368913650513,-0.25644877552986145,0.4318934381008148,-0.05845274031162262,-0.8683090209960938,-0.49256736040115356,0.7123985290527344,0.018409907817840576,-0.3679827153682709
1.0368398900231857,-0.12277807107720952,2.8530122600204715,-1.5136703252792358,0.05591149255633354,0.34650227427482605,-0.06233017146587372,-0.8608002066612244,-0.5051118731498718,0.6977822780609131,-0.037454068660736084,-0.387237548828125
1.0209758981797803,-0.12214641725799565,2.8548693083739205,-1.6099371910095215,0.3900972008705139,0.23516856133937836,-0.06366709619760513,-0.852618396282196,-0.5186410546302795,0.6677929162979126,-0.07229310274124146,-0.40817803144454956
1.004554615777582,-0.11668839049724966,2.854933123253569,-1.6473114490509033,0.7090639472007751,0.17482945322990417,-0.06245717033743858,-0.8439230918884277,-0.5328159332275391,0.6579312682151794,-0.10561591386795044,-0.44037455320358276
0.9880305127884101,-0.10844518300624491,2.8551096200720125,-1.63432776927948,0.961616575717926,0.2319430708885193,-0.05956429988145828,-0.8349437117576599,-0.5471023917198181,0.6966795921325684,-0.10275447368621826,-0.4655930995941162
0.9717778427744689,-0.10023331125361545,2.857657916534286,-1.5645533800125122,1.0897271633148193,0.39728590846061707,-0.05642017722129822,-0.8258894085884094,-0.5610021948814392,0.7657553553581238,-0.09546667337417603,-0.4633052349090576
0.9564394948485245,-0.09410752257893049,2.863789250389038,-1.4238303899765015,1.1477316617965698,0.5982038974761963,-0.05416666343808174,-0.8171443343162537,-0.573882520198822,0.8595406413078308,-0.1489046812057495,-0.4438483715057373
0.9423495240886259,-0.09001843132047038,2.8735221147690253,-1.286755919456482,1.274765968322754,0.7865765690803528,-0.052849408239126205,-0.8089416027069092,-0.5855087637901306,0.9061512351036072,-0.2007017731666565,-0.4499375820159912
0.9295065078009938,-0.08625097706215658,2.8860393313552204,-1.1424893140792847,1.5043282508850098,0.9089818596839905,-0.05153392255306244,-0.8013248443603516,-0.5960056185722351,0.8628130555152893,-0.2423456311225891,-0.48355382680892944
0.9180368470164962,-0.08123070644958891,2.8999495598458505,-1.014196753501892,1.714525580406189,0.9508238434791565,-0.04928373917937279,-0.794410765171051,-0.6053781509399414,0.7637916803359985,-0.32785773277282715,-0.5249168872833252
0.9076242862341277,-0.07462141033643598,2.9142978123702115,-0.9338513016700745,1.8868885040283203,0.9632841944694519,-0.045895785093307495,-0.7880434393882751,-0.6139064431190491,0.6818819642066956,-0.3831753134727478,-0.5310064554214478
0.8979591858633897,-0.06634997773298311,2.9289667599531506,-0.8709600567817688,2.0814828872680664,0.9958699345588684,-0.041319459676742554,-0.7820566892623901,-0.6218360662460327,0.6205734610557556,-0.4123401641845703,-0.5098932981491089
0.8889317635400866,-0.056716690413188706,2.944577061179789,-0.8127439022064209,2.287350654602051,1.077481746673584,-0.035726066678762436,-0.7763989567756653,-0.629228413105011,0.5761769413948059,-0.41400009393692017,-0.5026687383651733
0.8807387516920147,-0.04627306194876214,2.9617171422204196,-0.7037022709846497,2.455509662628174,1.1852757930755615,-0.0294460691511631,-0.7712093591690063,-0.6359001994132996,0.5530970692634583,-0.4028932452201843,-0.49483728408813477
0.8741005200416,-0.03610580604719032,2.9810314579816417,-0.5167297124862671,2.549860715866089,1.3500690460205078,-0.02316359244287014,-0.7669666409492493,-0.641268789768219,0.5032355189323425,-0.3914957046508789,-0.4965030550956726
0.8695196396468359,-0.027476063545589926,3.0032880904044426,-0.3092869818210602,2.5865907669067383,1.55013906955719,-0.017725151032209396,-0.7640190720558167,-0.6449500918388367,0.44173625111579895,-0.3738133907318115,-0.49436283111572266
0.8670561951473993,-0.02118219970695928,3.0286781872672806,-0.10569151490926743,2.5451574325561523,1.7432856559753418,-0.0137054193764925,-0.7624273896217346,-0.6469285488128662,0.3768492341041565,-0.3596426844596863,-0.4656357169151306
0.8665697566606549,-0.017390339593959827,3.056420836344123,0.07069949060678482,2.4536633491516113,1.8396010398864746,-0.011258712969720364,-0.762112557888031,-0.6473466753959656,0.293424129486084,-0.36183446645736694,-0.41564178466796875
0.8675188268911798,-0.01467912093234954,3.084812888739142,0.16185176372528076,2.4365551471710205,1.8306993246078491,-0.00949295423924923,-0.7627266645431519,-0.6466513276100159,0.19966313242912292,-0.3929280638694763,-0.36608999967575073
0.8687839613571431,-0.01144689690811474,3.1127623208529682,0.12805430591106415,2.491757392883301,1.7781883478164673,-0.007391734514385462,-0.7635442614555359,-0.6457131505012512,0.08817166835069656,-0.4339348077774048,-0.3219383955001831
0.8696973541949063,-0.006358531778154063,3.1394307161357418,0.09505348652601242,2.6156327724456787,1.6637914180755615,-0.004101593047380447,-0.7641337513923645,-0.6450448036193848,-0.036883581429719925,-0.46770811080932617,-0.28484129905700684
0.8707830640246353,0.001646296183216448,-3.1190016130439275,0.14227308332920074,2.7793996334075928,1.5402073860168457,0.0010605893330648541,-0.7648336291313171,-0.6442269682884216,-0.1702958643436432,-0.501081109046936,-0.3082573413848877
0.8728018784735251,0.012528299545429876,-3.0959112252255814,0.24650628864765167,2.931997776031494,1.450756311416626,0.00805150717496872,-0.766132652759552,-0.6426319479942322,-0.2805430293083191,-0.5091204643249512,-0.37541937828063965
0.8761157554984974,0.025346236334876378,-3.074087975031591,0.3656192421913147,2.967946767807007,1.364217758178711,0.016223404556512833,-0.7682582139968872,-0.6399344801902771,-0.3587069511413574,-0.516882598400116,-0.4106943607330322
0.8809341662495738,0.03894105226809928,-3.05396523505988,0.5231881141662598,2.8418314456939697,1.2320303916931152,0.02477702498435974,-0.7713337540626526,-0.6359484195709229,-0.4398466646671295,-0.5475289821624756,-0.38755035400390625
0.8877806116848442,0.05283652174131992,-3.036496178174665,0.7511016726493835,2.6492674350738525,1.0456937551498413,0.03333146870136261,-0.7756729125976562,-0.630254328250885,-0.5273195505142212,-0.5985181331634521,-0.3513132333755493
0.8970352424723074,0.06722526893905455,-3.0221617533795517,0.9861744046211243,2.4743082523345947,0.8721872568130493,0.041912250220775604,-0.7814805507659912,-0.6225202679634094,-0.5960046648979187,-0.637205183506012,-0.3551868200302124
0.9084057606575883,0.08191763166303646,-3.0102962510055193,1.1691566705703735,2.340010643005371,0.7788848280906677,0.05032331123948097,-0.7885242700576782,-0.6129412651062012,-0.6129758954048157,-0.6369973421096802,-0.36203449964523315
0.9214311632637406,0.096275216054214,-2.999510909565454,1.3100671768188477,2.257481575012207,0.7718802094459534,0.05812589079141617,-0.7964678406715393,-0.601880669593811,-0.591268002986908,-0.6144359111785889,-0.34775030612945557
0.935895209732798,0.1101447750738712,-2.989177334307136,1.4489697217941284,2.170348644256592,0.7487993836402893,0.06519462913274765,-0.8051303625106812,-0.589503824710846,-0.5814604759216309,-0.5916284918785095,-0.3383680582046509
0.9519046264691775,0.12392580761278263,-2.980477964336601,1.6178128719329834,1.989557147026062,0.6277506947517395,0.07170955091714859,-0.8145219087600708,-0.5756837725639343,-0.6361168622970581,-0.5953900218009949,-0.3340759873390198
0.9694262517530743,0.13823093930813118,-2.9751575669346537,1.7828987836837769,1.749311923980713,0.43603602051734924,0.07795847207307816,-0.8245612382888794,-0.560375988483429,-0.7291578054428101,-0.6128470301628113,-0.32155174016952515
0.9882770006223979,0.15325081334163224,-2.973763848923168,1.926753044128418,1.486958384513855,0.27436697483062744,0.08397816121578217,-0.8350793719291687,-0.5436819195747375,-0.7878355979919434,-0.5992618799209595,-0.3124889135360718
1.0082762175550493,0.1683239128655319,-2.975690678823455,2.064509391784668,1.2103025913238525,0.1653755158185959,0.08934713900089264,-0.8459137678146362,-0.5257822275161743,-0.7891151905059814,-0.5367764830589294,-0.31021648645401
1.0296130687053184,0.1832459574212047,-2.980609603221414,2.239455461502075,0.9489425420761108,0.07452791184186935,0.0938718169927597,-0.857099711894989,-0.5065255165100098,-0.7635800242424011,-0.46078646183013916,-0.31892943382263184
1.0525074677255106,0.19869000105235918,-2.988568402531721,2.4119203090667725,0.7790018320083618,0.010064034722745419,0.09778356552124023,-0.8686681389808655,-0.4856480360031128,-0.7400259971618652,-0.3824150562286377,-0.3550198972225189
1.0766595675485175,0.2152204946325251,-2.9991915962361273,2.5260558128356934,0.6802254319190979,-0.02466784417629242,0.10128682851791382,-0.8803784251213074,-0.4633300006389618,-0.7169331908226013,-0.2929917573928833,-0.4020419716835022
1.1014396611118726,0.23319158554100725,-3.0122062102634133,2.574641227722168,0.6087788939476013,-0.04897494986653328,0.10452216863632202,-0.8918594717979431,-0.4400702714920044,-0.716582715511322,-0.18884414434432983,-0.4074641466140747
1.1262578578824929,0.25265450822852736,-3.0276887020517202,2.5770859718322754,0.4976339340209961,-0.08451110869646072,0.1074996069073677,-0.9028092622756958,-0.41638848185539246,-0.7343459129333496,-0.10167670249938965,-0.37192660570144653
1.150789709878326,0.2731701119817331,-3.045805877812585,2.564206123352051,0.3078233599662781,-0.10509741306304932,0.11000943928956985,-0.9130862355232239,-0.39264675974845886,-0.7498409748077393,-0.029937326908111572,-0.3066943287849426
1.1748894396350549,0.2941387467280751,-3.066523993796522,2.5278170108795166,0.08505845814943314,-0.12337201833724976,0.11180456727743149,-0.9226471781730652,-0.3690824806690216,-0.7446475625038147,0.03830897808074951,-0.23396036028862
1.198173608592641,0.3154162207425558,-3.089582402997284,2.4339756965637207,-0.10388313233852386,-0.1263955682516098,0.11293565481901169,-0.9313757419586182,-0.3460993766784668,-0.7391105890274048,0.10349500179290771,-0.1698921024799347
1.2201464930572565,0.3369911105671311,-3.1148338339336292,2.308131456375122,-0.3051893413066864,-0.16661542654037476,0.11358057707548141,-0.9391496777534485,-0.3241870403289795,-0.7511385083198547,0.1664142608642578,-0.1034407913684845
1.2404036280313626,0.3604591944553096,3.1393357880592148,2.1677443981170654,-0.46845194697380066,-0.280535489320755,0.11442224681377411,-0.9459150433540344,-0.3035659193992615,-0.7687495946884155,0.19126123189926147,-0.040855735540390015
1.2584929678051608,0.3878522050163092,3.1048405856457792,2.0029051303863525,-0.5963420271873474,-0.42422768473625183,0.1162026897072792,-0.9516283869743347,-0.2844295799732208,-0.791526198387146,0.18069350719451904,0.0026910603046417236
1.2742768106055682,0.4191536044110267,3.0653597334859795,1.8345577716827393,-0.6749388575553894,-0.5053461194038391,0.11891920119524002,-0.9563592672348022,-0.26689964532852173,-0.8089063167572021,0.20873969793319702,0.04311394691467285
1.2878891138352173,0.4527108017773351,3.022862612001314,1.6634480953216553,-0.7704107761383057,-0.5434514284133911,0.1221008375287056,-0.9602479338645935,-0.25102823972702026,-0.7863311767578125,0.25053125619888306,0.07805433869361877
1.2994680814926616,0.48651541736485215,2.9788509890831585,1.5019373893737793,-0.9443865418434143,-0.5529444813728333,0.12530826032161713,-0.9634157419204712,-0.23691324889659882,-0.7529938220977783,0.27721285820007324,0.12286879122257233
1.3094141825624481,0.5191104287159197,2.934193689985175,1.386775016784668,-1.1608238220214844,-0.5506267547607422,0.1282021850347519,-0.9660337567329407,-0.22437241673469543,-0.7177407741546631,0.29066455364227295,0.16626669466495514
1.318305223432771,0.5507777902193637,2.888223194179569,1.3501828908920288,-1.4019120931625366,-0.5517463088035583,0.1307416409254074,-0.9682931303977966,-0.21287329494953156,-0.6824231147766113,0.2826089859008789,0.17397838830947876
1.3270136415680307,0.5817797162855185,2.840538663648122,1.3885217905044556,-1.649631381034851,-0.48041197657585144,0.1326385736465454,-0.9704318642616272,-0.2016657143831253,-0.6426330804824829,0.2738224267959595,0.14818334579467773
1.3364273269642402,0.6102472658747876,2.7931264861196152,1.4323968887329102,-1.869096279144287,-0.3090371787548065,0.13308373093605042,-0.9726610779762268,-0.19031347334384918,-0.5688899755477905,0.3065539598464966,0.10692393779754639
1.3469474938289694,0.6328802879242491,2.7495173204230583,1.4295108318328857,-2.1141092777252197,-0.0784926638007164,0.1312970072031021,-0.9750502705574036,-0.17899203300476074,-0.4764813184738159,0.35610806941986084,0.09630435705184937
1.3584020953937954,0.6480722809125586,2.7107724112264693,1.4152508974075317,-2.4268553256988525,0.08878165483474731,0.12725013494491577,-0.977528989315033,-0.16806083917617798,-0.41597694158554077,0.37497472763061523,0.1215670108795166
1.3704280258500283,0.6588674527978566,2.6733854411020506,1.4360116720199585,-2.730302333831787,0.14647451043128967,0.12185084074735641,-0.9799933433532715,-0.1573707014322281,-0.403436541557312,0.33642345666885376,0.14139443635940552
1.3828153465826873,0.6700694603448702,2.6333988172884317,1.4683037996292114,-2.8621208667755127,0.16391021013259888,0.11605706810951233,-0.9823835492134094,-0.14646878838539124,-0.4070116877555847,0.28049468994140625,0.10166874527931213
1.3951907577411027,0.6841338742208681,2.590001611890865,1.4321128129959106,-2.8607823848724365,0.16102148592472076,0.11041348427534103,-0.9846209287643433,-0.135390043258667,-0.387268990278244,0.23420900106430054,0.027906835079193115
1.4067211826350086,0.6989701358240024,2.546377375939498,1.2751400470733643,-2.771167516708374,0.17888760566711426,0.10509762167930603,-0.9865698218345642,-0.12503741681575775,-0.3453015089035034,0.20989757776260376,0.008582070469856262
1.41681243562922,0.7096322594052215,2.508169092950323,1.0467108488082886,-2.653432607650757,0.2039404958486557,0.09993277490139008,-0.9881678819656372,-0.11635114997625351,-0.28518977761268616,0.17765158414840698,0.038988836109638214
1.4251865738645313,0.7133249669979953,2.4781122231939654,0.8136847615242004,-2.5664076805114746,0.21254763007164001,0.09494428336620331,-0.9894176125526428,-0.10972074419260025,-0.2363322675228119,0.12740272283554077,0.06835387647151947
1.4321215951941446,0.7085858445342077,2.4573280105279056,0.6364644765853882,-2.510157346725464,0.25210994482040405,0.089954674243927,-0.9904000759124756,-0.10495571047067642,-0.21257436275482178,0.08421123027801514,0.07527710497379303
1.4384634142630277,0.6951852258958189,2.4454699229234835,0.5534271001815796,-2.5517585277557373,0.32763153314590454,0.08451586961746216,-0.9912567734718323,-0.10132692754268646,-0.18913018703460693,0.052642881870269775,0.05820530652999878
1.4451395487860936,0.6729352061327825,2.441248435556278,0.5635253190994263,-2.760344982147217,0.43653109669685364,0.07811342924833298,-0.9921155571937561,-0.098004050552845,-0.15732190012931824,0.030399978160858154,0.0375484973192215
1.4529101089162835,0.6426738590963587,2.4425596699700147,0.6578170657157898,-3.044642686843872,0.5374014377593994,0.07049037516117096,-0.9930594563484192,-0.09414932876825333,-0.10467015951871872,-0.0052315592765808105,0.02643054723739624
1.46205516868841,0.609227158003789,2.44441420793063,0.8042981028556824,-3.2755649089813232,0.5542813539505005,0.06210284307599068,-0.9940934777259827,-0.08900199830532074,-0.04768338426947594,-0.07425057888031006,-0.012072503566741943
1.4721431321722918,0.5814815305138902,2.438669090025305,0.9248286485671997,-3.4209766387939453,0.4760831296443939,0.05409909784793854,-0.9951376914978027,-0.08230653405189514,-0.0604773573577404,-0.14748626947402954,-0.08160365372896194
1.4823493067140365,0.5605143939027739,2.4249902901906557,0.9156602025032043,-3.4981801509857178,0.41800597310066223,0.04695862904191017,-0.9960911273956299,-0.07481463998556137,-0.09539015591144562,-0.16922247409820557,-0.11103766411542892
1.4918109338110306,0.5384850905998028,2.4120133470770386,0.8050878643989563,-3.499595880508423,0.3879832923412323,0.040463823825120926,-0.9968822598457336,-0.06773636490106583,-0.044934771955013275,-0.1659441590309143,-0.08344798535108566
1.5000572731402995,0.5100137831196461,2.40581591956159,0.6727322340011597,-3.4362988471984863,0.3578490912914276,0.03450489044189453,-0.9974990487098694,-0.06168452277779579,0.03582272678613663,-0.15418851375579834,-0.0582803450524807
1.5070390678182843,0.4740292271011958,2.4082726646158954,0.542066216468811,-3.2627313137054443,0.33016064763069153,0.02908307872712612,-0.9979681968688965,-0.056687165051698685,0.1066436916589737,-0.12887799739837646,-0.08406012505292892
1.512519904755239,0.43204632005065874,2.4190741997564342,0.38524729013442993,-2.9872872829437256,0.26036879420280457,0.024388883262872696,-0.9983024001121521,-0.05289281904697418,0.17696593701839447,-0.1141548752784729,-0.1412450075149536
1.516200872699057,0.39291938565210477,2.4297764991243014,0.24661464989185333,-2.7171478271484375,0.14259983599185944,0.020894305780529976,-0.9985100626945496,-0.050411902368068695,0.20853669941425323,-0.132074773311615,-0.2072330117225647
1.5184300218036437,0.36643444296408395,2.430325009341116,0.1780928373336792,-2.488351821899414,0.03210822120308876,0.018753299489617348,-0.9986292123794556,-0.048866383731365204,0.20977741479873657,-0.15273791551589966,-0.2804337739944458
1.5203306500084661,0.3574640617017077,2.414994206334592,0.25793153047561646,-2.4007186889648438,-0.042582832276821136,0.01765022613108158,-0.9987269043922424,-0.047254979610443115,0.22356055676937103,-0.18790334463119507,-0.3762224316596985
1.523528082162173,0.37439938496193126,2.373587163807467,0.4979846179485321,-2.511631965637207,-0.1032019630074501,0.017279760912060738,-0.998883068561554,-0.043976347893476486,0.2565695643424988,-0.22586357593536377,-0.4641873240470886
1.5289334348250394,0.4266639184316146,2.2953826196058,0.7642392516136169,-2.663259267807007,-0.11135084182024002,0.01731983944773674,-0.9991238713264465,-0.03809995949268341,0.30773797631263733,-0.22658413648605347,-0.5300002694129944
1.5360934996008544,0.5259764779488872,2.1690272155210466,0.933997392654419,-2.714092969894409,-0.09826060384511948,0.017419269308447838,-0.9993979334831238,-0.03000606782734394,0.3856109380722046,-0.22345668077468872,-0.5590596795082092
1.5431354969648645,0.7063854283319684,1.962367406705676,0.9341269731521606,-2.4783315658569336,-0.15374410152435303,0.017949916422367096,-0.9996174573898315,-0.021036788821220398,0.4440097212791443,-0.1895608901977539,-0.5566611289978027
1.5471904776003422,0.9927431243217039,1.6537319132711559,0.7626966834068298,-1.9408905506134033,-0.2918758988380432,0.019764086231589317,-0.9997214078903198,-0.012893883511424065,0.4488789141178131,-0.16138076782226562,-0.55810546875
1.5463884426703984,1.2809611571431494,1.349082436748808,0.48730096220970154,-1.341528296470642,-0.4676547646522522,0.023391297087073326,-0.9997021555900574,-0.006976063828915358,0.4187013804912567,-0.11193126440048218,-0.5596898198127747
1.5417685467395938,1.4410850520369425,1.178070149406221,0.22482673823833466,-0.8516625165939331,-0.6144140958786011,0.02878250926733017,-0.9995787143707275,-0.003754496108740568,0.4178268015384674,-0.06110548973083496,-0.5357049703598022
1.5356111238006345,1.501728127577656,1.1105184053656956,0.11023520678281784,-0.5523536205291748,-0.6399658918380737,0.035098735243082047,-0.9993810653686523,-0.002428068546578288,0.46337518095970154,-0.021218419075012207,-0.5130292773246765
1.5295105137151705,1.5432877008127515,1.063967212486441,0.21808764338493347,-0.46815964579582214,-0.5977449417114258,0.04125891998410225,-0.9991478323936462,-0.0011352625442668796,0.55564945936203,0.015245914459228516,-0.5292451977729797
1.5238462612218573,1.6182520834688854,0.9838522072857697,0.5157860517501831,-0.5648243427276611,-0.5190837383270264,0.046882834285497665,-0.9988980293273926,0.0022265322040766478,0.6094432473182678,0.015713095664978027,-0.596159815788269
1.518686550287961,1.7389193368843598,0.8566558075027665,0.8417023420333862,-0.7082903981208801,-0.3661046028137207,0.05135301873087883,-0.9986425638198853,0.008715898729860783,0.6251451969146729,0.035935044288635254,-0.6502566337585449
1.513604321161225,1.8881516599935888,0.6996819695870515,1.0511614084243774,-0.7829414010047913,-0.21274647116661072,0.05430785194039345,-0.9983649849891663,0.01783778704702854,0.6608866453170776,0.08247131109237671,-0.6392216682434082
1.5079786217623885,2.0386385028811023,0.5413698953403885,1.1165720224380493,-0.705687940120697,-0.10543067008256912,0.05603283643722534,-0.9980276226997375,0.028310829773545265,0.6516238451004028,0.109630286693573,-0.579397439956665
1.5015922749363837,2.16823804015972,0.40548571555896373,1.0653256177902222,-0.47912782430648804,-0.10076397657394409,0.05717341974377632,-0.9976063370704651,0.038900092244148254,0.6048136949539185,0.133622944355011,-0.5124415159225464
1.4942879321273543,2.263434768052479,0.3067178790646717,0.9614359736442566,-0.179485484957695,-0.2143043875694275,0.058822162449359894,-0.9970746636390686,0.04880954325199127,0.5275576114654541,0.12425649166107178,-0.4651916027069092
1.4860730006565488,2.323262786709035,0.2465550877978685,0.8530639410018921,0.15423180162906647,-0.37896981835365295,0.06177530437707901,-0.9964131116867065,0.05783491209149361,0.4371563792228699,0.09635806083679199,-0.44473695755004883
1.4773204201614394,2.356065582083139,0.21686540730280185,0.7514819502830505,0.4966120421886444,-0.5048683285713196,0.06600987911224365,-0.9956343173980713,0.06599286198616028,0.38572636246681213,0.09687632322311401,-0.4440906047821045
1.4683722013350833,2.37633457039168,0.20326223898981152,0.7272405624389648,0.8475656509399414,-0.5486001372337341,0.07082865387201309,-0.9947592616081238,0.07374069094657898,0.3761621117591858,0.09577226638793945,-0.4663189649581909
1.459185494518474,2.397218803106961,0.19213526324397076,0.7838281989097595,1.0957201719284058,-0.5322845578193665,0.07546097785234451,-0.9937779903411865,0.08192109316587448,0.39280053973197937,0.10872238874435425,-0.5088317394256592
1.4495787698798388,2.4237150119519337,0.17683005796002663,0.8926630020141602,1.1506578922271729,-0.4862903952598572,0.07954050600528717,-0.9926621317863464,0.09107831865549088,0.3968386948108673,0.13633882999420166,-0.5168139934539795
1.439398417230691,2.455660362697471,0.1562157633755951,0.9928053021430969,1.1507233381271362,-0.4340013563632965,0.08298809826374054,-0.9913797378540039,0.10138794034719467,0.40877193212509155,0.14129716157913208,-0.4784327745437622
1.428916668972828,2.4897866915322577,0.13351445353818583,1.028317928314209,1.1988736391067505,-0.38387101888656616,0.08577905595302582,-0.9899519681930542,0.11241485923528671,0.39912980794906616,0.17725354433059692,-0.433551549911499
1.4186141035028024,2.5233973494647026,0.11250355136585645,0.9921620488166809,1.3847479820251465,-0.34678009152412415,0.08785919100046158,-0.988442599773407,0.12353862076997757,0.3820502758026123,0.22316861152648926,-0.4010657072067261
1.408898573374531,2.555287363149265,0.0953414381374402,0.9125595092773438,1.6032081842422485,-0.31651175022125244,0.0891852080821991,-0.9869231581687927,0.134271040558815,0.3582327961921692,0.27091968059539795,-0.3844848871231079
1.4000424133462757,2.585602539551156,0.0817623683928406,0.8250192403793335,1.7836920022964478,-0.2569253742694855,0.0896838903427124,-0.9854569435119629,0.14433076977729797,0.3288492262363434,0.3211960792541504,-0.3535442352294922
1.3922428970165401,2.6166891118403783,0.06881486840657712,0.7493663430213928,1.8707233667373657,-0.16475717723369598,0.08900334686040878,-0.9841016530990601,0.15369485318660736,0.3259897530078888,0.35281509160995483,-0.31289005279541016
1.3852240260515347,2.6481367340411595,0.05576020085925007,0.7165857553482056,1.8527995347976685,-0.1133938580751419,0.08739670366048813,-0.982830822467804,0.16249708831310272,0.32204219698905945,0.36135560274124146,-0.27393221855163574
1.3783982887886614,2.679571522035573,0.04269747592464016,0.7257314324378967,1.8856024742126465,-0.07659921795129776,0.08523441851139069,-0.981548547744751,0.17116425931453705,0.2723855972290039,0.3669246435165405,-0.2559576630592346
1.3716219804177034,2.7125051808828027,0.02879503516242188,0.7278648614883423,1.984936237335205,-0.014459416270256042,0.08231838792562485,-0.9802302718162537,0.17992420494556427,0.22886916995048523,0.38898253440856934,-0.2767871618270874
1.3651622441170992,2.7479877408544513,0.01340098928759029,0.7051137685775757,2.1036949157714844,0.06506157666444778,0.07831013202667236,-0.978931725025177,0.18857406079769135,0.2199837863445282,0.415973961353302,-0.28183603286743164
1.3590740652304292,2.785575582223918,-0.0029774182745873675,0.6752685308456421,2.2186334133148193,0.11424136906862259,0.07324476540088654,-0.977670431137085,0.19696739315986633,0.21152985095977783,0.44362789392471313,-0.25928446650505066
1.353472386392993,2.8230354870045127,-0.018078210854881305,0.5866140127182007,2.3296051025390625,0.11906781792640686,0.06753057986497879,-0.9764779210090637,0.20476911962032318,0.17802897095680237,0.4649727940559387,-0.23388314247131348
1.3489471208112969,2.858146877287887,-0.02976418903103894,0.42643123865127563,2.4182019233703613,0.09414542466402054,0.06153606250882149,-0.9754922389984131,0.2112545222043991,0.10951481759548187,0.49308544397354126,-0.18774089217185974
1.3457969526994167,2.8897246276458253,-0.03687927565859091,0.2705797255039215,2.522777557373047,0.041474927216768265,0.0556010864675045,-0.9747942686080933,0.21606694161891937,0.03274717181921005,0.5070206522941589,-0.13202175498008728
1.3437605567418736,2.917579528124102,-0.03885005509645919,0.1553812175989151,2.6820826530456543,-0.05187845602631569,0.05000258609652519,-0.9743378758430481,0.2194664627313614,-0.02452056109905243,0.4898560047149658,-0.1267848014831543
1.342356808989409,2.941711507183809,-0.03508991314603657,0.08963683992624283,2.889836072921753,-0.17053061723709106,0.04496392235159874,-0.9740209579467773,0.2219494730234146,-0.08607123792171478,0.48136037588119507,-0.15922081470489502
1.341318229519636,2.9632095827737106,-0.026554892449261912,0.042873065918684006,3.0699753761291504,-0.2406146228313446,0.04036193713545799,-0.9737852215766907,0.2238604575395584,-0.12170665711164474,0.48010218143463135,-0.1835622489452362
1.3406968192784765,2.9837577078114363,-0.015688278135825243,-0.0021961810998618603,3.1606569290161133,-0.26596853137016296,0.03584892302751541,-0.9736437201499939,0.22523996233940125,-0.11121218651533127,0.48179179430007935,-0.15892553329467773
1.3405870535622615,3.00398252753407,-0.0038752926999612233,-0.058262113481760025,3.188566207885742,-0.26708465814590454,0.031301166862249374,-0.9736186861991882,0.2260250747203827,-0.09345032274723053,0.48529136180877686,-0.1094023585319519
1.3411588416809694,3.025375717782793,0.0068517298780525595,-0.1153605505824089,3.195028305053711,-0.1941222846508026,0.026394391432404518,-0.9737489819526672,0.2260897010564804,-0.10308516025543213,0.5254303216934204,-0.07634016871452332
1.3423758915085389,3.050460623680836,0.013902772012675091,-0.16150780022144318,3.2031750679016113,-0.10403313487768173,0.0206073597073555,-0.974025309085846,0.22550007700920105,-0.11196182668209076,0.5764574408531189,-0.06677842140197754
1.3441367116176015,3.078690163413032,0.01760776117830927,-0.20324459671974182,3.1780922412872314,-0.03362209349870682,0.014126431196928024,-0.9744225144386292,0.22428038716316223,-0.1196868047118187,0.5878713726997375,-0.07092985510826111
1.346409517356715,3.1101867300884303,0.01779475214873689,-0.25454747676849365,3.167992115020752,0.04477311298251152,0.006986951921135187,-0.9749307036399841,0.2223992794752121,-0.16876071691513062,0.5844582319259644,-0.05761992931365967
1.3493003751690433,-3.138784157074383,0.015017933057892518,-0.32462358474731445,3.1406784057617188,0.07515771687030792,-0.0006169951520860195,-0.9755699038505554,0.21968819200992584,-0.21714124083518982,0.5644523501396179,-0.023445144295692444
1.3528867648937464,-3.105093255773419,0.012135660833061335,-0.39522555470466614,3.0347840785980225,0.03205312415957451,-0.007889027707278728,-0.9763514995574951,0.2160453200340271,-0.2571714520454407,0.5071131587028503,0.023425817489624023
1.3571364823577245,-3.0751397734703847,0.011406697447058975,-0.4577195942401886,2.8105270862579346,-0.04505603760480881,-0.014080213382840157,-0.9772614240646362,0.21157068014144897,-0.2931708097457886,0.4638640284538269,0.07433298230171204
1.3622378078419433,-3.0493894762541447,0.012466654341426471,-0.5662354230880737,2.5621063709259033,-0.06518474221229553,-0.019063612446188927,-0.9783303737640381,0.20617033541202545,-0.3101752996444702,0.4646432399749756,0.10536812245845795
1.368667419838958,-3.022548662457545,0.010297979079758497,-0.7260804772377014,2.407212734222412,0.022416142746806145,-0.023842349648475647,-0.9796414375305176,0.19933484494686127,-0.32585859298706055,0.49937087297439575,0.11993983387947083
1.376492510151089,-2.990361857091051,0.0021388461357561657,-0.8631193041801453,2.4672956466674805,0.07020790129899979,-0.029088960960507393,-0.981182336807251,0.19087950885295868,-0.34932902455329895,0.536052942276001,0.10477446019649506
1.385222312463124,-2.9544626837339036,-0.008756210944159588,-0.9171212911605835,2.5667572021484375,0.031807079911231995,-0.0343264676630497,-0.9828305244445801,0.18129031360149384,-0.4224759340286255,0.5169489979743958,0.04362393915653229
1.3942027136752304,-2.920174525187431,-0.017680833743454232,-0.9068977236747742,2.5402324199676514,-0.09017422050237656,-0.03858106955885887,-0.9844478368759155,0.1713884472846985,-0.46923142671585083,0.41309767961502075,0.0014933347702026367
1.4034271114839152,-2.8924950379123824,-0.02023491597573019,-0.9168419241905212,2.4914469718933105,-0.25444409251213074,-0.04106902331113815,-0.9860264658927917,0.1614469587802887,-0.49918365478515625,0.339816689491272,-0.004403844475746155
1.413377776083083,-2.871578982680629,-0.01696236112753435,-0.991209864616394,2.336601734161377,-0.34340032935142517,-0.04181741550564766,-0.9876352548599243,0.15108929574489594,-0.5456459522247314,0.32380157709121704,0.01872551441192627
1.4243327736176348,-2.8509636964826273,-0.014918944464562557,-1.099716305732727,2.208641290664673,-0.31644535064697266,-0.041819725185632706,-0.9892933964729309,0.13981953263282776,-0.5513961911201477,0.3561300039291382,0.07249091565608978
1.435960622782094,-2.8260427980939276,-0.018248509127152368,-1.1399904489517212,2.134810447692871,-0.2986873984336853,-0.04171812906861305,-0.9909234046936035,0.12779027223587036,-0.5453943014144897,0.379702091217041,0.09393489360809326
1.4477045010206828,-2.7986913124866675,-0.024103800701575046,-1.1382313966751099,2.1745169162750244,-0.31882742047309875,-0.04128171503543854,-0.9924337863922119,0.11563356220722198,-0.5995721220970154,0.37404078245162964,0.07006561011075974
1.459564963152624,-2.7698543991623157,-0.03228697426881322,-1.1531426906585693,1.925154209136963,-0.33448654413223267,-0.04032004624605179,-0.9938201904296875,0.10342072695493698,-0.6597074270248413,0.3232573866844177,0.08786320686340332
1.4716088394286986,-2.7441801618114394,-0.041328513253384734,-1.1512383222579956,1.404796838760376,-0.40464040637016296,-0.038326527923345566,-0.9950849413871765,0.09130874276161194,-0.6466862559318542,0.20733463764190674,0.1850886344909668
1.4839522139298453,-2.7265412843440204,-0.04740890234706606,-1.1756137609481812,0.9347955584526062,-0.45544499158859253,-0.03497534990310669,-0.9962314367294312,0.07937216013669968,-0.6663185358047485,0.17492693662643433,0.24113845825195312
1.4967460120476337,-2.7061785274592176,-0.06025274211496953,-1.2412782907485962,0.5938284993171692,-0.407987505197525,-0.031204843893647194,-0.9972595572471619,0.06707973778247833,-0.6928094029426575,0.1983550786972046,0.22399663925170898
1.5095154698502464,-2.6700127322211644,-0.09168954547297786,-1.2339849472045898,0.38334789872169495,-0.32262226939201355,-0.027822239324450493,-0.9981229305267334,0.05455821380019188,-0.6496832370758057,0.16220062971115112,0.16258931159973145
1.5212892209634084,-2.6041325355721954,-0.15478108799260656,-1.1625009775161743,0.18733572959899902,-0.20266081392765045,-0.02533543109893799,-0.9987747669219971,0.042510371655225754,-0.6132906079292297,0.12462925910949707,0.05480992794036865
1.5312758835023996,-2.4913875293633434,-0.26708978341234524,-1.0477733612060547,-0.09201840311288834,-0.08871986716985703,-0.023916371166706085,-0.9992191791534424,0.03144705668091774,-0.5839937329292297,0.07114917039871216,-0.02065933123230934
1.5388461109443865,-2.3211490262674843,-0.44006094959603703,-0.9035140872001648,-0.4397999942302704,-0.010351356118917465,-0.023363962769508362,-0.9994896650314331,0.021781181916594505,-0.5968447327613831,0.01923459768295288,-0.04468488693237305
1.5437410674736778,-2.0949224618186992,-0.6728032482627205,-0.7849152684211731,-0.8540357947349548,0.04011581465601921,-0.023421760648489,-0.9996340274810791,0.013539033941924572,-0.6516880393028259,-0.0161740779876709,-0.04601001739501953
1.5461974005104195,-1.8308112702174986,-0.9475661156000826,-0.7188403606414795,-1.239171028137207,0.04320687800645828,-0.02377198077738285,-0.9996974468231201,0.006324239075183868,-0.7057201862335205,-0.05878949165344238,-0.02611517906188965
1.5468411655243095,-1.5490643486315903,-1.2430055217795828,-0.7256426215171814,-1.486778974533081,-0.0026905732229351997,-0.02394816093146801,-0.9997130632400513,-0.000520522880833596,-0.753349781036377,-0.12182319164276123,-0.01875162124633789
1.5460159149200474,-1.264988386332429,-1.5432056294228271,-0.7357646822929382,-1.7304232120513916,-0.08104284107685089,-0.023629935458302498,-0.999692976474762,-0.007460241671651602,-0.7701322436332703,-0.2236499786376953,-0.026628196239471436
1.5443468332705692,-1.006865940092165,-1.819491103750349,-0.6756302714347839,-1.8778760433197021,-0.2195644974708557,-0.022347748279571533,-0.999650239944458,-0.01413357350975275,-0.7613741755485535,-0.31397879123687744,-0.0534173846244812
1.5428090176577265,-0.7762957444419897,-2.0692333329051693,-0.5739624500274658,-1.9306801557540894,-0.4015790522098541,-0.01960577629506588,-0.9996083974838257,-0.019965985789895058,-0.8033312559127808,-0.3582102060317993,-0.12868541479110718
1.541686101120166,-0.540013968370381,-2.324822594707592,-0.5011047720909119,-1.918741226196289,-0.6185819506645203,-0.014965633861720562,-0.9995763301849365,-0.024965666234493256,-0.8683809041976929,-0.3688318729400635,-0.18018901348114014
1.5400572356595386,-0.26901942312764804,-2.615639737445199,-0.4865598678588867,-2.054377317428589,-0.854494035243988,-0.008169380947947502,-0.9995275735855103,-0.0296311192214489,-0.9139955043792725,-0.353148877620697,-0.170823872089386
1.536217541842955,0.02447909079629542,-2.9311454013873104,-0.521564781665802,-2.3214566707611084,-1.0895062685012817,0.0008462621481157839,-0.9994022250175476,-0.03456391021609306,-0.911002516746521,-0.3136470913887024,-0.10851806402206421
1.5288690522681512,0.28284312266728256,3.0693146545760652,-0.596971333026886,-2.509711742401123,-1.2543312311172485,0.011698529124259949,-0.9991211891174316,-0.040251608937978745,-0.8838298916816711,-0.22590017318725586,-0.052003324031829834
1.518003743756123,0.4617164940559024,2.8643508583850674,-0.7129781246185303,-2.6638269424438477,-1.337540626525879,0.02350810170173645,-0.99860680103302,-0.04724406823515892,-0.7761326432228088,-0.15507984161376953,-0.043103523552417755
1.5047202204840187,0.5721456122650055,2.7267339011067753,-0.7755984663963318,-2.7325990200042725,-1.3964223861694336,0.03574977442622185,-0.9978177547454834,-0.05551208555698395,-0.6281265020370483,-0.12422198057174683,-0.054290469735860825
1.490343784413336,0.6440955081596162,2.62697538129548,-0.7401823997497559,-2.7827064990997314,-1.4458706378936768,0.04825737699866295,-0.9967654347419739,-0.06426355242729187,-0.5010467171669006,-0.10884058475494385,-0.12604433298110962
1.4758202435408139,0.6963986187820824,2.5463599115879925,-0.6588835120201111,-2.830509901046753,-1.462296962738037,0.060831766575574875,-0.9954931735992432,-0.07275216281414032,-0.40201833844184875,-0.08312010765075684,-0.22082722187042236
1.4617391223735634,0.7340079487855657,2.479870460143334,-0.58133465051651,-2.886213541030884,-1.397208571434021,0.07290716469287872,-0.994059145450592,-0.08081388473510742,-0.3206489086151123,-0.009969115257263184,-0.28776246309280396
1.4486867357353543,0.7562173154364686,2.4282396750497894,-0.535947859287262,-2.940509080886841,-1.2486754655838013,0.08358026295900345,-0.9925538897514343,-0.08860623091459274,-0.20557433366775513,0.0890200138092041,-0.32025331258773804
1.436720299070836,0.7639518248284458,2.390550331141254,-0.540885865688324,-3.004821538925171,-1.106829047203064,0.09247338771820068,-0.9910252690315247,-0.09652738273143768,-0.06386323273181915,0.15257012844085693,-0.3253631591796875
1.4255284987446877,0.7596548965957582,2.3641608263256235,-0.5753102898597717,-3.0858891010284424,-0.9722005128860474,0.09969000518321991,-0.9894671440124512,-0.10495951771736145,0.030238501727581024,0.16054880619049072,-0.31883835792541504
1.4149416132248138,0.7461929381066926,2.3465562081560485,-0.6090056896209717,-3.0895626544952393,-0.8720694184303284,0.10537408292293549,-0.98787921667099,-0.11397825181484222,0.09405820816755295,0.1546120047569275,-0.32744354009628296
1.4046874590402658,0.7291591745686792,2.332876979913848,-0.6118518710136414,-3.020345687866211,-0.8400517702102661,0.1101609468460083,-0.9862356185913086,-0.12330467998981476,0.13782478868961334,0.1261892318725586,-0.37396425008773804
1.3947969307339374,0.7123840452585944,2.320102616461136,-0.582737922668457,-2.852781057357788,-0.7877483367919922,0.11444777250289917,-0.9845520257949829,-0.13251139223575592,0.16771766543388367,0.09940487146377563,-0.4436149597167969
1.385910995411151,0.6959219562099519,2.3085889207803714,-0.4956171214580536,-2.7304317951202393,-0.6751722693443298,0.11785511672496796,-0.9829573631286621,-0.14108623564243317,0.2062109410762787,0.11908090114593506,-0.5048948526382446
1.3788462863485016,0.6793587070813999,2.2978121705152974,-0.3369651436805725,-2.717233896255493,-0.5329935550689697,0.11986202746629715,-0.9816340804100037,-0.14841733872890472,0.292354017496109,0.13719749450683594,-0.5366567373275757
1.3740543189700964,0.6615354039590681,2.2883081900532707,-0.19344882667064667,-2.7176802158355713,-0.346325546503067,0.1200864166021347,-0.980708658695221,-0.15424010157585144,0.37294018268585205,0.17548710107803345,-0.5434988141059875
1.3712586728549394,0.6393624913305744,2.283645313861776,-0.1560942679643631,-2.6237428188323975,-0.14108772575855255,0.11827229708433151,-0.9801583290100098,-0.15906362235546112,0.42925870418548584,0.23366791009902954,-0.5146884322166443
1.369379557100443,0.6112595957975845,2.2866555431087,-0.23322974145412445,-2.404890298843384,0.008360411040484905,0.1148129254579544,-0.9797841310501099,-0.16383230686187744,0.47535109519958496,0.26521509885787964,-0.44656527042388916
1.367001936878812,0.5785278910310773,2.2970334905931162,-0.4020557701587677,-2.1119208335876465,0.06221592053771019,0.11066341400146484,-0.9793056845664978,-0.1694519966840744,0.4883507490158081,0.2529110908508301,-0.374234139919281
1.3631093263418967,0.5438711419224381,2.3124202340948217,-0.591471791267395,-1.8172234296798706,0.05005130171775818,0.1066974624991417,-0.9785104393959045,-0.17644576728343964,0.45571082830429077,0.21610498428344727,-0.31371253728866577
1.357467457692441,0.5103058173179111,2.3294878572642106,-0.7381259799003601,-1.5700783729553223,0.0008645807392895222,0.10341063141822815,-0.9773315787315369,-0.18474091589450836,0.4276255965232849,0.16861581802368164,-0.28191888332366943
1.350570942579118,0.47883005838668247,2.3466245254665754,-0.8201839327812195,-1.403506875038147,0.002972602378576994,0.10064870119094849,-0.9758482575416565,-0.1938815414905548,0.4194622039794922,0.14244377613067627,-0.2789733409881592
1.3433332750561782,0.44742899827686894,2.3644565511662146,-0.8201221823692322,-1.4258582592010498,0.06401704996824265,0.09756515175104141,-0.9742416143417358,-0.20330815017223358,0.45400938391685486,0.1390061378479004,-0.2784120440483093
1.3367172957659106,0.41397234079725576,2.3835347986260174,-0.7457225322723389,-1.5621939897537231,0.18555036187171936,0.09330064803361893,-0.9727283716201782,-0.21235477924346924,0.5164861679077148,0.132915198802948,-0.27246296405792236
1.3313507285315762,0.3756763050369072,2.4061442337553034,-0.6542932987213135,-1.7034214735031128,0.39181700348854065,0.08701580762863159,-0.9714695811271667,-0.2206239104270935,0.5625964403152466,0.18054568767547607,-0.2774384319782257
1.3273027437114804,0.33024987998295047,2.434892129919739,-0.5890402793884277,-1.7899311780929565,0.6144121885299683,0.07818201929330826,-0.9705016016960144,-0.22806617617607117,0.6009102463722229,0.24418330192565918,-0.28465986251831055
1.323665227202691,0.2791426781389925,2.469607981431319,-0.6286095380783081,-1.6713805198669434,0.7667231559753418,0.06740134954452515,-0.9696182012557983,-0.23515406250953674,0.618648886680603,0.29356247186660767,-0.2793724834918976
1.3188273818880003,0.22652910318275404,2.508407646124716,-0.8012755513191223,-1.3127284049987793,0.8399903178215027,0.05599438026547432,-0.9684234261512756,-0.24294139444828033,0.591969907283783,0.28425002098083496,-0.2532288730144501
1.31164399042859,0.17707303220681184,2.5480740177378918,-1.0081112384796143,-0.9279894828796387,0.8273535966873169,0.045140258967876434,-0.9666075706481934,-0.25225457549095154,0.5374858975410461,0.22457259893417358,-0.20602813363075256
1.3021324005392778,0.13406433548493435,2.5838937703071134,-1.1539123058319092,-0.8024408221244812,0.7176544070243835,0.035480041056871414,-0.9641264081001282,-0.26306191086769104,0.49206188321113586,0.13519275188446045,-0.15031415224075317
1.2910787229962848,0.09744417649159803,2.6130067799891012,-1.217452049255371,-0.938517689704895,0.5990723371505737,0.02686024270951748,-0.9611334204673767,-0.2747744917869568,0.45673635601997375,0.04890209436416626,-0.09808948636054993
1.2793945755998613,0.06470856605525971,2.6365247941182983,-1.2210261821746826,-1.0850152969360352,0.5446705222129822,0.01857748255133629,-0.9578421115875244,-0.286693811416626,0.4461287558078766,0.01864844560623169,-0.07667917013168335
1.2675693566948376,0.03385499626809635,2.6572631294956093,-1.2034088373184204,-1.1047868728637695,0.5636250376701355,0.010107213631272316,-0.9543778896331787,-0.2984301447868347,0.4719177484512329,0.04962337017059326,-0.11351153254508972
1.2557307653632104,0.004234594201636962,2.6777076802913786,-1.2000781297683716,-0.9002320766448975,0.6422818899154663,0.0013122077798470855,-0.9507760405540466,-0.3098761737346649,0.510726809501648,0.13331705331802368,-0.1734004020690918
1.2434632833472319,-0.023391929692584423,2.6990666678510085,-1.2505773305892944,-0.569716215133667,0.7262459993362427,-0.007520267274230719,-0.9469031691551208,-0.3214311897754669,0.5715306997299194,0.17140579223632812,-0.2098495364189148
1.2301924206501027,-0.046925036011286954,2.719803014960845,-1.3672494888305664,-0.22192682325839996,0.7140970826148987,-0.01566985249519348,-0.9425531029701233,-0.3336885869503021,0.6185749173164368,0.14956921339035034,-0.1974242627620697
1.2153423309767766,-0.0636714890674321,2.7368388469674034,-1.5452377796173096,0.06728474050760269,0.6045021414756775,-0.022143736481666565,-0.9374886155128479,-0.3473109304904938,0.601061999797821,0.12082302570343018,-0.14783698320388794
1.1985919929941657,-0.07245190883262362,2.7484640964892724,-1.7484946250915527,0.35329362750053406,0.447976291179657,-0.026325523853302002,-0.9315279722213745,-0.3627156913280487,0.5885659456253052,0.07694429159164429,-0.08836483955383301
1.1800010439577115,-0.073751719902656,2.7549308664944605,-1.9242457151412964,0.5715239644050598,0.31611812114715576,-0.028068335726857185,-0.9246063828468323,-0.3798884451389313,0.6096874475479126,0.042251765727996826,-0.06385260820388794
1.1600731376754325,-0.07095426298895752,2.7588715655599683,-2.0243337154388428,0.7138461470603943,0.2942174971103668,-0.02830631099641323,-0.9168323278427124,-0.3982677161693573,0.6793071031570435,0.022972583770751953,-0.07061979174613953
1.1395403233310086,-0.06764178206974417,2.7637837601277835,-2.0426828861236572,0.8482406735420227,0.4093960225582123,-0.028253521770238876,-0.908441424369812,-0.4170560836791992,0.7824037075042725,0.025995314121246338,-0.11457553505897522
1.1189629385134527,-0.0663790688780211,2.7725599132254493,-2.0172231197357178,1.0006824731826782,0.6248412132263184,-0.028960851952433586,-0.899648129940033,-0.435653954744339,0.8638758063316345,0.018651604652404785,-0.18222033977508545
1.0986003030790277,-0.06769744518004993,2.7862121786448766,-1.9670974016189575,1.1813914775848389,0.8631533980369568,-0.03076820634305477,-0.8905715942382812,-0.45380130410194397,0.8549715280532837,-0.0127943754196167,-0.25173479318618774
1.0787695480307935,-0.070935715502839,2.8040513176757513,-1.8769855499267578,1.3316349983215332,1.0572996139526367,-0.0334828719496727,-0.8813772201538086,-0.4712251126766205,0.7545673251152039,-0.07620322704315186,-0.30003055930137634
1.0598371491294813,-0.0749249159225022,2.8243842748723935,-1.7606253623962402,1.434383511543274,1.16032075881958,-0.036605075001716614,-0.8722758293151855,-0.48764219880104065,0.6396628022193909,-0.17487365007400513,-0.3278334438800812
1.042109396305201,-0.07829292738450247,2.8450111847060304,-1.6249988079071045,1.4748234748840332,1.140090823173523,-0.039450619369745255,-0.8634701371192932,-0.5028548240661621,0.5070560574531555,-0.28821736574172974,-0.3323504328727722
1.0255916352107397,-0.07876410141066262,2.863194388648511,-1.5419270992279053,1.5726827383041382,0.9571254849433899,-0.04080430045723915,-0.8550211787223816,-0.5169853568077087,0.3744375705718994,-0.40367621183395386,-0.32481175661087036
1.0096400529392586,-0.07339729574058647,2.876421239120717,-1.5488712787628174,1.7765523195266724,0.6657786965370178,-0.03902444615960121,-0.8466403484344482,-0.5307326912879944,0.23201745748519897,-0.5128566026687622,-0.31402456760406494
0.9935807318039712,-0.060414576067936744,2.8838499872911405,-1.6109941005706787,2.0885984897613525,0.34991100430488586,-0.032947756350040436,-0.8379853367805481,-0.5446973443031311,0.0953102707862854,-0.6051297783851624,-0.3002125024795532
0.9770918458171982,-0.03996937025083395,2.886276383666675,-1.668093204498291,2.401550769805908,0.09910036623477936,-0.022354327142238617,-0.8288739323616028,-0.5589885711669922,-0.00033564493060112,-0.6687912940979004,-0.29593104124069214
0.9605322476635639,-0.014762092094032606,2.886006665570526,-1.6342201232910156,2.590285062789917,-0.017457138746976852,-0.008459609933197498,-0.8194966912269592,-0.5730214715003967,-0.04503785818815231,-0.683875322341919,-0.3007274866104126
0.9450184781779283,0.01156643079353581,2.8857653247089723,-1.4570554494857788,2.622997283935547,0.015204571187496185,0.006774630397558212,-0.8105077743530273,-0.5856887698173523,-0.005447242874652147,-0.6699761152267456,-0.3316393494606018
0.9319487254306212,0.035643146606435784,2.887761627097874,-1.153856873512268,2.505242109298706,0.17290499806404114,0.021248463541269302,-0.8027834296226501,-0.5958919525146484,0.043601248413324356,-0.6406977772712708,-0.3786565661430359
0.9224047978876576,0.05518192983356522,2.8931615076639954,-0.7835773229598999,2.260516881942749,0.39037391543388367,0.033307746052742004,-0.7970561981201172,-0.6029859781265259,0.04048363119363785,-0.6136645078659058,-0.4015461206436157
0.9166325178829726,0.06950800008556467,2.901729739533763,-0.44543683528900146,1.9809494018554688,0.565378725528717,0.04226129129528999,-0.7935570478439331,-0.6070266366004944,0.0007531158626079559,-0.6037511825561523,-0.38557302951812744
0.9139035694178453,0.07984955110288743,2.9120278401751873,-0.20678825676441193,1.7299058437347412,0.6333817839622498,0.04870906472206116,-0.7918935418128967,-0.6087135076522827,-0.07962349057197571,-0.6127999424934387,-0.3362177610397339
0.9131585387023081,0.08790278552488252,2.9222674130348003,-0.060323458164930344,1.5203622579574585,0.5932216048240662,0.053661324083805084,-0.7914383411407471,-0.6088890433311462,-0.18479546904563904,-0.6452222466468811,-0.26536351442337036
0.913428434729594,0.09554545072394934,2.9311379637565462,0.005513815209269524,1.4348688125610352,0.48918524384498596,0.05829286947846413,-0.7916032671928406,-0.6082484722137451,-0.2643934488296509,-0.6661297082901001,-0.2065863013267517
0.914076919901105,0.10451133608231801,2.937981894065873,0.039822522550821304,1.4573144912719727,0.3540727198123932,0.06369037181138992,-0.791999340057373,-0.6071907877922058,-0.3212435841560364,-0.6661456227302551,-0.1859765648841858
0.9150964416899156,0.11569216399259251,2.9425409772161073,0.10429062694311142,1.5034801959991455,0.22818025946617126,0.07038190960884094,-0.792621374130249,-0.6056383848190308,-0.3850640058517456,-0.6356775164604187,-0.20515286922454834
0.9167473621520894,0.1287667859101154,2.9451718817853436,0.1871892362833023,1.5280834436416626,0.13956330716609955,0.07812602072954178,-0.7936269044876099,-0.6033678650856018,-0.42569079995155334,-0.5929239392280579,-0.2313033938407898
0.9191813313737736,0.14272273938138283,2.9464619097886433,0.2750263512134552,1.453138828277588,0.08778902888298035,0.08626368641853333,-0.7951053977012634,-0.6003049612045288,-0.4538174867630005,-0.5405420064926147,-0.2202061414718628
0.9225071602425761,0.1558135358087089,2.946846346257352,0.38007208704948425,1.2110604047775269,0.060762468725442886,0.09370365738868713,-0.7971180081367493,-0.5965086817741394,-0.4639887809753418,-0.4956216812133789,-0.1737552285194397
0.9269535078778646,0.16657734324163465,2.9465647908627255,0.5030505061149597,0.9042867422103882,0.04867684468626976,0.09953015297651291,-0.7997949123382568,-0.5919644236564636,-0.4451265335083008,-0.4674474000930786,-0.13201957941055298
0.93257324221746,0.1750796842834161,2.9457050438089114,0.6217364072799683,0.6765882968902588,0.039566170424222946,0.1037750244140625,-0.8031556606292725,-0.5866615176200867,-0.42103585600852966,-0.4301663637161255,-0.11841678619384766
0.9393554242734298,0.1821166233245806,2.9441730212280803,0.7491180300712585,0.48174601793289185,0.022885095328092575,0.10691170394420624,-0.8071777820587158,-0.5805462002754211,-0.3960811197757721,-0.37484419345855713,-0.12518823146820068
0.9473829598501837,0.18832235919942752,2.9417724953768136,0.8834526538848877,0.38579949736595154,-0.007906372658908367,0.10929573327302933,-0.8118904232978821,-0.5734879374504089,-0.3639039695262909,-0.3249959349632263,-0.15151840448379517
0.9565461518459715,0.19488988968685422,2.9381406030188075,0.994141697883606,0.3373855650424957,-0.056227535009384155,0.11161428689956665,-0.8172058463096619,-0.5654351115226746,-0.3327904939651489,-0.2927183508872986,-0.16399627923965454
0.9664695587165574,0.2018642382469757,2.933381363489807,1.0573939085006714,0.27739280462265015,-0.0827731266617775,0.11392350494861603,-0.8228847980499268,-0.5566704273223877,-0.3053451180458069,-0.2537751793861389,-0.1479349136352539
0.9767245709346534,0.20873588033078247,2.9282948459605236,1.0615630149841309,0.2742697596549988,-0.05260203778743744,0.11599117517471313,-0.8286684155464172,-0.547589898109436,-0.2771698534488678,-0.22559165954589844,-0.11116278171539307
0.9865925361393024,0.21525467223142117,2.9241503798711803,0.9528955817222595,0.31202298402786255,0.014930132776498795,0.11780591309070587,-0.8341515064239502,-0.538807213306427,-0.25899559259414673,-0.20137083530426025,-0.0608176589012146
0.9951549863626761,0.2205045565488974,2.9208292992646343,0.8038495779037476,0.18122601509094238,0.0031978758051991463,0.11906634271144867,-0.8388433456420898,-0.5311921834945679,-0.25880640745162964,-0.14081650972366333,0.02543938159942627
1.002464976265663,0.22449489013896107,2.9180281552579523,0.6984794735908508,0.163958340883255,0.0219582486897707,0.11981672048568726,-0.8428002595901489,-0.5247205495834351,-0.32013416290283203,-0.026614904403686523,0.06591904163360596
1.0089851308174818,0.22813988946585773,2.9155194610182735,0.6399348974227905,0.1155237928032875,0.0037861336022615433,0.12048310786485672,-0.8462916612625122,-0.5189163684844971,-0.3278348743915558,-0.013449370861053467,0.050166189670562744
1.0151245789160632,0.23084860657722425,2.912452805272951,0.6414449214935303,-0.0974808931350708,-0.04431907832622528,0.12069717794656754,-0.8495462536811829,-0.5135205388069153,-0.3032076358795166,-0.0058155059814453125,0.045990943908691406
1.0214500049297701,0.23278739261996756,2.9081335208848147,0.7023845911026001,-0.22796811163425446,-0.10504859685897827,0.1204504445195198,-0.852865993976593,-0.5080464482307434,-0.26321178674697876,0.016821861267089844,0.013630986213684082
1.0284265306283054,0.23549308670824223,2.902419266763658,0.7987140417098999,-0.18958769738674164,-0.146234393119812,0.12043339014053345,-0.8564878702163696,-0.5019205808639526,-0.2299610674381256,0.044216930866241455,-0.05104285478591919
1.0363803256244235,0.24016754098411297,2.8955917125654365,0.9190530776977539,-0.04146336391568184,-0.15633659064769745,0.12115396559238434,-0.860566258430481,-0.4947194457054138,-0.2098228931427002,0.10751467943191528,-0.1206829845905304
1.0455504438890035,0.24716375323431233,2.888004738063189,1.0487650632858276,0.1296607106924057,-0.14552868902683258,0.12267626076936722,-0.8652006983757019,-0.48618751764297485,-0.20344111323356628,0.17811280488967896,-0.16160932183265686
1.0559391639110025,0.2562580677285972,2.8798373797813652,1.1677863597869873,0.26392751932144165,-0.12221463769674301,0.12480763345956802,-0.8703630566596985,-0.4763309061527252,-0.18981017172336578,0.2356586456298828,-0.16426384449005127
1.0673732003700829,0.26670176959758995,2.8713147149032086,1.2541723251342773,0.3257509469985962,-0.08943592011928558,0.1271442025899887,-0.8759362697601318,-0.46537086367607117,-0.16869397461414337,0.26619523763656616,-0.13405567407608032
1.0794930644666618,0.277365765920986,2.8626501222545166,1.3000621795654297,0.27142778038978577,-0.054786697030067444,0.12918296456336975,-0.8817187547683716,-0.453744113445282,-0.15220855176448822,0.2746785283088684,-0.08142760396003723
1.0918578806753203,0.2867723984126084,2.854190253728099,1.2928966283798218,0.10244061052799225,-0.0169112216681242,0.13035152852535248,-0.887484610080719,-0.44201770424842834,-0.14303167164325714,0.27035826444625854,-0.012923359870910645
1.1039596648800205,0.29398457339577083,2.84608883980206,1.2395330667495728,-0.09946110099554062,0.0005997288972139359,0.13041411340236664,-0.8929964303970337,-0.43075451254844666,-0.1349918246269226,0.258963406085968,0.053419679403305054
1.115439912418989,0.2991249233114188,2.8382692196297237,1.1614958047866821,-0.2712653577327728,0.003146509639918804,0.12959688901901245,-0.8981043696403503,-0.42025378346443176,-0.12271524965763092,0.2406795620918274,0.08887839317321777
1.1260121052256031,0.3025007931600936,2.8306948235039227,1.0532026290893555,-0.40837526321411133,-0.007194811012595892,0.12817899882793427,-0.9027035236358643,-0.4107268154621124,-0.10382606089115143,0.2365812063217163,0.10165977478027344
1.1353476648003196,0.30465935401057403,2.8235711810658985,0.9108086228370667,-0.43248113989830017,-0.0132170170545578,0.126531720161438,-0.9066808819770813,-0.40239205956459045,-0.08539412915706635,0.24702835083007812,0.10335007309913635
1.143150915535102,0.30651262107769783,2.81728483777286,0.7354756593704224,-0.32814934849739075,-0.01914827898144722,0.12513862550258636,-0.9099447727203369,-0.3953995108604431,-0.06909319758415222,0.26091229915618896,0.09683054685592651
1.1491087692916684,0.30865846396462565,2.8120942752509577,0.5314362645149231,-0.1871618777513504,-0.028511688113212585,0.12433774769306183,-0.9123995304107666,-0.38995814323425293,-0.0580994188785553,0.2738192677497864,0.09511232376098633
1.153117447162313,0.3112449425502364,2.8080500114592035,0.3370690643787384,-0.03418900445103645,-0.043254878371953964,0.12422484904527664,-0.9140329360961914,-0.3861503303050995,-0.045108094811439514,0.2782297730445862,0.0928608775138855
1.155372923208137,0.31447768278365545,2.804857587375282,0.17750175297260284,0.09025704860687256,-0.060839731246232986,0.12483451515436172,-0.9149455428123474,-0.38378527760505676,-0.0341515988111496,0.2624340057373047,0.08518576622009277
1.1562839966666874,0.31786840523032384,2.8022883634106797,0.06720595806837082,0.10401309281587601,-0.07775147259235382,0.12587454915046692,-0.9153128266334534,-0.3825679123401642,-0.029271245002746582,0.24096602201461792,0.0813896656036377
1.1564472993071748,0.32068146308114986,2.8001108874093794,0.028545914217829704,0.06126030161976814,-0.07625823467969894,0.12690311670303345,-0.9153785705566406,-0.3820704221725464,-0.026408806443214417,0.21658706665039062,0.07079082727432251
1.1566678068590646,0.32285700161979125,2.7981703532278037,0.07078935950994492,0.01576833799481392,-0.06356275081634521,0.12766991555690765,-0.9154673218727112,-0.38160181045532227,-0.021926581859588623,0.19993704557418823,0.03479975461959839
1.157590185329726,0.3247941918459597,2.79575228795191,0.1720997393131256,-0.07533973455429077,-0.06375289708375931,0.12813937664031982,-0.9158381223678589,-0.380553275346756,-0.02479170262813568,0.1973934769630432,-0.00782892107963562
1.1596931219826236,0.32672997338789733,2.7924351871222144,0.3140598237514496,-0.13801586627960205,-0.05102808028459549,0.1282573938369751,-0.9166805148124695,-0.37847965955734253,-0.019675955176353455,0.20319491624832153,-0.04005393385887146
1.1632229758709134,0.32880519627454385,2.7885063935765904,0.45036518573760986,-0.1702832579612732,-0.014609884470701218,0.12799686193466187,-0.9180853962898254,-0.37514784932136536,-0.00035719573497772217,0.21077966690063477,-0.06561774015426636
1.1679952165586622,0.3303475644356446,2.7847745923591636,0.5413487553596497,-0.20313993096351624,0.04917878285050392,0.1271527111530304,-0.9199665784835815,-0.3708013892173767,0.02021658420562744,0.2099142074584961,-0.06222802400588989
1.173513737754811,0.33071099032025325,2.782276325572389,0.558870255947113,-0.17661084234714508,0.12669886648654938,0.12563703954219818,-0.9221158027648926,-0.3659479022026062,0.04253000020980835,0.20389997959136963,-0.0401802659034729
1.1791565519267078,0.32982954955615224,2.7816933358296807,0.519135594367981,-0.10264308005571365,0.19347374141216278,0.1236272007226944,-0.9242843985557556,-0.36112990975379944,0.04844610393047333,0.19071811437606812,-0.02166762948036194
1.1844316464806257,0.3282224392912154,2.7828713118164483,0.4513789117336273,0.000651080219540745,0.2261773645877838,0.12147320806980133,-0.9262850284576416,-0.3567076325416565,0.0359363853931427,0.17105138301849365,-0.007275760173797607
1.1891337615622328,0.3266526544765153,2.785077264114446,0.38843077421188354,0.08899151533842087,0.23113059997558594,0.11951412260532379,-0.9280466437339783,-0.35276854038238525,0.008827470242977142,0.1563640832901001,0.00650063157081604
1.1932623660002206,0.32547785188036177,2.787508606684102,0.3388701379299164,0.12330581247806549,0.19999054074287415,0.11787340044975281,-0.9295765161514282,-0.34927526116371155,-0.016494102776050568,0.14463406801223755,0.017518430948257446
1.1968418949047739,0.32527681058611313,2.789130189893725,0.3045559823513031,0.14114348590373993,0.13938401639461517,0.11673906445503235,-0.9308900833129883,-0.3461437523365021,-0.033975496888160706,0.1334659457206726,0.033933430910110474
1.1999267661988724,0.32682296973486474,2.7891051577661528,0.2832475006580353,0.16325996816158295,0.056019604206085205,0.1163516566157341,-0.9320125579833984,-0.34324154257774353,-0.04307905584573746,0.12164896726608276,0.04693087935447693
1.2025963036320237,0.3304198502829022,2.78705861452524,0.2707468271255493,0.17466409504413605,-0.022963855415582657,0.11677802354097366,-0.9329767227172852,-0.34046661853790283,-0.041353918612003326,0.10936838388442993,0.05253303050994873
1.2049325285617223,0.3358635940431947,2.7831796367743613,0.26291048526763916,0.19127289950847626,-0.08406076580286026,0.11791090667247772,-0.933815062046051,-0.3377668261528015,-0.029516831040382385,0.09905260801315308,0.05807298421859741
1.207027190602902,0.34272677415287656,2.77798570905945,0.2548517882823944,0.2149650752544403,-0.12216869741678238,0.11956867575645447,-0.9345623850822449,-0.33510664105415344,-0.014542505145072937,0.10259228944778442,0.06145524978637695
1.2089190276827386,0.35053769747427604,2.7721958312092942,0.2458375245332718,0.2701880931854248,-0.13215768337249756,0.12157513201236725,-0.9352338314056396,-0.3325013816356659,-0.004113055765628815,0.1202467679977417,0.0629698634147644
1.21082189392203,0.35908785833193585,2.766322097588262,0.261383056640625,0.3407180607318878,-0.12382948398590088,0.12378799170255661,-0.9359058141708374,-0.3297831118106842,0.0036075711250305176,0.14656877517700195,0.060663580894470215
1.2130260132489226,0.36819208323669916,2.760408982029593,0.3009839951992035,0.365585058927536,-0.10817355662584305,0.1260424256324768,-0.9366799592971802,-0.32671698927879333,0.011195048689842224,0.16290682554244995,0.052272140979766846
1.2156258804350666,0.37752172553249275,2.7540997113971217,0.34121862053871155,0.3110807240009308,-0.11491544544696808,0.1281869113445282,-0.9375872015953064,-0.32326194643974304,0.009340450167655945,0.16422611474990845,0.05421873927116394
1.218416657640911,0.38689383240961434,2.7468238366473265,0.36024025082588196,0.1944499909877777,-0.14563901722431183,0.13022322952747345,-0.938554048538208,-0.319622278213501,-0.003575339913368225,0.1416027545928955,0.06983563303947449
1.2210508815175152,0.39618858711223526,2.7383628051547486,0.34259113669395447,0.08304622024297714,-0.19255657494068146,0.13223373889923096,-0.9394599795341492,-0.31611594557762146,-0.013123705983161926,0.11034321784973145,0.09074336290359497
1.2229634799192857,0.40562534529559024,2.7289697198859706,0.2508649230003357,0.053433991968631744,-0.2513863444328308,0.13450175523757935,-0.9401136040687561,-0.3132026493549347,-0.020366087555885315,0.0878491997718811,0.10714766383171082
1.223481116058111,0.41559948383919854,2.719301916785831,0.10216754674911499,0.13747313618659973,-0.3117566704750061,0.1374223381280899,-0.9402899146080017,-0.31140008568763733,-0.022569522261619568,0.07623058557510376,0.11277616024017334
1.222268822370268,0.4263711009518101,2.71012221102658,-0.06763054430484772,0.2966579794883728,-0.35735318064689636,0.1412399560213089,-0.9398766160011292,-0.3109394907951355,-0.01518714427947998,0.04865652322769165,0.10837879776954651
1.21939308925015,0.4377341599271224,2.7020049974189484,-0.2180645614862442,0.4400850832462311,-0.3889796733856201,0.1459091305732727,-0.9388906359672546,-0.31176134943962097,-0.01212012767791748,0.017427563667297363,0.1032344400882721
1.215201208827026,0.448665787313811,2.695196133339119,-0.3316843509674072,0.45166105031967163,-0.3920588195323944,0.15101411938667297,-0.9374394416809082,-0.3136909008026123,-0.0008219331502914429,0.008698105812072754,0.0995793342590332
1.210242114072624,0.4576183309014558,2.690111601019285,-0.40146926045417786,0.3845124840736389,-0.36017748713493347,0.15586847066879272,-0.9357014298439026,-0.3164932429790497,0.0294952392578125,0.007021009922027588,0.0934094488620758
1.2048918221069846,0.463980947929697,2.686831054582646,-0.4605139195919037,0.26569926738739014,-0.32862406969070435,0.160117045044899,-0.9338005185127258,-0.3199674189090729,0.04117681086063385,-0.0076209306716918945,0.08495128154754639
1.199024695460864,0.4671403043973876,2.6850961710883334,-0.5339315533638,0.030375661328434944,-0.31164851784706116,0.16359160840511322,-0.931685209274292,-0.3243461549282074,0.03953331708908081,-0.03660690784454346,0.11313372850418091
1.1926647119747016,0.4665770151090519,2.68483118712475,-0.5893697738647461,-0.1725817173719406,-0.27858829498291016,0.1660710722208023,-0.929356038570404,-0.32972386479377747,0.032811909914016724,-0.09144163131713867,0.13660836219787598
1.1861566272611614,0.4638111134485572,2.685470660415776,-0.59681636095047,-0.25747260451316833,-0.2735593616962433,0.16786077618598938,-0.9269337058067322,-0.3355843722820282,0.013550892472267151,-0.11246442794799805,0.08790343999862671
1.179416127071972,0.4605259233948545,2.685640835590125,-0.6215012073516846,-0.37708422541618347,-0.3208496570587158,0.16953034698963165,-0.9243834614753723,-0.3417234420776367,-0.03790809214115143,-0.11521315574645996,0.04886123538017273
1.1720688377932802,0.456677835525437,2.685086987222738,-0.6823234558105469,-0.47896841168403625,-0.36240607500076294,0.17120447754859924,-0.921555757522583,-0.3484596610069275,-0.07386872172355652,-0.1304309368133545,0.0506841242313385
1.1640382040119002,0.45246739220748017,2.68473828701174,-0.7496535181999207,-0.4068603813648224,-0.36573129892349243,0.1729656457901001,-0.918408215045929,-0.355821818113327,-0.06821413338184357,-0.13858318328857422,0.039918869733810425
1.155501288676703,0.44894669607672744,2.685037761300534,-0.7968885898590088,-0.2415594905614853,-0.3576768636703491,0.17510855197906494,-0.9149973392486572,-0.36347925662994385,-0.05076473951339722,-0.14208579063415527,-0.010925918817520142
1.1467356948737888,0.44671725674008006,2.6857881583643928,-0.8056911826133728,-0.06888305395841599,-0.3474905490875244,0.17775583267211914,-0.9114256501197815,-0.371087908744812,-0.03729875385761261,-0.12632447481155396,-0.06430661678314209
1.1381822365731413,0.4461347384335169,2.6865398642267686,-0.7608376145362854,0.08089462667703629,-0.335323303937912,0.18089687824249268,-0.9078729152679443,-0.37821054458618164,-0.034580424427986145,-0.09612482786178589,-0.10775160789489746
1.1302874420032412,0.44708846772735517,2.6868553382689653,-0.6717338562011719,0.15698885917663574,-0.32242563366889954,0.18435059487819672,-0.9045348167419434,-0.38448894023895264,-0.031564414501190186,-0.08632510900497437,-0.14135968685150146
1.1234478453836791,0.4490878255832665,2.6864330617364365,-0.5432743430137634,0.1605938822031021,-0.30272576212882996,0.18780052661895752,-0.901597261428833,-0.3896838128566742,-0.020823687314987183,-0.09422177076339722,-0.1569778323173523
1.1179713733061465,0.4517118260611052,2.6851052117895633,-0.39326226711273193,0.1217745915055275,-0.2770898938179016,0.19097483158111572,-0.8992147445678711,-0.3936261236667633,-0.007381170988082886,-0.10185325145721436,-0.16331994533538818
1.1140073447970342,0.4543876415342188,2.6830384246191623,-0.2421438992023468,0.037819452583789825,-0.23049497604370117,0.1935904175043106,-0.8974733948707581,-0.3963134288787842,0.007535606622695923,-0.09436303377151489,-0.16099882125854492
1.1115710876395564,0.456296904800911,2.68077704433029,-0.11274862289428711,-0.06078888103365898,-0.1589403599500656,0.19530954957008362,-0.8963961601257324,-0.397904634475708,0.030917182564735413,-0.07696187496185303,-0.1462240219116211
1.110499570143576,0.45683153618960554,2.679069135388086,-0.018121950328350067,-0.13477696478366852,-0.07198992371559143,0.19594581425189972,-0.8959206938743591,-0.39866191148757935,0.056022509932518005,-0.06184285879135132,-0.12839215993881226
1.1104826890441886,0.45589386601957466,2.6783497752634253,0.037068068981170654,-0.17906133830547333,0.012458383105695248,0.19557861983776093,-0.8959132432937622,-0.3988591730594635,0.07268606126308441,-0.05365639925003052,-0.10967075824737549
1.1111303175232248,0.4535322047991795,2.678857819662929,0.05592159181833267,-0.20090042054653168,0.08501384407281876,0.19438178837299347,-0.8962007164955139,-0.3987981677055359,0.07772812247276306,-0.03870517015457153,-0.08780485391616821
1.1121017455817948,0.4498410706084538,2.680686955924415,0.044571999460458755,-0.20640677213668823,0.14546173810958862,0.1925298571586609,-0.8966313004493713,-0.3987288773059845,0.07434628903865814,-0.019842028617858887,-0.06562685966491699
1.113169364088445,0.44511546232607374,2.6838379449967817,0.028097575530409813,-0.16978827118873596,0.1974695473909378,0.19023121893405914,-0.897103488445282,-0.3987700641155243,0.06982424855232239,-0.008276700973510742,-0.0511355996131897
1.1142969578008854,0.4398757328438798,2.6880126636927932,0.018290752544999123,-0.1348622590303421,0.22960777580738068,0.18770822882652283,-0.8976011276245117,-0.3988456726074219,0.059636667370796204,-0.0021790266036987305,-0.04816079139709473
1.1154508737642965,0.4342654572961685,2.692785396913272,0.013301772996783257,-0.13254238665103912,0.24662044644355774,0.1850316971540451,-0.8981091380119324,-0.39895251393318176,0.03965388238430023,0.0034407973289489746,-0.04559725522994995
1.1165772880972724,0.4284623826376115,2.697708560135804,0.01199416071176529,-0.14691093564033508,0.24132901430130005,0.18229304254055023,-0.8986039757728577,-0.3990991413593292,0.018268391489982605,0.008925139904022217,-0.04065939784049988
1.1176280554924505,0.42263758019038766,2.702502842458396,0.006932501681149006,-0.15564721822738647,0.23061059415340424,0.17957791686058044,-0.8990644812583923,-0.39929285645484924,0.0002773404121398926,0.011949121952056885,-0.036239027976989746
1.1185863252223285,0.41690753536817016,2.7072143945722877,-0.0007600388489663601,-0.13882189989089966,0.22651970386505127,0.1769380420446396,-0.8994836211204529,-0.39952731132507324,-0.0035372525453567505,0.009926855564117432,-0.03855276107788086
1.1194633202787878,0.4114733722184692,2.7120034802991535,-0.006142830941826105,-0.08191179484128952,0.22569206357002258,0.17444878816604614,-0.8998664617538452,-0.39975976943969727,0.0016375631093978882,0.014658510684967041,-0.045949697494506836
1.120281805928432,0.406796320805632,2.7167082025685203,-0.006488509010523558,-0.0076993489637970924,0.2133783996105194,0.17228564620018005,-0.9002231955528259,-0.3998946249485016,-0.0018298178911209106,0.022080063819885254,-0.049888938665390015
1.1209873853673324,0.4032211156648813,2.7209459737755695,-0.007098306901752949,0.05232467129826546,0.18260632455348969,0.1706056296825409,-0.900530219078064,-0.39992383122444153,-0.010418951511383057,0.02754443883895874,-0.04630446434020996
1.1215874854020038,0.40060198715072953,2.724603259343342,-0.006946506444364786,0.07867559045553207,0.15829351544380188,0.16934679448604584,-0.9007909297943115,-0.3998715579509735,-0.010182470083236694,0.02812570333480835,-0.03601124882698059
1.1220425982532316,0.39845727884411514,2.7279144693813464,-0.017328061163425446,0.08717912435531616,0.14941756427288055,0.16832970082759857,-0.9009884595870972,-0.3998558819293976,-0.002436235547065735,0.03410637378692627,-0.02977079153060913
1.122375818568778,0.39635125368330687,2.7313820881513786,-0.030606849119067192,0.11655272543430328,0.15950214862823486,0.16737134754657745,-0.9011330008506775,-0.3999326527118683,0.009538933634757996,0.03765350580215454,-0.025452107191085815
1.1226467945081746,0.3941128693200106,2.7353208762795425,-0.04467691853642464,0.1428641378879547,0.17941118776798248,0.16638198494911194,-0.901250422000885,-0.4000808596611023,0.0216672420501709,0.03612297773361206,-0.021412909030914307
1.1229194685903536,0.39151783135322377,2.7398313377349983,-0.04595763236284256,0.14983496069908142,0.20471468567848206,0.1652495115995407,-0.9013685584068298,-0.4002843499183655,0.02366948127746582,0.037583768367767334,-0.0189664363861084
1.1233441978825085,0.3884247315155241,2.7448374500911448,-0.02793869376182556,0.13336436450481415,0.23057585954666138,0.16386550664901733,-0.9015524387359619,-0.40043899416923523,0.016661152243614197,0.04113990068435669,-0.01424938440322876
1.1240584732636842,0.3850817566684655,2.749923168921975,0.01391714345663786,0.11877396702766418,0.23192769289016724,0.16228394210338593,-0.9018612504005432,-0.4003874957561493,0.009835109114646912,0.03690171241760254,-0.015460491180419922
1.125178648172491,0.38217482207967585,2.7543875025480475,0.07457493990659714,0.10927357524633408,0.20765380561351776,0.16074253618717194,-0.9023445844650269,-0.3999200165271759,0.002801075577735901,0.024033546447753906,-0.016019582748413086
1.1266416151249061,0.3802514691576854,2.757629901006443,0.11475884914398193,0.09357982873916626,0.16180428862571716,0.1594829112291336,-0.9029741883277893,-0.39900219440460205,-0.007474943995475769,0.014867007732391357,-0.012359708547592163
1.128084545082946,0.3792996328358921,2.759628679492035,0.11125177145004272,0.08434787392616272,0.11269617080688477,0.15862047672271729,-0.9035933017730713,-0.3979431390762329,-0.02145928144454956,0.0073226094245910645,0.006051421165466309
1.12919748183336,0.37919113079732814,2.7607551163269686,0.0781785100698471,0.09724663197994232,0.07112608850002289,0.15820494294166565,-0.9040694832801819,-0.3970258831977844,-0.028093338012695312,0.0034500956535339355,0.027610361576080322
1.1298068083834334,0.37967428610136694,2.761339095495493,0.029656676575541496,0.09726662933826447,0.035912975668907166,0.15819251537322998,-0.9043297171592712,-0.3964376151561737,-0.032170265913009644,-0.0010045766830444336,0.041258543729782104
1.1298792566128555,0.3801355745154112,2.761791720439518,-0.01923762820661068,0.07426784187555313,0.015604776330292225,0.1583510786294937,-0.9043606519699097,-0.39630380272865295,-0.03676915168762207,-0.0009279251098632812,0.05147019028663635
1.1295709059519208,0.380386720005341,2.7622251107239335,-0.04174981266260147,0.05203276872634888,0.0019073430448770523,0.1585541069507599,-0.9042290449142456,-0.3965228497982025,-0.034011974930763245,-0.00029659271240234375,0.05382546782493591
1.1291077079072243,0.3804775170476588,2.762486667918121,-0.045141614973545074,0.008329765871167183,-0.011153331026434898,0.15874560177326202,-0.9040310978889465,-0.39689722657203674,-0.02285093069076538,-0.0027984976768493652,0.04559391736984253
