attitudeX,attitudeY,attitudeZ,gyroX,gyroY,gyroZ,gravityX,gravityY,gravityZ,accX,accY,accZ
1.2585252673377867,0.1260698441322447,-1.1266564220408815,0.19616754353046417,-0.24761955440044403,0.045402005314826965,0.03862874582409859,-0.9516382813453674,-0.3047824800014496,0.011145498603582382,-0.01759999990463257,0.006946295499801636
1.260147172987316,0.12138985875193335,-1.1249494457135192,0.12336385250091553,-0.3589666485786438,0.1113111823797226,0.037015002220869064,-0.9521353244781494,-0.30342742800712585,0.03155803307890892,-0.017606496810913086,0.032980769872665405
1.2609977685320013,0.11339715590503778,-1.120620959031441,0.035573020577430725,-0.41014060378074646,0.1881769299507141,0.03449700027704239,-0.9523950219154358,-0.30290889739990234,0.05728468298912048,-0.021329402923583984,0.04793459177017212
1.26099105513821,0.1025600399402187,-1.1135321245410592,-0.049098432064056396,-0.39806172251701355,0.24937357008457184,0.03121303580701351,-0.9523929357528687,-0.3032713234424591,0.06568032503128052,-0.028152167797088623,0.03772270679473877
1.2602031765392498,0.09020820733591577,-1.1044108020321355,-0.11899122595787048,-0.32557180523872375,0.28240901231765747,0.027532372623682022,-0.9521524310112,-0.3043808341026306,0.05408695340156555,-0.03382474184036255,0.015242129564285278
1.2590599167708039,0.07812925200314506,-1.0946263063701749,-0.15113329887390137,-0.22400157153606415,0.29027408361434937,0.023938793689012527,-0.9518024325370789,-0.3057761788368225,0.03218308091163635,-0.03158074617385864,-0.013880044221878052
1.2577262721240037,0.06739631820578346,-1.085167516759518,-0.1474733054637909,-0.1229412630200386,0.2644757628440857,0.02074107900261879,-0.9513925313949585,-0.30728185176849365,0.015758007764816284,-0.03029698133468628,-0.0410456657409668
1.256681999801788,0.05877141163755205,-1.0769474034560533,-0.08526703715324402,-0.04032294452190399,0.22441022098064423,0.01814841479063034,-0.9510704278945923,-0.30844101309776306,0.008783400058746338,-0.036753177642822266,-0.06921392679214478
1.256409211755529,0.052139031723326776,-1.070292400234519,0.01118253730237484,-0.025435607880353928,0.1840233951807022,0.016115857288241386,-0.9509860873222351,-0.30881378054618835,0.006543517112731934,-0.04533666372299194,-0.10427212715148926
1.257094987554609,0.046603078774772176,-1.0649313863945449,0.11144193261861801,-0.0659773051738739,0.15175080299377441,0.014375653117895126,-0.9511979222297668,-0.3082466721534729,0.006956189870834351,-0.05318140983581543,-0.12221896648406982
1.25874247040856,0.04177933377347321,-1.060903969366751,0.20523099601268768,-0.13170811533927917,0.1091141328215599,0.012823116965591908,-0.9517050385475159,-0.3067462742328644,0.013238966464996338,-0.059525489807128906,-0.12071335315704346
1.2613069387879015,0.03762548209057458,-1.058424139869557,0.29635676741600037,-0.22104112803936005,0.06549136340618134,0.011456979438662529,-0.9524891972541809,-0.3043568432331085,0.018496066331863403,-0.07013958692550659,-0.11757907271385193
1.2647377400781625,0.033664626893828625,-1.0570295529381757,0.3803779184818268,-0.30445027351379395,0.0457722507417202,0.010141328908503056,-0.9535285234451294,-0.3011320233345032,0.0318356454372406,-0.0776757001876831,-0.1251831352710724
1.268908349669302,0.029184197199869647,-1.055987223231828,0.4484974145889282,-0.39411661028862,0.041782163083553314,0.008675910532474518,-0.9547768235206604,-0.2971966862678528,0.04257839918136597,-0.0794638991355896,-0.13424548506736755
1.2737141326145178,0.023947910092615706,-1.0550699818900915,0.500078022480011,-0.4699046015739441,0.03750219941139221,0.007009632885456085,-0.9561946988105774,-0.2926473617553711,0.05300325155258179,-0.08982580900192261,-0.13433918356895447
1.2789907788590682,0.01798308475783301,-1.0540864931196694,0.5478298664093018,-0.5281035900115967,0.04205234348773956,0.005173130426555872,-0.957726001739502,-0.2876354455947876,0.08247339725494385,-0.10817670822143555,-0.15030691027641296
1.2845895006092534,0.011050679259936178,-1.0525892800772287,0.5642938017845154,-0.5622938275337219,0.06058342009782791,0.0031197171192616224,-0.9593216180801392,-0.2822985053062439,0.10474473237991333,-0.13517612218856812,-0.19575929641723633
1.2902383250391332,0.0032696568346763386,-1.0503902742683684,0.5583471655845642,-0.5633962750434875,0.06707227230072021,0.0009053408284671605,-0.9609010815620422,-0.27689072489738464,0.12191271781921387,-0.17145371437072754,-0.24491405487060547
1.2957625786872247,-0.00425335819593631,-1.0482503650216979,0.5429194569587708,-0.5208756923675537,0.04655022174119949,-0.0011551217176020145,-0.9624160528182983,-0.2715771198272705,0.13001564145088196,-0.20373696088790894,-0.27451953291893005
1.3011021549562387,-0.010453415868174505,-1.0469175901753196,0.5240673422813416,-0.4573245644569397,0.016366351395845413,-0.0027851243503391743,-0.9638524055480957,-0.2664222717285156,0.12772414088249207,-0.23077350854873657,-0.3036307096481323
1.306407346683247,-0.014732696540264476,-1.0469899744600142,0.5409643054008484,-0.4135080873966217,-0.035001229494810104,-0.0038498039357364178,-0.9652523398399353,-0.2612912952899933,0.12222754955291748,-0.2541691064834595,-0.33992016315460205
1.312217526859014,-0.016872477758464104,-1.0490010368736813,0.6258639097213745,-0.3959740698337555,-0.08599963039159775,-0.004314203280955553,-0.9667543768882751,-0.255670428276062,0.09849148988723755,-0.25201088190078735,-0.39040181040763855
1.3193200899423345,-0.01760918373436504,-1.0523370104880565,0.8001914620399475,-0.40012219548225403,-0.10438130050897598,-0.004381543956696987,-0.9685461521148682,-0.24879580736160278,0.08075183629989624,-0.2237757444381714,-0.45410025119781494
1.328611686624263,-0.01824157429691011,-1.0560738046867195,1.0587671995162964,-0.46022462844848633,-0.11066664010286331,-0.004374529700726271,-0.9708163738250732,-0.239784374833107,0.07784566283226013,-0.19838839769363403,-0.5181348323822021
1.3408301922078218,-0.019632282091336748,-1.0599735960908565,1.381278395652771,-0.5798937678337097,-0.12096162140369415,-0.004474790301173925,-0.9736741185188293,-0.2279009371995926,0.07178136706352234,-0.18272852897644043,-0.5622601509094238
1.3564157405580743,-0.021761641398006824,-1.0645290730484418,1.723633050918579,-0.7350738048553467,-0.1451883763074875,-0.00462926272302866,-0.977108359336853,-0.21269221603870392,0.052404582500457764,-0.17036795616149902,-0.580169677734375
1.375434965461063,-0.02396150034917573,-1.0708189043061378,2.057630777359009,-0.9355166554450989,-0.20046041905879974,-0.0046510035172104836,-0.9809775948524475,-0.19406603276729584,0.030636757612228394,-0.15748083591461182,-0.5604809522628784
1.3976772670594093,-0.02442635775484315,-1.0810746177948647,2.36427903175354,-1.1689457893371582,-0.28632572293281555,-0.00420717615634203,-0.9850522875785828,-0.17220492660999298,0.003673166036605835,-0.1516512632369995,-0.5124111175537109
1.422901842697915,-0.019452795536161752,-1.0991740422190728,2.6452438831329346,-1.4016286134719849,-0.4031663239002228,-0.0028663098346441984,-0.9890835285186768,-0.14732834696769714,-0.027559667825698853,-0.14655190706253052,-0.4562787413597107
1.4508014070903625,-0.0017857107563971461,-1.1324124731522973,2.9037187099456787,-1.6348564624786377,-0.5413446426391602,-0.00021376377844717354,-0.9928092360496521,-0.11970782279968262,-0.053649723529815674,-0.13508999347686768,-0.4027988314628601
1.4808802884813417,0.0459795006099289,-1.197867066874107,3.1119673252105713,-1.813052773475647,-0.6947440505027771,0.004127381835132837,-0.9959602952003479,-0.08970242738723755,-0.07219678163528442,-0.12281429767608643,-0.3468208909034729
1.5119333716286842,0.1779584199591301,-1.3490404298335423,3.2652573585510254,-1.9270825386047363,-0.8401706218719482,0.010413873009383678,-0.9982680678367615,-0.05789951980113983,-0.08780640363693237,-0.10123443603515625,-0.2973555326461792
1.539610410647999,0.6428734398255048,-1.8339113823117088,3.3586862087249756,-1.9512512683868408,-0.9751635789871216,0.018695304170250893,-0.9995137453079224,-0.02495969459414482,-0.09849870204925537,-0.07252305746078491,-0.2485082745552063
1.5406563164009308,1.8551390644717145,-3.0658891499727194,3.387350082397461,-1.8832216262817383,-1.0939230918884277,0.028925882652401924,-0.9995458126068115,0.00845393817871809,-0.1044110655784607,-0.04720711708068848,-0.2067112922668457
1.512376034037116,2.365436393762084,2.6881015236268717,3.3573532104492188,-1.7923638820648193,-1.2026004791259766,0.04090302810072899,-0.9982939958572388,0.041666146367788315,-0.10860621929168701,-0.01598823070526123,-0.16570472717285156
1.478833414154441,2.5065493528174407,2.529061009342963,3.2532427310943604,-1.6975752115249634,-1.3056899309158325,0.054476529359817505,-0.9957743883132935,0.07392986863851547,-0.11218520998954773,0.012971043586730957,-0.1073617935180664
1.4449129079159952,2.5557002034731022,2.46295441719331,3.099013566970825,-1.6041227579116821,-1.3922480344772339,0.06942356377840042,-0.9920871257781982,0.10461296141147614,-0.10938625782728195,0.035208284854888916,-0.0361771434545517
1.4119312664180457,2.571353729097206,2.431336858975227,2.8887157440185547,-1.5109823942184448,-1.452217698097229,0.0854005441069603,-0.9874074459075928,0.13316667079925537,-0.10906688123941422,0.05984091758728027,0.031918272376060486
1.3805957078967122,2.5710224298737834,2.4169144767352817,2.6344289779663086,-1.3827890157699585,-1.4972243309020996,0.10211163759231567,-0.9819663166999817,0.15910856425762177,-0.1147458627820015,0.08090430498123169,0.09501145780086517
1.3512458910836944,2.5620228386845167,2.412742794662129,2.3644490242004395,-1.2249294519424438,-1.5432742834091187,0.11927630007266998,-0.9759954810142517,0.18222536146640778,-0.1148664727807045,0.10693114995956421,0.15221689641475677
1.3239674540596114,2.5474783713800018,2.4158758860032146,2.0846400260925293,-1.0712429285049438,-1.5919016599655151,0.13677015900611877,-0.9696921110153198,0.20246322453022003,-0.115377277135849,0.14165860414505005,0.20047569274902344
1.2985901777137796,2.5288081250715426,2.4246989279454114,1.82701575756073,-0.9581630825996399,-1.6479427814483643,0.1546323448419571,-0.9631801247596741,0.2199382334947586,-0.10934419929981232,0.17724573612213135,0.24041947722434998
1.274823036532504,2.5073828973389305,2.4373492723203785,1.6082885265350342,-0.9023181796073914,-1.6906591653823853,0.1728271096944809,-0.9565187096595764,0.23495279252529144,-0.09409169852733612,0.20491653680801392,0.2759878635406494
1.2523984827688208,2.483750373638946,2.452581299029404,1.4102805852890015,-0.9268224239349365,-1.7389522790908813,0.1913992464542389,-0.9497382044792175,0.24771685898303986,-0.07746180891990662,0.2344367504119873,0.2976780831813812
1.2309947702056787,2.458213666267142,2.4695610465236317,1.2578727006912231,-0.9550338387489319,-1.7602826356887817,0.21045145392417908,-0.9428208470344543,0.25845563411712646,-0.0751364529132843,0.28306126594543457,0.3204171657562256
1.21066539837222,2.4326102117231714,2.4866652311722417,1.0999889373779297,-0.9427692294120789,-1.7333953380584717,0.22943247854709625,-0.9358506798744202,0.2674783766269684,-0.036347657442092896,0.33204495906829834,0.31613996624946594
1.1917329203652827,2.4074088395601,2.503709000823342,0.9221222400665283,-0.9054045677185059,-1.6820951700210571,0.24792712926864624,-0.9290116429328918,0.2747174799442291,0.005612954497337341,0.36387187242507935,0.3110522925853729
1.1743070041071728,2.3827611275862024,2.520901296597737,0.7493509650230408,-0.839948296546936,-1.6283632516860962,0.26572227478027344,-0.9224224090576172,0.2802298069000244,0.004724591970443726,0.4189128875732422,0.31498515605926514
1.1583910178297914,2.3587735185380256,2.538406226965198,0.5700687766075134,-0.7256510257720947,-1.5679705142974854,0.2826865315437317,-0.9161593914031982,0.2841484248638153,0.023633718490600586,0.476706326007843,0.31413349509239197
1.1440539238621794,2.3360179060936783,2.556061848234981,0.41690969467163086,-0.5954914093017578,-1.4701086282730103,0.29852181673049927,-0.910318911075592,0.2867121994495392,0.06057852506637573,0.5272167325019836,0.31147804856300354
1.1313851012997211,2.315784596013255,2.572462641511849,0.32637926936149597,-0.476074755191803,-1.301443099975586,0.31271520256996155,-0.9050022959709167,0.2884105443954468,0.10601657629013062,0.5892214775085449,0.28831079602241516
1.1203868168981985,2.2991546165588588,2.5858207737781984,0.30524682998657227,-0.45483869314193726,-1.0851353406906128,0.3248760402202606,-0.9002689123153687,0.2897781729698181,0.15740853548049927,0.6454624533653259,0.2580123841762543
1.1110495821896815,2.2859850891466027,2.594805624234675,0.3382074236869812,-0.5757235884666443,-0.8266292214393616,0.3349958062171936,-0.8961648941040039,0.2909744381904602,0.20339533686637878,0.6897441744804382,0.2338668704032898
1.1033725967182888,2.275827757432424,2.5985913904364666,0.40947026014328003,-0.7811558246612549,-0.5505167245864868,0.34316399693489075,-0.8927320837974548,0.292007178068161,0.23857742547988892,0.7267316579818726,0.22616612911224365
1.0974104340388426,2.268722265181956,2.5963477782681577,0.51422119140625,-1.029913067817688,-0.22511227428913116,0.34930214285850525,-0.8900297284126282,0.29297685623168945,0.2604391872882843,0.7680050730705261,0.22173276543617249
1.0932070718156301,2.2650314588943843,2.588178709096541,0.5890524387359619,-1.13538658618927,0.04640734940767288,0.3532532751560211,-0.888105571269989,0.29407668113708496,0.27882689237594604,0.8158855438232422,0.21047058701515198
1.0906325756219828,2.26432292972388,2.5760446054648005,0.5837463736534119,-1.143880844116211,0.2734604775905609,0.35521838068962097,-0.8869193196296692,0.29528674483299255,0.2956300675868988,0.8412344455718994,0.1816878318786621
1.0902310834649944,2.266249537016504,2.5612236857854462,0.5093350410461426,-1.0851293802261353,0.5482494235038757,0.35492220520973206,-0.8867337703704834,0.2961987257003784,0.2963535487651825,0.8718716502189636,0.16212964057922363
1.0927387315476669,2.2710684333039084,2.543905927773849,0.38401252031326294,-1.0177674293518066,0.8615889549255371,0.3517891466617584,-0.8878902196884155,0.29647159576416016,0.31381455063819885,0.9191402792930603,0.1743079125881195
1.0985073257699831,2.2787949639316225,2.5241705313914404,0.2404443919658661,-0.9340216517448425,1.1830685138702393,0.34559130668640137,-0.8905292749404907,0.29584506154060364,0.3349660038948059,0.9663044214248657,0.17407989501953125
1.10765582925455,2.2900296921445973,2.5017662171322237,0.08754805475473404,-0.8108778595924377,1.5130019187927246,0.3361023962497711,-0.894653856754303,0.29432904720306396,0.34009087085723877,1.0014960765838623,0.1466652750968933
1.1201259847415512,2.305562784473514,2.4761852945213385,-0.0626315250992775,-0.6704638004302979,1.8452914953231812,0.3231869637966156,-0.9001553058624268,0.2920117676258087,0.33957862854003906,1.0331814289093018,0.10830259323120117
1.135915312923942,2.326359662465225,2.446430969219685,-0.20144453644752502,-0.5429369807243347,2.1951048374176025,0.306660532951355,-0.9069201946258545,0.2888871729373932,0.33713841438293457,1.066572666168213,0.06806188821792603
1.1548733789198398,2.353935688281837,2.4108464377376113,-0.32402703166007996,-0.42497846484184265,2.5567636489868164,0.2863403260707855,-0.9147437810897827,0.2850496768951416,0.32921460270881653,1.1021826267242432,0.026992589235305786
1.1767152242331709,2.3898280617488217,2.367483275612109,-0.43277880549430847,-0.3731333911418915,2.9188408851623535,0.2622169852256775,-0.9233497977256775,0.28047657012939453,0.308049738407135,1.1359201669692993,-0.008580267429351807
1.2011080139177641,2.435753660883821,2.313904562619849,-0.5426747798919678,-0.3875899016857147,3.2865982055664062,0.23438143730163574,-0.9324399828910828,0.27499252557754517,0.27947360277175903,1.1655027866363525,-0.032835543155670166
1.2275344881855113,2.494550182629131,2.2469320649335196,-0.6448243260383606,-0.39952990412712097,3.642721652984619,0.20288874208927155,-0.9416618943214417,0.268531858921051,0.2569044232368469,1.1916160583496094,-0.04900360107421875
1.2551252950410756,2.5708735057465018,2.162180019840318,-0.7342586517333984,-0.3650631010532379,3.9833929538726807,0.1677192896604538,-0.9505882859230042,0.26125165820121765,0.22351613640785217,1.2239494323730469,-0.08093845844268799
1.2826403371678603,2.6713207621898847,2.053657900420483,-0.8158317804336548,-0.26192978024482727,4.3160319328308105,0.1287725567817688,-0.9587695598602295,0.2533356845378876,0.17336678504943848,1.2591081857681274,-0.1283050775527954
1.3082453217667738,2.8037608917970114,1.9141021263938731,-0.8891995549201965,-0.11184273660182953,4.632534027099609,0.08602423220872879,-0.9657310247421265,0.24487455189228058,0.12244141101837158,1.2846548557281494,-0.1743941307067871
1.3291051103141511,2.975411889244178,1.7366177914136331,-0.9184447526931763,0.06151307374238968,4.927668571472168,0.03959180787205696,-0.9709345698356628,0.23604825139045715,0.07031729817390442,1.2998987436294556,-0.21570825576782227
1.341418346588208,-3.0972457198264958,1.5215394140912881,-0.9022496938705444,0.20375418663024902,5.187301158905029,-0.010079943574965,-0.9738079905509949,0.2271483987569809,0.00042119715362787247,1.2954328060150146,-0.25720810890197754
1.3415553927291888,-2.8630201683567793,1.2837652806736584,-0.8477818965911865,0.3036658465862274,5.4224324226379395,-0.06248677149415016,-0.9738391637802124,0.2184780389070511,-0.09789831936359406,1.270805835723877,-0.2793605923652649
1.327572112924115,-2.6334135655593567,1.0507203300802423,-0.7473663091659546,0.2720358371734619,5.6563286781311035,-0.11718674004077911,-0.9705665111541748,0.2104002684354782,-0.1804206520318985,1.2312626838684082,-0.28857097029685974
1.30000504198383,-2.4359157391660524,0.8486087933759353,-0.5869715809822083,0.11378253996372223,5.854097366333008,-0.17348310351371765,-0.9635595083236694,0.20360922813415527,-0.2711274027824402,1.140729308128357,-0.2850910425186157
1.2614944217764896,-2.2824206571881964,0.689109205769608,-0.388736367225647,0.021107051521539688,5.9655938148498535,-0.23051784932613373,-0.9525462985038757,0.19878868758678436,-0.4231990575790405,0.985276460647583,-0.26650717854499817
1.2157721034345421,-2.170062284893626,0.5706623442976434,-0.16601912677288055,0.06447982043027878,5.909368515014648,-0.28704142570495605,-0.9376380443572998,0.19606643915176392,-0.6310034990310669,0.7775886654853821,-0.23174145817756653
1.1668257920289475,-2.0900092037417397,0.48624951108938397,0.053406503051519394,0.2718828320503235,5.637872695922852,-0.3412696421146393,-0.9195075631141663,0.1950414478778839,-0.884026288986206,0.5292028188705444,-0.18422293663024902
1.118062794998235,-2.032284089446829,0.4276797657279044,0.24086162447929382,0.621807873249054,5.205974578857422,-0.39166730642318726,-0.8992547392845154,0.19477736949920654,-1.1272841691970825,0.246468186378479,-0.1284472495317459
1.0717065970730366,-1.9883922278481347,0.387538332849956,0.37133434414863586,1.0155283212661743,4.717325687408447,-0.43749698996543884,-0.8780186176300049,0.19411395490169525,-1.2886841297149658,-0.03811931610107422,-0.071356862783432
1.0286560261493942,-1.9521534921965846,0.3594723721981994,0.38149961829185486,1.3251689672470093,4.284142017364502,-0.478903591632843,-0.8566063046455383,0.19203424453735352,-1.3907862901687622,-0.34625935554504395,0.007703423500061035
0.9890126883881497,-1.9195942280660137,0.3368508723280466,0.16339585185050964,1.2970671653747559,3.961127758026123,-0.5164256691932678,-0.8354838490486145,0.1878068745136261,-1.4458088874816895,-0.6407735347747803,0.1252577304840088
0.9532905380910794,-1.8896659907851168,0.3140353716308984,-0.2733268737792969,0.8876544237136841,3.5997800827026367,-0.5498159527778625,-0.815325140953064,0.1815137267112732,-1.4548835754394531,-0.898816704750061,0.2923480272293091
0.9224118456820959,-1.8622766519990805,0.28824788286218495,-0.7901245951652527,0.4319405257701874,3.1529035568237305,-0.5784268975257874,-0.7970604300498962,0.17354290187358856,-1.5006440877914429,-1.140515923500061,0.47693932056427
0.8977855506034343,-1.836683107374542,0.2591860730426302,-1.2508946657180786,0.12828662991523743,2.5305099487304688,-0.6014387011528015,-0.781948447227478,0.16379274427890778,-1.5760819911956787,-1.371219277381897,0.5960493087768555
0.8798623142318048,-1.8123067178369268,0.22874840682575298,-1.549893856048584,0.04217313230037689,1.900608777999878,-0.6187627911567688,-0.7706511616706848,0.15241248905658722,-1.6648980379104614,-1.4923951625823975,0.5876083374023438
0.8682954887074872,-1.7874082277696293,0.19704328294276408,-1.8814876079559326,0.09019258618354797,1.2490293979644775,-0.631029486656189,-0.763228714466095,0.13886722922325134,-1.7083566188812256,-1.6127480268478394,0.4681122303009033
0.8638984646285404,-1.759936933691735,0.16329997106553598,-2.2019710540771484,0.28028392791748047,0.4806537926197052,-0.6378955841064453,-0.7603803277015686,0.12211158871650696,-1.7513713836669922,-1.7065844535827637,0.40060877799987793
0.8669604775609322,-1.728957713471215,0.1276549645545375,-2.429318904876709,0.473463237285614,-0.2772112786769867,-0.6390697360038757,-0.762365460395813,0.10192748159170151,-1.786986231803894,-1.7281742095947266,0.36016976833343506
0.8764536646071923,-1.6955478540298385,0.09042665445209329,-2.5542335510253906,0.4835115969181061,-0.89998859167099,-0.6349077224731445,-0.7684744596481323,0.07961917668581009,-1.764613151550293,-1.6930733919143677,0.30391061305999756
0.890579793653805,-1.6615821004258773,0.05194285366059647,-2.5728182792663574,0.34595534205436707,-1.3625527620315552,-0.6263712644577026,-0.7774365544319153,0.0570223443210125,-1.6739369630813599,-1.620527982711792,0.2525937557220459
0.9080935396111703,-1.6288857664066574,0.013297464422178261,-2.4483859539031982,0.13087576627731323,-1.7542967796325684,-0.6142122149467468,-0.7883322238922119,0.035719431936740875,-1.5382840633392334,-1.5118540525436401,0.1852431297302246
0.9284671230956549,-1.599460887365814,-0.023681325610453163,-2.1849050521850586,-0.11795802414417267,-2.1023566722869873,-0.5988163352012634,-0.8007025718688965,0.017169510945677757,-1.4304653406143188,-1.3895747661590576,0.07572603225708008
0.9513784273946362,-1.5746054631817874,-0.05737526408230715,-1.841756820678711,-0.3445393443107605,-2.3921635150909424,-0.5805574059486389,-0.8142165541648865,0.0022114331368356943,-1.3304076194763184,-1.2754747867584229,-0.04814028739929199
0.9766406338456605,-1.5548054212422548,-0.08673383781411063,-1.4630632400512695,-0.5030815601348877,-2.6611270904541016,-0.559738039970398,-0.8286214470863342,-0.008951480500400066,-1.2468873262405396,-1.1561198234558105,-0.15797960758209229
1.0043222669690133,-1.5402061400081204,-0.11092163153833574,-1.046837568283081,-0.6138837337493896,-2.9151837825775146,-0.5364094972610474,-0.8437984585762024,-0.016413986682891846,-1.1793650388717651,-1.0228856801986694,-0.24658644199371338
1.034506267371029,-1.5317093083007713,-0.12882726555485066,-0.610043466091156,-0.7357990145683289,-3.163611650466919,-0.5105605125427246,-0.8596101999282837,-0.019966457039117813,-1.1285080909729004,-0.8888336420059204,-0.3165965676307678
1.067303518439582,-1.530682655253685,-0.13939551949221013,-0.17698152363300323,-0.8883618116378784,-3.4096760749816895,-0.48210009932518005,-0.8759026527404785,-0.01934918388724327,-1.0807814598083496,-0.7572152018547058,-0.35848891735076904
1.1025951160349714,-1.5382721087038533,-0.14161988462497044,0.22256268560886383,-1.0144950151443481,-3.6239500045776367,-0.4510433077812195,-0.892381489276886,-0.014675005339086056,-1.0279605388641357,-0.6131575107574463,-0.3715706467628479
1.139852361367291,-1.5554607712180406,-0.13444218219749343,0.5677610635757446,-1.1219204664230347,-3.7791659832000732,-0.4176798462867737,-0.9085718393325806,-0.006405854597687721,-0.9480427503585815,-0.4674811363220215,-0.37382787466049194
1.1782222072907031,-1.5836178703101522,-0.11670214533123704,0.8471331000328064,-1.2500941753387451,-3.859053611755371,-0.3825365900993347,-0.923927366733551,0.004904978442937136,-0.8432629704475403,-0.34714508056640625,-0.36511921882629395
1.2166764362465565,-1.6243165582329775,-0.08718364605919404,1.0331429243087769,-1.3806654214859009,-3.86928129196167,-0.34626883268356323,-0.9379520416259766,0.018550103530287743,-0.737440824508667,-0.248205304145813,-0.3337355852127075
1.2543796996993906,-1.6790036268403876,-0.044447454068285715,1.1444615125656128,-1.4631946086883545,-3.8432869911193848,-0.309343159198761,-0.9503565430641174,0.033604446798563004,-0.6518384218215942,-0.16319936513900757,-0.28931117057800293
1.2906571491375014,-1.7490037513289887,0.013397578188851577,1.169850468635559,-1.4541451930999756,-3.794727325439453,-0.2721107006072998,-0.9610169529914856,0.049012087285518646,-0.5830222964286804,-0.0778471827507019,-0.24307334423065186
1.3250119556537052,-1.8361717407640759,0.08884748563049566,1.128441572189331,-1.395677924156189,-3.741831064224243,-0.23480011522769928,-0.9699468016624451,0.06381530314683914,-0.5273000597953796,-0.0009700655937194824,-0.20082390308380127
1.3571435440443522,-1.9444093131481675,0.18561282080995498,1.0246425867080688,-1.4110686779022217,-3.7150533199310303,-0.1974043995141983,-0.9772629141807556,0.07738756388425827,-0.4676345884799957,0.06826627254486084,-0.14861547946929932
1.3867870496232486,-2.0813553078273035,0.31017614603500765,0.8798444271087646,-1.5540263652801514,-3.718679428100586,-0.15963858366012573,-0.9831179976463318,0.08941242843866348,-0.4178607761859894,0.141321063041687,-0.07566416263580322
1.413219031435859,-2.258902461132512,0.4735805187664782,0.7281782031059265,-1.7321972846984863,-3.733811140060425,-0.1212177500128746,-0.9876103401184082,0.09966003894805908,-0.3804149031639099,0.2209324836730957,-0.014882095158100128
1.4345971874452526,-2.490808576151834,0.689679426484719,0.5873518586158752,-1.876889705657959,-3.7336151599884033,-0.08225588500499725,-0.9907392263412476,0.1080264076590538,-0.3360942602157593,0.30557388067245483,0.0037901178002357483
1.4481080355743536,-2.782032599037283,0.9638394725852802,0.48686283826828003,-1.9673815965652466,-3.7093677520751953,-0.043061498552560806,-0.9924831986427307,0.11455552279949188,-0.2894427180290222,0.39217185974121094,-0.005348324775695801
1.4508799645923773,-3.1079443775189506,1.2720728035801854,0.42602479457855225,-1.9913450479507446,-3.658811092376709,-0.0040245819836854935,-0.9928186535835266,0.11956223845481873,-0.24333560466766357,0.46555113792419434,-0.03795814514160156
1.442514706482382,2.869473130740731,1.5602722635267476,0.3686482012271881,-1.9398175477981567,-3.569131374359131,0.03438475728034973,-0.9917832016944885,0.12322459369897842,-0.18843743205070496,0.5282210111618042,-0.07506774365901947
1.4257162428966785,2.623410806943498,1.7894607909330633,0.310793399810791,-1.84019136428833,-3.440479040145874,0.07160641998052597,-0.9894943237304688,0.1255922019481659,-0.1195342019200325,0.602973997592926,-0.09621907770633698
1.4040518579719967,2.439803251791579,1.9571509599331993,0.24807769060134888,-1.734891653060913,-3.2691829204559326,0.10714974999427795,-0.9861302971839905,0.12675164639949799,-0.04881535470485687,0.6788336038589478,-0.10802914202213287
1.380366391654032,2.3047901447237753,2.0771103302938023,0.18466997146606445,-1.6473000049591064,-3.05672287940979,0.14054274559020996,-0.9819229245185852,0.12678863108158112,0.014776542782783508,0.7464796900749207,-0.11055324971675873
1.3563951730709023,2.2032845810258013,2.1639416088445342,0.12834501266479492,-1.6406420469284058,-2.846726179122925,0.17160554230213165,-0.9771040081977844,0.1257753074169159,0.049875855445861816,0.8177106380462646,-0.11109626293182373
1.3328597266490188,2.1227410327503358,2.2294715521102537,0.05558719113469124,-1.6779506206512451,-2.6798322200775146,0.20069831609725952,-0.9718263745307922,0.12358683347702026,0.06976376473903656,0.8668001294136047,-0.11380589753389359
1.3102023369498481,2.055559520713671,2.281690590287715,-0.05214504152536392,-1.6183987855911255,-2.5175118446350098,0.22796989977359772,-0.9662371277809143,0.12006720900535583,0.09006920456886292,0.8956801891326904,-0.11751887202262878
1.2886689906038844,1.997863900451824,2.325295944801939,-0.14422489702701569,-1.5033949613571167,-2.3639116287231445,0.2533954083919525,-0.9604653716087341,0.1153143122792244,0.09444403648376465,0.9311988353729248,-0.12759755551815033
1.268261045336581,1.9482000801806458,2.362091997650462,-0.20527243614196777,-1.3879767656326294,-2.207883596420288,0.2769739329814911,-0.9545841813087463,0.10979396104812622,0.09274658560752869,0.9588718414306641,-0.15563130378723145
1.2488421519505153,1.9027376245316132,2.393351547094463,-0.2381206601858139,-1.680066466331482,-2.073807954788208,0.29914847016334534,-0.9486188888549805,0.10311508923768997,0.09826678037643433,0.9575452208518982,-0.17844772338867188
1.2309223668946356,1.862630937984755,2.418355097561084,-0.19906622171401978,-1.5302023887634277,-1.8088656663894653,0.3192727267742157,-0.9427967071533203,0.09591331332921982,0.10154947638511658,0.9251117706298828,-0.10912740975618362
1.2157091292706252,1.8348290561467355,2.4363096567885294,-0.14492017030715942,-0.7207523584365845,-1.4453353881835938,0.3356238305568695,-0.9376161694526672,0.09073399007320404,0.23352906107902527,0.9795930981636047,-0.2558797597885132
1.2034736391583691,1.815843422381415,2.449026161558469,-0.10159605741500854,-0.7248507738113403,-1.1467283964157104,0.34838980436325073,-0.9332921504974365,0.08712278306484222,0.19682204723358154,1.078845739364624,-0.4576824903488159
1.1937167389323722,1.8022567796202942,2.45678538032101,0.021379932761192322,-0.47653308510780334,-0.8798913955688477,0.3583880364894867,-0.9297438859939575,0.08446647226810455,0.13657662272453308,1.0810956954956055,-0.22770071029663086
1.1859262879255494,1.7963419585323863,2.4592685003986845,0.14539635181427002,-0.3101502060890198,-0.6859027743339539,0.3659302294254303,-0.9268472194671631,0.0839625671505928,0.19176334142684937,1.067029595375061,-0.1918421983718872
1.1796401721099758,1.7945506073362505,2.457476708048153,0.2679518163204193,-0.36181819438934326,-0.5042434930801392,0.3717532157897949,-0.9244688749313354,0.08459793776273727,0.20245030522346497,1.0568084716796875,-0.26349198818206787
1.1748711321471776,1.7971222757097813,2.4510793701277693,0.42667946219444275,-0.3041020333766937,-0.32069137692451477,0.3758265972137451,-0.9226401448249817,0.0865420401096344,0.21218609809875488,1.030931830406189,-0.2211092710494995
1.1713220356188354,1.8049892439528676,2.439509836763125,0.6080048084259033,-0.2547304928302765,-0.16734015941619873,0.3783169686794281,-0.9212656021118164,0.09025527536869049,0.2432956099510193,1.015854835510254,-0.2341151237487793
1.1687022013882882,1.8179787286609228,2.4227826678451145,0.7772023677825928,-0.22945351898670197,-0.03263334557414055,0.37945157289505005,-0.920243501663208,0.09575185924768448,0.25047704577445984,1.0140087604522705,-0.24486064910888672
1.166983710968676,1.8351501254789868,2.4017832760832207,0.8860630989074707,-0.19480526447296143,0.11859265714883804,0.3792777359485626,-0.9195696115493774,0.10266626626253128,0.25873810052871704,1.0187212228775024,-0.23286950588226318
1.1665520275724242,1.855001075802954,2.3783854345434925,0.8854572176933289,-0.1346810758113861,0.2996579110622406,0.3775458335876465,-0.9193999171257019,0.11028577387332916,0.263979434967041,1.0171020030975342,-0.18267346918582916
1.1679722373055534,1.8756932117539895,2.3547349305686716,0.7945233583450317,-0.07012392580509186,0.5089213848114014,0.37393760681152344,-0.9199575781822205,0.11768186837434769,0.30149275064468384,1.0212301015853882,-0.12233579158782959
1.1715584607002225,1.8965339955333202,2.3319904473237028,0.6627388000488281,0.058393705636262894,0.7123278975486755,0.3682761788368225,-0.9213575124740601,0.12439241260290146,0.33855682611465454,1.0287182331085205,-0.07275663316249847
1.177105940584208,1.9181692349938346,2.3100580188137765,0.5575234293937683,0.22038793563842773,0.8736432790756226,0.36068686842918396,-0.9234997034072876,0.13058820366859436,0.35485878586769104,1.0314710140228271,-0.051303520798683167
1.1840882216010824,1.9409792393413334,2.2885745207422077,0.48225894570350647,0.3535230755805969,0.9994669556617737,0.3515948951244354,-0.9261555671691895,0.13644468784332275,0.3615857660770416,1.03278386592865,-0.04824887216091156
1.1922550010305581,1.965300982629047,2.2665496339542375,0.42882952094078064,0.41038793325424194,1.1267549991607666,0.34117811918258667,-0.9292047023773193,0.1420428603887558,0.3662956953048706,1.0365045070648193,-0.041075363755226135
1.201710131515904,1.9911084735725746,2.2431778604295807,0.38570496439933777,0.38970473408699036,1.2830177545547485,0.3293633759021759,-0.9326574206352234,0.14720797538757324,0.37144234776496887,1.0555363893508911,-0.024405241012573242
1.2127149108981568,2.0189341738657594,2.2172395157361806,0.36088404059410095,0.31979674100875854,1.486086368560791,0.3158703148365021,-0.936570942401886,0.15185795724391937,0.3792896270751953,1.0834673643112183,-0.0071129947900772095
1.2255748004180451,2.0498153696744623,2.1870975613243737,0.3433534801006317,0.19109909236431122,1.7357962131500244,0.30031701922416687,-0.9410005211830139,0.15597404539585114,0.3782718777656555,1.1177582740783691,0.0027478933334350586
1.2404284178103548,2.0850416171550035,2.1509538489503575,0.34441182017326355,0.028292860835790634,2.008145809173584,0.2824360430240631,-0.9459230899810791,0.15956099331378937,0.37297481298446655,1.150543451309204,0.0062716007232666016
1.2572836723284477,2.1260938663318942,2.106993801245347,0.3227289617061615,-0.16215717792510986,2.294926404953003,0.26206281781196594,-0.9512561559677124,0.1625884622335434,0.35945823788642883,1.1738054752349854,0.006372213363647461
1.276217454642032,2.1739605146868812,2.0541279803992842,0.2415424883365631,-0.3473840057849884,2.5900344848632812,0.23910535871982574,-0.9569244980812073,0.16469387710094452,0.34265124797821045,1.193069577217102,0.014612182974815369
1.2974266228067208,2.2303064626443665,1.9911948403000386,0.09439084678888321,-0.4470676779747009,2.899651288986206,0.213361456990242,-0.9628666043281555,0.1654234677553177,0.32228314876556396,1.2130191326141357,0.02785968780517578
1.321105271774949,2.299085106829121,1.9152234281542342,-0.10322582721710205,-0.46083781123161316,3.2329325675964355,0.18441817164421082,-0.968988835811615,0.1644716113805771,0.29893457889556885,1.2312567234039307,0.026827827095985413
1.34720305776202,2.387495072189143,1.8198579587390724,-0.3348800539970398,-0.3802243173122406,3.598705291748047,0.15180735290050507,-0.9751070141792297,0.16162103414535522,0.2705255150794983,1.253045678138733,0.014282360672950745
1.3751417127144465,2.507855851743414,1.6936485338697258,-0.5889054536819458,-0.2314111441373825,3.9822423458099365,0.11512140184640884,-0.9809206128120422,0.15665894746780396,0.24555066227912903,1.2739503383636475,-0.00968623161315918
1.4031216671881719,2.680435309848664,1.5165314606067546,-0.8399673104286194,-0.10403721779584885,4.346379280090332,0.07426407933235168,-0.9859755039215088,0.14945748448371887,0.2268681824207306,1.2810192108154297,-0.04183720052242279
1.4272216986166328,2.933500813135578,1.259830956441891,-1.0504955053329468,-0.008933871984481812,4.687508583068848,0.029559841379523277,-0.9897108674049377,0.13999557495117188,0.18674883246421814,1.2639875411987305,-0.07328416407108307
1.4399490046722898,-2.9971666532567407,0.9044642965472229,-1.119838833808899,0.08176307380199432,5.0208940505981445,-0.018778521567583084,-0.9914516806602478,0.12911644577980042,0.12351489067077637,1.2353633642196655,-0.11693990230560303
1.4329550630759893,-2.607393552959846,0.5120038571393613,-1.0353130102157593,0.055652111768722534,5.230759620666504,-0.0699601024389267,-0.9905149340629578,0.1182614341378212,0.06278855353593826,1.1619932651519775,-0.200170636177063
1.4061024425281337,-2.3005583468400994,0.20178508702858483,-0.7408795952796936,-0.044786736369132996,5.286654472351074,-0.12219743430614471,-0.9864686131477356,0.1093042641878128,-0.06067909300327301,0.9972108602523804,-0.29594969749450684
1.366090568898708,-2.1103175218520347,0.007242600592526235,-0.25875231623649597,-0.16712622344493866,5.328514099121094,-0.1744047999382019,-0.9791208505630493,0.10442992299795151,-0.1929962933063507,0.7927346229553223,-0.41007864475250244
1.317900716852785,-2.0050844065893867,-0.1029822019367984,0.35563069581985474,-0.2551776170730591,5.498201847076416,-0.22698238492012024,-0.9681919813156128,0.10527925938367844,-0.30434390902519226,0.599554717540741,-0.5099880695343018
1.2632514322124333,-1.9512079637027244,-0.16181468122210524,0.9740811586380005,-0.28388968110084534,5.7832512855529785,-0.2810790538787842,-0.9530796408653259,0.11240074038505554,-0.41659849882125854,0.38844335079193115,-0.5670515298843384
1.203980035297478,-1.9263834200601633,-0.19156311707216242,1.4138232469558716,-0.3866826891899109,5.903036117553711,-0.3362092971801758,-0.9334738850593567,0.12485907226800919,-0.6073178648948669,0.08584821224212646,-0.5658379793167114
1.1444314502985367,-1.9175952370816411,-0.20620231192066538,1.571140170097351,-0.5559582710266113,5.562618732452393,-0.38894250988960266,-0.9104751348495483,0.14056579768657684,-0.9662667512893677,-0.34558260440826416,-0.47780025005340576
1.0903772764469306,-1.916574310103443,-0.2137758843317694,1.4252153635025024,-0.5630929470062256,4.750343322753906,-0.43479734659194946,-0.8868013620376587,0.1566362828016281,-1.4861774444580078,-0.8435454368591309,-0.33081531524658203
1.0463069591711431,-1.9162682726332119,-0.21945831154902964,1.0058470964431763,-0.35263025760650635,3.6806533336639404,-0.47118350863456726,-0.8655797839164734,0.1695815473794937,-1.9915087223052979,-1.3154352903366089,-0.18644249439239502
1.0143011748226785,-1.9118131872031894,-0.22709700080342435,0.3914196193218231,-0.0509236603975296,2.608985185623169,-0.49779626727104187,-0.8491116166114807,0.17665863037109375,-2.3031680583953857,-1.714639663696289,-0.08600617945194244
0.9935803503470975,-1.900026406020413,-0.23919522490769834,-0.25317108631134033,0.3899804949760437,1.7478909492492676,-0.516385018825531,-0.837985098361969,0.1764306128025055,-2.421969413757324,-2.010495185852051,-0.06678090989589691
0.9817504579892489,-1.8783667022810504,-0.2566895225963263,-0.8121364116668701,1.0377540588378906,1.111761450767517,-0.5294964909553528,-0.8314711451530457,0.16819490492343903,-2.392134428024292,-2.2067980766296387,-0.16033649444580078
0.9766780398622287,-1.8463907031577707,-0.2784829460109648,-1.192309021949768,1.7240184545516968,0.5567642450332642,-0.5386542677879333,-0.8286423683166504,0.15232627093791962,-2.325969696044922,-2.340898036956787,-0.32098162174224854
0.9773703371476051,-1.8065353762363296,-0.30205353452124584,-1.3595329523086548,2.311352491378784,-0.033829230815172195,-0.5437381267547607,-0.8290297389030457,0.13060875236988068,-2.3281490802764893,-2.3915207386016846,-0.4598933458328247
0.983757052178367,-1.7623416496967703,-0.3246655315490125,-1.3365025520324707,2.730703115463257,-0.6854283213615417,-0.543768584728241,-0.8325842618942261,0.1054491251707077,-2.3172695636749268,-2.373424768447876,-0.5455125570297241
0.995981843222936,-1.717493124114554,-0.34403364569469497,-1.140476942062378,2.9600534439086914,-1.3591232299804688,-0.5378397703170776,-0.8392931818962097,0.07947025448083878,-2.263765335083008,-2.299790859222412,-0.5967278480529785
1.0138570246425576,-1.6754939710423569,-0.35841657306074626,-0.8095733523368835,2.959939479827881,-1.969851016998291,-0.5256963968276978,-0.848876953125,0.055241167545318604,-2.1333765983581543,-2.159546136856079,-0.6045117378234863
1.0367367513009866,-1.6402166976680155,-0.3659987291889045,-0.35141628980636597,2.7708842754364014,-2.4910268783569336,-0.507806122303009,-0.8607476949691772,0.035308826714754105,-1.9246432781219482,-1.9697272777557373,-0.5898284912109375
1.06397131683772,-1.614913965900465,-0.364408974213384,0.211945578455925,2.5526092052459717,-2.926543712615967,-0.4849318563938141,-0.8742900490760803,0.02140793949365616,-1.7236558198928833,-1.747978687286377,-0.5901486873626709
1.0950270468847585,-1.6017274272758482,-0.35128865853528735,0.7867757678031921,2.3959290981292725,-3.295530319213867,-0.4578038454055786,-0.8889406323432922,0.014164893887937069,-1.5490778684616089,-1.5238250494003296,-0.61595618724823
1.1294397039448383,-1.6011436673900723,-0.3256354001528313,1.2478997707366943,2.3149256706237793,-3.622652769088745,-0.42697015404701233,-0.9041730165481567,0.012961388565599918,-1.3901989459991455,-1.2964496612548828,-0.6100987195968628
1.1666896129931195,-1.6123275167450928,-0.287972755645951,1.5407450199127197,2.314633369445801,-3.9008734226226807,-0.39285868406295776,-0.9194539785385132,0.016325276345014572,-1.2679078578948975,-1.0472818613052368,-0.5352613925933838
1.206122766389708,-1.6339673879638903,-0.23925256342911014,1.6580204963684082,2.3859002590179443,-4.13265323638916,-0.355933278799057,-0.9342402219772339,0.022514639422297478,-1.156899333000183,-0.8003484606742859,-0.42235589027404785
1.246967013969207,-1.6643112319016142,-0.18091381018314517,1.5985642671585083,2.520542860031128,-4.274450302124023,-0.31680893898010254,-0.9480239152908325,0.029713021591305733,-1.0443971157073975,-0.5638779997825623,-0.3101236820220947
1.2881145695705092,-1.7021334222815534,-0.1140595464982785,1.427936315536499,2.6555466651916504,-4.306210041046143,-0.27653005719184875,-0.9603108763694763,0.03652893006801605,-0.9095203280448914,-0.33708304166793823,-0.1878197193145752
1.3286077634547975,-1.7492459904765842,-0.03719765313243774,1.2605745792388916,2.745046854019165,-4.270262241363525,-0.2360193133354187,-0.9708154201507568,0.04257040470838547,-0.7671696543693542,-0.11742609739303589,-0.08073259145021439
1.3677569014230526,-1.813528592106234,0.057067911209483096,1.179023027420044,2.7551357746124268,-4.221060276031494,-0.1957365870475769,-0.979458212852478,0.04846722260117531,-0.6451752185821533,0.06739455461502075,-0.035527706146240234
1.404704554453663,-1.912315860230872,0.18532255562687625,1.2068796157836914,2.679030179977417,-4.169220924377441,-0.15578176081180573,-0.986238420009613,0.05537223070859909,-0.5448407530784607,0.20784175395965576,-0.03663432598114014
1.4375739778113699,-2.0760479907743097,0.37743374356241793,1.3193778991699219,2.5508275032043457,-4.121293544769287,-0.11623162776231766,-0.9911389946937561,0.06429249793291092,-0.4639379680156708,0.32472676038742065,-0.03911544382572174
1.4624240254605136,-2.3484714328977025,0.6768252208197505,1.4976953268051147,2.397784948348999,-4.092299938201904,-0.07707083970308304,-0.994133472442627,0.07588949799537659,-0.4002392888069153,0.4376299977302551,-0.04090093821287155
1.4723593404696966,-2.741687485918266,1.0953515421528432,1.7029988765716553,2.216768980026245,-4.07172155380249,-0.038262493908405304,-0.9951589703559875,0.09052324295043945,-0.342428982257843,0.5331229567527771,-0.033806219696998596
1.4624844106157981,3.139946606461211,1.520404149211059,1.904292106628418,2.031522274017334,-4.049246788024902,0.00017793812730815262,-0.9941399693489075,0.10810016840696335,-0.29247522354125977,0.616500198841095,-0.010306604206562042
1.43648262920466,2.852928915356651,1.829112612475009,2.0926856994628906,1.8533421754837036,-4.033001899719238,0.03812084347009659,-0.9909934401512146,0.12837110459804535,-0.23553898930549622,0.6886708736419678,0.0268566757440567
1.4012909595751692,2.6772348590882666,2.0246762697756093,2.226166009902954,1.6647933721542358,-4.008082389831543,0.0755501538515091,-0.9856683015823364,0.1508324146270752,-0.18378067016601562,0.7332420945167542,0.0787971019744873
1.3618969019296396,2.5704606446968414,2.1493620077291884,2.2618441581726074,1.4696681499481201,-3.9178123474121094,0.11210852116346359,-0.9782597422599792,0.17446982860565186,-0.13778901100158691,0.767947793006897,0.1493828296661377
1.3215923745996796,2.5035976049223576,2.2322649923088655,2.20206356048584,1.3071520328521729,-3.7156336307525635,0.1468910425901413,-0.969109058380127,0.19811800122261047,-0.07840950787067413,0.8085408210754395,0.23530791699886322
1.2826478800495513,2.460909739050676,2.289457729392453,2.0705020427703857,1.1815825700759888,-3.4224202632904053,0.17883966863155365,-0.9587717056274414,0.22084654867649078,-0.015677407383918762,0.8491830825805664,0.30933547019958496
1.2464803100813138,2.4325557161188915,2.330888325579984,1.8614774942398071,1.0365015268325806,-3.1063952445983887,0.2074809968471527,-0.9478688836097717,0.24186009168624878,0.04070325195789337,0.8734059929847717,0.36763715744018555
1.2139609555499449,2.4114945628387194,2.36349545781225,1.5697766542434692,0.8991997838020325,-2.7998640537261963,0.23297031223773956,-0.937006950378418,0.26027464866638184,0.0784769058227539,0.8768415451049805,0.41608643531799316
1.1857614084673662,2.3933561816202635,2.3921358092349494,1.178765892982483,0.811229407787323,-2.5183181762695312,0.255532443523407,-0.9267852902412415,0.2752669155597687,0.08904159069061279,0.8642244338989258,0.45465248823165894
1.1623627477794298,2.375325328658432,2.4201213253765137,0.722939133644104,0.7455540299415588,-2.256253957748413,0.2754196524620056,-0.9177441000938416,0.2861645221710205,0.09025731682777405,0.8583415746688843,0.48654067516326904
1.1438716838366054,2.355842978787716,2.449524100881169,0.24200400710105896,0.7382826805114746,-2.0252888202667236,0.2928972542285919,-0.9102434515953064,0.2926914095878601,0.07348158955574036,0.8656420111656189,0.5041532516479492
1.1299686951000825,2.334711727753457,2.481352890857987,-0.20669123530387878,0.8121313452720642,-1.8246097564697266,0.308125764131546,-0.9043988585472107,0.29516345262527466,0.05552181601524353,0.8677471876144409,0.4914729595184326
1.1201166558759952,2.3124388013291766,2.515734000159767,-0.5950117111206055,0.9356308579444885,-1.627297043800354,0.32117760181427,-0.900151252746582,0.29423269629478455,0.038395851850509644,0.8624314665794373,0.4414088726043701
1.1137800180278898,2.290010616124515,2.551928948488474,-0.9044289588928223,1.0751484632492065,-1.4256291389465332,0.3319801986217499,-0.8973731398582458,0.2907080054283142,0.03204885125160217,0.859668493270874,0.37962594628334045
1.1102535744447128,2.2681553082021813,2.5888509437863356,-1.1006563901901245,1.1575064659118652,-1.2302970886230469,0.34067755937576294,-0.8958114385604858,0.28541409969329834,0.05010014772415161,0.865858256816864,0.3236406147480011
1.1088303968491189,2.247279301172485,2.625292630843069,-1.2067064046859741,1.1833924055099487,-1.0395865440368652,0.3475549519062042,-0.8951780200004578,0.27903831005096436,0.06519541144371033,0.8703670501708984,0.2693474590778351
1.1090322190010447,2.227827154395829,2.660288964182832,-1.2549885511398315,1.18406081199646,-0.8524019718170166,0.3527737259864807,-0.895267903804779,0.27211490273475647,0.06781965494155884,0.8745768070220947,0.22295668721199036
1.1105621048421899,2.2098851611673975,2.693464335954166,-1.2713954448699951,1.1560627222061157,-0.6847586631774902,0.3564990162849426,-0.8959484696388245,0.2649245858192444,0.07193735241889954,0.8921794295310974,0.18936017155647278
1.1130530525308946,2.193228254564655,2.724670111283893,-1.2447236776351929,1.1009495258331299,-0.5403232574462891,0.359047532081604,-0.8970521092414856,0.2576477825641632,0.08124488592147827,0.9094117879867554,0.1667601764202118
1.1162488127731496,2.1777837646770166,2.7537851463461767,-1.206291675567627,1.0286825895309448,-0.4112057685852051,0.3606274724006653,-0.898459792137146,0.25043562054634094,0.09519839286804199,0.916739821434021,0.14041829109191895
1.1199726905924288,2.1634914445152793,2.780705629654413,-1.1471598148345947,0.9478927254676819,-0.2984037697315216,0.3613923192024231,-0.9000885486602783,0.243385449051857,0.11304932832717896,0.922137439250946,0.12723541259765625
1.1242225114386084,2.15106675441882,2.8045744219173088,-1.0211249589920044,0.8594493865966797,-0.13126404583454132,0.36118608713150024,-0.9019320607185364,0.23677736520767212,0.11317923665046692,0.9213411808013916,0.11834049224853516
1.1288395034772698,2.1423258493340045,2.823201852163766,-0.815233051776886,0.7494561672210693,0.026582440361380577,0.3597358167171478,-0.9039164185523987,0.23135638236999512,0.1259515881538391,0.9355934858322144,0.09458675980567932
1.1335195294020686,2.1372622869367386,2.8364862476894293,-0.6438271999359131,0.646212100982666,0.1528194695711136,0.35732895135879517,-0.9059082269668579,0.22725901007652283,0.1331343948841095,0.9526457786560059,0.057317525148391724
1.1384808126889603,2.135418440208103,2.845202146630483,-0.5117482542991638,0.558195173740387,0.295401394367218,0.3539460599422455,-0.9079980254173279,0.22419197857379913,0.13451841473579407,0.9341820478439331,0.07849669456481934
1.1441181059919618,2.136477318616291,2.8495913940800195,-0.40381407737731934,0.450936883687973,0.4599066972732544,0.349381685256958,-0.9103454947471619,0.22181960940361023,0.13105666637420654,0.9379026889801025,0.10693112015724182
1.1507697874545282,2.1400910952325916,2.8500584505870363,-0.3477257490158081,0.3581964075565338,0.63592928647995,0.3434692323207855,-0.9130781292915344,0.21981137990951538,0.13986819982528687,0.9546279907226562,0.12605959177017212
1.1587274862261199,2.1457269223558444,2.8475557499985102,-0.3458053469657898,0.3107900023460388,0.8084006309509277,0.33611661195755005,-0.9162942171096802,0.21778573095798492,0.15370583534240723,0.9663125872612,0.14712831377983093
1.1682967069554793,2.152793850442482,2.842999133252269,-0.4004407823085785,0.2612987756729126,0.9929428696632385,0.3272293210029602,-0.9200847148895264,0.21532577276229858,0.16323399543762207,0.9807078838348389,0.1691499799489975
1.179967771201568,2.160899221397511,2.8367548400429117,-0.486663818359375,0.20406050980091095,1.2142935991287231,0.31652912497520447,-0.9245937466621399,0.21198104321956635,0.1746971607208252,1.0047938823699951,0.197473406791687
1.1940229297235896,2.1703957376789544,2.8284477794468494,-0.5654398798942566,0.1542285531759262,1.4564610719680786,0.3037424087524414,-0.9298565983772278,0.20762278139591217,0.18650725483894348,1.030457854270935,0.2132910192012787
1.210399195979845,2.182757162320141,2.8166849142827766,-0.596490204334259,0.12659771740436554,1.7098209857940674,0.28864920139312744,-0.9357568621635437,0.20258601009845734,0.19040054082870483,1.0424919128417969,0.20279434323310852
1.2289896940085034,2.199974562790748,2.7997573187391773,-0.6102795004844666,0.1433272510766983,1.98372483253479,0.27100464701652527,-0.9421506524085999,0.19725258648395538,0.18476015329360962,1.0492368936538696,0.1679513156414032
1.2497111812665853,2.224719830841744,2.775317821837219,-0.5877331495285034,0.17810945212841034,2.2739474773406982,0.25049030780792236,-0.9488934874534607,0.19197924435138702,0.1837291419506073,1.0627087354660034,0.15018391609191895
1.2722045137247597,2.259555368615993,2.7404536579926693,-0.5439712405204773,0.13527224957942963,2.552004337310791,0.22711317241191864,-0.9557517170906067,0.18697136640548706,0.17919790744781494,1.0695823431015015,0.14203868806362152
1.2960264808867716,2.306624686498768,2.6923066410082943,-0.5123003721237183,0.03284628316760063,2.8135242462158203,0.20112699270248413,-0.9624876976013184,0.18211421370506287,0.15484537184238434,1.0639433860778809,0.1530756801366806
1.3208343739620425,2.368419264167042,2.627890978870755,-0.517890214920044,-0.12829646468162537,3.0519185066223145,0.17276406288146973,-0.9689218401908875,0.17704056203365326,0.12102872133255005,1.0575448274612427,0.1911998987197876
1.3459375939622151,2.4489308133862693,2.542432477791409,-0.5139852166175842,-0.39047110080718994,3.26527738571167,0.14238528907299042,-0.9748256206512451,0.1715855449438095,0.08846500515937805,1.0617244243621826,0.24089014530181885
1.3700268804740232,2.5550911476442417,2.4283062365805157,-0.4619019031524658,-0.6876764893531799,3.446690559387207,0.11037091165781021,-0.9799134135246277,0.166096031665802,0.04195763170719147,1.055551290512085,0.2707479000091553
1.3911694220379038,2.696312696886026,2.2762763174075067,-0.3639998435974121,-0.9090477228164673,3.601858377456665,0.07695184648036957,-0.9839104413986206,0.16124118864536285,-0.028001584112644196,1.0264214277267456,0.2655930519104004
1.4067249154505732,2.879692127940723,2.080347035587286,-0.2193279266357422,-1.0116807222366333,3.7177040576934814,0.04229072853922844,-0.9865704774856567,0.15776731073856354,-0.10555359721183777,0.9982891082763672,0.24050235748291016
1.413981979126398,3.0990267489617453,1.847863329419517,-0.08417516946792603,-1.0121731758117676,3.802020788192749,0.006645605433732271,-0.9877297878265381,0.1560307741165161,-0.1855090856552124,0.9727457165718079,0.21970175206661224
1.4115651874012607,-2.952178356196475,1.6028386192396962,-0.008194370195269585,-0.9856420159339905,3.8782474994659424,-0.02985404059290886,-0.9873495101928711,0.15572293102741241,-0.2595745921134949,0.9266958832740784,0.23787759244441986
1.3999429500726106,-2.7367615226405437,1.3745828147400057,0.019646048545837402,-0.9676204323768616,3.9207592010498047,-0.06696633994579315,-0.9854400157928467,0.15628096461296082,-0.3233534097671509,0.8629881143569946,0.30332911014556885
1.3810492285265819,-2.5567783545290745,1.1816142407876817,0.0030065621249377728,-1.011750340461731,3.9111759662628174,-0.10412182658910751,-0.9820519685745239,0.15726684033870697,-0.401661217212677,0.7867699265480042,0.3842371702194214
1.3574588047943386,-2.4156662431848734,1.026514304759271,-0.06317112594842911,-1.1724013090133667,3.845855712890625,-0.14054811000823975,-0.9773297309875488,0.15834477543830872,-0.48605403304100037,0.7083019614219666,0.48142576217651367
1.3313257098148616,-2.3071260896943557,0.9019599058627058,-0.1601826250553131,-1.389818549156189,3.7748658657073975,-0.17574185132980347,-0.971463680267334,0.15928921103477478,-0.5898373126983643,0.6502967476844788,0.6015903949737549
1.3037777959173893,-2.2233156790620834,0.7997267456642279,-0.2556665539741516,-1.6362932920455933,3.703848361968994,-0.20964935421943665,-0.9645618796348572,0.16021138429641724,-0.6776643991470337,0.5645526647567749,0.7223570346832275
1.2756246104140734,-2.1582562987460765,0.7139136129263589,-0.3462078869342804,-1.815848708152771,3.6120827198028564,-0.24213458597660065,-0.9567521810531616,0.1612333357334137,-0.783591628074646,0.4696000814437866,0.7979953289031982
1.2474635537232661,-2.1070835838811153,0.6408414055868412,-0.41490572690963745,-1.8316594362258911,3.497603416442871,-0.2731230556964874,-0.9481817483901978,0.16234271228313446,-0.9141479730606079,0.38348448276519775,0.8426316976547241
1.2196626419565226,-2.065033004746119,0.5773639842617886,-0.5034594535827637,-1.7356356382369995,3.387542247772217,-0.302801251411438,-0.9389833807945251,0.16316218674182892,-1.0288790464401245,0.29147660732269287,0.888015866279602
1.192597019084688,-2.028829539552603,0.5196426937386057,-0.6834356188774109,-1.826729655265808,3.2908027172088623,-0.33118751645088196,-0.9293310642242432,0.16327597200870514,-1.0929763317108154,0.20075416564941406,0.9524315595626831
1.1665990950449014,-1.997225473358868,0.46393806847997043,-0.9344183206558228,-2.169987916946411,3.208362102508545,-0.358062207698822,-0.9194183945655823,0.16266986727714539,-1.0961613655090332,0.1224212646484375,1.0447734594345093
1.1417622631954554,-1.9708210900388434,0.40837922264247106,-1.1746848821640015,-2.715965986251831,3.120907783508301,-0.3831511437892914,-0.9093679785728455,0.16200488805770874,-1.0750551223754883,0.04259228706359863,1.1295143365859985
1.1180327738756832,-1.951563724952875,0.3536427907747659,-1.3096296787261963,-3.3002755641937256,3.0377542972564697,-0.40612202882766724,-0.8992416262626648,0.16257178783416748,-1.0735379457473755,-0.01938331127166748,1.1875107288360596
1.0953600507947494,-1.9401553087155758,0.30080726957231907,-1.4739280939102173,-3.824284076690674,2.8718373775482178,-0.4268569052219391,-0.8890931010246277,0.1652473658323288,-1.1015243530273438,-0.04273068904876709,1.2072044610977173
1.0742537240385737,-1.932770278089164,0.2479850203324335,-1.527132511138916,-3.9792113304138184,2.8813700675964355,-0.44551870226860046,-0.8792348504066467,0.16869929432868958,-1.1428906917572021,0.015755057334899902,1.2377185821533203
1.0513307817811817,-1.9311259805901602,0.19885404734136963,-1.3246853351593018,-4.28585958480835,3.0607128143310547,-0.4645366072654724,-0.8680846095085144,0.1750277578830719,-1.1053485870361328,0.04862666130065918,1.1947996616363525
1.0269042797023937,-1.9357460378172262,0.15301607249773622,-1.3061511516571045,-4.450954437255859,3.1295278072357178,-0.48339059948921204,-0.8557011485099792,0.1846863478422165,-1.0653917789459229,0.04312485456466675,1.0085052251815796
1.0020108920359239,-1.9401865762726067,0.10642869877677429,-1.5250800848007202,-4.301701068878174,3.2759954929351807,-0.5022785067558289,-0.8425557613372803,0.1944630891084671,-1.0594278573989868,0.02521878480911255,1.0768992900848389
0.9765833025740528,-1.9396315725321653,0.05524539605129694,-1.8673232793807983,-4.120668411254883,3.4722259044647217,-0.5222054719924927,-0.8285893201828003,0.20184484124183655,-1.0683705806732178,0.020514309406280518,1.1560349464416504
0.9504886884975418,-1.9351040699703101,-7.761500360140209e-05,-2.1327064037323,-4.047959804534912,3.637407064437866,-0.5431361794471741,-0.8136996626853943,0.20711353421211243,-1.1154636144638062,0.008691668510437012,1.1663148403167725
0.9235028047618108,-1.9296070424256933,-0.05770951605439146,-2.3153510093688965,-4.124931335449219,3.801410675048828,-0.5646260380744934,-0.7977188229560852,0.21176055073738098,-1.1619212627410889,-0.006572067737579346,1.1551828384399414
0.8953053033571561,-1.9257871232699648,-0.11590499935864076,-2.387495994567871,-4.27719783782959,3.946664571762085,-0.5862944722175598,-0.7804000377655029,0.21733622252941132,-1.2034852504730225,-0.028773784637451172,1.1372017860412598
0.8661793776943667,-1.9255193821570102,-0.1729126191360919,-2.3682734966278076,-4.424777507781982,3.993196725845337,-0.6074154376983643,-0.7618597149848938,0.22498071193695068,-1.2895114421844482,-0.1049157977104187,1.0905711650848389
0.8363135222142224,-1.9314515604433573,-0.2250301892031435,-1.939914584159851,-4.610224723815918,3.957622528076172,-0.6270866990089417,-0.7421774864196777,0.23650644719600677,-1.4317207336425781,-0.21538794040679932,1.039631962776184
0.8089055283410407,-1.9397857644956116,-0.27716140507533993,-2.8003668785095215,-4.466061592102051,3.7149062156677246,-0.6438291072845459,-0.7235320806503296,0.24896937608718872,-1.582702875137329,-0.34748244285583496,0.923424482345581
0.7858785378420252,-1.9373966099667252,-0.3377344287021826,-3.3646137714385986,-3.8029415607452393,3.5615346431732178,-0.6598036289215088,-0.7074463963508606,0.2533363103866577,-1.7326372861862183,-0.46513068675994873,1.3799645900726318
0.7665021429510426,-1.931634011116083,-0.40081983265882615,-3.650879144668579,-3.8790063858032227,3.2517266273498535,-0.673952579498291,-0.6936198472976685,0.2543224096298218,-1.831952691078186,-0.4979391098022461,1.2730060815811157
0.7500837023066482,-1.926864560345378,-0.4654123448803849,-4.021215915679932,-3.9747769832611084,3.1005914211273193,-0.6857402920722961,-0.6816999912261963,0.2550409734249115,-1.8621876239776611,-0.46920955181121826,1.0255837440490723
0.7363659387903448,-1.922173796670968,-0.5330536658351327,-4.3276824951171875,-4.211691856384277,2.8844845294952393,-0.6956437826156616,-0.671599805355072,0.2550162672996521,-1.7727398872375488,-0.5591893196105957,1.0271186828613281
0.7258279730644788,-1.91908071241516,-0.6016310935982163,-4.503638744354248,-4.25457763671875,2.5720152854919434,-0.7030431628227234,-0.663754940032959,0.2552647590637207,-1.8585872650146484,-0.5382105112075806,0.8686213493347168
0.7186302731233507,-1.916020668024959,-0.6695334386151536,-4.550282955169678,-4.06777811050415,2.2250540256500244,-0.7082980275154114,-0.6583542823791504,0.2547222971916199,-1.972533941268921,-0.5462660789489746,0.6590960025787354
0.7147521304577771,-1.9122977513671617,-0.7354969011098759,-4.521684169769287,-3.817790985107422,1.8349453210830688,-0.7116420865058899,-0.655430257320404,0.25293686985969543,-2.04583477973938,-0.5995594263076782,0.43357133865356445
0.7146072798352872,-1.9074470945077429,-0.7990650021761728,-4.50201416015625,-3.5042810440063477,1.3691504001617432,-0.7129500508308411,-0.6553208231925964,0.24951326847076416,-2.1262223720550537,-0.6490309834480286,0.23507532477378845
0.7188530077035709,-1.9005421688247484,-0.8604317156411208,-4.505036354064941,-3.155660390853882,0.8437426686286926,-0.7120171785354614,-0.6585219502449036,0.243681401014328,-2.1801795959472656,-0.6866776943206787,0.08223114907741547
0.7281123762984452,-1.8905645117693715,-0.920546989338535,-4.5959343910217285,-2.7715084552764893,0.2759931683540344,-0.7085942029953003,-0.6654618382453918,0.23463831841945648,-2.1908657550811768,-0.6919754147529602,-0.07033166289329529
0.7424211920878887,-1.8766141394602465,-0.9797680829968087,-4.595260143280029,-2.3678019046783447,-0.2933807969093323,-0.7026458382606506,-0.6760739088058472,0.2218409925699234,-2.1680665016174316,-0.6755193471908569,-0.20252317190170288
0.7611649168308224,-1.8597960450396114,-1.0366466553235996,-4.390173435211182,-2.0308237075805664,-0.8444844484329224,-0.6940070986747742,-0.6897653341293335,0.20634478330612183,-2.12093448638916,-0.6385275721549988,-0.3959505259990692
0.7833865840638676,-1.8425180516539814,-1.088789503171464,-3.9699995517730713,-1.7893258333206177,-1.3400126695632935,-0.6825322508811951,-0.7056829333305359,0.19016209244728088,-2.059685707092285,-0.5673426389694214,-0.621421217918396
0.8081476321269105,-1.8272306333362351,-1.1343413512400216,-3.4433536529541016,-1.6530976295471191,-1.7535802125930786,-0.6682487726211548,-0.7230087518692017,0.1752195954322815,-1.9484198093414307,-0.4998154044151306,-0.8119993209838867
0.8346925526901786,-1.8154238026931064,-1.172483241193877,-2.889286994934082,-1.5587756633758545,-2.075340747833252,-0.6514163017272949,-0.7410901188850403,0.16261102259159088,-1.774548053741455,-0.4304491877555847,-0.9357280731201172
0.8623727136946043,-1.8074021174075698,-1.2031963915200679,-2.3646724224090576,-1.4269860982894897,-2.3059446811676025,-0.6325103044509888,-0.7593884468078613,0.15251226723194122,-1.5966920852661133,-0.34566831588745117,-1.0110174417495728
0.8904932731450829,-1.8023214936171743,-1.2272264115114386,-1.9309643507003784,-1.2345376014709473,-2.4211106300354004,-0.6122449040412903,-0.7773821353912354,0.14433839917182922,-1.443648099899292,-0.267814576625824,-1.0531518459320068
0.9185739634126151,-1.7989046281878716,-1.2461252808999348,-1.6295790672302246,-1.0551472902297974,-2.501492977142334,-0.5912315845489502,-0.7947368621826172,0.13725371658802032,-1.3341071605682373,-0.18010133504867554,-1.039170265197754
0.9470458280976287,-1.7965333127110787,-1.2616338754905174,-1.4642270803451538,-0.9687716960906982,-2.6183812618255615,-0.5692651271820068,-0.811693549156189,0.13073235750198364,-1.2994329929351807,-0.08578264713287354,-0.9789683818817139
0.9765689881236188,-1.794291584134774,-1.275915385591139,-1.4539270401000977,-0.9140805006027222,-2.7600834369659424,-0.5459442138671875,-0.8285813331604004,0.12408894300460815,-1.3188629150390625,-0.020967066287994385,-0.8829847574234009
1.0076757206728517,-1.7901787026417209,-1.2914338478827596,-1.5749019384384155,-0.8554222583770752,-2.918935775756836,-0.5210328102111816,-0.8455933928489685,0.11617521196603775,-1.3143858909606934,0.02196967601776123,-0.7891488075256348
1.0406848358482468,-1.7817028854431893,-1.3110199503970943,-1.8278706073760986,-0.790851354598999,-3.0798096656799316,-0.49442556500434875,-0.8627507090568542,0.10585175454616547,-1.2921040058135986,0.04413193464279175,-0.7280899286270142
1.075889101267578,-1.7657288748938955,-1.3377503800772286,-2.150073289871216,-0.6516234278678894,-3.2658205032348633,-0.4659549295902252,-0.8800127506256104,0.09199801087379456,-1.2668484449386597,0.07155632972717285,-0.6776608228683472
1.1131388429391758,-1.7388228738256792,-1.374038157272093,-2.4462153911590576,-0.40973031520843506,-3.4314401149749756,-0.4356253147125244,-0.8970900177955627,0.07389333844184875,-1.224424123764038,0.10680675506591797,-0.6316630840301514
1.1515087609587267,-1.6987360485795229,-1.4215616533902142,-2.646653175354004,-0.1875840425491333,-3.52868390083313,-0.4037826657295227,-0.9133791923522949,0.05194356292486191,-1.1600754261016846,0.16405057907104492,-0.6221339702606201
1.189719814292166,-1.6445052727967013,-1.4814281637674198,-2.7317564487457275,0.003584928810596466,-3.571159839630127,-0.37090981006622314,-0.9282647967338562,0.02738898992538452,-1.1133126020431519,0.24593764543533325,-0.6561579704284668
1.226763999266576,-1.574896052029496,-1.5547311157993138,-2.7207489013671875,0.21366386115550995,-3.5995631217956543,-0.3372834622859955,-0.9414022564888,0.0013827772345393896,-1.0813415050506592,0.335124671459198,-0.7079563140869141
1.2620545610130312,-1.488708797624744,-1.6422385566230975,-2.578080654144287,0.4353605806827545,-3.6514885425567627,-0.302837073802948,-0.9527166485786438,-0.02491513453423977,-1.0434000492095947,0.4138677716255188,-0.7538171410560608
1.2952199845759507,-1.3868603251897151,-1.7432321930208103,-2.273024559020996,0.5725354552268982,-3.6389291286468506,-0.26751187443733215,-0.9622685313224792,-0.04976758360862732,-1.0038809776306152,0.4831424951553345,-0.8099126219749451
1.32585086069465,-1.2713320806979156,-1.8565573493737089,-1.906538486480713,0.6220982670783997,-3.687516927719116,-0.231710746884346,-0.9701505303382874,-0.07154053449630737,-0.9795471429824829,0.5137602090835571,-0.8815692067146301
1.3547599650531323,-1.138267883425022,-1.9862071381170645,-1.5555967092514038,0.7555024027824402,-3.7999913692474365,-0.1946193128824234,-0.9767547845840454,-0.08985278755426407,-1.0269840955734253,0.5834594964981079,-0.9129396080970764
1.381733049858164,-0.9765826782900126,-2.1422831087474954,-1.2736914157867432,1.0059726238250732,-3.9334399700164795,-0.1557241976261139,-0.9821807146072388,-0.1052190363407135,-1.0886605978012085,0.6445342302322388,-0.8879449963569641
1.4048170469180072,-0.7711633137689374,-2.3392606158252396,-1.1074241399765015,1.2839277982711792,-4.0181565284729,-0.11515235900878906,-0.986257016658783,-0.11847828328609467,-1.0975093841552734,0.6820577383041382,-0.8289399147033691
1.4207017964440847,-0.5120298134872845,-2.587316011721471,-1.03738534450531,1.5321643352508545,-4.072500705718994,-0.07326304912567139,-0.9887569546699524,-0.130355104804039,-1.0525304079055786,0.7086055278778076,-0.7424170970916748
1.4253018629319418,-0.21225517104238528,-2.8735481029141376,-1.092606782913208,1.7842756509780884,-4.071889400482178,-0.030542848631739616,-0.9894343614578247,-0.14172936975955963,-0.9985098838806152,0.7655571699142456,-0.6588840484619141
1.4166095964061474,0.08120217111931616,3.1323687742629924,-1.1521075963974,2.047879219055176,-4.02010440826416,0.012457122094929218,-0.9881367683410645,-0.15307140350341797,-0.9447996616363525,0.8254932761192322,-0.563847541809082
1.3971228564785403,0.3264976345270079,2.905742320887418,-1.1271271705627441,2.2633941173553467,-3.971801996231079,0.05542244389653206,-0.9849566221237183,-0.1636733114719391,-0.9106622934341431,0.8782060742378235,-0.5229111909866333
1.3709676805532403,0.519066948618194,2.7339012877480546,-0.9948865175247192,2.4594290256500244,-3.9589011669158936,0.09847080707550049,-0.9801006317138672,-0.17235557734966278,-0.890173077583313,0.9234141707420349,-0.5250321626663208
1.3411825778587179,0.6723436202758989,2.6032847126090686,-0.7907872200012207,2.64843487739563,-3.947316884994507,0.1417548954486847,-0.9737544059753418,-0.17806705832481384,-0.8599708080291748,0.9594111442565918,-0.5287200212478638
1.309833163404445,0.7979434302615617,2.5019671969286477,-0.5521461367607117,2.7875373363494873,-3.866576910018921,0.18471592664718628,-0.966141939163208,-0.180138498544693,-0.7931906580924988,0.9689800143241882,-0.5117254853248596
1.2781191162380878,0.9033300663408987,2.422099230179279,-0.35655689239501953,2.901801347732544,-3.748264789581299,0.2265986055135727,-0.9574748873710632,-0.1785910576581955,-0.7168482542037964,0.9681409001350403,-0.4738137423992157
1.2462291363339584,0.9927229335956951,2.359221318896019,-0.27184125781059265,2.965622663497925,-3.636075973510742,0.2670832574367523,-0.9477888345718384,-0.1742500215768814,-0.6798334717750549,0.9807172417640686,-0.4056602716445923
1.2140443153400255,1.0679779203877007,2.3110029848354974,-0.28319910168647766,2.973184823989868,-3.5156636238098145,0.30600762367248535,-0.9370360970497131,-0.16829431056976318,-0.6465837955474854,0.9983763694763184,-0.3004251718521118
1.181732900842005,1.1309756574989789,2.275516314813912,-0.3476818799972534,3.002204656600952,-3.387650966644287,0.34322136640548706,-0.9252647161483765,-0.1615067571401596,-0.6220451593399048,0.9957450032234192,-0.2154158353805542
1.1496822398578859,1.1844721529342248,2.250516947859721,-0.4166058301925659,3.0898478031158447,-3.2538259029388428,0.3786506652832031,-0.9126340746879578,-0.15402163565158844,-0.6077156066894531,0.982961893081665,-0.19242917001247406
1.1181844440855786,1.2316868181070761,2.233643130656924,-0.47753551602363586,3.2890231609344482,-3.1186716556549072,0.41241127252578735,-0.8993079662322998,-0.14547200500965118,-0.5957151651382446,0.9749305844306946,-0.20680765807628632
1.0877130316074242,1.2755482981389787,2.2231220929500615,-0.5210952758789062,3.5834157466888428,-2.9429397583007812,0.4444124698638916,-0.8855668902397156,-0.135162353515625,-0.5605928897857666,0.9461748003959656,-0.2214660495519638
1.0588568431665006,1.3173928606409293,2.2179978842805737,-0.5697682499885559,3.8495845794677734,-2.7265026569366455,0.4742250442504883,-0.8717960715293884,-0.12281027436256409,-0.5142030715942383,0.9102939367294312,-0.21892553567886353
1.031933821763604,1.3576082012810042,2.217442337206765,-0.6154177188873291,4.069417953491211,-2.5111587047576904,0.5015429854393005,-0.8582929372787476,-0.10857285559177399,-0.48689448833465576,0.8873456716537476,-0.19796091318130493
1.0070487082491253,1.3968847617781959,2.220463409426288,-0.651953935623169,4.268354415893555,-2.3052916526794434,0.5262974500656128,-0.8452584743499756,-0.09246328473091125,-0.47525662183761597,0.857282280921936,-0.16730231046676636
0.9839308456683361,1.4354722134526017,2.2263619445154745,-0.695439338684082,4.397716999053955,-2.1592962741851807,0.5486912727355957,-0.8326805233955383,-0.0747077465057373,-0.47007787227630615,0.8309714794158936,-0.1419975757598877
0.9619542886656396,1.4731665806054253,2.234637874745687,-0.7371927499771118,4.476772785186768,-2.091797351837158,0.5691944360733032,-0.8203108310699463,-0.055747538805007935,-0.4988514184951782,0.8210585713386536,-0.12055247277021408
0.940520449726436,1.5103411349988822,2.244711527539931,-0.758924126625061,4.574392795562744,-2.085280656814575,0.5882909297943115,-0.8078649640083313,-0.03560863062739372,-0.5460850596427917,0.8290442228317261,-0.10526049137115479
0.9192093664531273,1.547993551852139,2.2559082913340065,-0.7474322319030762,4.726127624511719,-2.1075921058654785,0.6062915921211243,-0.7951223850250244,-0.01382752787321806,-0.567885160446167,0.8358175158500671,-0.10635066032409668
0.8980216211870834,1.58708646618848,2.2678288747607653,-0.726608157157898,4.948490619659424,-2.1044232845306396,0.6230757236480713,-0.7820956110954285,0.010150888003408909,-0.5617659091949463,0.8470523357391357,-0.12195205688476562
0.8774917830321733,1.6283085266167323,2.2805908237915897,-0.7314972877502441,5.251671314239502,-2.0435140132904053,0.6380255222320557,-0.7691383361816406,0.03673476353287697,-0.5376837849617004,0.8777351975440979,-0.1252204179763794
0.858204701842978,1.6717636568317675,2.2947398908894443,-0.7863341569900513,5.555200099945068,-1.9255268573760986,0.6504671573638916,-0.7566699981689453,0.06590002030134201,-0.4929354190826416,0.9137593507766724,-0.10319246351718903
0.8409658410503846,1.7167045552421896,2.3105402750532935,-0.8541618585586548,5.747951507568359,-1.7366958856582642,0.6596587300300598,-0.7452874183654785,0.09693853557109833,-0.4374297857284546,0.9420647621154785,-0.05670107156038284
0.8263612139125268,1.7619210702615882,2.327431337291712,-0.8817604780197144,5.730301856994629,-1.5145025253295898,0.6652190089225769,-0.7354707717895508,0.12871086597442627,-0.37994062900543213,0.9667940139770508,-0.01282036304473877
0.8145323511756957,1.8058957949299415,2.344428570971771,-0.8741704821586609,5.49487829208374,-1.2798492908477783,0.6673316955566406,-0.727404773235321,0.15984521806240082,-0.3334847092628479,0.9644806385040283,0.009451121091842651
0.8054008989999023,1.8473658966457605,2.3608822334875366,-0.8484605550765991,5.147060394287109,-1.0576603412628174,0.6664934754371643,-0.7211084365844727,0.18918010592460632,-0.31393909454345703,0.9532861709594727,0.01833939552307129
0.7986587442306691,1.8861761815025857,2.3765022733663415,-0.8255610466003418,4.852825164794922,-0.8694029450416565,0.6632583141326904,-0.7164210081100464,0.2164010852575302,-0.33052510023117065,0.9576166868209839,0.008040428161621094
0.7938210086728823,1.9239665321650605,2.391190670396432,-0.7604960203170776,4.8290629386901855,-0.7279853820800781,0.6578532457351685,-0.7130374908447266,0.24250134825706482,-0.3786631226539612,0.9706668853759766,-0.029122352600097656
0.7899756058164903,1.9642891830327167,2.404027105082181,-0.604557991027832,5.0613884925842285,-0.6534582376480103,0.6500705480575562,-0.7103360891342163,0.269872784614563,-0.4119417667388916,0.9765103459358215,-0.09938618540763855
0.7860318856443129,2.0093884141650746,2.414037431146044,-0.3493365943431854,5.345639228820801,-0.6398146152496338,0.6397737264633179,-0.7075547575950623,0.3000933527946472,-0.4139588475227356,0.9784746170043945,-0.15540936589241028
0.781093904023797,2.0594210489764424,2.4204940849665717,-0.023123735561966896,5.5118327140808105,-0.6391278505325317,0.6270424127578735,-0.7040566802024841,0.3333500921726227,-0.37632519006729126,0.9897775053977966,-0.15842321515083313
0.775181510780325,2.1126723314248674,2.423096401690392,0.27509093284606934,5.432736396789551,-0.5500491261482239,0.611966073513031,-0.6998457312583923,0.3683929145336151,-0.3284730911254883,1.024857997894287,-0.11882013082504272
0.7693200903519686,2.1663756988131864,2.4220636279891274,0.4592187702655792,5.100491046905518,-0.34466680884361267,0.5946953296661377,-0.6956469416618347,0.4030052125453949,-0.27079683542251587,1.0615679025650024,-0.03648895025253296
0.7646742456849355,2.217483536314046,2.4186307041339665,0.44974058866500854,4.605777263641357,-0.12187527120113373,0.5759040713310242,-0.6923019886016846,0.43480193614959717,-0.20314699411392212,1.082209825515747,0.07667279243469238
0.7624117372256785,2.263694312781094,2.4150018069191725,0.20891505479812622,4.116971492767334,0.09290014952421188,0.5564075112342834,-0.6906675696372986,0.46194055676460266,-0.15606266260147095,1.0891509056091309,0.18120214343070984
0.764094484946948,2.3045671589678887,2.413000493225415,-0.23127058148384094,3.7829010486602783,0.35371124744415283,0.5362033843994141,-0.6918835043907166,0.48351141810417175,-0.11380958557128906,1.0969738960266113,0.257455438375473
0.7713634047854265,2.3417776882061587,2.4131658323186564,-0.7838289737701416,3.691810131072998,0.6951249837875366,0.5142239332199097,-0.6971133947372437,0.49960675835609436,-0.07522851228713989,1.1168369054794312,0.2826962471008301
0.7851123921693869,2.3786258936370923,2.414646977749146,-1.2979422807693481,3.894611120223999,1.0850797891616821,0.4887990355491638,-0.7069047093391418,0.5112349390983582,-0.028380364179611206,1.1384233236312866,0.22123277187347412
0.8045817079522429,2.4191207985576435,2.4155771373371406,-1.6223596334457397,4.332125663757324,1.4402318000793457,0.4585131108760834,-0.7205406427383423,0.5201800465583801,0.008589088916778564,1.1432852745056152,0.09970837831497192
0.8279268525294639,2.4665977717845964,2.413393110933767,-1.7237073183059692,4.793211460113525,1.7870699167251587,0.42268043756484985,-0.7365306615829468,0.5280755758285522,0.03764677047729492,1.1381421089172363,-0.04254084825515747
0.8534162341623033,2.522092716561841,2.404827087317708,-1.6253838539123535,4.950240612030029,2.199517011642456,0.381712406873703,-0.7535306811332703,0.5352451801300049,0.09321749210357666,1.155584454536438,-0.13908123970031738
0.8796466886328701,2.584960010546296,2.3861608856850274,-1.3743700981140137,4.676600456237793,2.7170448303222656,0.33677005767822266,-0.7705137133598328,0.5411974191665649,0.13141542673110962,1.1782896518707275,-0.1733994483947754
0.9050964028147632,2.6533359785265187,2.354248904770802,-1.02721107006073,3.956519365310669,3.272312641143799,0.2897128164768219,-0.7864847183227539,0.5454434752464294,0.12688276171684265,1.2011574506759644,-0.1612117886543274
0.927980378999755,2.7255669663907187,2.308213673359629,-0.6382875442504883,3.1738555431365967,3.723139524459839,0.2422555536031723,-0.8004109263420105,0.5483201146125793,0.010506391525268555,1.2147327661514282,-0.11957859992980957
0.9466326274573323,2.801490526705713,2.2501709919712622,-0.302375853061676,2.682094097137451,3.9968349933624268,0.1949526071548462,-0.8114521503448486,0.5509442687034607,-0.22826240956783295,1.211247444152832,-0.07836401462554932
0.9605852581607287,2.8820964387556676,2.1835948432855203,-0.10832036286592484,2.6120221614837646,4.156586170196533,0.14703857898712158,-0.8195270895957947,0.5538548231124878,-0.4961748719215393,1.181541919708252,-0.04584389925003052
0.9706235748860103,2.9694106367778748,2.1112521071363957,-0.11207042634487152,2.985840082168579,4.286592960357666,0.09676600992679596,-0.825238049030304,0.5564335584640503,-0.6948647499084473,1.1284761428833008,-0.019583582878112793
0.9780714537072965,3.0661753017037268,2.034350267627986,-0.3173457980155945,3.6236634254455566,4.446369171142578,0.04208996519446373,-0.8294215798377991,0.5570353865623474,-0.8299317359924316,1.0585474967956543,0.023653149604797363
0.9839097582579092,-3.110215049425457,1.952663203285486,-0.6481040716171265,4.078368663787842,4.6254987716674805,-0.01737317070364952,-0.8326688408851624,0.5534989237785339,-0.8709019422531128,0.9621548652648926,0.11134195327758789
0.9878214365901906,-2.997233220922576,1.8665981524619124,-0.9504269361495972,4.084324359893799,4.720859527587891,-0.07919561862945557,-0.8348286151885986,0.5447840690612793,-0.8968480229377747,0.8187609910964966,0.21086186170578003
0.988715596493076,-2.8846548707238844,1.7790879455692483,-1.1179945468902588,3.7736551761627197,4.608710765838623,-0.13970601558685303,-0.8353205323219299,0.531716525554657,-1.013827919960022,0.6512688398361206,0.2948370575904846
0.986214872746079,-2.7783014938133377,1.6956346474838522,-1.2104272842407227,3.5699617862701416,4.246956825256348,-0.19610144197940826,-0.8339431285858154,0.5158324837684631,-1.2251631021499634,0.49602198600769043,0.36040347814559937
0.9822160910093684,-2.679739454100217,1.6200219352197924,-1.432284951210022,3.538203477859497,3.699798583984375,-0.247392937541008,-0.8317297697067261,0.49701347947120667,-1.3813148736953735,0.3228949308395386,0.4039265513420105
0.9799815177338516,-2.5872442738971366,1.5517759607423025,-1.88589346408844,3.6089699268341064,3.1263415813446045,-0.2932189106941223,-0.830487072467804,0.4736180603504181,-1.4884735345840454,0.16772156953811646,0.49484214186668396
0.9827358627606472,-2.495716538048908,1.486140361219512,-2.7176334857940674,3.7900583744049072,2.5746145248413086,-0.33390218019485474,-0.8320181965827942,0.4430070221424103,-1.537054181098938,0.06321930885314941,0.6336836814880371
0.9922105789627412,-2.397420444386086,1.4157403720972064,-3.659917116165161,4.074677467346191,2.156525135040283,-0.3704098165035248,-0.8372368812561035,0.40228286385536194,-1.5234196186065674,-0.0061623454093933105,0.8143616318702698
1.006269484066383,-2.2906976532345853,1.3375388391781524,-4.267559051513672,4.043917179107666,1.7260124683380127,-0.40226316452026367,-0.8448418378829956,0.35274189710617065,-1.4298291206359863,-0.04782789945602417,0.8828387260437012
1.0212827557967639,-2.1795080565769687,1.2529814703170883,-4.582029342651367,3.8033359050750732,1.4339371919631958,-0.4284648895263672,-0.8527786731719971,0.2986413240432739,-1.3545856475830078,-0.09587562084197998,0.7401924133300781
1.035114273836751,-2.063351742194968,1.1609070424788064,-4.946159362792969,3.656459331512451,1.1542906761169434,-0.4497517943382263,-0.8599206805229187,0.2413705736398697,-1.2640390396118164,-0.20770621299743652,0.590111494064331
1.0482497424980306,-1.9389306426987647,1.0595489990541478,-5.426544666290283,3.7211360931396484,0.7006233334541321,-0.4656498432159424,-0.8665510416030884,0.17960968613624573,-1.2172877788543701,-0.2724565267562866,0.5787370204925537
1.0610599990148026,-1.801970043275032,0.945589009496015,-6.0492024421691895,3.8138158321380615,0.16960538923740387,-0.47496703267097473,-0.8728731870651245,0.11179858446121216,-1.2661828994750977,-0.29085367918014526,0.6118648052215576
1.0717414164188719,-1.6485836618425243,0.8143081441372964,-6.768674373626709,3.826969861984253,-0.3126262426376343,-0.47714871168136597,-0.8780352473258972,0.03719117119908333,-1.2658169269561768,-0.3228009343147278,0.6529486179351807
1.0760841833843036,-1.478438973504229,0.6643026507680831,-7.450991153717041,3.7971973419189453,-0.6313086152076721,-0.4727550446987152,-0.8801054358482361,-0.04378697648644447,-1.1574634313583374,-0.31806057691574097,0.6592351198196411
1.0688937261415055,-1.2980320835440506,0.5024704081651391,-7.92265510559082,3.7997984886169434,-0.7377357482910156,-0.4633084535598755,-0.8766688108444214,-0.12960423529148102,-0.975458025932312,-0.2687017321586609,0.5612297058105469
1.0472548781449948,-1.1215316155590989,0.34331195046308177,-8.106491088867188,3.7026710510253906,-0.7400240898132324,-0.45033878087997437,-0.8660540580749512,-0.21713018417358398,-0.7889495491981506,-0.2248426079750061,0.31841814517974854
1.0131538302151093,-0.9622493372362427,0.1998932384773768,-7.971946716308594,3.5081303119659424,-0.8513615131378174,-0.43418750166893005,-0.8485050201416016,-0.30252373218536377,-0.6919874548912048,-0.22606486082077026,0.029925554990768433
0.9719128682375241,-0.8251605382627363,0.07692077163574997,-7.576123237609863,3.27862811088562,-1.1654046773910522,-0.4141411781311035,-0.8259655237197876,-0.382450133562088,-0.725247859954834,-0.23529857397079468,-0.24598300457000732
0.9287207908054759,-0.7089196121015165,-0.02734883230096619,-6.985682964324951,2.959712266921997,-1.5713247060775757,-0.3898656964302063,-0.800854504108429,-0.454573392868042,-0.7741357684135437,-0.24818730354309082,-0.47161978483200073
0.8866867016869238,-0.6109472680347432,-0.11633522851368816,-6.318418025970459,2.5932490825653076,-1.8912204504013062,-0.3625331521034241,-0.7749820351600647,-0.5176606178283691,-0.7582553625106812,-0.2434048056602478,-0.6226133108139038
0.8471547898859523,-0.5292413126436947,-0.19257960419727924,-5.618454933166504,2.098597526550293,-2.1214101314544678,-0.3342892825603485,-0.7493996024131775,-0.5715339779853821,-0.6462710499763489,-0.20216906070709229,-0.7233878374099731
0.8099362736319434,-0.46269391395593035,-0.2573234775966238,-5.062844276428223,1.6595878601074219,-1.9960026741027832,-0.3077854514122009,-0.7242432236671448,-0.6170413494110107,-0.5110011696815491,-0.115020751953125,-0.8062068819999695
0.7749658616087552,-0.41039547267527576,-0.31065215756502096,-4.387087821960449,1.185937762260437,-1.8273208141326904,-0.28504350781440735,-0.6996917128562927,-0.6551196575164795,-0.28418558835983276,-0.08898943662643433,-0.8597576022148132
0.7445453088766775,-0.37099787524097144,-0.3540075734414261,-3.600404739379883,0.7268503904342651,-1.6655223369598389,-0.2666146457195282,-0.67763751745224,-0.6853642463684082,-0.18193268775939941,-0.08527153730392456,-0.9799646735191345
0.7198750447764315,-0.3417601927627095,-0.3895855316478673,-2.8590545654296875,0.3755706548690796,-1.5749212503433228,-0.2519923150539398,-0.6592907309532166,-0.7084036469459534,-0.1527470350265503,-0.09930002689361572,-1.0971688032150269
0.7007992843620277,-0.3195769130478043,-0.42004397200038346,-2.2482247352600098,0.09657125920057297,-1.5496302843093872,-0.24012474715709686,-0.6448287963867188,-0.7256279587745667,-0.14424413442611694,-0.12140661478042603,-1.120212435722351
0.6867187205764942,-0.30199297859033575,-0.4477675779044281,-1.7086511850357056,-0.10794460028409958,-1.6494135856628418,-0.23000673949718475,-0.6340031027793884,-0.7383339405059814,-0.13623467087745667,-0.14102137088775635,-1.0956809520721436
0.6773171100813391,-0.2871245209029987,-0.4738362485401825,-1.287606954574585,-0.1793430894613266,-1.657942771911621,-0.22068215906620026,-0.6267046332359314,-0.7473558187484741,-0.15183062851428986,-0.15036457777023315,-1.0928845405578613
0.670568602673585,-0.27378597974482444,-0.49799593801983477,-1.0732959508895874,-0.1391914039850235,-1.5856128931045532,-0.2118329107761383,-0.6214315891265869,-0.7542875409126282,-0.0829363614320755,-0.17899882793426514,-1.0653382539749146
0.6647500278604053,-0.26072269897513195,-0.5203141721758293,-0.9758229851722717,0.013964959420263767,-1.4936997890472412,-0.2028902918100357,-0.616862416267395,-0.7604711055755615,0.014474794268608093,-0.18225568532943726,-0.9675256609916687
0.6594774968413315,-0.24726086034300515,-0.5411175215514766,-0.8580236434936523,0.1063460260629654,-1.411880612373352,-0.19342823326587677,-0.6127039790153503,-0.7662762999534607,0.06621573865413666,-0.18191277980804443,-0.899327278137207
0.6551822824153463,-0.23454715380953012,-0.5604230875857704,-0.69184410572052,0.06178225576877594,-1.3434849977493286,-0.18428055942058563,-0.6093037724494934,-0.7712260484695435,0.08963032066822052,-0.19349169731140137,-0.8574055433273315
0.6524141849895829,-0.22391109771980733,-0.5782356158047031,-0.4821210205554962,-0.11243215948343277,-1.278079628944397,-0.17644132673740387,-0.6071065068244934,-0.7747839689254761,0.10191743075847626,-0.1835123896598816,-0.8088036179542542
0.6515881177192732,-0.21597525768807815,-0.5947116491595531,-0.2493986040353775,-0.2909122109413147,-1.2373746633529663,-0.1703946888446808,-0.6064499020576477,-0.7766493558883667,0.12135295569896698,-0.16971898078918457,-0.7595292329788208
0.6528652285883478,-0.2100658964528206,-0.6103199252735741,-0.028931744396686554,-0.41096457839012146,-1.2379413843154907,-0.16564060747623444,-0.6074649095535278,-0.7768846154212952,0.13602332770824432,-0.18091106414794922,-0.7216047048568726
0.6559175932088093,-0.2050630989367301,-0.6255788562190316,0.10993847995996475,-0.4315788447856903,-1.246817708015442,-0.16137363016605377,-0.6098867058753967,-0.7758845686912537,0.12949804961681366,-0.18953663110733032,-0.6955051422119141
0.6597481838660983,-0.20075173844761482,-0.6404600753662533,0.15863172709941864,-0.5065098404884338,-1.1979254484176636,-0.15755999088287354,-0.6129179000854492,-0.7742780447006226,0.1452462077140808,-0.16628748178482056,-0.6011033058166504
0.6636790407855864,-0.1959409326728462,-0.6544863327269784,0.1634579300880432,-0.2335069179534912,-1.1290867328643799,-0.15336303412914276,-0.6160191297531128,-0.7726579308509827,0.16694338619709015,-0.13720059394836426,-0.5957196950912476
0.667194421492467,-0.18864199083278646,-0.6682661384421806,0.1144898533821106,0.001395336352288723,-1.1223493814468384,-0.14731241762638092,-0.618784487247467,-0.7716248631477356,0.1501200795173645,-0.10271215438842773,-0.5620390176773071
0.6702911670457741,-0.17807501857691507,-0.68198416764612,0.11279919743537903,0.43101122975349426,-1.0844203233718872,-0.13881050050258636,-0.6212142109870911,-0.7712486982345581,0.10287608206272125,-0.07281661033630371,-0.5406866669654846
0.6728919256322136,-0.16363619327313889,-0.6948243607363728,0.04425821453332901,0.8318617343902588,-0.9864364862442017,-0.12739688158035278,-0.6232501268386841,-0.771575927734375,0.08464176952838898,-0.04151433706283569,-0.5556488037109375
0.6743986509353559,-0.14650276137699025,-0.7070588850119159,-0.022339317947626114,1.037699818611145,-0.9454725384712219,-0.11402186751365662,-0.6244277358055115,-0.7727154493331909,0.1176535040140152,-0.006614804267883301,-0.4777270555496216
0.6757802305372416,-0.12877926633583794,-0.7187158379226816,0.06199899688363075,1.0110639333724976,-0.8836280703544617,-0.10019856691360474,-0.6255062818527222,-0.7737585306167603,0.12725242972373962,0.004717588424682617,-0.38319337368011475
0.678291808417826,-0.11300110582850773,-0.7291933780872248,0.2478605955839157,0.8167653679847717,-0.7918384671211243,-0.08780068904161453,-0.6274638772010803,-0.7736796140670776,0.15347453951835632,0.013068675994873047,-0.3711262345314026
0.6826544946919821,-0.0999004948176365,-0.738467016697607,0.46742013096809387,0.6376291513442993,-0.7274813055992126,-0.07738400995731354,-0.6308548450469971,-0.7720323204994202,0.1705542355775833,0.044871509075164795,-0.35014480352401733
0.6890331433630495,-0.08937207636395723,-0.7464100112123444,0.6635038256645203,0.44568488001823425,-0.6291706562042236,-0.06889103353023529,-0.6357911825180054,-0.768780529499054,0.16505195200443268,0.0632050633430481,-0.30494987964630127
0.6968584752801412,-0.0815186623718629,-0.7536274918857085,0.7954680323600769,0.2093929797410965,-0.6102930903434753,-0.06244437396526337,-0.641811728477478,-0.764315664768219,0.17104122042655945,0.06667739152908325,-0.24427497386932373
0.7060522138738831,-0.07579998208625569,-0.7606890491294973,0.9564685225486755,0.025424981489777565,-0.6078853011131287,-0.057623207569122314,-0.6488348245620728,-0.7587442994117737,0.1365722119808197,0.06681877374649048,-0.19267165660858154
0.7171476922553472,-0.07166251064228707,-0.7678428589180425,1.1759963035583496,-0.12384120374917984,-0.6358456015586853,-0.053964629769325256,-0.6572375893592834,-0.7517489790916443,0.12377363443374634,0.06595945358276367,-0.19374656677246094
0.7308573731859953,-0.06832451870376628,-0.7756751519777094,1.4791449308395386,-0.2379356324672699,-0.7218380570411682,-0.050835028290748596,-0.6675083041191101,-0.7428650856018066,0.09528392553329468,0.08379846811294556,-0.20700973272323608
0.7481625373514315,-0.06537854852085882,-0.7844428116247442,1.891935110092163,-0.3639553487300873,-0.7867816090583801,-0.04788443446159363,-0.6802931427955627,-0.7313742637634277,0.054338932037353516,0.10203075408935547,-0.2320351004600525
0.7701166075053978,-0.06410375757297175,-0.7931860658344652,2.3907570838928223,-0.5977287888526917,-0.741378903388977,-0.04598405957221985,-0.6962189674377441,-0.7163550853729248,0.060113731771707535,0.13611453771591187,-0.26628029346466064
0.7960899779607907,-0.06681638929005398,-0.8000214721792289,2.6552159786224365,-0.8929476737976074,-0.5441933870315552,-0.04670371860265732,-0.7146264910697937,-0.6979454755783081,0.1139492392539978,0.18772512674331665,-0.2781287431716919
0.8219257058584185,-0.07357880040483193,-0.8035286676848952,2.386671304702759,-0.8993085622787476,-0.3056055009365082,-0.05004814267158508,-0.732458233833313,-0.6789699196815491,0.17661985754966736,0.21095848083496094,-0.16433751583099365
0.8432388911734293,-0.07975202207430113,-0.8045013961985451,1.822295069694519,-0.42983534932136536,-0.1647532880306244,-0.05298268422484398,-0.7468010783195496,-0.6629337668418884,0.16977348923683167,0.1842551827430725,0.06669658422470093
0.8585152776355178,-0.08103902159282442,-0.804590780899975,1.21601140499115,0.14392797648906708,-0.10072031617164612,-0.05290606990456581,-0.7568730115890503,-0.651417076587677,0.0999336838722229,0.14047890901565552,0.21138417720794678
0.8671420285268823,-0.07720931218609374,-0.8049542092512652,0.5002453923225403,0.5584961175918579,-0.10328840464353561,-0.0499054491519928,-0.7624829411506653,-0.6450807452201843,0.04996654763817787,0.10508853197097778,0.24719268083572388
0.8687961694524425,-0.06774388851419443,-0.8073709922412718,-0.17281198501586914,0.9718849062919617,-0.22409698367118835,-0.04371190443634987,-0.7635521292686462,-0.6442649960517883,-0.0077559612691402435,0.04873889684677124,0.2784814238548279
0.8656083792492654,-0.052070840033395495,-0.8121810748570759,-0.4397507309913635,1.3982455730438232,-0.38281339406967163,-0.03373587131500244,-0.761489748954773,-0.6472985148429871,-0.09105047583580017,-0.005722224712371826,0.25267577171325684
0.8619888020604222,-0.030891836493917173,-0.8207944023667932,-0.2843177914619446,1.467316746711731,-0.7095733880996704,-0.02010519616305828,-0.7591386437416077,-0.6506184935569763,-0.11456882953643799,0.0008987784385681152,0.0905141830444336
0.8612044664785834,-0.007071147167713026,-0.8337160314604669,0.11595343053340912,1.3271024227142334,-0.945993959903717,-0.004606985952705145,-0.7586278319358826,-0.6515079736709595,-0.14810293912887573,0.011282801628112793,-0.07714486122131348
0.8643436825429002,0.017602541459028502,-0.8491964256395093,0.49892666935920715,1.2677868604660034,-1.041813611984253,0.01142591517418623,-0.7606694102287292,-0.6490389108657837,-0.11181342601776123,0.004596352577209473,-0.15473294258117676
0.8699989814912544,0.04324857683580033,-0.8657585549914802,0.6664800047874451,1.3385145664215088,-1.0483615398406982,0.027879171073436737,-0.7643283009529114,-0.6442244052886963,-0.036103636026382446,0.009674310684204102,-0.09468245506286621
0.8761739589957009,0.06975162715615642,-0.8821752660455429,0.6648461222648621,1.431196928024292,-0.975027322769165,0.04461149871349335,-0.7682954668998718,-0.6385388374328613,0.034383296966552734,0.04734814167022705,0.049473345279693604
0.8816132385254637,0.09581763113233616,-0.8972823934104407,0.5687965750694275,1.4326345920562744,-0.8420839309692383,0.06083790585398674,-0.7717657685279846,-0.6329900622367859,0.10690203309059143,0.06815236806869507,0.15508484840393066
0.8857757703181041,0.11987865801996772,-0.9101193672891356,0.4236691892147064,1.3864853382110596,-0.6813039779663086,0.07566436380147934,-0.7744060158729553,-0.6281481981277466,0.18294164538383484,0.06030994653701782,0.21402478218078613
0.8884247101827342,0.14131059782995287,-0.9200270701886,0.261902391910553,1.3549904823303223,-0.4845815598964691,0.08881916850805283,-0.7760792970657349,-0.6243493556976318,0.23721542954444885,0.05835157632827759,0.2467859387397766
0.8897062594972235,0.1595720436567244,-0.9264844331429204,0.11398119479417801,1.2724940776824951,-0.2823948562145233,0.10004714876413345,-0.7768868207931519,-0.6216410398483276,0.2643328011035919,0.07400590181350708,0.27007853984832764
0.8899343177311554,0.17401955321440604,-0.9297608422466394,0.00971577875316143,1.088975429534912,-0.11995881050825119,0.10898686200380325,-0.7770304083824158,-0.6199561357498169,0.2716894745826721,0.07784205675125122,0.27930378913879395
0.8898470463659162,0.1845828739791955,-0.930680169530814,0.008583358488976955,0.8796617984771729,-0.0054581197910010815,0.11554191261529922,-0.7769754528999329,-0.6188370585441589,0.25550609827041626,0.062467336654663086,0.2504441738128662
0.8903825258562743,0.19227854876366224,-0.9304487186975177,0.10318788886070251,0.6944884657859802,0.04356241971254349,0.12022127956151962,-0.7773124575614929,-0.6175210475921631,0.22270478308200836,0.06387245655059814,0.18380528688430786
0.8923167458510421,0.19834177456070304,-0.9304770136723084,0.2821677029132843,0.5096738934516907,0.020672287791967392,0.12366674095392227,-0.7785278558731079,-0.6153056621551514,0.1714687943458557,0.07599788904190063,0.12111926078796387
0.8960780460246472,0.20367791636545124,-0.9317823947165695,0.48666173219680786,0.3588601350784302,-0.03388256952166557,0.1263550966978073,-0.7808829545974731,-0.6117647886276245,0.12855826318264008,0.08232033252716064,0.07302284240722656
0.9017557505841153,0.2090665716006761,-0.9347176492492788,0.6916928887367249,0.26366177201271057,-0.09039664268493652,0.12872757017612457,-0.7844170928001404,-0.6067281365394592,0.10747852921485901,0.0846337080001831,0.040199875831604004
0.9091184405043524,0.21483847746313262,-0.939127837188242,0.8503097295761108,0.1970324069261551,-0.12722310423851013,0.1309925615787506,-0.7889623641967773,-0.600316047668457,0.10182608664035797,0.09863942861557007,0.03667175769805908
0.9176261957535106,0.2206915799238226,-0.9444285109509106,0.9345878958702087,0.1343679577112198,-0.13317206501960754,0.1330297887325287,-0.7941612601280212,-0.5929678678512573,0.11164490878582001,0.11769336462020874,0.059444427490234375
0.9264707029251966,0.22609534537036963,-0.949962940998212,0.9200118780136108,0.06517237424850464,-0.12509523332118988,0.13465218245983124,-0.7995049953460693,-0.5853720903396606,0.13098812103271484,0.12361693382263184,0.0923912525177002
0.9347201917796956,0.23071576123829796,-0.9552117662086099,0.8115049004554749,0.025189436972141266,-0.11280994117259979,0.13584256172180176,-0.8044328689575195,-0.5783032774925232,0.14682656526565552,0.11977094411849976,0.13231945037841797
0.9415766273509986,0.23447350745807688,-0.9596759412039656,0.6315281987190247,0.012798015028238297,-0.08243046700954437,0.13673005998134613,-0.8084869980812073,-0.5724105834960938,0.14754125475883484,0.11782824993133545,0.17101287841796875
0.9466239228202648,0.23730567650950735,-0.962805734018602,0.4298694431781769,0.052283287048339844,-0.040355246514081955,0.13738957047462463,-0.8114470839500427,-0.568047285079956,0.13333192467689514,0.11065661907196045,0.1943444013595581
0.9498406696703916,0.2395203777645921,-0.9646176261867253,0.24751880764961243,0.09704330563545227,-0.01451779343187809,0.1380273401737213,-0.8133228421211243,-0.565203070640564,0.12201298773288727,0.09359616041183472,0.18179553747177124
0.951605174367383,0.24151132459116068,-0.9654833530983679,0.12289061397314072,0.16782045364379883,0.000779076712206006,0.13880890607833862,-0.8143481612205505,-0.563532829284668,0.10116611421108246,0.08194148540496826,0.13891130685806274
0.9525201756668757,0.24400246836507652,-0.9657329624230151,0.0703032985329628,0.29582664370536804,0.01273720245808363,0.14003223180770874,-0.8148788809776306,-0.5624619126319885,0.08285294473171234,0.08202970027923584,0.0793534517288208
0.9532381768000255,0.24781042754498145,-0.9658428026663527,0.07857499271631241,0.44742661714553833,0.012027266435325146,0.1420295238494873,-0.8152948021888733,-0.5613573789596558,0.05354243516921997,0.08815240859985352,0.020235002040863037
0.9543113379343137,0.25300039530931745,-0.9659932325670393,0.13653816282749176,0.5508967638015747,0.028423815965652466,0.14472194015979767,-0.8159157633781433,-0.5597652792930603,0.031044110655784607,0.09933239221572876,-0.015552043914794922
0.9561233186494803,0.25843344022715936,-0.9658892251593476,0.20157121121883392,0.5348535180091858,0.07792805135250092,0.1473829299211502,-0.8169620633125305,-0.5575404763221741,0.03990347683429718,0.10166049003601074,-0.023529410362243652
0.958581431011921,0.26285321479153034,-0.9651758676219043,0.2583335340023041,0.4551786184310913,0.12513817846775055,0.1493234485387802,-0.8183771371841431,-0.554942786693573,0.04884251952171326,0.08725225925445557,-0.0018351078033447266
0.9623356606276127,0.2658700922629873,-0.9642237115774556,0.44564059376716614,0.2827860713005066,0.17891405522823334,0.1501886248588562,-0.8205288648605347,-0.551521360874176,0.05054081976413727,0.07788354158401489,0.0280534029006958
0.9678023644502883,0.266169508809425,-0.9626940093363665,0.5418235659599304,0.03397970646619797,0.2719166874885559,0.1491716504096985,-0.8236414194107056,-0.5471405982971191,0.0638716071844101,0.09140253067016602,0.0027071237564086914
0.9738239335154019,0.26371961407636835,-0.9601822991001956,0.540297269821167,-0.09507161378860474,0.30648279190063477,0.146535262465477,-0.8270413279533386,-0.5427063703536987,0.08056136965751648,0.0676417350769043,0.036328256130218506
0.9799229506837407,0.26026775897036153,-0.957619952142087,0.5624979138374329,-0.16886034607887268,0.28114283084869385,0.14336025714874268,-0.8304544687271118,-0.5383244752883911,0.0402945876121521,0.03406769037246704,0.07422846555709839
0.9861954402473275,0.25658028173452385,-0.9555417883308358,0.5831303596496582,-0.216750830411911,0.26358333230018616,0.1400495171546936,-0.8339323997497559,-0.5338003039360046,-0.007572680711746216,0.03768301010131836,0.04307776689529419
0.9924054644713804,0.25278065461738136,-0.9534212660401706,0.5501519441604614,-0.17350348830223083,0.27695637941360474,0.13672244548797607,-0.8373433947563171,-0.5293042063713074,-0.014392703771591187,0.03071802854537964,0.017326176166534424
0.998186802304827,0.2492356321944244,-0.9506688237776292,0.4900132119655609,-0.06679403781890869,0.29784175753593445,0.13364890217781067,-0.84048992395401,-0.5250855088233948,-0.0062226951122283936,0.014440059661865234,0.02706921100616455
1.0033579159049093,0.2463354626009175,-0.9472463241467921,0.42162829637527466,0.06351789087057114,0.3122619688510895,0.13106387853622437,-0.843280553817749,-0.5212488174438477,-0.010412588715553284,0.010013222694396973,0.03640085458755493
1.0078897410994954,0.24412280544260673,-0.9431183128936544,0.35103341937065125,0.18724855780601501,0.3352314233779907,0.1289851814508438,-0.8457075953483582,-0.5178238153457642,-0.02429458498954773,0.005390763282775879,0.03828597068786621
1.0119448907454833,0.24238106933812065,-0.9383135751406411,0.31582722067832947,0.2700997591018677,0.3519427478313446,0.12725891172885895,-0.8478646278381348,-0.5147143006324768,-0.026474565267562866,-8.159875869750977e-05,0.04356873035430908
1.0159035775622927,0.24108295843005298,-0.9335253306780479,0.33511826395988464,0.2669682204723358,0.31891801953315735,0.12578830122947693,-0.8499569296836853,-0.5116156935691833,-0.03211456537246704,-0.010226845741271973,0.041248321533203125
1.020052057063725,0.24032315882685767,-0.9300258820453842,0.38458168506622314,0.16886882483959198,0.22559261322021484,0.12455921620130539,-0.8521352410316467,-0.5082820653915405,-0.0619218647480011,-0.028357982635498047,0.030987203121185303
1.0244333399723387,0.2405851809266091,-0.9290048256987677,0.437140554189682,0.058377861976623535,0.0785476341843605,0.12380160391330719,-0.8544198870658875,-0.5046185255050659,-0.1001657024025917,-0.04986172914505005,0.02562999725341797
1.0288316112077864,0.24261562116718136,-0.931195836660174,0.4601297378540039,-0.0203558299690485,-0.08513237535953522,0.12392191588878632,-0.8566969037055969,-0.5007133483886719,-0.13634252548217773,-0.06385064125061035,0.02233511209487915
1.0329271434004355,0.24641185228731208,-0.936025500939201,0.4495207965373993,-0.03931966796517372,-0.1891767531633377,0.12496493756771088,-0.8588022589683533,-0.4968324303627014,-0.1450302004814148,-0.06543785333633423,0.01991906762123108
1.0366916058775024,0.2512682627786673,-0.9419595953386396,0.41976475715637207,1.9215978682041168e-05,-0.20017720758914948,0.12657156586647034,-0.8607247471809387,-0.49308478832244873,-0.10841354727745056,-0.061104536056518555,0.01749897003173828
1.0400678966247947,0.2562238505080876,-0.9471497639401701,0.3622855246067047,0.11143727600574493,-0.13113455474376678,0.12827631831169128,-0.8624386191368103,-0.4896375238895416,-0.057612836360931396,-0.05075424909591675,0.011015176773071289
1.043086107325036,0.2607414226351323,-0.9500843012029612,0.29629024863243103,0.2859310805797577,0.00644142460078001,0.12981532514095306,-0.8639623522758484,-0.4865357577800751,-0.019906222820281982,-0.025533556938171387,0.004434406757354736
1.045676639203874,0.2641545988940936,-0.9497067853481282,0.18893592059612274,0.45617374777793884,0.16174298524856567,0.1308903694152832,-0.8652639389038086,-0.4839276373386383,0.006148859858512878,7.534027099609375e-05,-0.0016679465770721436
1.0479530534835013,0.26621984049967445,-0.946068954014429,0.17207491397857666,0.5661159753799438,0.29496070742607117,0.13137103617191315,-0.8664029240608215,-0.48175492882728577,0.015723735094070435,-0.0016543865203857422,0.00800013542175293
1.0509018568695998,0.26725115812131833,-0.9411778323873315,0.2786461114883423,0.4604334831237793,0.3156073987483978,0.13119252026081085,-0.8678715825080872,-0.4791528284549713,0.01083633303642273,-0.005205869674682617,-0.020892858505249023
1.0550921065675427,0.26771096060031235,-0.937393394333769,0.4227004647254944,0.29151129722595215,0.2572135925292969,0.13044971227645874,-0.8699456453323364,-0.47558125853538513,-0.026079535484313965,-0.020725250244140625,-0.0697067379951477
1.0603055174956153,0.26880765112747684,-0.9361194966061533,0.5415090322494507,0.15101853013038635,0.13036201894283295,0.12976491451263428,-0.8725048303604126,-0.47105899453163147,-0.06935533881187439,-0.05413103103637695,-0.07238268852233887
1.0660549849083658,0.27143090242267043,-0.9381378003043062,0.608051598072052,0.016770176589488983,-0.00895272009074688,0.12965303659439087,-0.8752995729446411,-0.46587634086608887,-0.1078329086303711,-0.06427568197250366,-0.04498779773712158
1.0718850283569603,0.27494018195597136,-0.9425309874639144,0.6227760910987854,-0.07539857923984528,-0.07514551281929016,0.12989944219589233,-0.8781039714813232,-0.4604990780353546,-0.10341016948223114,-0.06151694059371948,-0.020732492208480835
1.077669391401897,0.27843733515190205,-0.9475759666510329,0.6122965216636658,-0.10406377911567688,-0.06313119828701019,0.13011088967323303,-0.8808569312095642,-0.45515087246894836,-0.05902013182640076,-0.053896546363830566,-0.002399146556854248
1.0833101107916967,0.2810588574664845,-0.9517592480402156,0.5747106075286865,-0.10802783071994781,0.002169579965993762,0.12992340326309204,-0.8835130929946899,-0.4500274062156677,-0.011179432272911072,-0.03276205062866211,0.015747010707855225
1.088429481383556,0.282220779907328,-0.9538342195063733,0.4443451166152954,-0.03476427122950554,0.10031958669424057,0.1291848123073578,-0.8858994841575623,-0.4455259144306183,0.020656540989875793,-0.007807791233062744,0.03492727875709534
1.0923065261061988,0.2802104624194777,-0.9522747803854619,0.26030462980270386,-0.08755071461200714,0.25398269295692444,0.12733806669712067,-0.8876913189888,-0.4424807131290436,0.052196890115737915,0.0027120113372802734,0.11754488945007324
1.0951108795548514,0.274634729889811,-0.9466299685396515,0.13887113332748413,-0.011213067919015884,0.38892054557800293,0.12419337779283524,-0.8889790177345276,-0.44078609347343445,0.07162272930145264,0.011125564575195312,0.10455876588821411
1.0969998948485622,0.26740977906669633,-0.9383625681047383,0.027325287461280823,0.025663260370492935,0.4212513864040375,0.12056157737970352,-0.8898425102233887,-0.44005152583122253,0.058179907500743866,0.008861005306243896,0.07062110304832458
1.098079444571435,0.2604245539955273,-0.9300907801455368,-0.003681629430502653,0.058877937495708466,0.3478168547153473,0.11723735183477402,-0.8903345465660095,-0.43995431065559387,-0.0012552440166473389,0.003829360008239746,0.048184990882873535
1.0989598319767373,0.25640572391076066,-0.9244112914616435,0.049237728118896484,0.15126106142997742,0.18618129193782806,0.11526946723461151,-0.8907350897789001,-0.43966349959373474,-0.07802272588014603,-0.01614058017730713,-0.027102798223495483
1.1000467723062575,0.25708298624489756,-0.922964439926817,0.1238616332411766,0.24242374300956726,-0.0037316572852432728,0.11532104015350342,-0.8912285566329956,-0.4386489689350128,-0.13582882285118103,-0.02950209379196167,-0.08399498462677002
1.1012393011479567,0.2619889644582708,-0.9254994945229233,0.16015684604644775,0.27703869342803955,-0.14614978432655334,0.11719625443220139,-0.8917688131332397,-0.4370509386062622,-0.1523677408695221,-0.030441999435424805,-0.08222079277038574
1.1024015256970696,0.26924697476989307,-0.9304418806688346,0.18274205923080444,0.2887371778488159,-0.21577706933021545,0.12008946388959885,-0.8922941088676453,-0.4351893961429596,-0.12930575013160706,-0.02970302104949951,-0.05423617362976074
1.1036225345692496,0.27740430059096566,-0.9363717548005446,0.19339734315872192,0.2774752378463745,-0.22565467655658722,0.12333700060844421,-0.8928446769714355,-0.4331473112106323,-0.08343520760536194,-0.014031052589416504,-0.026142120361328125
1.1049121022249142,0.2850582773491592,-0.9420484640646146,0.1925099790096283,0.23756994307041168,-0.1860814243555069,0.12632477283477783,-0.8934246897697449,-0.43108534812927246,-0.04205042123794556,-0.00011479854583740234,-0.0036832690238952637
1.1061960081272877,0.29112054378246455,-0.9463905928948998,0.16046242415905,0.19868330657482147,-0.11229980736970901,0.1286064237356186,-0.8940007090568542,-0.42921239137649536,-0.0027824044227600098,0.0026737451553344727,0.015836596488952637
1.10724484337488,0.2952689449804421,-0.9489421801487832,0.1051562950015068,0.1787966787815094,-0.04552636668086052,0.130112886428833,-0.8944701552391052,-0.4277777671813965,0.021284833550453186,0.0020903944969177246,0.03594741225242615
1.1079287318509867,0.297738295097363,-0.9497250955477614,0.04724331945180893,0.17239071428775787,0.011649299412965775,0.13098932802677155,-0.8947757482528687,-0.4268702268600464,0.025642186403274536,0.007126152515411377,0.05100059509277344
1.1081914849524652,0.2988713354722628,-0.9492108889181387,-0.008297968655824661,0.14194625616073608,0.04490073025226593,0.13140375912189484,-0.8948930501937866,-0.42649707198143005,0.018742814660072327,0.007243335247039795,0.05366384983062744
1.1080085593826414,0.2990793005257764,-0.9480418206901172,-0.05450689047574997,0.11057082563638687,0.040583278983831406,0.13154058158397675,-0.8948113918304443,-0.4266258478164673,-0.0004980713129043579,-0.003504037857055664,0.05039006471633911
1.1074615379165247,0.2990396097706571,-0.9469410909266259,-0.07584653794765472,0.08339060097932816,0.020770691335201263,0.131667822599411,-0.89456707239151,-0.42709872126579285,-0.02055327594280243,-0.012964725494384766,0.0415092408657074
1.1067257257041971,0.2990209111185084,-0.9461582822307248,-0.0797867625951767,0.05475157871842384,0.0012572396080940962,0.13185372948646545,-0.8942379355430603,-0.42773017287254333,-0.027147874236106873,-0.014102518558502197,0.033275336027145386
1.1059286455588881,0.2993138752188784,-0.9459850134101679,-0.07742401212453842,0.03770016133785248,-0.0386185348033905,0.13218919932842255,-0.8938809037208557,-0.4283726215362549,-0.027849555015563965,-0.009393692016601562,0.03150683641433716
1.1051675493818012,0.3004838801159613,-0.9469661824155973,-0.043061625212430954,0.01852239854633808,-0.08823515474796295,0.13289162516593933,-0.8935394287109375,-0.42886731028556824,-0.04500095546245575,-0.010894834995269775,0.027057796716690063
1.1047240980346351,0.3024665693694308,-0.9491324504718665,0.006404726766049862,-0.014019299298524857,-0.11207550764083862,0.13385961949825287,-0.8933402299880981,-0.4289810061454773,-0.05585666000843048,-0.00839310884475708,0.012889206409454346
1.1047670384196595,0.30472168194353294,-0.9518829740530608,0.0643852949142456,-0.02619667910039425,-0.11233177036046982,0.1348152756690979,-0.8933595418930054,-0.42864176630973816,-0.033817291259765625,-0.0028197765350341797,0.0014414787292480469
1.105479558817994,0.3072191949766838,-0.954876104086783,0.1293078362941742,-0.015564274974167347,-0.09330934286117554,0.1356928050518036,-0.8936794996261597,-0.42769670486450195,-0.016536876559257507,0.0027797818183898926,0.003548234701156616
1.1069106923803502,0.3093731719866093,-0.9576236948392173,0.17696470022201538,-0.05651968717575073,-0.05634520202875137,0.13622425496578217,-0.8943207263946533,-0.42618489265441895,-0.004250958561897278,0.016040027141571045,0.014945358037948608
1.10887203664547,0.30995717179288695,-0.9594491694265679,0.18107235431671143,-0.14862431585788727,-0.013620907440781593,0.13593779504299164,-0.8951965570449829,-0.4244338274002075,0.01327793300151825,0.025079309940338135,0.03524330258369446
1.1108181051783574,0.3087245321830949,-0.9602857034258792,0.14117564260959625,-0.22382386028766632,0.0018655082676559687,0.13488490879535675,-0.8960621953010559,-0.4229404926300049,0.021609261631965637,0.016972780227661133,0.05145016312599182
1.1121816438522039,0.306479053446497,-0.9605646598150438,0.07588212192058563,-0.2517276704311371,0.0046908557415008545,0.13356611132621765,-0.8966666460037231,-0.4220770001411438,0.01127035915851593,0.007338583469390869,0.06895825266838074
1.1128697768568305,0.30331277915552063,-0.960013419978644,0.010178214870393276,-0.2501295208930969,0.0162910595536232,0.132044717669487,-0.8969710469245911,-0.4219088554382324,0.005650654435157776,0.014234840869903564,0.07791480422019958
1.1129719364961526,0.29941797831985906,-0.9586632240098799,-0.035419363528490067,-0.2612495422363281,0.04227765277028084,0.13037341833114624,-0.8970162272453308,-0.4223323166370392,0.013257607817649841,0.02433556318283081,0.07398954033851624
1.112594517403321,0.2947394729017072,-0.9566565054579231,-0.08430566638708115,-0.2969319820404053,0.07250232994556427,0.1284944713115692,-0.8968493342399597,-0.4232616126537323,0.023879840970039368,0.029387176036834717,0.06301698088645935
1.1118063700777643,0.2894810695430147,-0.95415335432497,-0.12727096676826477,-0.2927872836589813,0.08450999110937119,0.12646879255771637,-0.8965004682540894,-0.42460888624191284,0.0192221999168396,0.02441483736038208,0.05133318901062012
1.1106572661520593,0.2844336496190816,-0.9515209721037499,-0.16608338057994843,-0.24278603494167328,0.08720710873603821,0.12461304664611816,-0.8959907293319702,-0.42623043060302734,0.011052876710891724,0.01551276445388794,0.04155641794204712
1.1092848772598407,0.2801505514115932,-0.9489519583756229,-0.17824576795101166,-0.16738155484199524,0.08519801497459412,0.12312617152929306,-0.8953804969787598,-0.4279414415359497,-0.003573507070541382,0.019281744956970215,0.026559114456176758
1.1080329934213131,0.27668280920836863,-0.9464550969097363,-0.16471976041793823,-0.11260606348514557,0.0872756838798523,0.12194748222827911,-0.8948222994804382,-0.4294435977935791,-0.01409832388162613,0.025529086589813232,0.005066245794296265
1.1068983458992006,0.27324704458297094,-0.9440901836736746,-0.1746770441532135,-0.17482389509677887,0.07057313621044159,0.1207452192902565,-0.8943151831626892,-0.4308374226093292,-0.015917308628559113,0.02067321538925171,-0.002435833215713501
1.1055273529484948,0.2693899368327663,-0.9420971925357251,-0.20520515739917755,-0.2524663805961609,0.040025219321250916,0.1194087415933609,-0.893700897693634,-0.43248140811920166,-0.027978047728538513,0.0030912160873413086,-8.988380432128906e-05
1.1036391674260217,0.26566263038811444,-0.9407365258527015,-0.2582094967365265,-0.25800254940986633,-0.002553401282057166,0.11823879182338715,-0.8928521871566772,-0.43455109000205994,-0.03805381804704666,-0.01684635877609253,0.002193361520767212
1.1007852808134369,0.26241799653025827,-0.9396806785821676,-0.31241682171821594,-0.19718046486377716,-0.05725046992301941,0.1174887865781784,-0.8915632963180542,-0.43739163875579834,-0.046321749687194824,-0.032905757427215576,0.0014939308166503906
1.0974749045528458,0.26080169764295813,-0.9396151628371656,-0.3188571333885193,-0.11534233391284943,-0.10269677639007568,0.11754200607538223,-0.8900591731071472,-0.4404298961162567,-0.06644026935100555,-0.028336822986602783,-0.015014290809631348
1.0942681875780402,0.2604216404210888,-0.9401751934421787,-0.27646371722221375,-0.06561736017465591,-0.10581456124782562,0.11810896545648575,-0.8885927796363831,-0.44323039054870605,-0.05808082967996597,-0.013369500637054443,-0.04518809914588928
1.0917127408698661,0.26033907878206053,-0.9407432174341794,-0.19727592170238495,-0.05544913932681084,-0.07424783706665039,0.11865650862455368,-0.887417733669281,-0.44543296098709106,-0.021335899829864502,-0.01088249683380127,-0.07301485538482666
1.0900846919614706,0.26022427084479344,-0.9411212697765856,-0.1034744530916214,-0.03087489679455757,-0.04230515658855438,0.1189769059419632,-0.8866660594940186,-0.4468419849872589,0.006114691495895386,-0.006598711013793945,-0.08910763263702393
1.0894691445155766,0.2605454480838372,-0.9414338589416517,-0.006486124359071255,0.04216655716300011,-0.018625658005475998,0.11926098167896271,-0.8863812685012817,-0.4473310112953186,0.005815349519252777,-0.0008410215377807617,-0.09795698523521423
1.0897162540890244,0.2615786093717775,-0.9417298323915689,0.05896342545747757,0.11245708167552948,0.004698713310062885,0.11966650187969208,-0.8864956498146057,-0.44699618220329285,-0.004798293113708496,-0.0002994537353515625,-0.09119647741317749
1.0905244981937217,0.2628338617377263,-0.9417592213424248,0.08336596935987473,0.127664253115654,0.02107023075222969,0.12004128843545914,-0.8868693709373474,-0.44615352153778076,-0.010559439659118652,-0.004152417182922363,-0.07099723815917969
1.091433474958857,0.2638056101205525,-0.9415949713913789,0.0731118842959404,0.10259345918893814,0.021976439282298088,0.12026450037956238,-0.8872889876365662,-0.44525814056396484,-0.0161079540848732,-0.010446667671203613,-0.04816523194313049
1.0920845564431576,0.2645182951336163,-0.9413814029493077,0.04586535319685936,0.0929323062300682,-0.005842409562319517,0.12043072283267975,-0.8875890374183655,-0.44461455941200256,-0.019264914095401764,-0.02065986394882202,-0.034892767667770386
1.0922701920622575,0.26584771316371364,-0.9418669458362837,0.020677924156188965,0.10680917650461197,-0.05948945879936218,0.12097837030887604,-0.8876745700836182,-0.4442949593067169,-0.03137873113155365,-0.030111074447631836,-0.03303033113479614
1.0919503139567954,0.26848683077401125,-0.9435958194945159,0.0014243340119719505,0.12808623909950256,-0.12441306561231613,0.12222589552402496,-0.8875272274017334,-0.4442481994628906,-0.05075368285179138,-0.03335607051849365,-0.0385093092918396
1.091252922152024,0.27254083022337816,-0.946597056028606,-0.00021846964955329895,0.15902243554592133,-0.1759006232023239,0.12419244647026062,-0.8872056603431702,-0.44434505701065063,-0.060746341943740845,-0.03009176254272461,-0.04501950740814209
1.0905275379658763,0.2775599466733162,-0.9503160122869135,0.014437172561883926,0.19169996678829193,-0.18499824404716492,0.1265973299741745,-0.8868707418441772,-0.44433465600013733,-0.04548157751560211,-0.02235466241836548,-0.05075189471244812
