attitudeX,attitudeY,attitudeZ,gyroX,gyroY,gyroZ,gravityX,gravityY,gravityZ,accX,accY,accZ
1.0254328478609933,0.28607473364282704,-0.8706672318584403,0.24514298141002655,0.062408193945884705,-0.15749219059944153,0.14637942612171173,-0.854938805103302,-0.497647225856781,-0.03344908356666565,0.0018808841705322266,0.012036323547363281
1.0270234343214608,0.28929214077430976,-0.8741214099325104,0.16028371453285217,-0.022978192195296288,-0.07531757652759552,0.14759166538715363,-0.855762779712677,-0.4958696663379669,-0.0009241551160812378,0.006519615650177002,0.04567447304725647
1.0279791625006287,0.28984851442731824,-0.8754068426611935,0.06376809626817703,-0.08536913245916367,0.005893126130104065,0.14763370156288147,-0.856256902217865,-0.49500346183776855,0.020121455192565918,0.002939581871032715,0.07158741354942322
1.0282191350282475,0.28829219866847655,-0.8747298366729536,-0.02530601993203163,-0.0961071327328682,0.06526070833206177,0.1468047797679901,-0.856380820274353,-0.4950357973575592,0.023346036672592163,-0.003528296947479248,0.07879137992858887
1.0278719715629117,0.28559358520027295,-0.872624710231287,-0.07920866459608078,-0.06532685458660126,0.09963946044445038,0.14555206894874573,-0.8562015295028687,-0.49571534991264343,0.018037468194961548,-0.007644474506378174,0.06708073616027832
1.0271653133517096,0.28261071860437015,-0.8697976436377766,-0.11090029776096344,-0.02442358061671257,0.11004076898097992,0.14424143731594086,-0.8558362126350403,-0.49672818183898926,0.01002494990825653,-0.009779751300811768,0.04311496019363403
1.0262177430351491,0.2800333024057466,-0.8669021650073065,-0.1331331580877304,0.02354661002755165,0.09646850824356079,0.14318478107452393,-0.8553456664085388,-0.4978775084018707,-0.008907392621040344,-0.012620091438293457,0.01693582534790039
1.0251059343733406,0.27834957359814194,-0.864415110180666,-0.14278137683868408,0.07764013111591339,0.07006772607564926,0.14260748028755188,-0.8547691702842712,-0.4990318715572357,-0.027128934860229492,-0.015149712562561035,0.003136575222015381
1.0238592371777755,0.2777286670391616,-0.8626121008727062,-0.1502470225095749,0.10587868839502335,0.03426365554332733,0.14258964359760284,-0.8541214466094971,-0.5001446604728699,-0.03211598098278046,-0.014408886432647705,0.003272831439971924
1.0224406792368523,0.2778949578537586,-0.8616386435292588,-0.15831877291202545,0.08607830107212067,-0.011283925734460354,0.14300507307052612,-0.8533828258514404,-0.5012856721878052,-0.038406044244766235,-0.018351852893829346,0.0070536136627197266
1.0209131903708524,0.2783390961787835,-0.8613927667877767,-0.15768282115459442,0.038304124027490616,-0.03916642442345619,0.143585667014122,-0.8525856137275696,-0.502474844455719,-0.04144328832626343,-0.022689104080200195,0.009936511516571045
1.019444051480846,0.27861274353524573,-0.8615064462939527,-0.1419585943222046,-0.010363513603806496,-0.04461810365319252,0.14406751096248627,-0.8518169522285461,-0.503639280796051,-0.030252188444137573,-0.018269777297973633,0.011558711528778076
1.0182063512841346,0.2785499725201644,-0.8617736837831129,-0.10902487486600876,-0.05360792577266693,-0.04363885894417763,0.1443256437778473,-0.8511679172515869,-0.504661500453949,-0.018822073936462402,-0.011701345443725586,0.007560789585113525
1.0173599066105434,0.27824296467908805,-0.8622200657368256,-0.06715499609708786,-0.08672136813402176,-0.04345031827688217,0.14436854422092438,-0.8507233262062073,-0.5053983926773071,-0.011937469244003296,-0.006042420864105225,0.0017211437225341797
1.017004558595329,0.2776485226750359,-0.8626854889916106,-0.014863565564155579,-0.10672970116138458,-0.02898429147899151,0.1441509872674942,-0.8505364656448364,-0.505774974822998,-0.00770685076713562,-0.0006904006004333496,-0.008919119834899902
1.017122876722865,0.27658903938967583,-0.8628386608737564,0.02432888001203537,-0.11448870599269867,-0.002220184076577425,0.14358754456043243,-0.8505986928939819,-0.5058305263519287,-0.0004753023386001587,0.003339052200317383,-0.01601994037628174
1.017622428179799,0.27515780448895105,-0.8625737685608531,0.04544588178396225,-0.11611509323120117,0.028435194864869118,0.1427479386329651,-0.8508612513542175,-0.5056264400482178,0.006528839468955994,0.007340133190155029,-0.0107460618019104
1.0182763246359419,0.27336977894554987,-0.8620178648471909,0.041781555861234665,-0.1266036033630371,0.02841981127858162,0.14169339835643768,-0.8512046337127686,-0.5053449869155884,0.0026242434978485107,0.008171796798706055,0.005818188190460205
1.0187573087335087,0.2716902971398048,-0.8616037079590604,0.011749353259801865,-0.11959496140480042,-0.0042302776128053665,0.14073461294174194,-0.8514569997787476,-0.5051878690719604,-0.014284983277320862,0.0002301335334777832,0.022583067417144775
1.0189330769684142,0.2704183121152104,-0.8616557618850645,-0.014973916113376617,-0.12531313300132751,-0.03957394137978554,0.1400519460439682,-0.8515491485595703,-0.5052223205566406,-0.02558046579360962,-0.007444500923156738,0.035297513008117676
1.0187680573295523,0.26942918994265064,-0.8621870154196352,-0.029142998158931732,-0.14549483358860016,-0.05338136851787567,0.1395895630121231,-0.8514626026153564,-0.505496084690094,-0.024507731199264526,-0.00888901948928833,0.03363335132598877
1.0183289956017878,0.26842329274173904,-0.8629075436127435,-0.044220034033060074,-0.16591641306877136,-0.05868685245513916,0.13918012380599976,-0.8512322902679443,-0.505996584892273,-0.016438394784927368,-0.0051520466804504395,0.0290374755859375
1.0176030942002043,0.26748095002447314,-0.8638321393238458,-0.05335015058517456,-0.16869941353797913,-0.07840915769338608,0.13886652886867523,-0.8508511185646057,-0.5067233443260193,-0.020275160670280457,-0.0028324127197265625,0.024255752563476562
1.0166679882071057,0.2669875036664623,-0.8651669855788207,-0.05661296099424362,-0.15624549984931946,-0.0953051969408989,0.13882631063461304,-0.8503594398498535,-0.5075589418411255,-0.031785860657691956,-0.00552135705947876,0.019338905811309814
1.0157003224428536,0.26687802258088195,-0.8668045342236078,-0.05866999179124832,-0.15263718366622925,-0.09815078973770142,0.1389876902103424,-0.8498498201370239,-0.5083677172660828,-0.03174889087677002,-0.00471872091293335,0.021032631397247314
1.0149089895349703,0.2666451371280209,-0.8683935574284216,-0.057176146656274796,-0.17115017771720886,-0.09331607073545456,0.13904644548892975,-0.8494325280189514,-0.509048581123352,-0.027626723051071167,-0.003762662410736084,0.0256044864654541
1.0144438423104318,0.26581792432631335,-0.8696604270349652,-0.04840449243783951,-0.19688084721565247,-0.08105967193841934,0.13872909545898438,-0.8491869568824768,-0.5095446705818176,-0.026012375950813293,-0.009028434753417969,0.025810599327087402
1.0143540577929522,0.26436221171868396,-0.8705529005154838,-0.02855304628610611,-0.23020461201667786,-0.06242627650499344,0.13800711929798126,-0.8491395711898804,-0.5098196268081665,-0.026877298951148987,-0.013256728649139404,0.028084516525268555
1.0145017085901191,0.2625083955784525,-0.8714321745676092,0.0005545043386518955,-0.27876365184783936,-0.06668680161237717,0.1370292454957962,-0.8492175340652466,-0.5099536180496216,-0.039342448115348816,-0.018519341945648193,0.03317755460739136
1.0149060184826733,0.2602883311124245,-0.8727393950579392,0.048964567482471466,-0.3898123502731323,-0.07032833248376846,0.13580842316150665,-0.8494309782981873,-0.5099247694015503,-0.06116236746311188,-0.031977832317352295,0.04378408193588257
1.015748616584865,0.2568057931200439,-0.874279983805387,0.11679874360561371,-0.564305305480957,-0.06605422496795654,0.13384993374347687,-0.849875271320343,-0.509702205657959,-0.07728554308414459,-0.05030179023742676,0.055631279945373535
1.0172789598511514,0.2515017708930402,-0.8760000068355505,0.2047373205423355,-0.7745350003242493,-0.05111149698495865,0.13082073628902435,-0.8506807684898376,-0.5091445446014404,-0.09677831828594208,-0.07915937900543213,0.06346595287322998
1.0197087819318786,0.24414463151963156,-0.877924140685033,0.31802576780319214,-1.0216082334518433,-0.027718819677829742,0.126571387052536,-0.8519555926322937,-0.5080861449241638,-0.12292449176311493,-0.10597598552703857,0.0670614242553711
1.0233483921709576,0.23467132912003164,-0.8802866243475982,0.44530898332595825,-1.2646676301956177,-0.04617026820778847,0.12103071063756943,-0.8538556694984436,-0.5062431693077087,-0.16012369096279144,-0.13007688522338867,0.06663757562637329
1.028112886514232,0.22409871347421367,-0.8839223996692139,0.5625908970832825,-1.4515198469161987,-0.10959663987159729,0.11476632207632065,-0.8563259243965149,-0.5035221576690674,-0.21570318937301636,-0.1620303988456726,0.06879937648773193
1.0337566914273475,0.21358838625795162,-0.8894108867697292,0.6537445187568665,-1.5734639167785645,-0.19626502692699432,0.10844175517559052,-0.8592269420623779,-0.4999695122241974,-0.27557122707366943,-0.19195109605789185,0.07379165291786194
1.0399387291721862,0.20382399951727642,-0.8968438104097548,0.7081678509712219,-1.6416312456130981,-0.2824268043041229,0.10247762501239777,-0.8623732328414917,-0.4957932233810425,-0.3285975456237793,-0.20928221940994263,0.08284461498260498
1.0464161706176942,0.19498762424090804,-0.9057972455045267,0.7299543023109436,-1.652970552444458,-0.34025323390960693,0.09700831770896912,-0.8656344413757324,-0.4911889433860779,-0.35224205255508423,-0.21839576959609985,0.09865665435791016
1.052899027973072,0.18716565636958105,-0.9158383943237463,0.7218649387359619,-1.6368759870529175,-0.39151057600975037,0.09211710840463638,-0.8688620328903198,-0.4864083528518677,-0.3516080379486084,-0.22800076007843018,0.11973977088928223
1.0590693566329588,0.1803188999693356,-0.9267972740257324,0.6810540556907654,-1.6328402757644653,-0.4410727024078369,0.08782148361206055,-0.8719001412391663,-0.4817441701889038,-0.35816141963005066,-0.23985522985458374,0.13868090510368347
1.0646927101102965,0.1740306732455424,-0.9386469230669897,0.6228370666503906,-1.6937707662582397,-0.492436021566391,0.08394015580415726,-0.8746399879455566,-0.477450430393219,-0.3650832772254944,-0.25014638900756836,0.15890803933143616
1.0696052578151154,0.16740144579947291,-0.9512405883826655,0.5503139495849609,-1.8366320133209229,-0.5359959602355957,0.08005630224943161,-0.8770108819007874,-0.4737538993358612,-0.35910898447036743,-0.26301896572113037,0.18325716257095337
1.0737374613993487,0.159729093910707,-0.9646491424281888,0.47106388211250305,-2.0402002334594727,-0.5947085618972778,0.07584214955568314,-0.8789888024330139,-0.4707724452018738,-0.34793683886528015,-0.27884817123413086,0.20226359367370605
1.077015625922857,0.1513127609732637,-0.9794585821717783,0.38867390155792236,-2.2314183712005615,-0.6937654614448547,0.0714426338672638,-0.880547285079956,-0.4685431718826294,-0.3464517295360565,-0.2982858419418335,0.20842665433883667
1.079280681153241,0.1430918214613632,-0.9963187057381746,0.292052298784256,-2.359056234359741,-0.8110910058021545,0.06730379164218903,-0.8816185593605042,-0.46713924407958984,-0.36108121275901794,-0.3132820725440979,0.19617372751235962
1.0805537290293104,0.1358649820186821,-1.015279344919933,0.21131975948810577,-2.4035329818725586,-0.9112733006477356,0.06377405673265457,-0.8822186589241028,-0.4665011167526245,-0.3656996786594391,-0.3068835735321045,0.1814975142478943
1.0810980956202247,0.12970541662325952,-1.035702978037098,0.15392917394638062,-2.419609546661377,-0.9691299200057983,0.06083730608224869,-0.8824748396873474,-0.4664088785648346,-0.3419346809387207,-0.29585474729537964,0.14971280097961426
1.0812587294295561,0.12391160767201749,-1.0568672118370575,0.13630139827728271,-2.4587926864624023,-0.9880541563034058,0.058116473257541656,-0.8825503587722778,-0.46661266684532166,-0.30494260787963867,-0.29497045278549194,0.09606832265853882
1.081617071602529,0.11794055369044687,-1.0780254187768155,0.17815430462360382,-2.447124481201172,-0.9697592854499817,0.055292073637247086,-0.8827188014984131,-0.4666373133659363,-0.2613009214401245,-0.2895682454109192,0.041741132736206055
1.0825296184144118,0.11194668996168138,-1.0988597819702954,0.2261309027671814,-2.415517568588257,-0.9444543123245239,0.052404120564460754,-0.8831472396850586,-0.4661596119403839,-0.21938100457191467,-0.2855997085571289,-0.021999478340148926
1.0839360736278667,0.10582021609253935,-1.1192011998359048,0.25494152307510376,-2.385134696960449,-0.915169894695282,0.049416013062000275,-0.8838061690330505,-0.46523645520210266,-0.1887592375278473,-0.292585551738739,-0.07471096515655518
1.0855918740065018,0.09964924923321032,-1.138970216775781,0.25934693217277527,-2.3236563205718994,-0.8852506875991821,0.046398479491472244,-0.884579598903656,-0.4640757739543915,-0.15826061367988586,-0.29403984546661377,-0.11075329780578613
1.0873285277265556,0.09407774764937807,-1.1584823202115049,0.2614811956882477,-2.224905490875244,-0.8865529894828796,0.04366777837276459,-0.8853882551193237,-0.46279671788215637,-0.13377085328102112,-0.29689329862594604,-0.14407572150230408
1.0891371793030207,0.08953376613853224,-1.1780522369244701,0.26302841305732727,-2.137706995010376,-0.8833847045898438,0.041421160101890564,-0.886227548122406,-0.4613948464393616,-0.11853903532028198,-0.30243217945098877,-0.18338048458099365
1.0910445842523795,0.08565352197454262,-1.1974992925991133,0.27136731147766113,-2.0752315521240234,-0.8721847534179688,0.03948584198951721,-0.8871095180511475,-0.45986703038215637,-0.09763702750205994,-0.2930205464363098,-0.21940845251083374
1.093108904544074,0.08224157670022746,-1.2168577200368316,0.29406413435935974,-2.034459114074707,-0.8643324971199036,0.037766050547361374,-0.888060450553894,-0.4581729769706726,-0.0722966194152832,-0.279557466506958,-0.24206805229187012
1.095746844522974,0.07888023933996702,-1.2360398539395143,0.3761046826839447,-2.0354294776916504,-0.8387754559516907,0.03604105859994888,-0.8892700672149658,-0.45596054196357727,-0.0419003926217556,-0.26864326000213623,-0.27086132764816284
1.0994288725597336,0.0752558884265509,-1.2549886977144054,0.4941557049751282,-2.0493242740631104,-0.824752151966095,0.03414184972643852,-0.8909481763839722,-0.45281997323036194,-0.014732599258422852,-0.2570164203643799,-0.3152768611907959
1.1044072291794378,0.07208316454830192,-1.2743874743270478,0.6245201230049133,-2.030238389968872,-0.8475093841552734,0.03238515183329582,-0.893197774887085,-0.44849643111228943,-0.0002195499837398529,-0.2534545660018921,-0.3609670400619507
1.1105736030516324,0.07031049904002425,-1.2949446016161594,0.7260216474533081,-1.9857226610183716,-0.8932201862335205,0.031202523037791252,-0.8959535956382751,-0.4430502951145172,0.006120532751083374,-0.25089704990386963,-0.3957099914550781
1.117496980089782,0.07056052976078665,-1.3169874373663748,0.7791234850883484,-1.9035189151763916,-0.9437864422798157,0.03087521716952324,-0.8990070819854736,-0.43684422969818115,0.011681612581014633,-0.2445170283317566,-0.4134058952331543
1.1247034112519203,0.07313226217422729,-1.3404009569365882,0.7914566397666931,-1.7825003862380981,-0.9726118445396423,0.03152437135577202,-0.9021396636962891,-0.43029093742370605,0.024414420127868652,-0.23845481872558594,-0.42075276374816895
1.1317285867871991,0.07751171425875568,-1.364305468069948,0.7497742176055908,-1.651330590248108,-0.9492716193199158,0.03291693329811096,-0.9051483273506165,-0.4238196015357971,0.056881099939346313,-0.22937321662902832,-0.4212425947189331
1.138176920366939,0.08274050535264729,-1.3876620690466257,0.6882604360580444,-1.5260610580444336,-0.906638503074646,0.03464942052960396,-0.9078706502914429,-0.4178161025047302,0.09955170750617981,-0.21729719638824463,-0.42315673828125
1.1440653978087258,0.08872425813734486,-1.4103601667616323,0.6472408175468445,-1.3904051780700684,-0.8770044445991516,0.03667457401752472,-0.9103236794471741,-0.41226932406425476,0.11228176951408386,-0.1974034309387207,-0.45262932777404785
1.1496204322876962,0.09638552425227793,-1.433305724116353,0.6341140866279602,-1.2573553323745728,-0.9040762782096863,0.039344701915979385,-0.912608802318573,-0.40693649649620056,0.11307540535926819,-0.17512929439544678,-0.500564694404602
1.1551132409779445,0.10664891987486284,-1.4579840639117192,0.6615504622459412,-1.2007005214691162,-0.9775770902633667,0.042984846979379654,-0.9148406982421875,-0.4015207290649414,0.10684126615524292,-0.15554815530776978,-0.5444325804710388
1.1609655835645671,0.11949208860434139,-1.4851945818359782,0.7514232993125916,-1.2170201539993286,-1.0486303567886353,0.047498900443315506,-0.917188286781311,-0.3956129252910614,0.11186394095420837,-0.13675159215927124,-0.5864121913909912
1.1677586185506514,0.13377171706504778,-1.5144246619339814,0.8924403190612793,-1.2890866994857788,-1.0562901496887207,0.052310872822999954,-0.919873833656311,-0.38871046900749207,0.14101803302764893,-0.10872119665145874,-0.6329874992370605
1.1760472740467793,0.14835242636376927,-1.5446337185045413,1.0763511657714844,-1.3470107316970825,-1.0264531373977661,0.056843847036361694,-0.9230930805206299,-0.38035252690315247,0.17438790202140808,-0.06755334138870239,-0.6866030097007751
1.1861130495280514,0.16384195681381117,-1.5758986306180314,1.2688909769058228,-1.3147928714752197,-1.0040853023529053,0.0612095445394516,-0.926917314529419,-0.37024006247520447,0.18389245867729187,-0.019219160079956055,-0.7498160600662231
1.1976767740479297,0.18200345338420665,-1.608819956629694,1.4137288331985474,-1.1497523784637451,-0.9902670383453369,0.06597862392663956,-0.9311947226524353,-0.3585014045238495,0.17793318629264832,0.015270650386810303,-0.7976417541503906
1.2100683745078018,0.2040085482755913,-1.6435644244850478,1.4755607843399048,-0.9245477914810181,-0.9731906056404114,0.07150750607252121,-0.9356401562690735,-0.3456360399723053,0.18233779072761536,0.04214644432067871,-0.806143045425415
1.2224647500361503,0.23003911471712324,-1.6798431729270613,1.4693057537078857,-0.6668837666511536,-0.9463491439819336,0.07782857865095139,-0.9399434924125671,-0.3323385417461395,0.1827915906906128,0.08914393186569214,-0.7728402614593506
1.2343042374999436,0.25995206344262833,-1.7174352668170836,1.4283604621887207,-0.43514955043792725,-0.9226760268211365,0.08486700057983398,-0.9439187049865723,-0.31908461451530457,0.1824975609779358,0.13401275873184204,-0.723273754119873
1.2454066561295736,0.2932407484644426,-1.7564368549983753,1.3960613012313843,-0.2923446595668793,-0.9038704037666321,0.09240493923425674,-0.947526216506958,-0.3060317933559418,0.18940967321395874,0.160264253616333,-0.6792587041854858
1.2560574240072526,0.3294103181729655,-1.7972061648087092,1.4123505353927612,-0.2197761982679367,-0.8760939240455627,0.10014071315526962,-0.9508772492408752,-0.2929237484931946,0.18817415833473206,0.19446855783462524,-0.6562644243240356
1.2667492928440751,0.36831177481149396,-1.8401085786330056,1.485376000404358,-0.17277219891548157,-0.8395355343818665,0.10779058933258057,-0.9541326761245728,-0.2793065011501312,0.1844763159751892,0.24626219272613525,-0.6501978635787964
1.277845086836905,0.41051692155196423,-1.8859375965992444,1.5830458402633667,-0.14473630487918854,-0.8075871467590332,0.11524699628353119,-0.9573957920074463,-0.2647859454154968,0.18353542685508728,0.285352885723114,-0.6539609432220459
1.2893792577121594,0.4569247010767504,-1.9355658831185263,1.679378867149353,-0.08752968162298203,-0.7701117396354675,0.12252629548311234,-0.960662841796875,-0.24922744929790497,0.17097657918930054,0.3264464735984802,-0.6551456451416016
1.301099248277968,0.5088119489305314,-1.9898992360291345,1.7537130117416382,0.01261236984282732,-0.7591387629508972,0.12979325652122498,-0.9638516306877136,-0.2326878160238266,0.1564158946275711,0.3630673885345459,-0.6433039903640747
1.3124841723828062,0.5678333695371222,-2.0502089277639737,1.7990682125091553,0.15350675582885742,-0.7753039598464966,0.13738219439983368,-0.9668225049972534,-0.21536092460155487,0.1248859316110611,0.3877972364425659,-0.6264511346817017
1.3230166447089047,0.6350433239901102,-2.117119182428796,1.8212409019470215,0.33334362506866455,-0.7843584418296814,0.14548680186271667,-0.9694593548774719,-0.197439506649971,0.1049862802028656,0.41280341148376465,-0.6064392328262329
1.3325817845512529,0.7099367997003724,-2.1899182421494636,1.843522071838379,0.5047101378440857,-0.7521434426307678,0.1538005918264389,-0.9717608094215393,-0.17895884811878204,0.11199231445789337,0.4397021532058716,-0.5814933776855469
1.3413299876199336,0.7909405367877882,-2.267194549938907,1.8649245500564575,0.6517158150672913,-0.6624748110771179,0.16172634065151215,-0.9737879037857056,-0.15994352102279663,0.13736125826835632,0.4715448021888733,-0.5482473373413086
1.3496014374487084,0.8765099685773345,-2.3476405590856197,1.8912509679794312,0.7690032720565796,-0.5176737308502197,0.1686084121465683,-0.9756360054016113,-0.140377938747406,0.17085391283035278,0.4937022924423218,-0.5129575729370117
1.3575816785627493,0.9651002275415238,-2.4300103160639845,1.8835440874099731,0.8546960949897766,-0.35644352436065674,0.1739605963230133,-0.9773557186126709,-0.1204732358455658,0.19063298404216766,0.5063625574111938,-0.4744364023208618
1.3651536724655358,1.055978768555859,-2.51369704864513,1.8510313034057617,0.944098949432373,-0.2157074362039566,0.1777287721633911,-0.9789299368858337,-0.10054130107164383,0.17891494929790497,0.5198845863342285,-0.423109769821167
1.3718721921296897,1.1486380626292267,-2.5980486144219457,1.7568283081054688,1.057456612586975,-0.12316977232694626,0.18026524782180786,-0.9802797436714172,-0.08096861094236374,0.15078948438167572,0.532434344291687,-0.3702642321586609
1.3771319484870002,1.2409658420578524,-2.680621594764143,1.608416199684143,1.2025755643844604,-0.09017867594957352,0.182082399725914,-0.9813055992126465,-0.06233326345682144,0.11833268404006958,0.5182623267173767,-0.310011625289917
1.3805352575670609,1.3310475069822587,-2.7595056795932753,1.4616403579711914,1.30921471118927,-0.10728762298822403,0.18370693922042847,-0.9819548726081848,-0.04490725323557854,0.0912412703037262,0.5029966831207275,-0.2570183277130127
1.3819642816917843,1.417744935133731,-2.8341348543480454,1.3464677333831787,1.361228585243225,-0.1602795422077179,0.18551751971244812,-0.98222416639328,-0.02861751802265644,0.06928904354572296,0.5099493861198425,-0.22974425554275513
1.3815007795804364,1.5005864651661276,-2.9042777097983943,1.2540580034255981,1.4213124513626099,-0.22502151131629944,0.18770362436771393,-0.9821370244026184,-0.013200342655181885,0.059015750885009766,0.5215505361557007,-0.21275174617767334
1.3793833569613683,1.5787765232433193,-2.9691080226510866,1.1768431663513184,1.4728033542633057,-0.27053946256637573,0.19023990631103516,-0.981736421585083,0.0015181840863078833,0.06328490376472473,0.5290387272834778,-0.1950758695602417
1.376073180891798,1.6516724200933512,-3.028089567842832,1.1079440116882324,1.5187127590179443,-0.2845543622970581,0.192863330245018,-0.9811012744903564,0.015632130205631256,0.07584401965141296,0.5381994843482971,-0.1791146993637085
1.3721147931797981,1.7196979626577926,-3.0815203626604863,1.0498766899108887,1.60336172580719,-0.25453826785087585,0.19519373774528503,-0.9803276658058167,0.02928139455616474,0.08155500888824463,0.5573539733886719,-0.1687772274017334
1.3680818266688803,1.7842015475070507,-3.1303223681937897,1.0035337209701538,1.720059871673584,-0.181550070643425,0.1967620998620987,-0.9795236587524414,0.04263932257890701,0.09574893116950989,0.5821390151977539,-0.15625619888305664
1.3645054002415506,1.846440239596925,3.107434252499538,0.9530414342880249,1.8125468492507935,-0.06312762200832367,0.19709914922714233,-0.9787973761558533,0.05574829503893852,0.12837088108062744,0.591056227684021,-0.14113640785217285
1.3617791870709381,1.9072468210416063,3.064022898597061,0.9118146300315857,1.8327856063842773,0.0854693055152893,0.1958654373884201,-0.9782353043556213,0.06850358843803406,0.15980181097984314,0.5868472456932068,-0.1238623782992363
1.3601274872383724,1.967933778863505,3.020578467731412,0.8921751976013184,1.7884230613708496,0.2542056441307068,0.19283980131149292,-0.9778912663459778,0.08088145405054092,0.17804041504859924,0.587800145149231,-0.09806274622678757
1.3594483332632716,2.0299381659488813,2.975153742396815,0.8931664228439331,1.7164525985717773,0.4071331322193146,0.18805278837680817,-0.9777490496635437,0.092969611287117,0.1743740737438202,0.5967979431152344,-0.07584916800260544
1.3593592535015722,2.09476408450776,2.926082958208251,0.9334606528282166,1.641465187072754,0.5449954271316528,0.18170960247516632,-0.9777303338050842,0.10499950498342514,0.15676088631153107,0.6049124002456665,-0.06840886175632477
1.3593820408478827,2.1644362434013322,2.8713689498424366,1.0103620290756226,1.5807523727416992,0.6682611703872681,0.1739407628774643,-0.9777351021766663,0.1173822283744812,0.13874243199825287,0.6004921197891235,-0.07940305769443512
1.3589643321175031,2.2398055704472575,2.8103149069366893,1.1015346050262451,1.5503607988357544,0.7660591006278992,0.16492927074432373,-0.9776473641395569,0.130400151014328,0.11757197976112366,0.5859999656677246,-0.08917081356048584
1.3575364086270185,2.319334979848133,2.7449877192924586,1.1638877391815186,1.5814441442489624,0.8025414943695068,0.15507051348686218,-0.9773461818695068,0.14404043555259705,0.0824020653963089,0.5781457424163818,-0.08852888643741608
1.3548860978292445,2.399776692416024,2.6792558304609018,1.1733462810516357,1.6533055305480957,0.8039389848709106,0.14474450051784515,-0.9767817854881287,0.1579447239637375,0.03730815649032593,0.5820673704147339,-0.0704507827758789
1.3511661462692162,2.478045901234919,2.6165267367635963,1.1337008476257324,1.736149787902832,0.7798339128494263,0.13418835401535034,-0.9759780764579773,0.17163942754268646,0.007336944341659546,0.5772965550422668,-0.03423395752906799
1.3468515425666245,2.5521050245370245,2.5589568702348413,1.0414531230926514,1.8318443298339844,0.7629850506782532,0.12346117943525314,-0.9750289916992188,0.1845972239971161,-0.005220770835876465,0.5586012601852417,0.006915926933288574
1.3424851344443232,2.6219395485492885,2.5065816266880914,0.9325231313705444,1.9099239110946655,0.7750451564788818,0.11239238828420639,-0.9740500450134277,0.19645540416240692,0.0013619288802146912,0.551442563533783,0.04321454465389252
1.3385225930369602,2.6889566276747985,2.457593030497036,0.8116394281387329,1.9345284700393677,0.833999514579773,0.10067098587751389,-0.9731455445289612,0.20700976252555847,0.03513230383396149,0.5488749742507935,0.0794588029384613
1.3352551729948332,2.754597434977849,2.4098161422392455,0.6946768760681152,1.8763408660888672,0.924470841884613,0.08807550370693207,-0.9723882079124451,0.216111421585083,0.07009714841842651,0.5373448133468628,0.11195266246795654
1.3328245979579856,2.8185881834332798,2.362677761499172,0.5592619776725769,1.7479376792907715,0.9904111623764038,0.074825718998909,-0.9718180894851685,0.22354240715503693,0.08056987822055817,0.5353249311447144,0.13310152292251587
1.3310531129605858,2.8806300506760874,2.3162600307868204,0.4157050549983978,1.6396442651748657,0.9998363256454468,0.06126575171947479,-0.9713990092277527,0.22941461205482483,0.061430253088474274,0.5308165550231934,0.1641097366809845
1.3299989888847967,2.9392903484769795,2.2724488456089564,0.2694804072380066,1.580431342124939,0.9723986387252808,0.0479162260890007,-0.9711481332778931,0.23361453413963318,0.022136926651000977,0.5254082679748535,0.18296575546264648
1.329665390987168,2.9950525242566517,2.231336009405352,0.14489346742630005,1.5839906930923462,0.9487231373786926,0.034868814051151276,-0.9710685014724731,0.23624153435230255,-0.01239258423447609,0.5314781069755554,0.16878782212734222
1.329736133615674,3.0504617223608532,2.190809628154175,0.08001159876585007,1.6168231964111328,0.9771639108657837,0.021725839003920555,-0.9710854291915894,0.2377421259880066,-0.02438083291053772,0.5290992259979248,0.13913476467132568
1.3297724334607286,3.1083951325499215,2.147975605869981,0.041918009519577026,1.6424694061279297,1.067630410194397,0.007922712713479996,-0.9710940718650818,0.2385660707950592,-0.0010104477405548096,0.5194185972213745,0.10059118270874023
1.3295078019898998,-3.111860799654772,2.100344431476066,0.017677398398518562,1.689001441001892,1.2062870264053345,-0.007103505078703165,-0.9710308909416199,0.23884861171245575,0.037148088216781616,0.5103070139884949,0.06676982343196869
1.3286887197141002,-3.04280297323383,2.046943083136257,-0.012932175770401955,1.7348893880844116,1.3443511724472046,-0.023646323010325432,-0.9708348512649536,0.2385810762643814,0.04450511559844017,0.5056704878807068,0.046773701906204224
1.3270575578578352,-2.968927979601244,1.9889445971217747,-0.03963377699255943,1.770196795463562,1.4536491632461548,-0.04146306589245796,-0.9704424738883972,0.23774519562721252,0.015507902950048447,0.5075669288635254,0.0483725368976593
1.3244423198113067,-2.8916731249903718,1.927859361826647,-0.07255977392196655,1.808077335357666,1.5408064126968384,-0.06031535565853119,-0.969808042049408,0.23629339039325714,-0.03346511721611023,0.5069020986557007,0.05960512161254883
1.3209213556574966,-2.8133989860744606,1.8655957374599779,-0.12450672686100006,1.7522335052490234,1.570528507232666,-0.0797075554728508,-0.9689433574676514,0.2340843379497528,-0.07126285135746002,0.48903924226760864,0.07925505936145782
1.316792366944469,-2.737917179391999,1.8050728361459327,-0.18157534301280975,1.5994341373443604,1.521983027458191,-0.09870348870754242,-0.9679140448570251,0.23108401894569397,-0.11337835341691971,0.448550820350647,0.1166333556175232
1.312405448733704,-2.668281888197842,1.7486511296068883,-0.2353760302066803,1.4013174772262573,1.4298639297485352,-0.11647776514291763,-0.9668024182319641,0.22743433713912964,-0.15993519127368927,0.3897758722305298,0.15330317616462708
1.3080282780835022,-2.604484293872739,1.6963701817407106,-0.30081817507743835,1.2573655843734741,1.3434089422225952,-0.13290460407733917,-0.965674638748169,0.2231793850660324,-0.19419801235198975,0.35417860746383667,0.16904795169830322
1.303794682967933,-2.5444060371276973,1.6469594383985544,-0.3733236491680145,1.2316678762435913,1.295020341873169,-0.1483626365661621,-0.9645662903785706,0.21817566454410553,-0.2180313766002655,0.35828882455825806,0.16173779964447021
1.2992601742072472,-2.4841876972881987,1.5977953533698528,-0.422905832529068,1.3364797830581665,1.3612244129180908,-0.1638946831226349,-0.9633600115776062,0.21231114864349365,-0.22921748459339142,0.372173547744751,0.1440732181072235
1.2935315659704238,-2.420641437110573,1.546559543417419,-0.4574652314186096,1.5001202821731567,1.5037310123443604,-0.18068642914295197,-0.9618077278137207,0.2056170403957367,-0.22103168070316315,0.3790745735168457,0.12171457707881927
1.2862108476776126,-2.353549839343318,1.493116357548015,-0.5047933459281921,1.6234736442565918,1.6439083814620972,-0.19905167818069458,-0.9597781300544739,0.19800160825252533,-0.20263594388961792,0.3500521183013916,0.11358296871185303
1.2774719580513756,-2.284578833236522,1.4382646247697533,-0.6028555035591125,1.6280158758163452,1.7467460632324219,-0.21855594217777252,-0.9572879672050476,0.18929722905158997,-0.20402094721794128,0.2893800735473633,0.13360944390296936
1.2679950013111214,-2.215653674217717,1.3826837315286435,-0.7464297413825989,1.5052849054336548,1.7474843263626099,-0.23831357061862946,-0.9545049071311951,0.17924070358276367,-0.22814756631851196,0.2415226697921753,0.18924391269683838
1.2588733579423501,-2.1501108998486322,1.3286330604714258,-0.872527003288269,1.2787678241729736,1.5909945964813232,-0.2568168044090271,-0.9517452120780945,0.1680067926645279,-0.2984504699707031,0.21416586637496948,0.25507378578186035
1.251321563896779,-2.0903741564957814,1.2779424583782193,-1.0154865980148315,1.0297318696975708,1.3255418539047241,-0.27262070775032043,-0.9494004845619202,0.15593942999839783,-0.40320634841918945,0.19093173742294312,0.29256224632263184
1.2457925107208936,-2.0350274134434803,1.2296365106055354,-1.1545369625091553,0.8899217844009399,1.0952330827713013,-0.28551843762397766,-0.9476494789123535,0.14296752214431763,-0.46542760729789734,0.17384576797485352,0.3214796781539917
1.2415880120724965,-1.9804390346649188,1.1815229773568932,-1.2857357263565063,0.9262377023696899,0.9880110621452332,-0.2965458631515503,-0.9462985992431641,0.1287621408700943,-0.46027472615242004,0.1787051558494568,0.31116414070129395
1.2373494091199464,-1.9230777396934053,1.1311616031026246,-1.4315372705459595,1.0145915746688843,1.0263702869415283,-0.3072022497653961,-0.944919764995575,0.1129324808716774,-0.4192992150783539,0.19664394855499268,0.27882182598114014
1.2317068851377462,-1.861816642629783,1.0773149287941863,-1.56693696975708,1.055524468421936,1.1711496114730835,-0.31864240765571594,-0.9430579543113708,0.09544114023447037,-0.34485551714897156,0.2082403302192688,0.27092254161834717
1.223665311460389,-1.7983371860382629,1.021077638081303,-1.6549599170684814,1.0318825244903564,1.3422132730484009,-0.33143240213394165,-0.9403526186943054,0.0767434686422348,-0.28721991181373596,0.20649641752243042,0.28002238273620605
1.213220664990389,-1.7362674561258948,0.965580887879868,-1.6755269765853882,0.9496070742607117,1.42984938621521,-0.34522363543510437,-0.9367480874061584,0.057651687413454056,-0.29645416140556335,0.19276005029678345,0.2741050720214844
1.2013614637355654,-1.6786854028452207,0.9135468660185873,-1.652953028678894,0.8314546942710876,1.400987982749939,-0.35898903012275696,-0.9325315356254578,0.038881972432136536,-0.36024919152259827,0.18066996335983276,0.25387322902679443
1.1892036627948435,-1.6266480322943573,0.8657947870810904,-1.6278337240219116,0.6803568005561829,1.2857815027236938,-0.3718186914920807,-0.9280726909637451,0.02078832872211933,-0.4341658055782318,0.17276251316070557,0.24813270568847656
1.177764165931237,-1.580042475418077,0.8218275125884973,-1.6062936782836914,0.49028971791267395,1.0981721878051758,-0.3829748332500458,-0.9237520098686218,0.0035411431454122066,-0.4946344196796417,0.16294878721237183,0.2659749984741211
1.1674680115797633,-1.5380678852351917,0.780552359065439,-1.6115461587905884,0.2970603406429291,0.9228741526603699,-0.39227133989334106,-0.9197598099708557,-0.012843015603721142,-0.5265823602676392,0.1496793031692505,0.30105113983154297
1.1578840505823078,-1.4993528179639493,0.7408376197869222,-1.626049280166626,0.15944445133209229,0.8358772397041321,-0.40025508403778076,-0.9159560799598694,-0.0286443792283535,-0.5139294862747192,0.1493239402770996,0.32089608907699585
1.1478799539833588,-1.4629175013431168,0.7021978728166083,-1.6698193550109863,0.0683949664235115,0.8815358281135559,-0.40803584456443787,-0.9118958711624146,-0.04418998584151268,-0.45858702063560486,0.15760809183120728,0.32031315565109253
1.1363207156738468,-1.427870884858002,0.6640888315715199,-1.7575194835662842,0.005503424443304539,1.0093563795089722,-0.41664281487464905,-0.9070909023284912,-0.059957683086395264,-0.40418845415115356,0.17071694135665894,0.31931138038635254
1.1227374658305624,-1.393414570460089,0.625663580866926,-1.9080517292022705,-0.06471188366413116,1.142362117767334,-0.4264194071292877,-0.9012897610664368,-0.07644244283437729,-0.38603484630584717,0.17733633518218994,0.33678799867630005
1.1070470401279424,-1.3592532620593158,0.586372727247701,-2.0817484855651855,-0.1701991707086563,1.2506115436553955,-0.43733352422714233,-0.8943817019462585,-0.09392006695270538,-0.39884811639785767,0.18074333667755127,0.372316837310791
1.089746728983157,-1.325853282945197,0.5460512904247866,-2.2610440254211426,-0.3311886191368103,1.2609846591949463,-0.4488986134529114,-0.8865097761154175,-0.11220766603946686,-0.45896878838539124,0.1763046383857727,0.3946174383163452
1.071870498987855,-1.2930749653526672,0.5042674060687512,-2.4482529163360596,-0.4847625195980072,1.1604876518249512,-0.4601486027240753,-0.8780970573425293,-0.13118325173854828,-0.5338242053985596,0.14007508754730225,0.403980016708374
1.0540130540376222,-1.260847434984583,0.4607355481938284,-2.6194069385528564,-0.6796539425849915,1.0238536596298218,-0.4705425798892975,-0.8694130182266235,-0.15070120990276337,-0.5774005055427551,0.07491832971572876,0.40691161155700684
1.0362572247742234,-1.2299192607538618,0.4161330994449096,-2.7304129600524902,-0.8386728763580322,0.9099994897842407,-0.4801321029663086,-0.8605034947395325,-0.17031437158584595,-0.5992441177368164,0.046065568923950195,0.3759113550186157
1.0183209642564532,-1.2011975157187489,0.3721483548011278,-2.7495782375335693,-0.934934675693512,0.8742409348487854,-0.4893577992916107,-0.8512280583381653,-0.18957804143428802,-0.5991736650466919,0.04739499092102051,0.31801140308380127
0.9998668985459886,-1.1760737831921693,0.33078883331138914,-2.686455011367798,-1.03615403175354,0.9092649221420288,-0.4988583028316498,-0.841399073600769,-0.20781747996807098,-0.5971194505691528,0.05888253450393677,0.23922015726566315
0.9808779168275109,-1.1556621005726773,0.2932067360010997,-2.5826339721679688,-1.164223551750183,0.9434351921081543,-0.5090431571006775,-0.8309860825538635,-0.22436027228832245,-0.5885978937149048,0.055686771869659424,0.16593441367149353
0.9618371784749058,-1.1392904897894944,0.2585375928391335,-2.54205322265625,-1.2688566446304321,0.9023682475090027,-0.5195816159248352,-0.8202438354492188,-0.2392386794090271,-0.60474693775177,0.0238875150680542,0.12951278686523438
0.9432334152417937,-1.124449987805815,0.2245017429932341,-2.60524845123291,-1.29555082321167,0.777638852596283,-0.5296486020088196,-0.8094608783721924,-0.253466933965683,-0.6600791811943054,-0.023165524005889893,0.14718955755233765
0.9251229456778919,-1.1091039791235822,0.1892639610342834,-2.7345545291900635,-1.29452383518219,0.6358912587165833,-0.5387347340583801,-0.7986947298049927,-0.2680519223213196,-0.6965253353118896,-0.0363425612449646,0.17587363719940186
0.9072495773598747,-1.0927443682204911,0.15228069110984144,-2.879564046859741,-1.293993592262268,0.5162644982337952,-0.5468665361404419,-0.7878127098083496,-0.28335195779800415,-0.6980675458908081,-0.02084219455718994,0.18853390216827393
0.8893014844822681,-1.0758748806269405,0.11400133044292368,-2.989718437194824,-1.3126624822616577,0.42273691296577454,-0.5543639659881592,-0.7766318917274475,-0.29920491576194763,-0.6640503406524658,-0.021280765533447266,0.1758376955986023
0.8713231955536378,-1.0591813332492128,0.07509835506843131,-3.059438705444336,-1.340883731842041,0.33473700284957886,-0.5613773465156555,-0.7651814818382263,-0.3152026832103729,-0.6455317735671997,-0.026795506477355957,0.1335621476173401
0.8534696311883895,-1.0432444873710884,0.03614119476973199,-3.09059476852417,-1.3745803833007812,0.24123214185237885,-0.5679976344108582,-0.753565788269043,-0.33093422651290894,-0.6495011448860168,-0.010274052619934082,0.08889937400817871
0.836141902713573,-1.0281473665358412,-0.002576102148435954,-3.0715949535369873,-1.3859550952911377,0.11291304975748062,-0.5740336179733276,-0.7420624494552612,-0.3461630046367645,-0.6625691056251526,-0.003268420696258545,0.05678018927574158
0.8197520987363714,-1.014074833154775,-0.04074927460054223,-3.024540901184082,-1.4165199995040894,-0.011076465249061584,-0.5793542265892029,-0.7309767007827759,-0.3605852723121643,-0.6778783798217773,-0.009852886199951172,0.013875126838684082
0.8039591704603097,-1.0007694098776956,-0.07906689918385891,-3.1276144981384277,-1.4616193771362305,-0.12996770441532135,-0.5841524600982666,-0.7201088666915894,-0.37444552779197693,-0.6590726375579834,-0.012068986892700195,0.0037332773208618164
0.7877991468359683,-0.986640123759461,-0.11907964120057751,-3.3081021308898926,-1.418284296989441,-0.21716691553592682,-0.5884349346160889,-0.7088025212287903,-0.38902902603149414,-0.6417438983917236,-0.03362923860549927,0.07570511102676392
0.7711459266881522,-0.97157430154992,-0.1607298656042144,-3.4295711517333984,-1.4178134202957153,-0.3266185522079468,-0.5921733975410461,-0.6969574689865112,-0.4044516682624817,-0.6324512362480164,-0.03998112678527832,0.11599957942962646
0.7545893581831999,-0.9568177065363814,-0.20297327103764087,-3.4355711936950684,-1.468338131904602,-0.4342484474182129,-0.5954917669296265,-0.6849895715713501,-0.4197368323802948,-0.617231011390686,-0.027168750762939453,0.07752805948257446
0.7387107819697991,-0.9436805407275334,-0.24466286961074504,-3.3662760257720947,-1.5530439615249634,-0.5419514179229736,-0.5986587405204773,-0.6733353137969971,-0.43385186791419983,-0.5861404538154602,-0.036885082721710205,0.020231932401657104
0.7238248035052,-0.9322137932420556,-0.28561746902866514,-3.2899041175842285,-1.6111818552017212,-0.665053129196167,-0.6016265749931335,-0.6622553467750549,-0.44661322236061096,-0.581341564655304,-0.043921470642089844,-0.02732473611831665
0.7101524676088182,-0.9222948017418424,-0.3260197009624908,-3.2012131214141846,-1.7066726684570312,-0.7964297533035278,-0.6043274402618408,-0.651949405670166,-0.4579851031303406,-0.5811278223991394,-0.05477672815322876,-0.045936375856399536
0.6976772048976281,-0.9143768970103987,-0.3656075078776119,-3.089529514312744,-1.816392183303833,-0.8750380873680115,-0.6070783734321594,-0.6424393653869629,-0.46768316626548767,-0.5764238238334656,-0.07148891687393188,-0.07838305830955505
0.6862205403896535,-0.9085727590159471,-0.40398139799657307,-2.968118667602539,-1.8968862295150757,-0.9369272589683533,-0.6101183295249939,-0.6336177587509155,-0.47569340467453003,-0.5635571479797363,-0.07822006940841675,-0.13647392392158508
0.6759071430741742,-0.904634901294971,-0.44114869060302203,-2.8531601428985596,-1.9498082399368286,-1.0157809257507324,-0.6133455634117126,-0.6256052851676941,-0.4821050465106964,-0.5656552910804749,-0.07611596584320068,-0.1835595965385437
0.666776982179062,-0.9015053358071156,-0.4778476454858098,-2.7855236530303955,-1.9596678018569946,-1.112640142440796,-0.6162878274917603,-0.6184564828872681,-0.48754581809043884,-0.573165237903595,-0.08054870367050171,-0.21533498167991638
0.658535982626382,-0.8982636485778678,-0.514915695935678,-2.803138017654419,-1.9282511472702026,-1.230660319328308,-0.6186701059341431,-0.6119596362113953,-0.4926994740962982,-0.5743840932846069,-0.08735072612762451,-0.2246313989162445
0.6512162209440081,-0.894152202460306,-0.5528698610124123,-2.7921674251556396,-1.8598239421844482,-1.3812636137008667,-0.6201150417327881,-0.6061541438102722,-0.49803051352500916,-0.5779897570610046,-0.08862429857254028,-0.21685892343521118
0.6451019227969446,-0.889360926002064,-0.5914004326508634,-2.7356455326080322,-1.8220003843307495,-1.5168267488479614,-0.6205887794494629,-0.6012798547744751,-0.5033211708068848,-0.5731062889099121,-0.07703441381454468,-0.25485748052597046
0.6402331834216957,-0.8840986350697703,-0.6303002591905378,-2.694638967514038,-1.769194483757019,-1.6536301374435425,-0.6201881170272827,-0.5973824858665466,-0.5084298849105835,-0.5636192560195923,-0.06376564502716064,-0.3084646463394165
0.6362765937769711,-0.8778068913060659,-0.6700054317557217,-2.7214713096618652,-1.6843196153640747,-1.784084677696228,-0.6187905669212341,-0.5942047834396362,-0.5138278007507324,-0.5491170883178711,-0.055392444133758545,-0.3221707344055176
0.6327809594676483,-0.8699115831927557,-0.7110532098681337,-2.77889084815979,-1.5932174921035767,-1.911983847618103,-0.6162981986999512,-0.5913895964622498,-0.520033597946167,-0.5299878120422363,-0.047496020793914795,-0.3057873249053955
0.6296826780153777,-0.8606710479689192,-0.7532496726786009,-2.7840254306793213,-1.5283879041671753,-2.0178334712982178,-0.6128529906272888,-0.5888883471488953,-0.5268982648849487,-0.5033731460571289,-0.04253566265106201,-0.3120909333229065
0.6271344126329228,-0.8508247640342723,-0.7957107424982733,-2.706918239593506,-1.486047625541687,-2.0817551612854004,-0.6087616682052612,-0.5868268609046936,-0.5338947176933289,-0.4637632966041565,-0.03829526901245117,-0.36345934867858887
0.6253887858185297,-0.8412018783921703,-0.8373646769601223,-2.5512967109680176,-1.4672150611877441,-2.112372875213623,-0.6043586134910583,-0.5854125022888184,-0.5404099225997925,-0.42583853006362915,-0.02509164810180664,-0.43067467212677
0.6247612533930755,-0.8325322964015367,-0.8773628615936777,-2.326184034347534,-1.4725760221481323,-2.1210598945617676,-0.5999224781990051,-0.5849036574363708,-0.5458762049674988,-0.3950878381729126,-0.006847500801086426,-0.49268269538879395
0.6254766884560395,-0.8253500141972725,-0.9150386130902304,-2.063937187194824,-1.4911335706710815,-2.0952532291412354,-0.5956787467002869,-0.5854837894439697,-0.54988694190979,-0.35376882553100586,-0.011852085590362549,-0.54404616355896
0.6273651313385318,-0.8198081717883724,-0.9500867106673881,-1.8407422304153442,-1.497982144355774,-2.0297510623931885,-0.5918129086494446,-0.5870136618614197,-0.5524241924285889,-0.3052513003349304,-0.029807686805725098,-0.5750019550323486
0.6298547363305139,-0.8153297652189859,-0.9829365664126142,-1.6910496950149536,-1.4491891860961914,-1.9605991840362549,-0.5882673859596252,-0.5890273451805115,-0.5540653467178345,-0.27022260427474976,-0.0360184907913208,-0.5696529150009155
0.6326325266275414,-0.8110320743618034,-1.0142917931699327,-1.6014090776443481,-1.3828569650650024,-1.9155571460723877,-0.5846922397613525,-0.591269850730896,-0.5554593205451965,-0.25403761863708496,-0.04929417371749878,-0.5487124919891357
0.6355543625129282,-0.8065718809330827,-1.044773478723539,-1.5363677740097046,-1.3291854858398438,-1.8974671363830566,-0.5809593200683594,-0.593623697757721,-0.5568637847900391,-0.2506446838378906,-0.07213252782821655,-0.5378627777099609
0.6392997134395404,-0.8019240808387352,-1.0746439389988758,-1.3875582218170166,-1.2934621572494507,-1.9569257497787476,-0.5767629146575928,-0.5966336131095886,-0.558008074760437,-0.2608225345611572,-0.08908122777938843,-0.552160382270813
0.6444424344507987,-0.797602215296086,-1.1033239132122796,-1.1526106595993042,-1.2671574354171753,-1.9676072597503662,-0.5721423625946045,-0.6007527709007263,-0.5583451390266418,-0.2881481647491455,-0.09788614511489868,-0.6158033609390259
0.6510662530984124,-0.7943855355310591,-1.1296963256015984,-0.9575216174125671,-1.2490290403366089,-1.8937698602676392,-0.567491888999939,-0.6060348749160767,-0.5573819279670715,-0.27036821842193604,-0.09568631649017334,-0.6937165856361389
0.6579303296265772,-0.7909763833468709,-1.154231641830645,-0.8360520601272583,-1.0351028442382812,-1.8193659782409668,-0.562617301940918,-0.6114805340766907,-0.5563752055168152,-0.23698902130126953,-0.0755159854888916,-0.7078917622566223
0.6655755076490977,-0.7862196178841632,-1.1774096563735386,-0.6748919486999512,-0.868261992931366,-1.8346179723739624,-0.5566396713256836,-0.6175119280815125,-0.5557259321212769,-0.23231595754623413,-0.07989102602005005,-0.6876364350318909
0.6744104530537475,-0.7806252361114459,-1.1995467396939505,-0.5200783610343933,-0.7614829540252686,-1.8612656593322754,-0.5496612191200256,-0.6244369745254517,-0.5549334287643433,-0.2681335210800171,-0.07884073257446289,-0.7182599306106567
0.6844574629321978,-0.7745377846625353,-1.2209015737994748,-0.37696513533592224,-0.7073813676834106,-1.9069902896881104,-0.5418576598167419,-0.6322527527809143,-0.5537569522857666,-0.2602663040161133,-0.09130382537841797,-0.6945188045501709
0.6958654101508482,-0.7684792567646003,-1.241631561539399,-0.21259461343288422,-0.72286057472229,-1.9616578817367554,-0.5334447026252747,-0.641049861907959,-0.5518077611923218,-0.24652349948883057,-0.08584833145141602,-0.664973795413971
0.7087245347471923,-0.7631565325830655,-1.2615156942501433,-0.035447001457214355,-0.7754867672920227,-1.992227554321289,-0.524758517742157,-0.6508659720420837,-0.5486365556716919,-0.22664529085159302,-0.06988298892974854,-0.6523216962814331
0.7228204693524708,-0.7589900344880259,-1.2801291623675743,0.13309256732463837,-0.827468752861023,-1.9668982028961182,-0.5161025524139404,-0.661502480506897,-0.54410719871521,-0.1825973391532898,-0.05897176265716553,-0.6399595141410828
0.7376648589981566,-0.7559703199418898,-1.297252704832636,0.26374244689941406,-0.8349580764770508,-1.9118520021438599,-0.5076645016670227,-0.6725616455078125,-0.538458526134491,-0.1384078860282898,-0.036209166049957275,-0.6340420246124268
0.7528965592559619,-0.7533139965340657,-1.313124125561861,0.34846583008766174,-0.7735902667045593,-1.8631038665771484,-0.499166339635849,-0.6837552785873413,-0.5322704911231995,-0.11478623747825623,-0.019156157970428467,-0.631380021572113
0.7683938989762624,-0.7501079753310297,-1.3283487984362041,0.40556585788726807,-0.6719496846199036,-1.8616564273834229,-0.4901740849018097,-0.6949812769889832,-0.5260517597198486,-0.12255784869194031,-0.01983201503753662,-0.6214549541473389
0.784291153493712,-0.7454527799211027,-1.3436748311954605,0.4289628863334656,-0.5390845537185669,-1.8932157754898071,-0.480164498090744,-0.7063235640525818,-0.520143449306488,-0.1517324447631836,-0.02058994770050049,-0.6097546219825745
0.8004322197639496,-0.7387489239249094,-1.3597317798992683,0.42068472504615784,-0.40623995661735535,-1.9398887157440186,-0.4689280688762665,-0.7176571488380432,-0.5148540735244751,-0.15413403511047363,-0.016138017177581787,-0.5871661305427551
0.816702379823572,-0.7297342441885423,-1.3768712955800326,0.4048953950405121,-0.27232998609542847,-1.984942078590393,-0.45642244815826416,-0.7288921475410461,-0.5102890133857727,-0.13955530524253845,-0.004811525344848633,-0.554423451423645
0.8329462885787738,-0.7183655572923816,-1.3953248953480786,0.3625876307487488,-0.1652757078409195,-2.0366199016571045,-0.4427400529384613,-0.7399165630340576,-0.5064631104469299,-0.1368192434310913,0.003084838390350342,-0.5265874862670898
0.8489859446060612,-0.7042390132740337,-1.4156733036707594,0.2904221713542938,-0.0401594340801239,-2.1018495559692383,-0.42780187726020813,-0.7506107687950134,-0.503556489944458,-0.15285608172416687,0.016037344932556152,-0.4946887493133545
0.8645732761741031,-0.6868122564606404,-1.4384349779819412,0.1893583983182907,0.08421950787305832,-2.1694629192352295,-0.4114927053451538,-0.7608184218406677,-0.5018258690834045,-0.1547914743423462,0.02976977825164795,-0.4533590078353882
0.879424727661122,-0.6660042141152419,-1.4638059912649293,0.08638203144073486,0.1880880892276764,-2.217404365539551,-0.3939371705055237,-0.770372211933136,-0.5013384819030762,-0.13371175527572632,0.04908919334411621,-0.42058229446411133
0.8934077117345112,-0.6421712410955946,-1.4915165825763057,0.004472517408430576,0.2820158898830414,-2.2484586238861084,-0.37538906931877136,-0.7792120575904846,-0.5019079446792603,-0.11353299021720886,0.07269960641860962,-0.39700251817703247
0.9065841272413621,-0.6156751659635625,-1.5211065732325615,-0.02984704077243805,0.37626808881759644,-2.259619951248169,-0.355999618768692,-0.7874026894569397,-0.503250777721405,-0.0984986424446106,0.10504484176635742,-0.38880854845046997
0.9191729747223599,-0.5870837674361605,-1.5520017706788434,-0.0269111730158329,0.44715532660484314,-2.2630226612091064,-0.3359496593475342,-0.7951003313064575,-0.5049290657043457,-0.08377385139465332,0.14429765939712524,-0.4018092155456543
0.9313162515016976,-0.5568923456617102,-1.5837309770552204,0.004610806703567505,0.5207962393760681,-2.2444090843200684,-0.3154275417327881,-0.8024061322212219,-0.5066061019897461,-0.06820887327194214,0.1726759672164917,-0.40982145071029663
0.9430349615273467,-0.5253339859987567,-1.6158924222565274,0.045113224536180496,0.6070411205291748,-2.207275867462158,-0.2945493459701538,-0.8093443512916565,-0.5081360936164856,-0.043051332235336304,0.1830015778541565,-0.40694862604141235
0.9543065544968244,-0.49260824896567995,-1.6481253972950964,0.09324793517589569,0.6982184648513794,-2.16119647026062,-0.2734336853027344,-0.8159130215644836,-0.5094311833381653,-0.03891369700431824,0.2089487910270691,-0.4094836115837097
0.9652521746737295,-0.45862755043097825,-1.6805145634124516,0.1523440182209015,0.7844667434692383,-2.1317477226257324,-0.25199928879737854,-0.8221924901008606,-0.5103880763053894,-0.05001789331436157,0.24519658088684082,-0.40750443935394287
0.9760086145159322,-0.4235701042243203,-1.7131355844750131,0.2174849659204483,0.8336986303329468,-2.099803924560547,-0.23030678927898407,-0.8282674551010132,-0.5108149647712708,-0.05256059765815735,0.2727407217025757,-0.40480393171310425
0.9865599126852872,-0.3880932560382517,-1.7456530853757735,0.29343459010124207,0.8456701040267944,-2.033764362335205,-0.20872469246387482,-0.834133505821228,-0.5105443596839905,-0.0298159122467041,0.29117995500564575,-0.390075147151947
0.9968363200160043,-0.3532509949473509,-1.7772497333080166,0.36760395765304565,0.8253860473632812,-1.9181015491485596,-0.18783755600452423,-0.8397574424743652,-0.5094354748725891,0.02076910436153412,0.29515600204467773,-0.3702184557914734
1.0068211925857196,-0.31950016861490066,-1.8074706337263908,0.4398352801799774,0.8372911810874939,-1.8043118715286255,-0.16789789497852325,-0.8451368808746338,-0.5074977278709412,0.045949697494506836,0.3016340732574463,-0.36258888244628906
1.0166407407574365,-0.286139217616387,-1.836499476325273,0.5098131895065308,0.9112512469291687,-1.7155524492263794,-0.1485273838043213,-0.8503450751304626,-0.5048294067382812,0.03286580741405487,0.3193087577819824,-0.370811402797699
1.026321033654497,-0.2524049256506859,-1.8648638867664973,0.5661904811859131,0.9909543395042419,-1.643412709236145,-0.12935422360897064,-0.8553991913795471,-0.5015572309494019,0.010839283466339111,0.3347998857498169,-0.37414461374282837
1.0359556073418343,-0.2181669538554207,-1.8927158507428181,0.6395440697669983,1.0706149339675903,-1.579208254814148,-0.1103205755352974,-0.8603498339653015,-0.4976220726966858,-0.0010990500450134277,0.34130680561065674,-0.3673223853111267
1.0458670302870396,-0.18346720096540903,-1.920069180044805,0.7490814924240112,1.1385278701782227,-1.5148013830184937,-0.09142995625734329,-0.865359365940094,-0.4927409291267395,-0.0033270642161369324,0.33018791675567627,-0.3716541826725006
1.0563246299021407,-0.1487874206105519,-1.946719948982755,0.8694462776184082,1.15780770778656,-1.427566647529602,-0.07294472306966782,-0.8705528378486633,-0.48663827776908875,-0.0004652366042137146,0.32437974214553833,-0.38315847516059875
1.0673588226867017,-0.11490408268047958,-1.9723676413121078,0.9821465015411377,1.1296941041946411,-1.3318499326705933,-0.05531234294176102,-0.8759293556213379,-0.4792580008506775,0.0030815675854682922,0.32266098260879517,-0.37566137313842773
1.0789095133822726,-0.08182953282488888,-1.9973295753552407,1.0695284605026245,1.0968016386032104,-1.263057827949524,-0.03860415890812874,-0.8814433217048645,-0.4707096815109253,0.0007471442222595215,0.3123667240142822,-0.3507014513015747
1.0907026618167663,-0.04848296247626025,-2.0225656728915444,1.1157503128051758,1.1060394048690796,-1.2401282787322998,-0.022383684292435646,-0.8869516849517822,-0.4613196551799774,-0.02116483449935913,0.30914705991744995,-0.3224174976348877
1.1023235642211153,-0.013585563933861422,-2.0490516888331314,1.1203645467758179,1.1606484651565552,-1.2427287101745605,-0.0061340248212218285,-0.8922589421272278,-0.45148274302482605,-0.050247132778167725,0.31115829944610596,-0.29258161783218384
1.1134108018418876,0.023339390943734963,-2.0769185835295745,1.098773717880249,1.2345935106277466,-1.2265721559524536,0.01030583493411541,-0.8972101211547852,-0.44148382544517517,-0.05939331650733948,0.3074883818626404,-0.26331961154937744
1.123774073145995,0.06194168585852771,-2.105712577186646,1.0707268714904785,1.295201063156128,-1.1884925365447998,0.026759183034300804,-0.9017383456230164,-0.4314533770084381,-0.04908275604248047,0.3158465623855591,-0.2437785267829895
1.1333882185685935,0.10153157032611149,-2.1349074407572193,1.0442454814910889,1.3321001529693604,-1.1367604732513428,0.04293420538306236,-0.9058526158332825,-0.42141151428222656,-0.033046457916498184,0.32336360216140747,-0.23363301157951355
1.142406897420894,0.1417143318232741,-2.16430641237574,1.0456291437149048,1.3580907583236694,-1.0813497304916382,0.05867217108607292,-0.9096359610557556,-0.41124191880226135,-0.025240126997232437,0.3238358497619629,-0.22338631749153137
1.1512177916003097,0.18235691514397984,-2.1937510074393054,1.0806379318237305,1.3894240856170654,-1.0173460245132446,0.07387673854827881,-0.9132606983184814,-0.4006210267543793,-0.024026215076446533,0.31049275398254395,-0.22428739070892334
1.1600952055627787,0.22383391078847942,-2.223669183173444,1.1371530294418335,1.4280592203140259,-0.993307888507843,0.08862190693616867,-0.9168411493301392,-0.3892926871776581,-0.027937650680541992,0.2930464744567871,-0.24846363067626953
1.168969659526798,0.2675683590982872,-2.2552499028476616,1.1802057027816772,1.5101099014282227,-0.9918495416641235,0.10340182483196259,-0.9203481078147888,-0.3771834671497345,-0.0617147758603096,0.2765645980834961,-0.2702164351940155
1.1774878267182955,0.31408124929849074,-2.288857653614061,1.1866687536239624,1.5823864936828613,-1.011247158050537,0.11840126663446426,-0.9236461520195007,-0.3644983768463135,-0.08849397301673889,0.25549423694610596,-0.262103796005249
1.18524481058613,0.36366649600721523,-2.324988179625149,1.1827375888824463,1.6317638158798218,-1.0551477670669556,0.13376951217651367,-0.926591157913208,-0.3514750599861145,-0.1129564642906189,0.24565237760543823,-0.2362934947013855
1.192039572074679,0.4162619759940619,-2.3638581889321535,1.1674387454986572,1.660790205001831,-1.0970324277877808,0.14951278269290924,-0.9291250705718994,-0.33819037675857544,-0.12673132121562958,0.24733173847198486,-0.21668019890785217
1.1977722169553708,0.47109798606522235,-2.4046774911570674,1.148168683052063,1.7009341716766357,-1.1035081148147583,0.16540361940860748,-0.9312295317649841,-0.32473599910736084,-0.11390513181686401,0.25682151317596436,-0.20222628116607666
1.2025748583017868,0.5268672234085306,-2.4461545847473407,1.126198649406433,1.7061430215835571,-1.0636215209960938,0.18099644780158997,-0.9329690337181091,-0.31114205718040466,-0.08164636790752411,0.2707984447479248,-0.19311514496803284
1.2067034756348418,0.5822115699478942,-2.487063308590443,1.1124393939971924,1.7205283641815186,-0.9795872569084167,0.19581064581871033,-0.934447169303894,-0.29743364453315735,-0.050485894083976746,0.27914321422576904,-0.18863508105278015
1.210457440214643,0.6368179423575401,-2.526751594662489,1.1035261154174805,1.7687034606933594,-0.8932655453681946,0.20966507494449615,-0.9357773661613464,-0.28348079323768616,-0.027642935514450073,0.27360695600509644,-0.19607239961624146
1.2138212012432776,0.6911321379587855,-2.5654628436376705,1.0941693782806396,1.8371847867965698,-0.8289712071418762,0.2227376401424408,-0.9369581341743469,-0.26925355195999146,-0.032262131571769714,0.2718275189399719,-0.20430287718772888
1.2167269301330599,0.745651129042606,-2.603532776630169,1.0796337127685547,1.9144619703292847,-0.7805502414703369,0.23523080348968506,-0.9379695653915405,-0.2547149658203125,-0.049638062715530396,0.27724868059158325,-0.2058868408203125
1.219013517241538,0.8004384778047003,-2.6411845187199448,1.0539777278900146,1.9607388973236084,-0.76418536901474,0.24728623032569885,-0.9387599229812622,-0.23995739221572876,-0.06048804521560669,0.26903629302978516,-0.20207440853118896
1.2203703344353012,0.8553672150179004,-2.6784871059376614,1.007370948791504,2.0092573165893555,-0.7650189995765686,0.25912556052207947,-0.9392265677452087,-0.22518350183963776,-0.08076551556587219,0.27720868587493896,-0.19212907552719116
1.2207425357165838,0.9096443351228785,-2.7144353952834175,0.939076840877533,2.0824368000030518,-0.7362874746322632,0.27068430185317993,-0.9393542408943176,-0.210579514503479,-0.09024906158447266,0.2970965504646301,-0.176841139793396
1.220384192589943,0.9625150354325881,-2.7481400500184057,0.8780010938644409,2.140256643295288,-0.6876358985900879,0.28171053528785706,-0.9392313361167908,-0.19617296755313873,-0.0697353184223175,0.298789381980896,-0.17131966352462769
1.2195196816935472,1.0137719960422031,-2.7797270244014802,0.8369354605674744,2.1603989601135254,-0.6442762017250061,0.2920806109905243,-0.9389342069625854,-0.18191128969192505,-0.05938401818275452,0.3093411922454834,-0.17520534992218018
1.2184328937326987,1.063674495921158,-2.809798431968031,0.84073805809021,2.158738613128662,-0.5850102305412292,0.3016829490661621,-0.9385596513748169,-0.16761085391044617,-0.062364041805267334,0.33446407318115234,-0.17589499056339264
1.2175987600035152,1.1128359234413834,-2.8393012054107993,0.8887612819671631,2.1217522621154785,-0.5035944581031799,0.3102570176124573,-0.9382714629173279,-0.15292911231517792,-0.03945925831794739,0.3396844267845154,-0.18049059808254242
1.2172520196704617,1.1622192139322414,-2.8693469498122,0.9643018245697021,2.110828161239624,-0.42789942026138306,0.3177265524864197,-0.938151478767395,-0.13755671679973602,-0.021095633506774902,0.34421831369400024,-0.202927827835083
1.2172964214728816,1.2127967763448364,-2.9004894743735914,1.02802574634552,2.1532485485076904,-0.36949148774147034,0.3242357075214386,-0.9381668567657471,-0.12130329012870789,-0.027970969676971436,0.35760027170181274,-0.22217203676700592
1.2174260824735958,1.264570266536954,-2.9323706601627006,1.056976318359375,2.2026772499084473,-0.3265838325023651,0.32996252179145813,-0.9382117390632629,-0.10432469099760056,-0.04318875074386597,0.37006592750549316,-0.21411091089248657
1.2173648553788123,1.316576028268763,-2.964103243264492,1.0379301309585571,2.23099946975708,-0.290279358625412,0.3349950611591339,-0.9381905198097229,-0.08704587817192078,-0.053699225187301636,0.3935127854347229,-0.18126457929611206
1.217040778900015,1.367838748832478,-2.9947134574905574,1.0065491199493408,2.2643163204193115,-0.2501073479652405,0.3393130302429199,-0.9380783438682556,-0.06982756406068802,-0.058429181575775146,0.41998136043548584,-0.1450466513633728
1.216621149853916,1.4183757811643134,-3.0243082076331644,0.9949244856834412,2.26465106010437,-0.1894807517528534,0.3427962362766266,-0.9379328489303589,-0.0526576042175293,-0.0400618314743042,0.4413965940475464,-0.11291545629501343
1.2163957559415426,1.4680950926135081,-3.053331702005286,0.994829535484314,2.219106912612915,-0.10633476078510284,0.34519994258880615,-0.9378546476364136,-0.03557763248682022,-0.0041048526763916016,0.4577978849411011,-0.09486973285675049
1.2166258589805277,1.5173271702203703,-3.0823044966700666,1.0068076848983765,2.183547258377075,-0.000642688013613224,0.3463168740272522,-0.9379345178604126,-0.018534937873482704,0.022350847721099854,0.4680706262588501,-0.09180128574371338
1.2176179908982057,1.5665992696769901,-3.1116313937644757,1.0248432159423828,2.1521434783935547,0.14247947931289673,0.345878541469574,-0.9382781386375427,-0.0014516805531457067,0.03948220610618591,0.4746399521827698,-0.07975554466247559
1.2195331485206076,1.6166285146696648,3.1409464980881494,1.0776649713516235,2.0923995971679688,0.2801736891269684,0.34372276067733765,-0.9389387965202332,0.01576460711658001,0.05631694197654724,0.4858444333076477,-0.07206940650939941
1.2221066650698325,1.6684785985613613,3.1078208218089842,1.1451857089996338,2.0447967052459717,0.3918507397174835,0.3400380313396454,-0.9398212432861328,0.03332173824310303,0.04675707221031189,0.4883441925048828,-0.08916878700256348
1.2250155402685778,1.7225146104317242,3.071991150516729,1.1936403512954712,2.013139009475708,0.47676828503608704,0.33503830432891846,-0.9408110976219177,0.05122508108615875,0.02780050039291382,0.48390185832977295,-0.09259152412414551
1.2277101161226367,1.7780980115297702,3.0344567624584986,1.193694829940796,2.025921106338501,0.4977041780948639,0.32919326424598694,-0.9417209625244141,0.06923696398735046,-0.0038910210132598877,0.481531023979187,-0.0793687030673027
1.2298369713138664,1.8339494969967616,2.9968110229872584,1.1497299671173096,2.0350537300109863,0.4997316896915436,0.3228797912597656,-0.9424343109130859,0.0869840458035469,-0.03580090403556824,0.48190879821777344,-0.047265298664569855
1.231564375470143,1.8886726058147805,2.9604415631467287,1.067264437675476,2.038560152053833,0.524193525314331,0.31609198451042175,-0.9430105090141296,0.10400504618883133,-0.03847351670265198,0.4818136692047119,-0.007950916886329651
1.233256532255552,1.9416722595272695,2.9259339121818204,0.9671623706817627,2.037930488586426,0.5653403997421265,0.3086508512496948,-0.9435722827911377,0.12002542614936829,-0.02170923352241516,0.4763786792755127,0.023590311408042908
1.2351522299184092,1.9926838289783082,2.893431165479868,0.8601027131080627,2.0137271881103516,0.6090532541275024,0.3004967272281647,-0.9441983699798584,0.13487446308135986,-0.00014269351959228516,0.4672392010688782,0.041120514273643494
1.2373253641010926,2.0417822316488623,2.8627112875301974,0.770263135433197,1.9885019063949585,0.6470746397972107,0.2916857898235321,-0.9449118971824646,0.14852839708328247,0.0057232677936553955,0.45045095682144165,0.04731819033622742
1.239588996262862,2.089610711575998,2.833044644322138,0.7169997692108154,1.9593744277954102,0.6659737229347229,0.282393217086792,-0.9456503987312317,0.16124330461025238,-0.010573118925094604,0.44037091732025146,0.04415534436702728
1.2416943690993647,2.136813740883437,2.8038063467909464,0.6872283220291138,1.936975121498108,0.6667851805686951,0.2727890908718109,-0.9463329911231995,0.17332038283348083,-0.030525237321853638,0.42812931537628174,0.029896244406700134
1.2434446507496675,2.183402830041521,2.7751756574538815,0.648289680480957,1.9575752019882202,0.6456443667411804,0.26306602358818054,-0.9468972086906433,0.18488429486751556,-0.05116716027259827,0.41383135318756104,0.008490443229675293
1.244892162583648,2.2290437113480475,2.748061063930894,0.5733808279037476,2.0171117782592773,0.6130638122558594,0.2532724142074585,-0.9473616480827332,0.19585566222667694,-0.06893089413642883,0.40318727493286133,0.004095584154129028
1.2462541686040578,2.272272089803392,2.7238632792103505,0.45322132110595703,2.0221855640411377,0.5640037059783936,0.24358609318733215,-0.9477968215942383,0.20578500628471375,-0.0771583616733551,0.39727479219436646,0.025492578744888306
1.247673108445697,2.3116105089856984,2.703764778113789,0.32315361499786377,2.031355857849121,0.48619070649147034,0.2343113124370575,-0.9482483267784119,0.21429729461669922,-0.09725680947303772,0.40096139907836914,0.043713659048080444
1.249132773781642,2.3470700181569657,2.6880935731045468,0.20054221153259277,2.0705389976501465,0.413464218378067,0.22557894885540009,-0.9487107992172241,0.2214994877576828,-0.11829434335231781,0.3984483480453491,0.04742144048213959
1.2509881714008246,2.3792211383571384,2.6761918037457733,0.06873385608196259,2.0918211936950684,0.38724884390830994,0.2171262502670288,-0.9492957592010498,0.22736316919326782,-0.11176422238349915,0.39404362440109253,0.04488420486450195
1.2536899954219816,2.408995760376285,2.6672234251621387,-0.07826840132474899,2.1500613689422607,0.4006865322589874,0.20854544639587402,-0.9501416683197021,0.23181886970996857,-0.09305155277252197,0.3954693078994751,0.04557076096534729
1.2578401807881996,2.4370756144794963,2.660654965480169,-0.2482912689447403,2.2135534286499023,0.47297564148902893,0.19939863681793213,-0.9514276385307312,0.23457571864128113,-0.06673865020275116,0.3934594988822937,0.05592118203639984
1.2637610064500988,2.4652249986699886,2.6548180944445163,-0.39938467741012573,2.306208848953247,0.5710678100585938,0.18918776512145996,-0.9532337784767151,0.2356976866722107,-0.04984447360038757,0.40002644062042236,0.06679269671440125
1.271259727549641,2.4949052827417835,2.6485589320011993,-0.5423282980918884,2.423408269882202,0.640764057636261,0.17779764533042908,-0.9554733037948608,0.23549653589725494,-0.053987786173820496,0.4060349464416504,0.04987344145774841
1.2801409013978946,2.5251370165920903,2.642853438601796,-0.6863983869552612,2.5101709365844727,0.6735240817070007,0.1656855344772339,-0.9580562710762024,0.2338303178548813,-0.07343083620071411,0.4026668071746826,0.04639744758605957
1.2902339794887672,2.555301645901071,2.6378108760291745,-0.8042736649513245,2.526548147201538,0.7036010026931763,0.1531996876001358,-0.9608998894691467,0.23065391182899475,-0.08197158575057983,0.3949515223503113,0.0714854747056961
1.3011989206075636,2.585281422148356,2.632555683640878,-0.8735178709030151,2.4328248500823975,0.7168490290641785,0.14064501225948334,-0.9638782143592834,0.22618186473846436,-0.07503212988376617,0.3830827474594116,0.09049919247627258
1.3125857863223191,2.614839617109226,2.626512298436964,-0.9054251909255981,2.3004305362701416,0.7247895002365112,0.12837272882461548,-0.9668484926223755,0.22073720395565033,-0.07634018361568451,0.37369340658187866,0.08414879441261292
1.3241748488009109,2.6454602187061513,2.6181442730869513,-0.8954567909240723,2.1945974826812744,0.7790486216545105,0.11621279269456863,-0.9697427749633789,0.2146954983472824,-0.07446461915969849,0.37146061658859253,0.0750385969877243
1.3357060776195788,2.6803597497617675,2.6044450148812786,-0.836666464805603,2.1109490394592285,0.8640029430389404,0.10366642475128174,-0.9724933505058289,0.2085905522108078,-0.06321535259485245,0.37613409757614136,0.05798052251338959
1.34685898886452,2.7219412021928155,2.5831518251710333,-0.7623037695884705,2.049147844314575,0.9584452509880066,0.09048113226890564,-0.9750306606292725,0.20280222594738007,-0.05773574113845825,0.3817077875137329,0.032122254371643066
1.3575693537905473,2.771357756852835,2.5534149396194685,-0.7156696915626526,2.014580011367798,1.0501351356506348,0.07656966149806976,-0.9773531556129456,0.19727665185928345,-0.06677347421646118,0.3859071731567383,0.028782367706298828
1.3679874290107972,2.8290800585897196,2.5147397583545885,-0.7154651284217834,1.9390426874160767,1.1505968570709229,0.06192726641893387,-0.9795046448707581,0.1916658580303192,-0.063620924949646,0.38319116830825806,0.06288133561611176
1.3784454788418066,2.8959515407491994,2.4657954104425115,-0.7680577635765076,1.8209437131881714,1.2657666206359863,0.04648768901824951,-0.9815575480461121,0.18542861938476562,-0.057748619467020035,0.38014763593673706,0.10451899468898773
1.389167313064031,2.973045209982702,2.40540914232677,-0.866008460521698,1.725215196609497,1.3566267490386963,0.03030121512711048,-0.9835507273674011,0.17807292938232422,-0.07185086607933044,0.37391626834869385,0.14228546619415283
1.4001047653081782,3.060945151811576,2.333445630073314,-0.9836421608924866,1.6760563850402832,1.3992775678634644,0.013684350997209549,-0.9854675531387329,0.1693129986524582,-0.11654379963874817,0.3589720129966736,0.16421379148960114
1.4109540855610792,-3.1241706499620423,2.2507636452713045,-1.0863515138626099,1.6105632781982422,1.3708065748214722,-0.0027728057466447353,-0.987252414226532,0.15913927555084229,-0.17583128809928894,0.3369990587234497,0.17425012588500977
1.421360905142306,-3.017546225620721,2.1588260812408393,-1.1782913208007812,1.5371074676513672,1.2953094244003296,-0.01842082105576992,-0.9888553023338318,0.14773693680763245,-0.23485976457595825,0.31275343894958496,0.17872501909732819
1.431134226866917,-2.901701489522146,2.0570200403480654,-1.2656246423721313,1.4739118814468384,1.2345800399780273,-0.03307555988430977,-0.9902631044387817,0.13522231578826904,-0.26291438937187195,0.29940617084503174,0.18148921430110931
1.4400151829300913,-2.7706345941705837,1.9393092619655727,-1.3755208253860474,1.4009301662445068,1.2654905319213867,-0.04727429524064064,-0.9914603233337402,0.12153845280408859,-0.23547104001045227,0.29262304306030273,0.19607329368591309
1.4472133378383554,-2.61527235198781,1.796571795871034,-1.4754961729049683,1.3371310234069824,1.365797519683838,-0.061924438923597336,-0.9923733472824097,0.1065853163599968,-0.18412351608276367,0.28221410512924194,0.2055637687444687
1.4512990395821448,-2.4348075563170286,1.6278295771464129,-1.519666314125061,1.2545738220214844,1.4999436140060425,-0.07741660624742508,-0.9928686618804932,0.09065664559602737,-0.17157626152038574,0.27865052223205566,0.19570517539978027
1.4504800997815497,-2.2433694278722145,1.4470692437319217,-1.4651179313659668,1.1178972721099854,1.5960124731063843,-0.09388743340969086,-0.9927707314491272,0.07477673143148422,-0.19709762930870056,0.3104281425476074,0.16197872161865234
1.4450524366614508,-2.0609134137531084,1.2738985404609797,-1.4940707683563232,1.0046581029891968,1.6103341579437256,-0.11064881831407547,-0.9921046495437622,0.05903540924191475,-0.24433161318302155,0.2964412569999695,0.11943148821592331
1.4366151454276652,-1.8955066855060727,1.117114144830771,-1.5585819482803345,0.9791724681854248,1.5271365642547607,-0.12678854167461395,-0.9910112023353577,0.042680226266384125,-0.33649879693984985,0.2225480079650879,0.16256582736968994
1.4262779852447198,-1.7488918202814772,0.9788033540515023,-1.642453670501709,0.9388740658760071,1.4147521257400513,-0.14173787832260132,-0.9895753860473633,0.025513192638754845,-0.4161996841430664,0.19758319854736328,0.18855249881744385
1.4145424379472977,-1.6177656285731943,0.8552856725564447,-1.7605671882629395,0.8423519134521484,1.3254586458206177,-0.15544797480106354,-0.9878171682357788,0.007306656800210476,-0.4142388701438904,0.16857272386550903,0.21353387832641602
1.401361184571537,-1.5003450660438309,0.7440825383039954,-1.8592509031295776,0.6926530599594116,1.2580755949020386,-0.16820797324180603,-0.9856801629066467,-0.011870108544826508,-0.3921252489089966,0.13826799392700195,0.24934273958206177
1.3868138970279331,-1.3964687385218,0.6450871293681386,-1.9318792819976807,0.5899255275726318,1.1987669467926025,-0.18017423152923584,-0.9831229448318481,-0.03173143416643143,-0.39520418643951416,0.13346761465072632,0.2497795820236206
1.370861108297981,-1.3053223640993254,0.5577785693858747,-2.0017735958099365,0.4975873529911041,1.1842354536056519,-0.1916491985321045,-0.9800794720649719,-0.052107784897089005,-0.4060986042022705,0.13150745630264282,0.24563509225845337
1.3531736793242204,-1.224831432373166,0.4804892391027805,-2.100029468536377,0.485575795173645,1.2156105041503906,-0.2031162828207016,-0.9764134883880615,-0.0732157900929451,-0.4112788438796997,0.15738266706466675,0.24258840084075928
1.3336782151886457,-1.1533170749812247,0.4120794459094372,-2.1976544857025146,0.47974345088005066,1.2445745468139648,-0.21472764015197754,-0.9720189571380615,-0.09524297714233398,-0.3979431986808777,0.17390793561935425,0.25362932682037354
1.3125761448899604,-1.090627088153999,0.35201981091899825,-2.2652244567871094,0.39934447407722473,1.2707438468933105,-0.2264835387468338,-0.9668459892272949,-0.11795850843191147,-0.3835170269012451,0.16563743352890015,0.262459397315979
1.2902006288869636,-1.037323776016093,0.30015780960764493,-2.2980096340179443,0.2520490288734436,1.2912157773971558,-0.2384480983018875,-0.9608906507492065,-0.14082536101341248,-0.3676767349243164,0.15104562044143677,0.26828211545944214
1.2669818642426371,-0.9934558788682347,0.2560124556742448,-2.292149066925049,0.05930145084857941,1.3043665885925293,-0.25067347288131714,-0.9542022943496704,-0.16328215599060059,-0.36472874879837036,0.12818282842636108,0.26176249980926514
1.2433972755019127,-0.9583422105837166,0.2186029556867729,-2.2579290866851807,-0.14394700527191162,1.287449836730957,-0.263130784034729,-0.9468819499015808,-0.1848699301481247,-0.386710524559021,0.10241472721099854,0.24387574195861816
1.2199622510739865,-0.9300892751709686,0.18639525264053927,-2.2100327014923096,-0.2659268379211426,1.2384194135665894,-0.2755202353000641,-0.939086377620697,-0.20543985068798065,-0.4412766098976135,0.08947694301605225,0.21888291835784912
1.1970196413960827,-0.9065934991950161,0.15798444640857315,-2.161189317703247,-0.3462024927139282,1.1738907098770142,-0.2875096797943115,-0.9309549927711487,-0.2250802218914032,-0.4921534061431885,0.0780038833618164,0.19824016094207764
1.1747431200255736,-0.8868262756275991,0.13235716353731034,-2.101884126663208,-0.45034781098365784,1.1024128198623657,-0.29900670051574707,-0.9225907921791077,-0.24376483261585236,-0.5186507105827332,0.06902933120727539,0.1923123151063919
1.1531522153704996,-0.871185105385282,0.10977750864794841,-2.012554883956909,-0.5641776919364929,1.080885887145996,-0.3103278875350952,-0.9140470623970032,-0.2611794173717499,-0.5269829034805298,0.0677030086517334,0.18444302678108215
1.1319786803226004,-0.8594030044205102,0.09000629240797119,-1.9852328300476074,-0.6691898107528687,1.0647027492523193,-0.32181861996650696,-0.9052546620368958,-0.2773929536342621,-0.5024458169937134,0.06074166297912598,0.17135968804359436
1.1106041676335776,-0.8487523759283561,0.07050910555119169,-2.1088621616363525,-0.6973929405212402,1.0392338037490845,-0.33329305052757263,-0.8959671854972839,-0.29352807998657227,-0.49455726146698,0.01800692081451416,0.19457495212554932
1.0880990610978292,-0.8362279410227373,0.04873955499527209,-2.354750871658325,-0.6733343005180359,0.9984871745109558,-0.3444700241088867,-0.8857461810112,-0.31111791729927063,-0.5170259475708008,-0.015438079833984375,0.2672337293624878
1.0641396453427832,-0.8217253419599745,0.02449031706727516,-2.543673515319824,-0.7073079943656921,0.9749916791915894,-0.3553641736507416,-0.8743717670440674,-0.33043989539146423,-0.5370765924453735,-0.014239192008972168,0.3214678168296814
1.0393561865079535,-0.8083348359756309,-1.3190766366880274e-05,-2.594409942626953,-0.8708020448684692,0.9592975378036499,-0.366468608379364,-0.8620781302452087,-0.3500315845012665,-0.5258501172065735,-0.0009895563125610352,0.28873711824417114
1.014379474368775,-0.7978531536095926,-0.02339872366918658,-2.602152109146118,-1.0269724130630493,0.9451819658279419,-0.3780786991119385,-0.8491529822349548,-0.3687761425971985,-0.517566442489624,-0.006132721900939941,0.21780574321746826
0.9892916463628818,-0.7895947457166804,-0.04594859538242023,-2.634202480316162,-1.1026962995529175,0.9216632843017578,-0.39002764225006104,-0.835637092590332,-0.38676774501800537,-0.5259116888046265,-0.041026175022125244,0.18538230657577515
0.9640136419498877,-0.7819680525071984,-0.06842248953884782,-2.712883472442627,-1.0816549062728882,0.8663366436958313,-0.4018263816833496,-0.8214868903160095,-0.40459248423576355,-0.5662369728088379,-0.06030339002609253,0.1684475541114807
0.9386057079984548,-0.7735863745801491,-0.09171370222455016,-2.7800259590148926,-1.0319880247116089,0.7598836421966553,-0.4128745496273041,-0.8067349791526794,-0.4227451682090759,-0.6105019450187683,-0.08459204435348511,0.1623692512512207
0.913600243200713,-0.7647744973958116,-0.1158415322833858,-2.807429075241089,-1.0710917711257935,0.6252560615539551,-0.42297104001045227,-0.79170823097229,-0.4407874345779419,-0.6482112407684326,-0.11013197898864746,0.15274736285209656
0.8891111803058679,-0.7562214058557707,-0.14100490273157257,-2.867405652999878,-1.1535390615463257,0.4904913008213043,-0.43236225843429565,-0.7765120267868042,-0.45835795998573303,-0.6575882434844971,-0.11811083555221558,0.1291191279888153
0.8657165259795897,-0.7489176923059712,-0.16643632823629545,-2.7430403232574463,-1.3078385591506958,0.3381741940975189,-0.44125300645828247,-0.7615598440170288,-0.474681556224823,-0.63755863904953,-0.13083529472351074,0.13953757286071777
0.8438888192946469,-0.744652471178359,-0.19118793185404767,-2.664257764816284,-1.556799292564392,0.24592022597789764,-0.45038455724716187,-0.7472331523895264,-0.4886680841445923,-0.6064544320106506,-0.08502709865570068,0.07838982343673706
0.8228176918676031,-0.7426771895213721,-0.21581408071155123,-2.6724605560302734,-1.6646058559417725,0.17052187025547028,-0.45996567606925964,-0.7330651879310608,-0.5010460019111633,-0.5693464279174805,-0.13274908065795898,0.0795372724533081
0.8017445877913344,-0.741232998239462,-0.24101012095131727,-2.761814594268799,-1.6864032745361328,0.12185037136077881,-0.46956926584243774,-0.7185704708099365,-0.5129925012588501,-0.5736436247825623,-0.12463033199310303,0.10909241437911987
0.7802794157488833,-0.7397362840889622,-0.2670325999799076,-2.8565006256103516,-1.7051897048950195,0.06863055378198624,-0.47908955812454224,-0.7034780383110046,-0.5249686241149902,-0.578359842300415,-0.09881395101547241,0.11476665735244751
0.7585512767893595,-0.7381619671716992,-0.2940413212397065,-2.952141284942627,-1.7235774993896484,-0.014984991401433945,-0.4884346127510071,-0.6878706216812134,-0.5369037389755249,-0.5794517397880554,-0.1075395941734314,0.09607738256454468
0.7368165374144632,-0.7359857673672441,-0.3226149131178551,-3.070038318634033,-1.6984837055206299,-0.1756388396024704,-0.4971858561038971,-0.6719335913658142,-0.5489184856414795,-0.6017825603485107,-0.11696106195449829,0.08326607942581177
0.7152928776676006,-0.7319628770691674,-0.35358593328222304,-3.2082176208496094,-1.5941351652145386,-0.3833215534687042,-0.5045239329338074,-0.6558385491371155,-0.561543881893158,-0.6391680836677551,-0.11904865503311157,0.08022063970565796
0.6940229702229597,-0.7260288489303037,-0.38710520936110115,-3.346576452255249,-1.561981439590454,-0.585869312286377,-0.5103300213813782,-0.6396347284317017,-0.5748310685157776,-0.6410372257232666,-0.1406693458557129,0.08172810077667236
0.6728251977447932,-0.7192567219023129,-0.42290336132353273,-3.4825592041015625,-1.595199465751648,-0.7736496925354004,-0.5152439475059509,-0.6231979727745056,-0.5883434414863586,-0.6156764030456543,-0.15606844425201416,0.07398498058319092
0.6518632295685207,-0.7120493430711473,-0.46092574237512846,-3.5920674800872803,-1.6226838827133179,-0.9968761205673218,-0.5194127559661865,-0.6066686511039734,-0.6018002033233643,-0.5861169695854187,-0.1485498547554016,0.06333285570144653
0.6311160390126392,-0.7041997019596226,-0.5012620023814751,-3.7515997886657715,-1.6156119108200073,-1.2047216892242432,-0.5227105021476746,-0.5900461673736572,-0.6153204441070557,-0.5851080417633057,-0.11210232973098755,0.04682379961013794
0.6097224889181497,-0.6950914485512562,-0.5442143936735255,-4.011577129364014,-1.5296781063079834,-1.3758302927017212,-0.5250500440597534,-0.5726400017738342,-0.6296077370643616,-0.5712176561355591,-0.08504444360733032,0.03283655643463135
0.5865923806564329,-0.6837288488709211,-0.5900536341035704,-4.36000394821167,-1.3327685594558716,-1.5137544870376587,-0.5260899066925049,-0.5535262823104858,-0.6456300616264343,-0.5413386225700378,-0.06196761131286621,0.0240023136138916
0.5609720220239504,-0.6693552353940206,-0.6390800048157924,-4.76463508605957,-1.1021393537521362,-1.695684552192688,-0.5253846645355225,-0.532009482383728,-0.6640308499336243,-0.515249490737915,-0.04867905378341675,0.007918179035186768
0.5328474198742144,-0.6520787265692264,-0.6912150880856687,-5.0913472175598145,-0.8642874956130981,-1.8685789108276367,-0.5227101445198059,-0.5079880356788635,-0.6846329569816589,-0.5274759531021118,-0.02143096923828125,-0.02226102352142334
0.503027845816966,-0.6334403191827332,-0.7449642884226831,-5.213563919067383,-0.7297264933586121,-2.0184102058410645,-0.5185980200767517,-0.48208051919937134,-0.7061546444892883,-0.511919379234314,0.0035496950149536133,-0.09766316413879395
0.47332480274383953,-0.6152317059638405,-0.7985290466353597,-5.07460880279541,-0.6440383195877075,-2.175463914871216,-0.5136947631835938,-0.4558480679988861,-0.7268564701080322,-0.47325897216796875,0.03946617245674133,-0.23220419883728027
0.4457985393998099,-0.5984159794185451,-0.8505352132885493,-4.713503360748291,-0.5889838337898254,-2.3297622203826904,-0.5082778930664062,-0.4311785101890564,-0.7454788684844971,-0.45549774169921875,0.09157884120941162,-0.38058924674987793
0.42203925451026664,-0.5837204533010478,-0.899871668617025,-4.189566135406494,-0.5911974906921387,-2.439624547958374,-0.5027733445167542,-0.40962162613868713,-0.7612024545669556,-0.4292029142379761,0.13444453477859497,-0.5062841176986694
0.4028334242719807,-0.5719850866956658,-0.9455866145301095,-3.5699658393859863,-0.7336686253547668,-2.453979730606079,-0.49797311425209045,-0.39202654361724854,-0.7735230922698975,-0.36245471239089966,0.15183791518211365,-0.5963193774223328
0.38857848364525804,-0.5647883041447429,-0.9867004252848975,-2.887815237045288,-0.986785888671875,-2.383877992630005,-0.49533432722091675,-0.3788732588291168,-0.781728208065033,-0.27082470059394836,0.15411126613616943,-0.652079164981842
0.37946099609043504,-0.5623446904879835,-1.0227472110410658,-2.215067148208618,-1.2031887769699097,-2.2780938148498535,-0.4952438473701477,-0.37041985988616943,-0.7858261466026306,-0.1985580027103424,0.14610037207603455,-0.6949477791786194
0.37515512457988576,-0.5634625940385097,-1.0541167229788877,-1.6277540922164917,-1.3049558401107788,-2.1826727390289307,-0.4969693422317505,-0.366416871547699,-0.7866131067276001,-0.175317645072937,0.1445235013961792,-0.7052692174911499
0.3748468054031749,-0.5666089840067653,-1.0815847991936423,-1.1682533025741577,-1.319135069847107,-2.089714765548706,-0.4995024800300598,-0.36612996459007263,-0.785140872001648,-0.18442696332931519,0.13503557443618774,-0.6748048067092896
0.37744665511695125,-0.5708492356403849,-1.1059966239539247,-0.8537381291389465,-1.3118923902511597,-2.008042573928833,-0.502311110496521,-0.36854806542396545,-0.7822121977806091,-0.17563682794570923,0.09712466597557068,-0.6285086274147034
0.38180396590977,-0.5756815648345583,-1.1281546702571883,-0.6554237008094788,-1.2856945991516113,-1.9084419012069702,-0.5052061080932617,-0.3725951313972473,-0.7784212827682495,-0.15659809112548828,0.06467273831367493,-0.554510235786438
0.3870496884819785,-0.5808562499747822,-1.1484067336310024,-0.5152628421783447,-1.2559951543807983,-1.7979493141174316,-0.5081478953361511,-0.37745800614356995,-0.7741519808769226,-0.13597136735916138,0.02317938208580017,-0.4962185025215149
0.39294555804942666,-0.5861025497540078,-1.1671153187991583,-0.4114519953727722,-1.1996874809265137,-1.737773060798645,-0.5109624862670898,-0.38291114568710327,-0.7696080207824707,-0.13782596588134766,-0.026589035987854004,-0.4737696647644043
0.39952891989312916,-0.5905764422751618,-1.1849790152940096,-0.3107348382472992,-1.0571331977844238,-1.7233781814575195,-0.5129856467247009,-0.38898441195487976,-0.7652038335800171,-0.19192463159561157,-0.033027976751327515,-0.4566589593887329
0.4075359911223728,-0.5941031280211959,-1.201875187036234,-0.08475735038518906,-0.995595395565033,-1.7413601875305176,-0.5139210820198059,-0.39634832739830017,-0.7607845664024353,-0.22872412204742432,-0.04278439283370972,-0.4483371376991272
0.41755497932687535,-0.5978055173219007,-1.2178011183465378,0.08727389574050903,-1.0048105716705322,-1.7907356023788452,-0.5144733786582947,-0.405526727437973,-0.7555562853813171,-0.23178821802139282,-0.13156741857528687,-0.48721110820770264
0.42875678219927615,-0.6008191307027296,-1.233530144752034,0.12326012551784515,-0.8686338067054749,-1.8240855932235718,-0.5141475796699524,-0.415740430355072,-0.7502080798149109,-0.26267731189727783,-0.14152583479881287,-0.4442041516304016
0.44013789725138824,-0.6021509500974171,-1.249397024053574,0.12601839005947113,-0.7439285516738892,-1.8214112520217896,-0.5124329924583435,-0.42606422305107117,-0.7455748319625854,-0.2626219391822815,-0.10298857092857361,-0.35688793659210205
0.4515734376774136,-0.6029141751043233,-1.2650253676144876,0.16320277750492096,-0.7646705508232117,-1.7813552618026733,-0.5102055668830872,-0.4363817870616913,-0.7411216497421265,-0.21618908643722534,-0.11758860945701599,-0.33393633365631104
0.4629962315678769,-0.6041906251889245,-1.2800370059260298,0.18181034922599792,-0.8021625280380249,-1.7207279205322266,-0.5082860589027405,-0.44663089513778687,-0.736319363117218,-0.18415772914886475,-0.1430450677871704,-0.3447200655937195
0.47402323188105655,-0.6055269744104134,-1.2944775932720667,0.17036035656929016,-0.7648535370826721,-1.64037024974823,-0.5064353942871094,-0.4564695954322815,-0.7315454483032227,-0.19224923849105835,-0.1062745749950409,-0.34133052825927734
0.4851315558286246,-0.6070714002890553,-1.3082087323260294,0.27501434087753296,-0.8278273940086365,-1.6351431608200073,-0.5046407580375671,-0.46632474660873413,-0.7265528440475464,-0.19543248414993286,-0.10642918944358826,-0.3501836061477661
0.4976391396880192,-0.6095694124584661,-1.3217212699515437,0.4038330316543579,-0.9246767163276672,-1.7474063634872437,-0.503075361251831,-0.4773523509502411,-0.7204512357711792,-0.24347615242004395,-0.1789587140083313,-0.4265671968460083
0.5115160082584488,-0.6117374290531757,-1.3357143171629549,0.45051589608192444,-0.8374333381652832,-1.8338068723678589,-0.5007834434509277,-0.4894997775554657,-0.7138668894767761,-0.34231036901474,-0.14331281185150146,-0.4529574513435364
0.5258922311722227,-0.6122621058094273,-1.3502735180628258,0.44496211409568787,-0.7091614007949829,-1.868189811706543,-0.4970618486404419,-0.5019848942756653,-0.7077715992927551,-0.33272629976272583,-0.10195797681808472,-0.4423748254776001
0.5402658669252972,-0.6112508963954193,-1.3650503842190405,0.43747660517692566,-0.5835766792297363,-1.8486952781677246,-0.49215397238731384,-0.5143640041351318,-0.7022920846939087,-0.26384273171424866,-0.10045844316482544,-0.4697507619857788
0.5542705408376593,-0.6087296828629912,-1.3797489100113678,0.41857829689979553,-0.43912598490715027,-1.802049994468689,-0.48621469736099243,-0.5263231992721558,-0.6975523233413696,-0.23358812928199768,-0.06521433591842651,-0.49550187587738037
0.5681904994089578,-0.6050505900104318,-1.3940600399175516,0.5011783242225647,-0.3628489673137665,-1.77536141872406,-0.47943103313446045,-0.5381077527999878,-0.693243145942688,-0.21707162261009216,-0.04235190153121948,-0.5201510787010193
0.5831853562130305,-0.6013545406516128,-1.4077836252790252,0.6604188084602356,-0.3859998285770416,-1.8138140439987183,-0.47224703431129456,-0.5506855845451355,-0.6882791519165039,-0.20730313658714294,-0.07666432857513428,-0.5875844955444336
0.5997105501840335,-0.5977055069112258,-1.4210414257154276,0.8231666684150696,-0.35227227210998535,-1.8520087003707886,-0.464547336101532,-0.5644035339355469,-0.6823814511299133,-0.255484402179718,-0.06676101684570312,-0.6315376162528992
0.6177172599906121,-0.5940607539849382,-1.433701597029305,0.9804761409759521,-0.38009724020957947,-1.8753174543380737,-0.4562939405441284,-0.5791757702827454,-0.6755377650260925,-0.2557116150856018,-0.03732508420944214,-0.6422417759895325
0.6369185791630302,-0.5909661449373905,-1.4458483929260477,1.092653751373291,-0.407209187746048,-1.8810456991195679,-0.4479217231273651,-0.5947210192680359,-0.6675874590873718,-0.2066192626953125,-0.03316289186477661,-0.6606900691986084
0.6565386694113576,-0.5877120563855129,-1.457302451869051,1.1413943767547607,-0.3108091354370117,-1.7982234954833984,-0.43919190764427185,-0.6103787422180176,-0.6592027544975281,-0.17689692974090576,0.014767169952392578,-0.6680219173431396
0.6761171964248258,-0.5838193580077752,-1.467913568427501,1.1945300102233887,-0.2244938313961029,-1.7608180046081543,-0.42995208501815796,-0.6257691383361816,-0.6508104801177979,-0.11843353509902954,0.0016235709190368652,-0.6833570003509521
0.6965705657020506,-0.5789496128458907,-1.4783579738483505,1.3354381322860718,-0.1225975751876831,-1.8290340900421143,-0.4196859300136566,-0.64159095287323,-0.6420473456382751,-0.1382821798324585,-0.031535327434539795,-0.7360044121742249
0.7186873518956436,-0.5728047013932311,-1.4889037570489532,1.4839245080947876,-0.021848222240805626,-1.9153257608413696,-0.40794089436531067,-0.6583972573280334,-0.63253253698349,-0.22279641032218933,0.0008654594421386719,-0.7909446954727173
0.7420705650393554,-0.5650144338594566,-1.4998802669691134,1.5595436096191406,0.1309535801410675,-1.950040340423584,-0.39464840292930603,-0.6758155226707458,-0.6225159764289856,-0.22791016101837158,0.036472201347351074,-0.8033263087272644
0.765422754754481,-0.5552872890274223,-1.5109213599969327,1.5123004913330078,0.2946268618106842,-1.8732099533081055,-0.38014936447143555,-0.6928418874740601,-0.6127451062202454,-0.15465590357780457,0.09573489427566528,-0.7659627199172974
0.7872214023713,-0.5435891941189329,-1.522090064345149,1.364112377166748,0.47947928309440613,-1.7507336139678955,-0.3650560975074768,-0.7083948254585266,-0.604078471660614,-0.04262816905975342,0.1330469250679016,-0.7067735195159912
0.8073665044347136,-0.5297587288842956,-1.5335910587296993,1.2765930891036987,0.6252015233039856,-1.6949923038482666,-0.3493835926055908,-0.7224688529968262,-0.596632182598114,0.002169877290725708,0.1417192816734314,-0.6487444639205933
0.826910527919844,-0.5137603473121529,-1.5460116487457916,1.2656450271606445,0.7676207423210144,-1.7247118949890137,-0.3327903747558594,-0.7358428239822388,-0.5897338390350342,-0.029743194580078125,0.1208372712135315,-0.6703370213508606
0.8468090068458402,-0.49523889940249144,-1.5594928401395238,1.3426387310028076,0.9145749807357788,-1.7690887451171875,-0.314789354801178,-0.7491706013679504,-0.5827959775924683,-0.09614506363868713,0.16378235816955566,-0.6941968202590942
0.8675911297782265,-0.4749994790571773,-1.5739359493505143,1.436783790588379,0.9346518516540527,-1.8300434350967407,-0.2957448661327362,-0.7627733945846558,-0.5750753879547119,-0.1059274673461914,0.16554439067840576,-0.7060067057609558
0.8891591224831146,-0.45341283869597615,-1.5896859250835464,1.5115323066711426,0.9578301310539246,-1.8828074932098389,-0.2759913206100464,-0.7765421867370605,-0.5664018392562866,-0.10146531462669373,0.17652082443237305,-0.6718641519546509
0.9113337929930556,-0.4305178695202829,-1.6066196451649424,1.5858831405639648,0.9567012190818787,-1.9033849239349365,-0.25570186972618103,-0.7903216481208801,-0.55678391456604,-0.09247314929962158,0.22055840492248535,-0.6194398403167725
0.933898857553927,-0.40658371809187716,-1.624723750813337,1.63404381275177,0.947856068611145,-1.9146780967712402,-0.23518992960453033,-0.8039447069168091,-0.5462221503257751,-0.07135911285877228,0.2374010682106018,-0.6005215644836426
0.9564684655130137,-0.38097263444267154,-1.6442326091154271,1.644228219985962,1.0126174688339233,-1.9110164642333984,-0.21432259678840637,-0.8171610832214355,-0.5350828170776367,-0.07387010753154755,0.26920264959335327,-0.566983163356781
0.9786677776817484,-0.3533722814737917,-1.6650409387307392,1.6409300565719604,1.0646642446517944,-1.8696162700653076,-0.19314797222614288,-0.8297545313835144,-0.5236422419548035,-0.05888137221336365,0.2977110743522644,-0.5240566730499268
1.000342400642824,-0.3243412284193513,-1.6869072159074134,1.6368756294250488,1.0784552097320557,-1.8246570825576782,-0.17209409177303314,-0.8416559100151062,-0.5118582844734192,-0.029321864247322083,0.2947962284088135,-0.5041024088859558
1.0213681269616062,-0.29371966247104336,-1.7100568709587223,1.6051247119903564,1.118140459060669,-1.7864055633544922,-0.15118442475795746,-0.8528232574462891,-0.4998357594013214,-0.03759723901748657,0.3255862593650818,-0.4880182147026062
1.0414967510689193,-0.2608089894211464,-1.7349723645424966,1.5562278032302856,1.1796131134033203,-1.7696105241775513,-0.13020215928554535,-0.8631609678268433,-0.4878532290458679,-0.05508527159690857,0.3677690029144287,-0.4583442807197571
1.0607209282054515,-0.22526124223195956,-1.7620561678855338,1.5184849500656128,1.2183576822280884,-1.7532888650894165,-0.10905449092388153,-0.872707724571228,-0.4759081304073334,-0.06030276417732239,0.381084680557251,-0.44148075580596924
1.0790765855915454,-0.187367330812206,-1.79115834508175,1.495078682899475,1.2520685195922852,-1.724869728088379,-0.08794740587472916,-0.8815221786499023,-0.463879257440567,-0.054462820291519165,0.37862300872802734,-0.4338715672492981
1.0967314438364317,-0.1466424593610528,-1.8226464137744678,1.4917349815368652,1.3115562200546265,-1.7414134740829468,-0.06670361757278442,-0.8897200226783752,-0.45160725712776184,-0.06188216060400009,0.37241649627685547,-0.44126078486442566
1.1137977408689375,-0.10181977448430149,-1.8575694048322817,1.4952929019927979,1.407981514930725,-1.7823781967163086,-0.04485107585787773,-0.8973809480667114,-0.43897145986557007,-0.102060467004776,0.37447744607925415,-0.45046329498291016
1.1301710859130216,-0.05221199423562316,-1.8963544523184357,1.49869704246521,1.512357473373413,-1.8131355047225952,-0.022258572280406952,-0.9044851660728455,-0.42592403292655945,-0.13325896859169006,0.3795369863510132,-0.44674134254455566
1.1456221597668081,0.0021739559850196323,-1.9390402710059165,1.491008996963501,1.6046892404556274,-1.8308836221694946,0.0008967117755673826,-0.9109669327735901,-0.41247859597206116,-0.1387292742729187,0.3776721954345703,-0.43174439668655396
1.1598419239124516,0.061378996694388455,-1.9856687867649052,1.4596959352493286,1.7021429538726807,-1.8520219326019287,0.02450457215309143,-0.9167400002479553,-0.39873236417770386,-0.13699230551719666,0.38521528244018555,-0.40441399812698364
1.1724543687777673,0.12517912671301026,-2.0361254690931934,1.4075847864151,1.7663853168487549,-1.849583625793457,0.04842912405729294,-0.921705424785614,-0.384855717420578,-0.12896493077278137,0.39642155170440674,-0.3655257225036621
1.1831873794718453,0.19217211723456473,-2.0892149079441196,1.3457974195480347,1.8130831718444824,-1.8086124658584595,0.07219013571739197,-0.9258154630661011,-0.37101781368255615,-0.11624220758676529,0.40597909688949585,-0.32673606276512146
1.1921057518216907,0.2611698501650479,-2.1436344706946744,1.2950021028518677,1.8852505683898926,-1.7440500259399414,0.0954616591334343,-0.9291495084762573,-0.35716700553894043,-0.11094928532838821,0.4240225553512573,-0.3203689754009247
1.1992878032749106,0.33163398090744467,-2.1985669055897263,1.2433222532272339,1.9745876789093018,-1.6724804639816284,0.11819561570882797,-0.9317807555198669,-0.3432410955429077,-0.1088571548461914,0.44969457387924194,-0.326055109500885
1.2047693973490603,0.40295442431653766,-2.2530902359912806,1.182952880859375,2.1053788661956787,-1.5916037559509277,0.14034946262836456,-0.9337567090988159,-0.3292423486709595,-0.10951139032840729,0.47622185945510864,-0.32339128851890564
1.2086429397703777,0.47456692530390526,-2.3064232915599696,1.1284666061401367,2.2289512157440186,-1.5087230205535889,0.1618935614824295,-0.935136079788208,-0.3151368498802185,-0.10139235854148865,0.49197500944137573,-0.3122434616088867
1.211244669323998,0.54567625343882,-2.3580633559381274,1.0999435186386108,2.308570384979248,-1.4074004888534546,0.18261133134365082,-0.9360546469688416,-0.3007572293281555,-0.08637407422065735,0.4948924779891968,-0.3037654161453247
1.2129383428942209,0.6156651995781447,-2.4078485047963256,1.097611427307129,2.3492376804351807,-1.3200129270553589,0.20228074491024017,-0.9366492629051208,-0.28595563769340515,-0.07996624708175659,0.5037879943847656,-0.3013856112957001
1.2139892938101913,0.6847845277904857,-2.4562695609508425,1.115066647529602,2.3870394229888916,-1.2420309782028198,0.22092457115650177,-0.9370168447494507,-0.27054017782211304,-0.08147445321083069,0.5193989872932434,-0.2952861785888672
1.214675240752562,0.753375196457342,-2.5037356439299305,1.1651530265808105,2.4146742820739746,-1.1480481624603271,0.23850706219673157,-0.9372562170028687,-0.25429341197013855,-0.07876275479793549,0.5304722189903259,-0.2875003516674042
1.2154650582190492,0.8212037007309343,-2.550372360822845,1.2431596517562866,2.3874638080596924,-1.022843599319458,0.2546517848968506,-0.9375312924385071,-0.2370390146970749,-0.0597970187664032,0.5347450375556946,-0.28168344497680664
1.216696391626637,0.8884278551900765,-2.5967587677787027,1.341134786605835,2.3461222648620605,-0.898451030254364,0.269103467464447,-0.9379589557647705,-0.21866975724697113,-0.048369765281677246,0.539872407913208,-0.2802468538284302
1.2184807471536168,0.9557420838149641,-2.6434759280222884,1.4403367042541504,2.338083267211914,-0.7622663378715515,0.2818351089954376,-0.9385761618614197,-0.19910770654678345,-0.05217498540878296,0.5479053854942322,-0.2782939672470093
1.2209008416641942,1.023766661538715,-2.6909884288064374,1.5468997955322266,2.3240370750427246,-0.6236951947212219,0.29277628660202026,-0.939408540725708,-0.17830830812454224,-0.0506802499294281,0.556733250617981,-0.268377423286438
1.2238472937246854,1.0931422949189482,-2.7402143845610505,1.6604409217834473,2.279822826385498,-0.5109244585037231,0.3019729554653168,-0.9404144883155823,-0.1563110649585724,-0.04985189437866211,0.569610595703125,-0.25457751750946045
1.2269317575240137,1.1642171122536835,-2.791788218115668,1.7438161373138428,2.21136736869812,-0.42662495374679565,0.30964523553848267,-0.9414588212966919,-0.1333240270614624,-0.0553116500377655,0.5749274492263794,-0.2286754846572876
1.2295003819605288,1.2363101299366785,-2.8451210430262632,1.7580806016921997,2.151628017425537,-0.3934560716152191,0.31615933775901794,-0.9423217177391052,-0.10987964272499084,-0.06295490264892578,0.5737149715423584,-0.18154789507389069
1.230996541276303,1.3079231734952068,-2.8981652640973774,1.6941719055175781,2.160377025604248,-0.3563442826271057,0.32184889912605286,-0.9428214430809021,-0.08660966157913208,-0.0717419981956482,0.5728110074996948,-0.11627113819122314
1.2316398511457651,1.37706882960038,-2.9484829148873977,1.5891789197921753,2.1581673622131348,-0.26971563696861267,0.32646846771240234,-0.9430356621742249,-0.06404919177293777,-0.04732412099838257,0.5728573799133301,-0.04277753829956055
1.2320188408624013,1.4429408146121534,-2.995623609142395,1.5097911357879639,2.105093479156494,-0.1548757404088974,0.3296215236186981,-0.94316166639328,-0.04237508028745651,-0.007004886865615845,0.5863349437713623,0.005433563143014908
1.2326703368934309,1.5061405397549827,-3.0405550491223226,1.4713857173919678,2.048454999923706,0.0005631179083138704,0.33102676272392273,-0.9433779716491699,-0.021432669833302498,0.024014830589294434,0.5925021171569824,0.01992213912308216
1.2340654947234584,1.568450413379181,-3.085166324958554,1.489325761795044,1.9802035093307495,0.17667511105537415,0.3304027020931244,-0.9438398480415344,-0.0007750975782983005,0.052715033292770386,0.5848157405853271,0.02166450023651123
1.2360389914093268,1.6316134583030837,-3.1314196494352684,1.5424630641937256,1.9089844226837158,0.3011818826198578,0.32793283462524414,-0.9444900751113892,0.019968559965491295,0.06189873814582825,0.5832992196083069,0.018956659361720085
1.23806673151688,1.696754642987807,3.102805212440218,1.6062756776809692,1.8540726900100708,0.40121006965637207,0.324036568403244,-0.9451543092727661,0.0410323329269886,0.04103001952171326,0.5816594362258911,0.026899810880422592
1.239920910905755,1.7638782331468852,3.05098981370062,1.6540088653564453,1.7542294263839722,0.4921184182167053,0.31883442401885986,-0.9457582831382751,0.06233775243163109,0.047040849924087524,0.5669741034507751,0.055765386670827866
1.2411885979985058,1.8316387111005292,2.9974217643091543,1.6616973876953125,1.658392310142517,0.5282307863235474,0.3127231001853943,-0.946169376373291,0.08347322046756744,0.0488949716091156,0.5371880531311035,0.08600615710020065
1.2414430415613122,1.8987798191688474,2.943930220385878,1.6211316585540771,1.6491130590438843,0.5175381898880005,0.3061904311180115,-0.9462516903877258,0.10418843477964401,0.0163651704788208,0.5059288144111633,0.10432291030883789
1.2405811432304623,1.9640368839126774,2.892704344398491,1.5255706310272217,1.6982660293579102,0.4848039150238037,0.2994979918003082,-0.9459726214408875,0.12424616515636444,-0.016783058643341064,0.4935188293457031,0.12489940226078033
1.2388906967471984,2.0255358120316087,2.8458602722487805,1.374458909034729,1.7270148992538452,0.460764080286026,0.29273128509521484,-0.9454231262207031,0.1431204080581665,-0.03270620107650757,0.4863319993019104,0.15253399312496185
1.2370123482165734,2.082346351521727,2.8041454121115152,1.206286907196045,1.7347412109375,0.4720495343208313,0.28568077087402344,-0.9448093771934509,0.16037990152835846,-0.024679124355316162,0.4785313606262207,0.18092869222164154
1.2355115393697158,2.134599430970958,2.7671344735341363,1.0323913097381592,1.7125461101531982,0.5149389505386353,0.2781126797199249,-0.9443166255950928,0.1758395880460739,0.003015279769897461,0.4729878902435303,0.20097637176513672
1.2348571219507805,2.1829026120196224,2.7339636348764467,0.8523842096328735,1.6759071350097656,0.584298849105835,0.2698040008544922,-0.944101095199585,0.1894182413816452,0.030550122261047363,0.4626709222793579,0.20428910851478577
1.235309196170758,2.2278810746606634,2.7040962847476395,0.6786600947380066,1.675222396850586,0.6482037901878357,0.26067614555358887,-0.9442500472068787,0.20109710097312927,0.029958099126815796,0.4637659788131714,0.2026505470275879
1.2368556494411098,2.270429265166079,2.6769388090380652,0.5197012424468994,1.6945910453796387,0.7081984877586365,0.25076916813850403,-0.9447580575942993,0.21106266975402832,0.013085871934890747,0.4742531180381775,0.19884958863258362
1.2394006114278793,2.311451859309661,2.6516248327629497,0.3917054235935211,1.7164151668548584,0.7535547614097595,0.24012695252895355,-0.9455891251564026,0.21954622864723206,-0.005767136812210083,0.4765644073486328,0.18295013904571533
1.242450870885621,2.3513621477956637,2.627865063424775,0.30943915247917175,1.75954008102417,0.7391486167907715,0.22912542521953583,-0.9465771913528442,0.22692163288593292,-0.03066954016685486,0.45712101459503174,0.15595197677612305
1.2454528858188918,2.39014205686392,2.605835304290276,0.2473456710577011,1.816469430923462,0.685844361782074,0.2182142287492752,-0.9475409984588623,0.23355664312839508,-0.06870855391025543,0.4346168041229248,0.12490294873714447
1.248262544676107,2.4273691403960775,2.5859829306560043,0.1812654733657837,1.8475573062896729,0.6267210245132446,0.20762573182582855,-0.9484353065490723,0.239503875374794,-0.10330133140087128,0.42425018548965454,0.11068545281887054
1.2510651135829316,2.4625538230041673,2.5684237591334527,0.10405004769563675,1.8396918773651123,0.5857022404670715,0.1974017322063446,-0.9493199586868286,0.244589701294899,-0.11402764916419983,0.4218084216117859,0.11972925066947937
1.254160588329758,2.496216558397988,2.5523185761966167,0.03860360383987427,1.8218116760253906,0.5923276543617249,0.18728980422019958,-0.9502883553504944,0.24874670803546906,-0.10432766377925873,0.42973458766937256,0.1337759792804718
1.2576627611342595,2.529769805475536,2.5359660082825872,0.0007177409715950489,1.765215516090393,0.6431341171264648,0.1769271045923233,-0.9513729810714722,0.2521637976169586,-0.07962174713611603,0.4346034526824951,0.13318172097206116
1.261515047666504,2.5639136442529344,2.5181713233239003,-0.016313793137669563,1.6695114374160767,0.6947180032730103,0.16621282696723938,-0.9525525569915771,0.2549838721752167,-0.055815473198890686,0.4357680082321167,0.1264706552028656
1.26567419565993,2.5983515555791943,2.4992791811191006,-0.0524640753865242,1.6266324520111084,0.7362620234489441,0.1552857607603073,-0.9538102746009827,0.25716209411621094,-0.05532534420490265,0.44100815057754517,0.11622056365013123
1.2702665019340926,2.633892587981927,2.4791280231525814,-0.12624111771583557,1.63045072555542,0.7688785791397095,0.14391905069351196,-0.9551798105239868,0.2586876153945923,-0.06670951843261719,0.44318628311157227,0.12005090713500977
1.275485713437081,2.6698622418070883,2.4585331681778633,-0.21551479399204254,1.6123710870742798,0.7886157631874084,0.13225559890270233,-0.9567117691040039,0.25925111770629883,-0.07851411402225494,0.4411783218383789,0.14101752638816833
1.281297611717193,2.705862323085106,2.437697239820651,-0.29877930879592896,1.5906778573989868,0.7991656064987183,0.12049008905887604,-0.9583870768547058,0.2587984502315521,-0.09624379873275757,0.43920671939849854,0.14568161964416504
1.2877193006412184,2.74240161618907,2.4162653970488255,-0.3804699182510376,1.5966620445251465,0.8297759890556335,0.10856108367443085,-0.9602005481719971,0.2573513388633728,-0.10282373428344727,0.4432784914970398,0.13734793663024902
1.2949118994704283,2.780645240233608,2.393086406769036,-0.47456690669059753,1.5813875198364258,0.8935554623603821,0.09620070457458496,-0.9621846675872803,0.2548465132713318,-0.08361212909221649,0.44405698776245117,0.13915088772773743
1.3029467963849735,2.8212877937905585,2.367162175828377,-0.5688731670379639,1.5441900491714478,0.9513614773750305,0.08332929015159607,-0.9643422365188599,0.25119781494140625,-0.06460672616958618,0.44874775409698486,0.1445542573928833
1.31167406765013,2.864655419428028,2.338124036879799,-0.6494180560112,1.5129573345184326,1.004962682723999,0.07005663216114044,-0.9666152596473694,0.2464689463376999,-0.07049909979104996,0.45010530948638916,0.1392885148525238
1.32088908640237,2.9123468314459617,2.3044299801101866,-0.6974071264266968,1.4967275857925415,1.0959948301315308,0.0562005415558815,-0.9689353704452515,0.24084435403347015,-0.07824944704771042,0.4564993381500244,0.1339421570301056
1.330001766029369,2.9665585696683987,2.263899414968843,-0.6773819327354431,1.4641718864440918,1.1866077184677124,0.04152841120958328,-0.9711487889289856,0.2348310649394989,-0.06971132755279541,0.4568665027618408,0.11827266216278076
1.338206759012179,3.026947050343959,2.2163983992468763,-0.617547869682312,1.3614351749420166,1.24165678024292,0.026367826387286186,-0.9730727672576904,0.22898569703102112,-0.07214415073394775,0.42541950941085815,0.08432316780090332
1.3451450704335024,3.0918584538069753,2.1631261697057695,-0.5657615065574646,1.2414555549621582,1.2738876342773438,0.011123054660856724,-0.9746485948562622,0.22346559166908264,-0.08688288927078247,0.3946465849876404,0.07008317112922668
1.3508785523015652,-3.1224556071016116,2.104761670091768,-0.5418037176132202,1.140815019607544,1.314605951309204,-0.004174495581537485,-0.9759153723716736,0.21811024844646454,-0.11196008324623108,0.3913053274154663,0.0868368148803711
1.355634263626758,-3.049633364528511,2.041425287168248,-0.5635005831718445,1.0514217615127563,1.352986216545105,-0.019606243818998337,-0.9769418239593506,0.212604358792305,-0.13939028978347778,0.40374529361724854,0.10741829872131348
1.3598407254030174,-2.9730306544554574,1.973708834177328,-0.6454481482505798,1.0359413623809814,1.3636380434036255,-0.03512924537062645,-0.977831244468689,0.2064279168844223,-0.16706490516662598,0.40497034788131714,0.12828901410102844
1.364014870477959,-2.8926816025856614,1.9023417773645632,-0.7819761037826538,1.0634280443191528,1.3506617546081543,-0.0505782812833786,-0.9786967635154724,0.1989842802286148,-0.18936613202095032,0.38534343242645264,0.15755271911621094
1.3682419666140218,-2.8077920120841378,1.826528601878101,-0.9049294590950012,1.0497684478759766,1.3501964807510376,-0.06591144949197769,-0.9795559048652649,0.19006869196891785,-0.18361547589302063,0.3510463237762451,0.19358313083648682
1.3721149296775,-2.7180141181281425,1.7453956721277384,-1.0007355213165283,0.9960457682609558,1.3631263971328735,-0.08112680912017822,-0.9803276658058167,0.17993327975273132,-0.1723673790693283,0.3196069598197937,0.19535669684410095
1.37511672040018,-2.622436193460398,1.6578075288654908,-1.082505464553833,0.935727059841156,1.414261817932129,-0.09646741300821304,-0.9809157848358154,0.16881392896175385,-0.15820172429084778,0.307453989982605,0.18143637478351593
1.376673008895897,-2.5213775053481187,1.5640548283511035,-1.1237390041351318,0.8726046085357666,1.4698203802108765,-0.11211979389190674,-0.9812171459197998,0.15697911381721497,-0.15779291093349457,0.31221067905426025,0.18063701689243317
1.3761158787787937,-2.4172348924912193,1.466447028745494,-1.1279832124710083,0.7998452186584473,1.5419118404388428,-0.12819257378578186,-0.9811095595359802,0.14488188922405243,-0.17956189811229706,0.3163756728172302,0.175415500998497
1.3731607159880395,-2.313097066023789,1.3682707048930824,-1.1202526092529297,0.7647331953048706,1.5874348878860474,-0.1446949988603592,-0.9805335402488708,0.13273124396800995,-0.19446206092834473,0.2988470792770386,0.15868127346038818
1.3680457740229626,-2.2126347741291146,1.27342233653186,-1.128590703010559,0.7284670472145081,1.5924932956695557,-0.16129285097122192,-0.9795164465904236,0.12055113911628723,-0.2259141206741333,0.25321322679519653,0.1574031114578247
1.3613723981222072,-2.117416876338898,1.1832341826946768,-1.1807469129562378,0.6523187756538391,1.5622910261154175,-0.1776028722524643,-0.9781508445739746,0.10806513577699661,-0.26944905519485474,0.22953945398330688,0.18418656289577484
1.3537365682976412,-2.0277384540085195,1.0975972896418316,-1.2599692344665527,0.5356054902076721,1.5057239532470703,-0.19326470792293549,-0.976534903049469,0.09501782804727554,-0.30789488554000854,0.211825430393219,0.2301318496465683
1.3455757552901786,-1.9433475036391517,1.0160057488988452,-1.3499137163162231,0.42330631613731384,1.4118479490280151,-0.20800164341926575,-0.9747448563575745,0.08128725737333298,-0.3427490293979645,0.1906720995903015,0.2601282596588135
1.3371798035223685,-1.8634858160463823,0.937923473697178,-1.4532153606414795,0.34666693210601807,1.3264801502227783,-0.22165292501449585,-0.9728355407714844,0.06679380685091019,-0.3711051940917969,0.17020785808563232,0.26908278465270996
1.328409739578116,-1.7858088828477605,0.8614240766897047,-1.5889885425567627,0.32315006852149963,1.2765116691589355,-0.23449373245239258,-0.9707679152488708,0.05121070519089699,-0.37921473383903503,0.16324222087860107,0.2711923122406006
1.3187778155395549,-1.7085084836698317,0.7850688333884323,-1.7406758069992065,0.3297978341579437,1.2689310312271118,-0.24699823558330536,-0.9684110879898071,0.03423133119940758,-0.36535215377807617,0.1627318263053894,0.28942298889160156
1.3077675439140903,-1.6317890168395313,0.7091439581700467,-1.873975157737732,0.3232956528663635,1.2985875606536865,-0.25952327251434326,-0.9656069278717041,0.015848681330680847,-0.32957276701927185,0.15641796588897705,0.30130529403686523
1.2949909322523923,-1.557543112290935,0.6353113868794465,-1.9698617458343506,0.2852548062801361,1.3408795595169067,-0.2722983956336975,-0.9622061848640442,-0.0036090402863919735,-0.3024696409702301,0.14904993772506714,0.2939381003379822
1.2803995730884385,-1.4884695125816836,0.5661143870623132,-2.007382869720459,0.2342209368944168,1.3804376125335693,-0.2853628695011139,-0.9581303596496582,-0.023546235635876656,-0.3147958219051361,0.16101115942001343,0.27375996112823486
1.2642504748036867,-1.426904645564772,0.5037444730414716,-1.9815274477005005,0.14615125954151154,1.4037144184112549,-0.29864874482154846,-0.9533815979957581,-0.04327213019132614,-0.33332446217536926,0.17477136850357056,0.2467939853668213
1.2471250506088765,-1.374478575166007,0.44935248328258875,-1.9040961265563965,-0.017309527844190598,1.3848000764846802,-0.31193995475769043,-0.9480741620063782,-0.06203840672969818,-0.3553420603275299,0.15995776653289795,0.21912777423858643
1.2297709663077496,-1.3313342506889798,0.40260496909629856,-1.817675232887268,-0.18320396542549133,1.3337550163269043,-0.32491081953048706,-0.9424121975898743,-0.07932588458061218,-0.38767462968826294,0.13494741916656494,0.19369065761566162
1.2126607276800965,-1.2953019381783324,0.3617545555908367,-1.7460449934005737,-0.2845480442047119,1.2500793933868408,-0.33731094002723694,-0.9365519881248474,-0.09535188227891922,-0.4157102704048157,0.12194609642028809,0.1886136382818222
1.19611209919577,-1.2652481932926058,0.3258771960751771,-1.6530616283416748,-0.4064023196697235,1.1861480474472046,-0.3490279018878937,-0.9306232333183289,-0.1100924089550972,-0.4218461215496063,0.09708118438720703,0.19644199311733246
1.1795992677356424,-1.2411013141120588,0.29478384930565243,-1.5792322158813477,-0.5253323912620544,1.2340998649597168,-0.3607591986656189,-0.9244533181190491,-0.12344606965780258,-0.4169355034828186,0.0934748649597168,0.16867315769195557
1.1621203235101323,-1.2220370500408584,0.2678779350920694,-1.5554440021514893,-0.6074717044830322,1.3586739301681519,-0.3734707236289978,-0.9176477789878845,-0.13580258190631866,-0.3771396279335022,0.11755311489105225,0.16816657781600952
1.1434281898750835,-1.2067997513142685,0.24401706692147618,-1.558600902557373,-0.7052450776100159,1.4487727880477905,-0.3873210847377777,-0.9100597500801086,-0.14755870401859283,-0.3642962872982025,0.13825500011444092,0.18572105467319489
1.1240601340511454,-1.1943392497970395,0.22190877326229672,-1.5820550918579102,-0.7988810539245605,1.464194893836975,-0.4017709195613861,-0.9018619656562805,-0.15882422029972076,-0.4097371995449066,0.13654214143753052,0.20063342154026031
1.1045018945181126,-1.1832570409722396,0.20023544828492368,-1.6403812170028687,-0.8691208958625793,1.4428881406784058,-0.41623955965042114,-0.8932403922080994,-0.16990120708942413,-0.46776309609413147,0.12564688920974731,0.2154792696237564
1.0846678304912938,-1.173152406541439,0.1785099192695722,-1.7049338817596436,-0.9749927520751953,1.4535930156707764,-0.43075305223464966,-0.8841482996940613,-0.18092435598373413,-0.4645410478115082,0.09961766004562378,0.2418680340051651
1.0642537240776773,-1.1651337942082018,0.15737256950882586,-1.7241647243499756,-1.1374377012252808,1.509610652923584,-0.44578224420547485,-0.8744271397590637,-0.1914563626050949,-0.42853108048439026,0.06803053617477417,0.24910414218902588
1.0433111363948533,-1.1606020979107332,0.13788877439256006,-1.6882234811782837,-1.3384331464767456,1.5518600940704346,-0.4616048038005829,-0.8640756607055664,-0.2007344514131546,-0.4132578372955322,0.05169767141342163,0.22844451665878296
1.0224430664044262,-1.1599858231186029,0.12034704474490543,-1.6145228147506714,-1.5360040664672852,1.5416063070297241,-0.4779107868671417,-0.8533840775489807,-0.2081756293773651,-0.4552709460258484,0.03427696228027344,0.1902313232421875
1.0020308251228605,-1.162712143962509,0.1044086480636164,-1.5523097515106201,-1.69582998752594,1.5183643102645874,-0.4943646192550659,-0.8425664901733398,-0.21374119818210602,-0.5217791199684143,0.005896568298339844,0.16294480860233307
0.9821106938008389,-1.1678433655663678,0.08958871779318893,-1.5011132955551147,-1.7898683547973633,1.495821475982666,-0.5107953548431396,-0.8316712379455566,-0.21774102747440338,-0.5690690875053406,-0.008645594120025635,0.15048040449619293
0.9625864264423415,-1.174430711247654,0.07557762821047062,-1.4632817506790161,-1.8232369422912598,1.4766110181808472,-0.5270988941192627,-0.8206722140312195,-0.22059917449951172,-0.60362309217453,-0.018637537956237793,0.1362181454896927
0.9434713993526679,-1.1815333445565777,0.061851393263774604,-1.4645529985427856,-1.8188714981079102,1.4354811906814575,-0.543068528175354,-0.8096005916595459,-0.22276325523853302,-0.6176369786262512,-0.0469362735748291,0.12739594280719757
0.9247388007360081,-1.1881862716380942,0.047679411810230596,-1.503769874572754,-1.7755911350250244,1.3910833597183228,-0.5585114359855652,-0.7984635233879089,-0.22476863861083984,-0.61293625831604,-0.08779746294021606,0.1386633664369583
0.90628488504061,-1.1937711534173732,0.03248380911856004,-1.5770081281661987,-1.7458906173706055,1.3394639492034912,-0.5733618140220642,-0.7872181534767151,-0.2270326018333435,-0.6118340492248535,-0.12113755941390991,0.16221334040164948
0.8881184217994074,-1.1984935325960728,0.015905622006931654,-1.6656644344329834,-1.7894479036331177,1.2748521566390991,-0.5876531600952148,-0.775886058807373,-0.22948724031448364,-0.6201714873313904,-0.13974803686141968,0.1874188482761383
0.8705181175596469,-1.2031714691092181,-0.0020037279325562482,-1.7219688892364502,-1.896718978881836,1.1669288873672485,-0.6013718843460083,-0.7646629214286804,-0.2316082864999771,-0.6357496380805969,-0.16351395845413208,0.21035291254520416
0.8540475259115122,-1.2083170892149484,-0.02093282107717096,-1.7448241710662842,-1.9890731573104858,1.0232434272766113,-0.6142496466636658,-0.753945529460907,-0.23294557631015778,-0.6728292107582092,-0.2020176649093628,0.19635504484176636
0.8388240801996915,-1.2135741458144922,-0.04092827632063012,-1.8135823011398315,-2.0330028533935547,0.8925989270210266,-0.6261472105979919,-0.743857741355896,-0.23369990289211273,-0.6945010423660278,-0.23349833488464355,0.16642391681671143
0.8248299811366957,-1.2169438198426592,-0.06369691759165658,-2.0457470417022705,-1.9727131128311157,0.6180831789970398,-0.636634111404419,-0.7344323992729187,-0.23517295718193054,-0.7011497616767883,-0.2731817960739136,0.1647995114326477
0.8128723157432269,-1.2160323062666172,-0.09078303191233483,-2.254920482635498,-1.8058152198791504,0.35589200258255005,-0.6446090340614319,-0.7262646555900574,-0.23878687620162964,-0.7668442726135254,-0.32027482986450195,0.21353361010551453
0.8021930674601757,-1.2114073857251406,-0.12179303189622433,-2.4908225536346436,-1.735698938369751,0.14984749257564545,-0.6507213115692139,-0.7188822627067566,-0.24447950720787048,-0.7933704853057861,-0.3526662588119507,0.19552934169769287
