attitudeX,attitudeY,attitudeZ,gyroX,gyroY,gyroZ,gravityX,gravityY,gravityZ,accX,accY,accZ
1.3951410510199047,-1.9833415400457375,2.7591351346939628,0.49216848611831665,0.35576900839805603,0.4302136301994324,-0.16009286046028137,-0.984612226486206,0.07006633281707764,0.1098150908946991,0.1236501932144165,-0.11366057395935059
1.3892866364644172,-1.9947098119866011,2.775054245544851,0.49274834990501404,0.4976274371147156,0.4018532931804657,-0.16453710198402405,-0.9835723042488098,0.0742514356970787,0.08493192493915558,0.15558457374572754,-0.08888448029756546
1.3838842880817601,-2.0048902106663444,2.7910905750138686,0.4854331612586975,0.6125606298446655,0.3284912109375,-0.16859100759029388,-0.9825827479362488,0.07815631479024887,0.04246179759502411,0.170265793800354,-0.07943785935640335
1.3792616079025593,-2.0152950640018505,2.808337765750395,0.49521729350090027,0.6793960928916931,0.23156408965587616,-0.17186808586120605,-0.9817132353782654,0.08185871690511703,-0.0032876133918762207,0.16893839836120605,-0.09388244152069092
1.3753235473441616,-2.0277544571509347,2.8281090903696025,0.531283438205719,0.6996089220046997,0.1493925154209137,-0.17430339753627777,-0.980955958366394,0.08569903671741486,-0.025861546397209167,0.17921316623687744,-0.12679076194763184
1.3717029649699806,-2.0428936768820596,2.850661371468217,0.5821639895439148,0.6926543116569519,0.10126397013664246,-0.17614787817001343,-0.9802463054656982,0.08994238078594208,-0.01211516559123993,0.20062875747680664,-0.15253376960754395
1.3680470139888699,-2.0605846650506887,2.8757278290284596,0.6374530792236328,0.6710017919540405,0.08677876740694046,-0.1776895970106125,-0.9795166850090027,0.0947292149066925,0.017945215106010437,0.22341316938400269,-0.16197456419467926
1.3639367592907226,-2.0801661383843166,2.9024361500178935,0.7028571367263794,0.6387043595314026,0.11548599600791931,-0.17931470274925232,-0.9786807298660278,0.10015293210744858,0.05236145853996277,0.24831873178482056,-0.16047072410583496
1.3590433113893814,-2.1007835977509783,2.930112991139007,0.778581440448761,0.6616783738136292,0.15873199701309204,-0.18134155869483948,-0.9776639938354492,0.10624799877405167,0.09488518536090851,0.28131383657455444,-0.15097129344940186
1.3533193186206307,-2.122634036216858,2.9598154683486846,0.8889538049697876,0.7715321183204651,0.16251437366008759,-0.18373975157737732,-0.9764449596405029,0.11311690509319305,0.12290284037590027,0.3191419243812561,-0.13907194137573242
1.347067129245531,-2.1460761661698124,2.9936720435839415,1.0281330347061157,1.145202398300171,0.09425941109657288,-0.18615630269050598,-0.9750768542289734,0.12071174383163452,0.09580889344215393,0.34910011291503906,-0.1190788745880127
1.3402568065546059,-2.1704152383476103,3.030836870635761,1.0905418395996094,1.2054498195648193,0.12378822267055511,-0.18864093720912933,-0.9735432267189026,0.12895070016384125,0.008449837565422058,0.3691883683204651,-0.09980632364749908
1.3329940139969285,-2.1901044919935244,3.064091901534563,0.9855550527572632,1.3337318897247314,0.16861747205257416,-0.19181784987449646,-0.971858024597168,0.13674025237560272,-0.040451496839523315,0.39339739084243774,-0.0028289854526519775
1.3264703753518732,-2.202790667159263,3.0915429440596163,0.8359530568122864,1.43504798412323,0.10900476574897766,-0.19518008828163147,-0.9703006148338318,0.14290574193000793,0.0653124451637268,0.4482818841934204,0.0766073614358902
1.3213923316181446,-2.2115957004880777,3.1155023351375193,0.7042043805122375,1.427883267402649,0.009937831200659275,-0.19786110520362854,-0.9690597057342529,0.14756225049495697,0.05815154314041138,0.4653822183609009,0.06226158142089844
1.3177193702024907,-2.2180291669350725,3.1367044114822304,0.5750168561935425,1.377903938293457,-0.050649210810661316,-0.19974559545516968,-0.968146562576294,0.15097716450691223,0.0437091588973999,0.45030897855758667,0.03641617298126221
1.315228454786322,-2.2218654734377377,-3.128818583566771,0.43123385310173035,1.2495232820510864,-0.08734703809022903,-0.2010819911956787,-0.9675198793411255,0.15320292115211487,0.06138768792152405,0.48129868507385254,0.014201372861862183
1.3139378802200241,-2.2232071002630054,-3.1155673660017875,0.24713386595249176,1.0301666259765625,-0.11325044929981232,-0.20186883211135864,-0.9671928286552429,0.15423089265823364,0.08880114555358887,0.5082083940505981,0.004811644554138184
1.3142662536654226,-2.2217910958841047,-3.1077784950077465,0.021872784942388535,0.7415524125099182,-0.18744239211082458,-0.20183421671390533,-0.9672762155532837,0.15375231206417084,0.11342474818229675,0.5276705026626587,0.009287938475608826
1.3169525645097584,-2.2190318765614743,-3.104592129252807,-0.21981476247310638,0.42722076177597046,-0.34582778811454773,-0.20018556714057922,-0.9679542779922485,0.1516253501176834,0.11128777265548706,0.5575539469718933,0.027680858969688416
1.3226539172445924,-2.215610306395152,-3.1050533637460904,-0.4889322519302368,0.17930150032043457,-0.5466919541358948,-0.19628965854644775,-0.9693703055381775,0.1476203054189682,0.07719473540782928,0.604792058467865,0.04973708093166351
1.3316654869067843,-2.20973357782927,-3.1101044617638633,-0.7879182696342468,0.025574296712875366,-0.7487703561782837,-0.19013410806655884,-0.9715442061424255,0.14124934375286102,0.07326698303222656,0.638292133808136,0.08325338363647461
1.3443273246357466,-2.1987694799365123,-3.1214089488566397,-1.1291065216064453,-0.01990237459540367,-0.9806877374649048,-0.18170104920864105,-0.9744653105735779,0.13191768527030945,0.05830316245555878,0.6521385908126831,0.10676048696041107
1.3608384969698,-2.1793251187479337,-3.141388715525881,-1.4769564867019653,0.012655624188482761,-1.2041935920715332,-0.17100632190704346,-0.9780396819114685,0.1191454529762268,0.030961081385612488,0.6704833507537842,0.11356653273105621
1.380926072224875,-2.1487519199602505,3.1109932393772297,-1.7615070343017578,0.0652027279138565,-1.432620882987976,-0.15807873010635376,-0.9820287227630615,0.10310691595077515,0.03214782476425171,0.6879764795303345,0.09379267692565918
1.4040153219085585,-2.105286773519146,3.067852350844858,-1.9521290063858032,0.1383243352174759,-1.671734094619751,-0.14285585284233093,-0.9861242771148682,0.0845656618475914,0.03824152052402496,0.7189275622367859,0.045271508395671844
1.4295026345354909,-2.0462855580771078,3.0099271068168467,-2.044189214706421,0.21123315393924713,-1.9156067371368408,-0.12520276010036469,-0.9900346398353577,0.06446576118469238,0.05833868682384491,0.7529587745666504,-0.02250397950410843
1.456822597808687,-1.96274879323443,2.9282842995289826,-2.1269006729125977,0.29501983523368835,-2.1482362747192383,-0.10510403662919998,-0.9935120344161987,0.04344360902905464,0.07798907160758972,0.7672851085662842,-0.07119917869567871
1.4851889697028349,-1.8210379166689146,2.7892362099999777,-2.2719669342041016,0.36560556292533875,-2.322326898574829,-0.08284199237823486,-0.9963379502296448,0.0211743526160717,0.1304493546485901,0.7672422528266907,-0.07152819633483887
1.5114935782253258,-1.5270436368365354,2.4984682383960375,-2.4201011657714844,0.42173758149147034,-2.391047477722168,-0.05921274796128273,-0.9982420802116394,-0.002592371543869376,0.23175904154777527,0.7471891641616821,-0.05561971664428711
1.5258150060131397,-0.9068071863240508,1.8820699477399667,-2.5453152656555176,0.500551164150238,-2.328766107559204,-0.035416118800640106,-0.9989885091781616,-0.027713706716895103,0.31909218430519104,0.7057449817657471,-0.07697665691375732
1.5155933362974587,-0.2315794595245596,1.211533373385885,-2.608247756958008,0.5720847845077515,-2.155158758163452,-0.012664314359426498,-0.9984766840934753,-0.05370558053255081,0.37562504410743713,0.6580377221107483,-0.12102270126342773
1.4905726215665018,0.10095999121590486,0.8839652919122535,-2.579291820526123,0.5516756772994995,-1.9067997932434082,0.00807709526270628,-0.9967837929725647,-0.07973092794418335,0.4191384017467499,0.5734743475914001,-0.19459140300750732
1.4624219222421473,0.24588438431721016,0.7434041872482476,-2.4714837074279785,0.42186203598976135,-1.6642582416534424,0.02632869966328144,-0.9941332340240479,-0.10491087287664413,0.45484188199043274,0.4614640474319458,-0.26923447847366333
1.435004910513036,0.31826798882400203,0.6736552765281817,-2.2975285053253174,0.2042199820280075,-1.4946527481079102,0.04236208647489548,-0.9907944798469543,-0.1285771280527115,0.43400195240974426,0.3762924075126648,-0.31494998931884766
1.4093990618107286,0.3614878942219104,0.6310457461897606,-2.0897583961486816,0.019251659512519836,-1.397767424583435,0.05683358386158943,-0.9870036840438843,-0.1503126323223114,0.4040428102016449,0.2989542484283447,-0.31892549991607666
1.38576868375888,0.3922439627791654,0.5998218112072308,-1.8962346315383911,0.01566305011510849,-1.3404642343521118,0.07032664120197296,-0.9829311370849609,-0.17000232636928558,0.3643198609352112,0.2129877805709839,-0.29557371139526367
1.3636511458944511,0.41979258422118254,0.5730817423057755,-1.7485800981521606,0.2846241593360901,-1.3735694885253906,0.08382420241832733,-0.9786220192909241,-0.1878102868795395,0.2673414647579193,0.10755860805511475,-0.28010037541389465
1.342084804967772,0.45398649005321906,0.5436465808921166,-1.6051254272460938,0.8322017788887024,-1.6250208616256714,0.0994301363825798,-0.9739593267440796,-0.2037580907344818,0.0908164232969284,-0.02616298198699951,-0.29117587208747864
1.320233126044069,0.5043757419289167,0.503560508798327,-1.3715823888778687,1.4368976354599,-2.0799150466918945,0.11982447654008865,-0.9687729477882385,-0.2170741856098175,-0.049878254532814026,-0.17494964599609375,-0.32143887877464294
1.2977713423976003,0.5719881962203958,0.45044395463404646,-1.0658634901046753,1.7669857740402222,-2.554429531097412,0.14596082270145416,-0.9629596471786499,-0.22672569751739502,-0.12250812351703644,-0.3515547513961792,-0.4088790714740753
1.2745269562000372,0.6484341871960845,0.3894799712494227,-0.7799118161201477,1.782395362854004,-2.875143527984619,0.17632275819778442,-0.9564323425292969,-0.23269662261009216,-0.0978621244430542,-0.5266305208206177,-0.4728086590766907
1.2504556738107369,0.72437158965918,0.3280763611061066,-0.5869405269622803,1.6841458082199097,-3.011950731277466,0.20866669714450836,-0.9491282105445862,-0.2358262985944748,-0.017123207449913025,-0.7307730317115784,-0.44991886615753174
1.2256496699937893,0.7925850041170348,0.27181587183083883,-0.48984208703041077,1.2549957036972046,-3.0420985221862793,0.24095192551612854,-0.9410258531570435,-0.2375132143497467,0.01805071532726288,-0.9899739623069763,-0.40427136421203613
1.2002064871831568,0.8482422473631882,0.22181493121769985,-0.403560996055603,0.4826759994029999,-3.039090633392334,0.2716675102710724,-0.9321138858795166,-0.2395012229681015,0.021148651838302612,-1.2262115478515625,-0.33020082116127014
1.174938526264573,0.8911646715481606,0.1769095079806658,-0.2828044891357422,-0.18244314193725586,-2.9573493003845215,0.2999214231967926,-0.9226661324501038,-0.2423522025346756,-0.00437396764755249,-1.510622501373291,-0.26309508085250854
1.1509945622472546,0.9245748375921328,0.1367041050516373,-0.14593930542469025,-0.475442498922348,-2.736602306365967,0.32539716362953186,-0.9131697416305542,-0.24543383717536926,-0.015125006437301636,-1.8639299869537354,-0.18513856828212738
1.1301760542887085,0.9517907656833857,0.10138678771014335,0.08097495138645172,-0.4560556411743164,-2.327601194381714,0.34736597537994385,-0.9044873118400574,-0.247466579079628,0.043701499700546265,-2.172478199005127,-0.06219516694545746
1.1145578680785633,0.9775685171911213,0.06934108298096262,0.4388215243816376,-0.13437004387378693,-1.7926695346832275,0.365298330783844,-0.8977161049842834,-0.24629898369312286,0.14828196167945862,-2.4028210639953613,-0.0031668543815612793
1.1059706276252017,1.0055049851654307,0.03881576825063183,0.8939453363418579,0.2525376081466675,-1.0997892618179321,0.37853145599365234,-0.8938997387886047,-0.24011966586112976,0.26482483744621277,-2.562368869781494,-0.0155869722366333
1.1061508205684687,1.0359964445370768,0.009565068609700682,1.344045639038086,0.6098483204841614,-0.2198880910873413,0.38553720712661743,-0.8939804434776306,-0.22838565707206726,0.4396427869796753,-2.6025710105895996,-0.001533612608909607
1.116313904905643,1.067539885572313,-0.017281913991949262,1.706457257270813,0.8625503778457642,0.8079947233200073,0.38456934690475464,-0.8984883427619934,-0.21172016859054565,0.5595376491546631,-2.522547721862793,0.03896021842956543
1.1365514429345898,1.0981726876259417,-0.041016871242796155,1.9658366441726685,0.9624676704406738,1.7809886932373047,0.37460434436798096,-0.9071879982948303,-0.19152431190013885,0.6009509563446045,-2.356529712677002,0.08553692698478699
1.165030830344842,1.127717641006128,-0.06246168602003151,2.0878708362579346,1.0268326997756958,2.500669240951538,0.3566068112850189,-0.9188005328178406,-0.16922670602798462,0.5343996286392212,-2.1409072875976562,0.12630383670330048
1.1986619830439693,1.157232954561127,-0.08273357905261523,2.073638677597046,1.1287801265716553,2.9250810146331787,0.33295130729675293,-0.9315534234046936,-0.14612378180027008,0.37372899055480957,-1.9141347408294678,0.16386984288692474
1.2346028522732095,1.1875859315012445,-0.10231329714105436,1.9409499168395996,1.2646228075027466,3.132538318634033,0.3059687614440918,-0.944017231464386,-0.12334827333688736,0.22776836156845093,-1.7028486728668213,0.19190609455108643
1.2710576484918636,1.2185427977381538,-0.12086238449798328,1.7481402158737183,1.3888230323791504,3.225215196609497,0.277140349149704,-0.9554136991500854,-0.10187246650457382,0.17160531878471375,-1.506195306777954,0.20819580554962158
1.307355527240974,1.2498897590542306,-0.13838720847285624,1.5561449527740479,1.5064893960952759,3.2777040004730225,0.24711118638515472,-0.9654996991157532,-0.08213872462511063,0.19223511219024658,-1.3200534582138062,0.19709861278533936
1.3431588500528666,1.2818533831789194,-0.15520372327724147,1.3638231754302979,1.612579345703125,3.2776987552642822,0.21632170677185059,-0.9742022752761841,-0.06430421769618988,0.23437710106372833,-1.1410627365112305,0.16057205200195312
1.3779797308657458,1.3146680460824507,-0.1718076074983421,1.171338677406311,1.6810301542282104,3.2177767753601074,0.18537358939647675,-0.9814683794975281,-0.04854565113782883,0.25302666425704956,-0.992240846157074,0.12711328268051147
1.4114709050306675,1.348044953407492,-0.188597424759488,0.9848549962043762,1.6686458587646484,3.1320888996124268,0.15473297238349915,-0.9873345494270325,-0.03504859283566475,0.28458279371261597,-0.8810126781463623,0.0964958667755127
1.4438182471835308,1.3815381261030253,-0.20585898253962623,0.8140245676040649,1.5935451984405518,3.082392692565918,0.12437707185745239,-0.9919490814208984,-0.02382451668381691,0.37255585193634033,-0.7704259157180786,0.07546043395996094
1.4755422844348687,1.4160876261041362,-0.2251370522487009,0.6950095295906067,1.4714022874832153,3.081310272216797,0.09397488832473755,-0.9954667687416077,-0.014655848033726215,0.4740029573440552,-0.6536726951599121,0.0568312406539917
1.5072124860981244,1.461129102767819,-0.25620647645623856,0.6327598094940186,1.3350309133529663,3.1149258613586426,0.06315917521715164,-0.9979792237281799,-0.006954393349587917,0.5566069483757019,-0.5402593016624451,0.009075523354113102
1.5391055353126364,1.567821894631019,-0.3501613905953667,0.6183497309684753,1.2270277738571167,3.1758885383605957,0.031688142567873,-0.9994978904724121,-9.425450843991712e-05,0.6127667427062988,-0.40811020135879517,-0.05531024932861328
1.5643947795233117,-3.0697735905659864,-1.983997277258619,0.6456220149993896,1.1436470746994019,3.2270567417144775,-0.0004603473353199661,-0.9999794960021973,0.006398796569555998,0.6441980600357056,-0.2773337960243225,-0.11322546005249023
1.5352823966486715,-1.9451614916702589,-3.0973449186001782,0.7124103307723999,1.1240859031677246,3.244084358215332,-0.03304670751094818,-0.9993694424629211,0.012983838096261024,0.6486319899559021,-0.15358459949493408,-0.1605973243713379
1.502187042344774,-1.8674843715689182,3.119286900627926,0.8131824135780334,1.104353427886963,3.1985843181610107,-0.0655607208609581,-0.9976472854614258,0.02004263736307621,0.6368802189826965,-0.04152202606201172,-0.2131577730178833
1.4694151094285413,-1.8506778961542667,3.11344395463986,0.9518774151802063,1.0938376188278198,3.08406662940979,-0.0972709208726883,-0.9948652982711792,0.027958203107118607,0.5917929410934448,0.04935431480407715,-0.2663918733596802
1.4377231947223388,-1.8521603039718804,3.126359623685771,1.0890871286392212,1.1802465915679932,2.892817497253418,-0.1274644285440445,-0.9911588430404663,0.0368412546813488,0.527381956577301,0.13283658027648926,-0.30069613456726074
1.4078788370247302,-1.859016517417639,-3.137095656174346,1.123528003692627,1.3428211212158203,2.6473374366760254,-0.15550820529460907,-0.986758291721344,0.04610437527298927,0.4608975350856781,0.20624059438705444,-0.30626654624938965
1.380622276558451,-1.8632205801706767,-3.1185807618327157,1.0479512214660645,1.4416277408599854,2.3657360076904297,-0.18100591003894806,-0.9819713234901428,0.054492704570293427,0.3931945562362671,0.27478742599487305,-0.276157021522522
1.3564966814683728,-1.86345152681403,-3.1034197473580143,0.9133213758468628,1.465987205505371,2.0645086765289307,-0.20362228155136108,-0.9771255850791931,0.061352767050266266,0.34121066331863403,0.32226383686065674,-0.23917853832244873
1.3356767985457327,-1.859139080381688,-3.0930066562693934,0.7055484652519226,1.402628779411316,1.7860749959945679,-0.22334274649620056,-0.9724864959716797,0.066245436668396,0.3282468020915985,0.35368144512176514,-0.21701741218566895
1.3179151620314196,-1.848237224385715,-3.0908485331864894,0.3705616891384125,1.1665114164352417,1.5990550518035889,-0.24062739312648773,-0.9681956171989441,0.0685272291302681,0.3302574157714844,0.39818817377090454,-0.18350207805633545
1.302445398496464,-1.8292892474789617,-3.1004328392919924,-0.03337129205465317,0.7419451475143433,1.5138487815856934,-0.25633278489112854,-0.9642094373703003,0.06777656078338623,0.33085665106773376,0.45819753408432007,-0.12875057756900787
1.2885443031114046,-1.8026156761301697,-3.1231744040076244,-0.49470055103302,0.20366573333740234,1.483669400215149,-0.27106955647468567,-0.9604306221008301,0.0639895647764206,0.3346985876560211,0.519405722618103,-0.09192824363708496
1.2755550085190512,-1.7694040700720306,3.124492156349311,-0.9079204201698303,-0.36195769906044006,1.4765338897705078,-0.2852511405944824,-0.9567319750785828,0.057409923523664474,0.33385029435157776,0.5861417055130005,-0.06265878677368164
1.2629784438630542,-1.7337397858836754,3.08103571359822,-1.1488782167434692,-0.7615509033203125,1.4480979442596436,-0.2989671528339386,-0.9529969692230225,0.0491505041718483,0.30792391300201416,0.6395660638809204,-0.06534004211425781
1.2505040090903563,-1.6991156361574453,3.0359017485469555,-1.2209444046020508,-0.8607967495918274,1.4187144041061401,-0.3122561275959015,-0.9491434097290039,0.04028987139463425,0.26162734627723694,0.6766976118087769,-0.11099898815155029
1.2377362977970034,-1.6671973078417521,2.9934611196521095,-1.1835522651672363,-0.7729316353797913,1.4136816263198853,-0.3254193365573883,-0.9450463056564331,0.031468283385038376,0.22980758547782898,0.7185599207878113,-0.14500880241394043
1.2245499067353645,-1.638619319792447,2.955858361999073,-1.0785819292068481,-0.5869318842887878,1.4080454111099243,-0.3385896682739258,-0.9406532049179077,0.022999441251158714,0.20852363109588623,0.7617590427398682,-0.14627504348754883
1.2110549665697732,-1.6142011614787946,2.9248520972105863,-0.8975721597671509,-0.340046763420105,1.3958039283752441,-0.3517007529735565,-0.9359878897666931,0.015275107696652412,0.19125452637672424,0.7879623770713806,-0.1562051773071289
1.197463091873553,-1.5948001151993374,2.9018636798213375,-0.6456450819969177,-0.06769362837076187,1.3607970476150513,-0.36461639404296875,-0.9311168193817139,0.008753856644034386,0.1832808554172516,0.7983957529067993,-0.18334484100341797
1.184229447342426,-1.580852145840383,2.887611272611489,-0.35704100131988525,0.20637521147727966,1.2881646156311035,-0.37699195742607117,-0.9262088537216187,0.003791090799495578,0.1677633821964264,0.8079074621200562,-0.2139502763748169
1.1718180300073509,-1.572583047148386,2.882264556896353,-0.037102438509464264,0.4538619816303253,1.1897004842758179,-0.3884764313697815,-0.92145836353302,0.0006940994644537568,0.14959999918937683,0.8116104602813721,-0.24764227867126465
1.1603604475734233,-1.5699094144379693,2.885321335173431,0.2764706611633301,0.6198275685310364,1.0962605476379395,-0.3990093469619751,-0.9169470071792603,-0.00035388642572797835,0.15456342697143555,0.8096318244934082,-0.2645385265350342
1.149767166322153,-1.5730326671252146,2.8957393797425386,0.5584662556648254,0.639430820941925,1.016481637954712,-0.4086994230747223,-0.9126688241958618,0.0009139925241470337,0.18402889370918274,0.8142037391662598,-0.2522871494293213
1.1399293306587708,-1.5816446353662912,2.9121227663767666,0.7985236048698425,0.6201804280281067,0.9332931041717529,-0.4176345467567444,-0.9086039662361145,0.004530806094408035,0.20626965165138245,0.8295633792877197,-0.227247953414917
1.1308788352536612,-1.5943081461540765,2.9329099507553305,0.9690896272659302,0.6170855164527893,0.8394067883491516,-0.4257473647594452,-0.9047868251800537,0.010011940263211727,0.21250569820404053,0.8363205790519714,-0.18905842304229736
1.122601883967196,-1.6088074672151031,2.9558412593013053,1.0281308889389038,0.6193004250526428,0.7471762299537659,-0.43302619457244873,-0.9012309908866882,0.016467750072479248,0.20411372184753418,0.8214122653007507,-0.13460111618041992
1.1150605193387781,-1.6228206748408351,2.978101665764388,0.9601475596427917,0.5748929977416992,0.6653167009353638,-0.43952786922454834,-0.8979374170303345,0.02288680151104927,0.20974567532539368,0.8017917275428772,-0.06329190731048584
1.1082374153239813,-1.6347334232514745,2.9973561883153677,0.8141056299209595,0.4840874671936035,0.5909940004348755,-0.4453280568122864,-0.8949135541915894,0.02851184457540512,0.22572344541549683,0.7938239574432373,-0.007088422775268555
1.102194812076973,-1.6442122078181403,3.0128586932766104,0.6541829109191895,0.3906018137931824,0.513583242893219,-0.45042306184768677,-0.892200767993927,0.03312774375081062,0.23052844405174255,0.7885171175003052,0.010253194719552994
1.096974482039091,-1.651117704656183,3.02465374411452,0.4879896640777588,0.3302127718925476,0.43988853693008423,-0.45481953024864197,-0.8898309469223022,0.036610495299100876,0.22377082705497742,0.78889399766922,0.010081525892019272
1.092634091999768,-1.6554542166507218,3.0328604714644554,0.33012616634368896,0.2530435025691986,0.3582485318183899,-0.4585008919239044,-0.887842059135437,0.038908716291189194,0.2161301076412201,0.7990357279777527,0.016862276941537857
1.0893319841313207,-1.6580700226624734,3.0379309449502037,0.198044553399086,0.11603160947561264,0.2538323998451233,-0.4613156318664551,-0.886317789554596,0.04036324843764305,0.20800429582595825,0.8121904134750366,0.011669401079416275
1.0872192958648395,-1.6604037215683107,3.0409534879008837,0.1258160024881363,-0.050388138741254807,0.13642875850200653,-0.46308398246765137,-0.8853374719619751,0.041607171297073364,0.19788607954978943,0.825232982635498,-0.013149380683898926
1.086452533623279,-1.663782841712804,3.04333970552058,0.11816580593585968,-0.19776800274848938,-0.00887223333120346,-0.4636164605617523,-0.8849806785583496,0.04323476180434227,0.16893860697746277,0.8421034216880798,-0.05046725273132324
1.0872046231575139,-1.6688563632675188,3.046287657205212,0.14204010367393494,-0.2887173891067505,-0.1683778464794159,-0.46272847056388855,-0.8853306174278259,0.045521169900894165,0.11807811260223389,0.8554691672325134,-0.09087014198303223
1.0895237057799056,-1.6753474979218317,3.0500469814337667,0.15429170429706573,-0.3371767997741699,-0.32895421981811523,-0.46038028597831726,-0.8864065408706665,0.04830944910645485,0.05817371606826782,0.8480916023254395,-0.1148834228515625
1.0934456919910058,-1.6825340548916028,3.0541825390276247,0.1365266740322113,-0.3658830225467682,-0.49175599217414856,-0.4565627872943878,-0.8882152438163757,0.05122866854071617,-0.0012162625789642334,0.8294231295585632,-0.11610889434814453
1.098971364557361,-1.689958486185346,3.0582280243696824,0.10008690506219864,-0.40216511487960815,-0.6448333859443665,-0.45128995180130005,-0.8907402753829956,0.05403267592191696,-0.04799303412437439,0.8154533505439758,-0.11370968818664551
1.106012526148132,-1.6978678895936397,3.0621417827697863,0.07738709449768066,-0.4812803864479065,-0.7930915951728821,-0.44461601972579956,-0.893918514251709,0.056804124265909195,-0.07616657018661499,0.8049749135971069,-0.11754918098449707
1.1144157658949614,-1.7069696708061934,3.0664831397046624,0.08657632768154144,-0.5509065985679626,-0.9132813811302185,-0.4366223216056824,-0.8976534605026245,0.0598265677690506,-0.0885394811630249,0.8097934126853943,-0.12533237040042877
1.123844486052224,-1.7174071973627476,3.0716080460869057,0.08135782927274704,-0.6253429651260376,-1.0097745656967163,-0.4275822937488556,-0.9017687439918518,0.06314126402139664,-0.05618250370025635,0.8258256912231445,-0.1254122257232666
1.134223567783428,-1.7291454794560273,3.076744612956997,0.028181960806250572,-0.7897750735282898,-1.1023495197296143,-0.41754648089408875,-0.9062061309814453,0.06667635589838028,-0.0014142394065856934,0.8372363448143005,-0.08118736743927002
1.1456995071463068,-1.7415454375493995,3.0810506746357893,-0.04986279457807541,-0.8948179483413696,-1.2178312540054321,-0.4064119756221771,-0.9109988212585449,0.0700768455862999,-0.007162362337112427,0.8302339911460876,-0.03525615483522415
1.1585517351633665,-1.7536873271907636,3.0844367475801224,-0.13391003012657166,-0.8982230424880981,-1.3505853414535522,-0.39398500323295593,-0.9162238240242004,0.07287061214447021,-0.05146494507789612,0.8161718249320984,-0.024072885513305664
1.1726931887991703,-1.7641690213558359,3.0860653260472475,-0.27934396266937256,-0.9118823409080505,-1.4356859922409058,-0.380445659160614,-0.9217979907989502,0.07449870556592941,-0.03450196981430054,0.8208914995193481,-0.008977293968200684
1.1879974344919757,-1.7714190866791684,3.0833625247523666,-0.5323983430862427,-1.0389689207077026,-1.5207231044769287,-0.3660270869731903,-0.9276228547096252,0.07443471252918243,0.09731969237327576,0.8189037442207336,0.05941558629274368
1.2049069671802155,-1.7729715535110129,3.07350275783049,-0.8495121598243713,-1.0746008157730103,-1.6416330337524414,-0.35049307346343994,-0.9338059425354004,0.07184254378080368,0.10748150944709778,0.7853836417198181,0.14034628868103027
1.2237166986913997,-1.7659920197515053,3.05521274932752,-1.122644305229187,-0.9357948899269104,-1.787490725517273,-0.3336939513683319,-0.9403700828552246,0.06597568094730377,0.06495606899261475,0.7571271657943726,0.15184366703033447
1.2444973486156714,-1.7504201707167888,3.0298847542036205,-1.274653434753418,-0.7121844291687012,-1.9751968383789062,-0.3153826892375946,-0.9472351670265198,0.05726748704910278,0.040724337100982666,0.7375030517578125,0.10084426403045654
1.2672148199257447,-1.7269101772657083,2.999069580254181,-1.349375605583191,-0.44287681579589844,-2.1725010871887207,-0.2953048646450043,-0.9542719721794128,0.04647938907146454,0.07901141047477722,0.7408014535903931,0.031020164489746094
1.2915906751406978,-1.6960478160148658,2.9633362835060053,-1.3511942625045776,-0.24998514354228973,-2.3455333709716797,-0.273433655500412,-0.9612746834754944,0.034428197890520096,0.21470248699188232,0.7295698523521423,0.004252906888723373
1.3169394066356281,-1.6592764328191427,2.923016902528453,-1.2936729192733765,-0.18596196174621582,-2.4268109798431396,-0.2501571476459503,-0.9679509997367859,0.02219187468290329,0.32486411929130554,0.6412297487258911,-0.030812980607151985
1.3421100222311213,-1.6179341594260688,2.878304325463164,-1.1575480699539185,-0.23561526834964752,-2.4432249069213867,-0.22644653916358948,-0.973965048789978,0.010682111606001854,0.4016631245613098,0.5519527196884155,-0.08767783641815186
1.3671883274956018,-1.5740316413819853,2.8307065246173355,-1.0116106271743774,-0.2748689353466034,-2.503507375717163,-0.2022029608488083,-0.9793434143066406,0.0006541924667544663,0.43648630380630493,0.5137978196144104,-0.14445292949676514
1.3922838061931215,-1.523140075841793,2.776163659590125,-0.9546574950218201,-0.23843984305858612,-2.525397777557373,-0.1773642599582672,-0.9841089248657227,-0.008458919823169708,0.46625882387161255,0.48098087310791016,-0.12175941467285156
1.4162758024597633,-1.456053986594213,2.706688620479196,-0.9025799036026001,-0.032078422605991364,-2.437778949737549,-0.15289410948753357,-0.9880854487419128,-0.01762082800269127,0.5133829116821289,0.3649013042449951,-0.03981315717101097
1.4386605597266788,-1.370272499488854,2.6219266808048984,-0.7958613634109497,0.4382656216621399,-2.322838068008423,-0.12911224365234375,-0.9912827610969543,-0.02624276839196682,0.5269392728805542,0.23171544075012207,-0.056063055992126465
1.4585956685094428,-1.2566532236032597,2.513955420528698,-0.7180243730545044,0.8031958937644958,-2.195563316345215,-0.10648628324270248,-0.9937121272087097,-0.03459758684039116,0.5259655714035034,0.13850277662277222,-0.10360109061002731
1.4765552162755602,-1.1105229890274932,2.376029401232005,-0.5540209412574768,0.9733938574790955,-2.1959640979766846,-0.08430956304073334,-0.9955626130104065,-0.04179977625608444,0.54729163646698,0.07464879751205444,-0.07714235782623291
1.4927767277643638,-0.9127560032721234,2.1880736799947744,-0.48872050642967224,1.1089069843292236,-2.240720272064209,-0.06166636943817139,-0.9969580173492432,-0.04766622930765152,0.5361536145210266,-0.030263662338256836,-0.10864471644163132
1.5047470352376895,-0.6200736611599196,1.9062707472405667,-0.6297504901885986,1.2052544355392456,-2.3044848442077637,-0.03835304081439972,-0.9978195428848267,-0.05371422320604324,0.5295333862304688,-0.13387906551361084,-0.0661434456706047
1.5072696890092654,-0.22279496945635388,1.5208026399156525,-0.9613990187644958,1.2898505926132202,-2.420663356781006,-0.014027796685695648,-0.9979828596115112,-0.06191756948828697,0.49545779824256897,-0.2847626209259033,0.029187560081481934
1.4961248937911378,0.16219139189088952,1.147844937721477,-1.378825306892395,1.2774295806884766,-2.626053810119629,0.012047100812196732,-0.9972133636474609,-0.0736246109008789,0.4527202546596527,-0.4060765504837036,0.10354721546173096
1.4727456460909647,0.4268700486063167,0.8951948997136908,-1.7811051607131958,1.3122576475143433,-2.849184036254883,0.04053036496043205,-0.9951968789100647,-0.08910942077636719,0.4118316173553467,-0.5314144492149353,0.11892522871494293
1.4415996224254692,0.581089924068022,0.7534906375394727,-2.0781216621398926,1.3503810167312622,-2.9251084327697754,0.0707242488861084,-0.9916657209396362,-0.10769195109605789,0.41075149178504944,-0.6871979236602783,0.06995707750320435
1.4069822238622942,0.6673713364738136,0.6799835765835698,-2.2489993572235107,1.3370436429977417,-2.818584680557251,0.10093650966882706,-0.9866124391555786,-0.12809453904628754,0.49032628536224365,-0.8339749574661255,0.007672294974327087
1.3722794442662574,0.7155755978418485,0.6442229488664086,-2.2377865314483643,1.2539719343185425,-2.569938898086548,0.12938405573368073,-0.9803601503372192,-0.14884215593338013,0.5800579786300659,-0.9707355499267578,-0.0773235559463501
1.3399781022483204,0.744905201439655,0.6265742865127251,-2.0405118465423584,1.157011866569519,-2.2853646278381348,0.15508683025836945,-0.9734795093536377,-0.16818419098854065,0.570132851600647,-1.1196602582931519,-0.2093029022216797
1.3112807517066525,0.7669776061601361,0.6152446881549313,-1.736119031906128,1.0457792282104492,-2.0447592735290527,0.17807964980602264,-0.9665144085884094,-0.18476419150829315,0.4495600461959839,-1.2705004215240479,-0.3607221841812134
1.2863922516007282,0.7873723076058435,0.6039378510452084,-1.3715463876724243,0.8384932279586792,-1.8730547428131104,0.19879551231861115,-0.9598290324211121,-0.19801214337348938,0.2508504390716553,-1.4272408485412598,-0.48965561389923096
1.2652179504044985,0.8078485944450281,0.5897054476713305,-0.9763768315315247,0.5151541233062744,-1.7239363193511963,0.2174515426158905,-0.9536731243133545,-0.20790059864521027,0.04547262191772461,-1.57986581325531,-0.5952456593513489
1.2481525532421691,0.8281938466621904,0.5717099319923113,-0.5298933982849121,0.1254361867904663,-1.5049577951431274,0.23359277844429016,-0.9484004378318787,-0.2144085317850113,-0.09757599234580994,-1.7089176177978516,-0.6488573551177979
1.2362606347272498,0.8477743015403509,0.5504296895784093,-0.034296583384275436,-0.21918651461601257,-1.1536401510238647,0.24618567526340485,-0.9445628523826599,-0.2172413468360901,-0.13501018285751343,-1.8280965089797974,-0.6571940183639526
1.2307555768537202,0.8667513636850155,0.5270096928339105,0.4837428331375122,-0.3725142776966095,-0.6716662645339966,0.2542233467102051,-0.9427410960197449,-0.21589325368404388,-0.14071330428123474,-1.9307942390441895,-0.6172212362289429
1.2323731950772439,0.8865271461312855,0.5019462585518096,1.0046247243881226,-0.3872174918651581,-0.15196943283081055,0.2572607100009918,-0.9432793855667114,-0.20985960960388184,-0.1275610625743866,-2.0032997131347656,-0.5328007936477661
1.2407597362901652,0.9088864842402666,0.47415369382219824,1.4425586462020874,-0.3975878655910492,0.3235006630420685,0.2556390166282654,-0.9460304975509644,-0.19918616116046906,-0.12763309478759766,-2.00334095954895,-0.4463520050048828
1.2550450202173646,0.9324730439253438,0.44471742194834907,1.7468781471252441,-0.4706990420818329,0.8202187418937683,0.24938632547855377,-0.950563371181488,-0.18502990901470184,-0.12263160943984985,-1.9240095615386963,-0.3285503387451172
1.2747347996441072,0.954572826328259,0.4162624800839744,1.9198869466781616,-0.5300073623657227,1.3564789295196533,0.2380920946598053,-0.9564929604530334,-0.16862231492996216,-0.07132884860038757,-1.8111767768859863,-0.1730218529701233
1.2991256498039507,0.9727185129473994,0.39187741509034063,1.9534196853637695,-0.5107646584510803,1.855069637298584,0.22176311910152435,-0.9633239507675171,-0.15109135210514069,-0.013618052005767822,-1.6727389097213745,-0.014634251594543457
1.3270418149979322,0.9841715104237352,0.37510564017686315,1.8500525951385498,-0.42815208435058594,2.270240545272827,0.20099806785583496,-0.9704386591911316,-0.13359907269477844,0.02472512423992157,-1.5426839590072632,0.1338280588388443
1.3569453290222027,0.985801487342674,0.36974994471247513,1.6393071413040161,-0.28305116295814514,2.547077178955078,0.17693515121936798,-0.977220892906189,-0.11718960106372833,0.028036117553710938,-1.4239022731781006,0.24643170833587646
1.3873493524285385,0.9735659737115667,0.38004500363358956,1.4046398401260376,-0.15758192539215088,2.6998844146728516,0.15084311366081238,-0.9832207560539246,-0.10258515924215317,-0.007700473070144653,-1.3057656288146973,0.2946019172668457
1.4172995021440176,0.9426800880986062,0.40992261809953845,1.218544840812683,-0.13313496112823486,2.7427210807800293,0.12371352314949036,-0.9882424473762512,-0.08984490483999252,-0.03174886107444763,-1.1883933544158936,0.275834321975708
1.4459632364829007,0.8880663430853424,0.4637914187922366,1.0871134996414185,-0.10736780613660812,2.685528516769409,0.09660127758979797,-0.9922184348106384,-0.07855486124753952,-0.04582008719444275,-1.0657497644424438,0.21011626720428467
1.4726240238145085,0.8008432230034592,0.5509287617009241,1.0022773742675781,-0.006113688461482525,2.562778949737549,0.07036871463060379,-0.9951849579811096,-0.06822790950536728,-0.06251053512096405,-0.9548882246017456,0.14114977419376373
1.4967401549532988,0.6602020374540136,0.6927305110163796,0.9570046067237854,0.13741178810596466,2.4514527320861816,0.045376844704151154,-0.9972590804100037,-0.05844302847981453,-0.03712192550301552,-0.8646947741508484,0.08378797769546509
1.5174413442577765,0.4111625327396097,0.9442996934691018,0.9403761625289917,0.265392541885376,2.381140947341919,0.021315591409802437,-0.9985769391059875,-0.04888739809393883,0.049118876457214355,-0.7653391361236572,0.04652237892150879
1.531215852831584,-0.056406745403975014,1.4155092006920165,0.9223705530166626,0.3660117983818054,2.3521010875701904,-0.002230933168902993,-0.9992167949676514,-0.03950886428356171,0.14589235186576843,-0.6631062626838684,0.021564606577157974
1.5308932731868685,-0.698505162493139,2.0622431234644036,0.8739921450614929,0.46383821964263916,2.3535478115081787,-0.025654645636677742,-0.9992039799690247,-0.030550837516784668,0.24898219108581543,-0.5481593608856201,0.022326473146677017
1.5167798739243148,-1.1438375998221542,2.5132044286186757,0.7967431545257568,0.569126546382904,2.362999200820923,-0.04914560541510582,-0.9985414743423462,-0.02235855720937252,0.31911930441856384,-0.44338369369506836,0.02951502799987793
1.4964386715194982,-1.3644373355747035,2.7404064848881284,0.7000606060028076,0.6491308212280273,2.362884998321533,-0.07271558046340942,-0.9972367286682129,-0.01522220391780138,0.3547436594963074,-0.35788118839263916,0.014550924301147461
1.474154208228562,-1.4738891362613191,2.85675587053606,0.5881684422492981,0.6267104744911194,2.3133561611175537,-0.09604138135910034,-0.9953337907791138,-0.00933634489774704,0.38342535495758057,-0.27660858631134033,-0.004243851639330387
1.451962727890361,-1.5325601042092316,2.9213217592500977,0.49369490146636963,0.4510270953178406,2.1815710067749023,-0.11846942454576492,-0.9929475784301758,-0.0045320321805775166,0.39581310749053955,-0.18649590015411377,-0.0287015438079834
1.4311396202269078,-1.568328838030405,2.9604732091394914,0.4267832338809967,0.14782431721687317,1.9825236797332764,-0.13920384645462036,-0.990263819694519,-0.00034348462941125035,0.3923928141593933,-0.09152334928512573,-0.07538580894470215
1.4122938926871555,-1.5930117474534908,2.9854480874273217,0.3437178134918213,-0.1358095109462738,1.7653189897537231,-0.15780162811279297,-0.9874647855758667,0.003506206441670656,0.3765820264816284,-0.0018389225006103516,-0.11507833003997803
1.3955603546104243,-1.609306924129605,2.99959097367448,0.21869412064552307,-0.3171502649784088,1.5503385066986084,-0.17421163618564606,-0.9846854209899902,0.006712312810122967,0.3533344864845276,0.08276885747909546,-0.11819291114807129
1.381144101227886,-1.6169073554607698,3.0037051279105103,0.04604373127222061,-0.3754703402519226,1.3134791851043701,-0.18831820785999298,-0.9820698499679565,0.008689706213772297,0.3241976201534271,0.1599109172821045,-0.08734869956970215
1.3692517167931164,-1.615272379695173,2.99819795982892,-0.15138278901576996,-0.37302449345588684,1.0635662078857422,-0.1999857872724533,-0.9797585606575012,0.008900447748601437,0.29045507311820984,0.2354651689529419,-0.05283033847808838
1.3599710718235927,-1.6049446068346,2.983886810876396,-0.35829004645347595,-0.36001044511795044,0.8080050349235535,-0.20914584398269653,-0.9778585433959961,0.007144748233258724,0.26087304949760437,0.31065261363983154,-0.03589212894439697
1.3529436520917795,-1.586309683018235,2.9614799825058102,-0.5428348779678345,-0.27128055691719055,0.6370335817337036,-0.21610882878303528,-0.9763638377189636,0.003352842293679714,0.23492276668548584,0.38442933559417725,-0.03742551803588867
1.3469471806982876,-1.5614619705600876,2.9339938030769384,-0.6454925537109375,-0.1260242462158203,0.5691381692886353,-0.22197535634040833,-0.9750502109527588,-0.002072057221084833,0.25459855794906616,0.43234074115753174,-0.04779350757598877
1.3411058836898329,-1.5338707620523926,2.90475933749425,-0.6804779171943665,-0.07074687629938126,0.5692856907844543,-0.22752219438552856,-0.9737369418144226,-0.00840520579367876,0.2986280024051666,0.468075692653656,-0.06654584407806396
1.3347421939232675,-1.5080720800403524,2.8771889235810217,-0.6362426280975342,-0.1465713232755661,0.6446558237075806,-0.23340816795825958,-0.9722683429718018,-0.014659581705927849,0.3366490602493286,0.5197689533233643,-0.09576821327209473
1.3270631439373735,-1.4894879979768518,2.8558983310058013,-0.4613632559776306,-0.27450796961784363,0.821036696434021,-0.24053063988685608,-0.970443844795227,-0.019600355997681618,0.38524487614631653,0.5769500732421875,-0.1317819356918335
1.317436093750566,-1.4828966814040707,2.8460485289128274,-0.1684124916791916,-0.2833542823791504,1.05320143699646,-0.2496914118528366,-0.9680756330490112,-0.022004486992955208,0.41578325629234314,0.6179625988006592,-0.1919693946838379
1.3058027810314021,-1.4886240594804996,2.8501691794724944,0.1823122352361679,-0.03436363488435745,1.2672988176345825,-0.26101937890052795,-0.9650942087173462,-0.021496960893273354,0.3849816918373108,0.6499391794204712,-0.26533764600753784
1.292647113389114,-1.5035939275272867,2.8675646084484945,0.5510580539703369,0.4067288637161255,1.403234839439392,-0.273957222700119,-0.9615652561187744,-0.018438346683979034,0.30908286571502686,0.6776753664016724,-0.302789568901062
1.2787234960068854,-1.5239393563579613,2.8958978539930125,0.8635621666908264,0.964760422706604,1.4450680017471313,-0.2876225411891937,-0.9576491117477417,-0.013486993499100208,0.21744728088378906,0.7102582454681396,-0.2739427089691162
1.2647098438140134,-1.5449766562297316,2.9308678416130616,1.0766351222991943,1.4863353967666626,1.4152809381484985,-0.30122968554496765,-0.9535201191902161,-0.007779380306601524,0.1588650345802307,0.7618848085403442,-0.20472967624664307
1.2509703527655067,-1.5644836971426612,2.9689593412658017,1.2075212001800537,1.8228070735931396,1.359204888343811,-0.3143954277038574,-0.9492901563644409,-0.0019846882205456495,0.12680375576019287,0.7999675869941711,-0.1532580852508545
1.237602581856795,-1.5821043502450698,3.0077571800392358,1.2745927572250366,1.9613709449768066,1.299582839012146,-0.32704252004623413,-0.9450026154518127,0.0036983622703701258,0.13470536470413208,0.8187054395675659,-0.1278132200241089
1.2246320890520572,-1.5981041446898632,3.0454036837583676,1.2669674158096313,1.9010522365570068,1.2326416969299316,-0.33916574716567993,-0.9406810998916626,0.00926417950540781,0.15364930033683777,0.8386912941932678,-0.11290180683135986
1.2122538946115304,-1.612535998458327,3.0800391846902717,1.1881937980651855,1.6882941722869873,1.1467334032058716,-0.3506042957305908,-0.9364092946052551,0.014642613008618355,0.16432490944862366,0.8401415348052979,-0.09833693504333496
1.2007755953777677,-1.625226513699163,3.1102757090088966,1.0606638193130493,1.406541347503662,1.0332125425338745,-0.36109933257102966,-0.9323198199272156,0.019674137234687805,0.1654968559741974,0.8320085406303406,-0.09029173851013184
1.1906357839942328,-1.6362578575844215,3.1354512398900836,0.8939867615699768,1.0584222078323364,0.8658584952354431,-0.3702750504016876,-0.9286050796508789,0.024273453280329704,0.15167754888534546,0.8323220610618591,-0.08973360061645508
1.182476344205499,-1.645807336412336,-3.1278649059799877,0.6992148756980896,0.7149575352668762,0.6429548859596252,-0.37756985425949097,-0.9255464673042297,0.028375133872032166,0.10996103286743164,0.8387390375137329,-0.09114968776702881
1.176776236838057,-1.6537442741063724,-3.113274526433689,0.4987817108631134,0.39531180262565613,0.401688814163208,-0.3825838565826416,-0.9233732223510742,0.03180753067135811,0.06654372811317444,0.8460416197776794,-0.08110857009887695
1.1736389855924543,-1.660308076757509,-3.103417654785098,0.31152525544166565,0.11890257149934769,0.15769213438034058,-0.3852505385875702,-0.922164261341095,0.03457684814929962,0.04887041449546814,0.8598625063896179,-0.07101476192474365
1.1730320520502606,-1.6653640715341735,-3.0978147344625353,0.12688007950782776,-0.09129643440246582,-0.07528898864984512,-0.3856279253959656,-0.9219292998313904,0.03657706454396248,0.03980255126953125,0.8820884227752686,-0.05561995133757591
1.17477641700466,-1.6679877992758358,-3.0969742496517756,-0.09912215918302536,-0.27682581543922424,-0.269780695438385,-0.38392919301986694,-0.9226036071777344,0.037432581186294556,0.03984338045120239,0.8939780592918396,-0.027071718126535416
1.1783910075143291,-1.6673176491715391,-3.1017164457698483,-0.3320411145687103,-0.4645581841468811,-0.4056699872016907,-0.38063228130340576,-0.9239919185638428,0.03685364872217178,0.0473039448261261,0.8859211802482605,-0.002689126878976822
1.1832786292858903,-1.663678600857105,-3.111800742465975,-0.5122604370117188,-0.6717297434806824,-0.4885244071483612,-0.3762623369693756,-0.925849974155426,0.0350489504635334,0.056209176778793335,0.8718644976615906,-0.014159567654132843
1.1889814764212574,-1.6584692524722484,-3.125660465769981,-0.6120120286941528,-0.8433711528778076,-0.5518930554389954,-0.37117430567741394,-0.9279899597167969,0.03262557461857796,0.06483876705169678,0.8615073561668396,-0.05894685164093971
1.1953838271383175,-1.652816335423805,-3.141483329060085,-0.6489694714546204,-0.9574484825134277,-0.6270767450332642,-0.36542412638664246,-0.9303564429283142,0.030039481818675995,0.05652505159378052,0.8668340444564819,-0.09699487686157227
1.2024858013640987,-1.6477290402268292,3.1255793654959003,-0.6162606477737427,-1.01498281955719,-0.6992205381393433,-0.3589751422405243,-0.93293696641922,0.02767154574394226,0.013195574283599854,0.8636009693145752,-0.1285320520401001
1.2101325351016272,-1.6445099024223029,3.1111504841657034,-0.5085192918777466,-1.0260016918182373,-0.74668949842453,-0.35193780064582825,-0.9356628060340881,0.025989685207605362,-0.04060998558998108,0.8384793996810913,-0.17692947387695312
1.2181824062595523,-1.644747724347566,3.100569477394201,-0.33793795108795166,-0.9984937906265259,-0.8026573657989502,-0.34440869092941284,-0.9384732246398926,0.02551603503525257,-0.08590453863143921,0.825161337852478,-0.21847856044769287
1.226747195095922,-1.6496302460396826,3.095520004641135,-0.1336631178855896,-0.9074504375457764,-0.8764018416404724,-0.33625444769859314,-0.9413965940475464,0.026563307270407677,-0.12422540783882141,0.8373468518257141,-0.23737859725952148
1.2359525509663827,-1.6585301467542932,3.0960907940909217,0.002211731392890215,-0.7625905871391296,-0.9540338516235352,-0.32735827565193176,-0.9444616436958313,0.0287943072617054,-0.1445351541042328,0.8616215586662292,-0.21899497509002686
1.2458369621595926,-1.6691544047657612,3.0999170650264385,0.052212849259376526,-0.6305736899375916,-1.0305818319320679,-0.31772732734680176,-0.9476637244224548,0.031352218240499496,-0.12282449007034302,0.8816236853599548,-0.14033031463623047
1.2564054094241546,-1.6798879536734075,3.1051902990868125,0.05239087715744972,-0.5190702080726624,-1.1033931970596313,-0.3073989450931549,-0.9509848952293396,0.03366831690073013,-0.10825055837631226,0.8803062438964844,-0.0827556923031807
1.2676615949758723,-1.6903939911373922,3.11099134089269,0.03933606296777725,-0.48984813690185547,-1.165083646774292,-0.2963811755180359,-0.9544054269790649,0.035616472363471985,-0.09879103302955627,0.8705278635025024,-0.07490777969360352
1.2794595274829095,-1.701658877945346,3.117258179143299,0.029020367190241814,-0.5730085372924805,-1.211875557899475,-0.28477743268013,-0.9578607678413391,0.037480901926755905,-0.07328540086746216,0.8752191066741943,-0.08359289169311523
1.291651910041865,-1.7139047947934818,3.123226614819258,-0.03875068947672844,-0.7452484369277954,-1.2420520782470703,-0.2727167308330536,-0.9612915515899658,0.0392967090010643,-0.024677157402038574,0.8952515125274658,-0.09256505966186523
1.3043966470739679,-1.7260929985316924,3.1264849466323894,-0.17296501994132996,-1.0577216148376465,-1.3035012483596802,-0.2600919306278229,-0.9647249579429626,0.040719278156757355,0.09360319375991821,0.9104952216148376,-0.06565201282501221
1.3182360565863074,-1.7357433713207238,3.124627049015393,-0.37122589349746704,-1.1903218030929565,-1.4066108465194702,-0.24649323523044586,-0.9682758450508118,0.0410311259329319,0.14955398440361023,0.8848558068275452,-0.008865471929311752
1.3336059304488197,-1.7377482875284944,3.114699927658996,-0.6026105284690857,-1.1102893352508545,-1.5378443002700806,-0.23170620203018188,-0.9720019698143005,0.03904726728796959,0.11047503352165222,0.8554095029830933,0.04595959186553955
1.350463146895406,-1.730175037362167,3.095905074174115,-0.7771424055099487,-1.0470548868179321,-1.626705288887024,-0.21578508615493774,-0.9758247137069702,0.03468573838472366,0.10602851212024689,0.8370154500007629,0.046430107206106186
1.3678409730013992,-1.7129301681449902,3.0672281773248575,-0.9283987283706665,-1.1113332509994507,-1.6047437191009521,-0.1995331048965454,-0.9794751405715942,0.028552941977977753,0.23468926548957825,0.8084239959716797,0.04175972938537598
1.3843165059601676,-1.6815563076193514,3.023670527938241,-1.157516598701477,-1.1397513151168823,-1.431492567062378,-0.18426617980003357,-0.9826629757881165,0.020493188872933388,0.3946695327758789,0.7495542168617249,0.0773768424987793
1.3990442844000068,-1.6289374653158668,2.9592075417060095,-1.3571736812591553,-0.9917047619819641,-1.3161624670028687,-0.1706201136112213,-0.9852868318557739,0.009931240230798721,0.5134850144386292,0.6745873689651489,0.13382196426391602
1.412744032198116,-1.5550307881748873,2.8758531601661215,-1.4015917778015137,-0.6447840929031372,-1.38374924659729,-0.15737640857696533,-0.9875357151031494,-0.0024813294876366854,0.4882478713989258,0.5718861818313599,0.10881996154785156
1.4272466768398868,-1.467482470894841,2.783024570783982,-1.1072447299957275,-0.17670108377933502,-1.7229453325271606,-0.1422957330942154,-0.9897144436836243,-0.01475365087389946,0.35042551159858704,0.4831835627555847,-0.02675008773803711
1.445477271879894,-1.3808719406335859,2.6970958169174732,-0.6439770460128784,0.46124130487442017,-2.203026533126831,-0.12274479866027832,-0.9921578168869019,-0.023596635088324547,0.22273555397987366,0.4256751537322998,-0.22715091705322266
1.4683200926529758,-1.2870750189953781,2.6094676170992575,-0.22621972858905792,0.8502384424209595,-2.6764540672302246,-0.09820759296417236,-0.994753897190094,-0.02863612398505211,0.2006244957447052,0.3681822419166565,-0.30202174186706543
1.4949736122637793,-1.1602755268932878,2.4917985050897786,0.03825986385345459,1.0304697751998901,-2.98813796043396,-0.06945624947547913,-0.9971268177032471,-0.030230868607759476,0.29308900237083435,0.28245091438293457,-0.2561001777648926
1.521677047284446,-0.9063979980541477,2.2475884651616815,0.019507018849253654,0.9721844792366028,-3.081000566482544,-0.03865862637758255,-0.99879390001297,-0.03027653507888317,0.5348895788192749,0.12263405323028564,-0.16596662998199463
1.5380262045832214,-0.23441033126562819,1.5845385807355745,-0.3232966661453247,0.9073272347450256,-3.056441307067871,-0.007611805573105812,-0.9994630813598633,-0.031875189393758774,0.6511511206626892,-0.06743168830871582,0.005996402353048325
1.5267823287887645,0.5602998748840365,0.7977580896235943,-0.7691656351089478,0.7542030811309814,-3.0725388526916504,0.023384446278214455,-0.9990315437316895,-0.03727392852306366,0.6769938468933105,-0.24773365259170532,0.14225447177886963
1.4987689670310982,0.8579098760347208,0.505741333923651,-1.227772831916809,0.4292590618133545,-3.074871778488159,0.05444074049592018,-0.9974071383476257,-0.04706729203462601,0.6835809946060181,-0.41125380992889404,0.20063185691833496
1.465566103922844,0.9468831444054048,0.41891768719242833,-1.6592098474502563,0.07842016965150833,-3.0697131156921387,0.08524736016988754,-0.9944683909416199,-0.06136387959122658,0.6930423378944397,-0.5610583424568176,0.18602825701236725
1.4298183156806583,0.9695768832020228,0.3958874083756475,-1.9443811178207397,-0.08029676973819733,-3.0925800800323486,0.11587230116128922,-0.9900790452957153,-0.0794801115989685,0.6420621871948242,-0.6972531080245972,0.15586566925048828
1.392749862838693,0.9767790804415142,0.3882347156075055,-1.9827823638916016,0.03755636885762215,-3.150026559829712,0.1467689573764801,-0.9841915369033813,-0.09912621974945068,0.5524191856384277,-0.8281559348106384,0.05035925656557083
1.3557009348061826,0.9872827971923072,0.3790134767636938,-1.7980765104293823,0.2529994547367096,-3.179694414138794,0.17812365293502808,-0.9769560098648071,-0.1175975427031517,0.47045111656188965,-0.9694857597351074,-0.12840455770492554
1.3204376030911955,1.0041698189444048,0.3647993750217111,-1.4660989046096802,0.3315845727920532,-3.049553394317627,0.20903271436691284,-0.9688236117362976,-0.13299065828323364,0.4456303119659424,-1.0903043746948242,-0.2881671190261841
1.2888802481053687,1.0236847501832995,0.34766338420264165,-1.09654700756073,0.2593875825405121,-2.7426397800445557,0.23758916556835175,-0.9605241417884827,-0.14472460746765137,0.5148063898086548,-1.1794601678848267,-0.38052862882614136
1.262318283282066,1.042706587397793,0.3302388023895513,-0.7481729388237,0.21157129108905792,-2.312711238861084,0.26224908232688904,-0.9527967572212219,-0.15298400819301605,0.5510748624801636,-1.2836841344833374,-0.413635790348053
1.241461516817183,1.0603588647236855,0.3136224446360502,-0.4095804989337921,0.15741564333438873,-1.8082687854766846,0.2821888327598572,-0.9462577104568481,-0.15800689160823822,0.5314860343933105,-1.3888559341430664,-0.40591204166412354
1.2266217517187856,1.0774647538870374,0.2968472916343898,-0.03532417491078377,0.09467416256666183,-1.3243381977081299,0.297186017036438,-0.9413542747497559,-0.1597895622253418,0.47568681836128235,-1.4821534156799316,-0.40080296993255615
1.217448362791039,1.0965424550887732,0.27718703406298534,0.37305986881256104,0.02490360476076603,-0.9262528419494629,0.3078500032424927,-0.938219428062439,-0.15802833437919617,0.35007840394973755,-1.5280282497406006,-0.42047804594039917
1.2131439122438037,1.1186724266801822,0.25315661837297043,0.723837673664093,-0.1197964996099472,-0.5960461497306824,0.3149012625217438,-0.9367212653160095,-0.15294037759304047,0.17585185170173645,-1.5487525463104248,-0.4398024082183838
1.212533287066887,1.1426576012641727,0.22508960115774887,0.9889428019523621,-0.3445494472980499,-0.36717596650123596,0.31899914145469666,-0.9365072846412659,-0.1455816924571991,0.013581454753875732,-1.5729076862335205,-0.40080493688583374
1.2141427849247395,1.1678199454111327,0.19321755614885897,1.1674405336380005,-0.5841058492660522,-0.24436455965042114,0.32117390632629395,-0.9370704293251038,-0.13691838085651398,-0.13327723741531372,-1.5967583656311035,-0.33602774143218994
1.21722572463076,1.1936801843092704,0.1586148465671967,1.2807705402374268,-0.7072826623916626,-0.08914382010698318,0.32191917300224304,-0.9381423592567444,-0.12750336527824402,-0.2513320744037628,-1.606337070465088,-0.24859516322612762
1.2220329674598334,1.2196836846459738,0.12321316525753567,1.3148736953735352,-0.7335576415061951,0.12616868317127228,0.32088702917099,-0.9397960305213928,-0.11753767728805542,-0.26983118057250977,-1.611015796661377,-0.11456363648176193
1.228814093700766,1.2435788752234809,0.08985041870726267,1.2425049543380737,-0.7643709182739258,0.4123629033565521,0.31756171584129333,-0.9420917630195618,-0.10778642445802689,-0.222331702709198,-1.613785982131958,0.03842008858919144
1.23817221482591,1.2617528086190866,0.06227153636644007,1.0593351125717163,-0.7946200370788574,0.800552487373352,0.3110555410385132,-0.9451887607574463,-0.0993117019534111,-0.11124172806739807,-1.6000994443893433,0.18846887350082397
1.2508376943234474,1.2717446601416926,0.04332024708277524,0.8575321435928345,-0.7803816795349121,1.2470498085021973,0.3005681335926056,-0.9492484331130981,-0.09266439825296402,0.01805061101913452,-1.5815898180007935,0.31019383668899536
1.2671795006601254,1.2744504357600874,0.03292944184741751,0.713141143321991,-0.6353558897972107,1.6763179302215576,0.28594180941581726,-0.9542614221572876,-0.0873086079955101,0.09264394640922546,-1.5580830574035645,0.35937297344207764
1.287004159716873,1.271800756033742,0.03012463571437908,0.601355791091919,-0.4316225051879883,2.0451579093933105,0.2675761282444,-0.9600005149841309,-0.08247660845518112,0.11010938882827759,-1.5021731853485107,0.34672844409942627
1.3097184638328423,1.263379573040786,0.03507603841564949,0.4956088066101074,-0.31227704882621765,2.3433351516723633,0.2460213154554367,-0.9661123156547546,-0.07810722291469574,0.11738193035125732,-1.4275493621826172,0.3143744468688965
1.3342800314566114,1.2468581047587188,0.04897836983387161,0.37368103861808777,-0.3027690351009369,2.504518985748291,0.22213083505630493,-0.9721601605415344,-0.07458394765853882,0.1130894273519516,-1.3226397037506104,0.2794485092163086
1.3591901300341611,1.2199792032687482,0.07345546109503544,0.2443268746137619,-0.2967817187309265,2.5301132202148438,0.19723838567733765,-0.9776948094367981,-0.07218033075332642,0.08042570948600769,-1.2285277843475342,0.23226040601730347
1.383349324097175,1.1800842812590917,0.11098343024413317,0.12315518409013748,-0.3313349187374115,2.4923129081726074,0.17230793833732605,-0.9824832081794739,-0.07097148895263672,0.06431005895137787,-1.1344449520111084,0.17259514331817627
1.4064492511183704,1.123846171490335,0.1645125209995295,0.052358414977788925,-0.36609339714050293,2.4733572006225586,0.1475377231836319,-0.9865254163742065,-0.07071469724178314,0.09178107976913452,-1.0249035358428955,0.11482799053192139
1.4285769222883729,1.0484156256377053,0.23737836786148628,0.04854849725961685,-0.3087499439716339,2.469325304031372,0.12283853441476822,-0.9899038672447205,-0.07072149962186813,0.1482338160276413,-0.8988751173019409,0.046505920588970184
1.4500572028098166,0.9466536549283359,0.33717438267407146,0.08703071624040604,-0.25713542103767395,2.54929518699646,0.09773842245340347,-0.9927198886871338,-0.07038941979408264,0.23571184277534485,-0.7768114805221558,-0.018889665603637695
1.4710452907056566,0.7977772421155964,0.4845941157226175,0.12443587929010391,-0.21110586822032928,2.7373673915863037,0.07128436118364334,-0.9950289726257324,-0.06954098492860794,0.370869517326355,-0.6494260430335999,-0.05539786070585251
1.4902951774780826,0.560077492632583,0.7213088326092923,0.18573035299777985,-0.17084085941314697,2.9490411281585693,0.042720966041088104,-0.9967615604400635,-0.06812926381826401,0.4879186153411865,-0.5243109464645386,-0.06955063343048096
1.5037852627657933,0.1843442838086209,1.096534334820196,0.29253748059272766,-0.13112379610538483,3.1067872047424316,0.012274760752916336,-0.9977555871009827,-0.06583008915185928,0.5478448271751404,-0.40379494428634644,-0.10462570935487747
1.505668519487303,-0.3016934212743015,1.582499282694291,0.44582319259643555,-0.08769474923610687,3.18611478805542,-0.019337981939315796,-0.9978799223899841,-0.062141504138708115,0.5575459003448486,-0.2851552963256836,-0.15752391517162323
1.4942099427611986,-0.7345358856637658,2.015694128790152,0.6212133765220642,-0.05615173280239105,3.1726279258728027,-0.05128209665417671,-0.9970687031745911,-0.056783292442560196,0.5297061204910278,-0.1712357997894287,-0.19756537675857544
1.4743911069834297,-1.0280353177112305,2.3098285262706226,0.7830382585525513,-0.03406986966729164,3.041999340057373,-0.08242308348417282,-0.9953566193580627,-0.04971669241786003,0.47072869539260864,-0.06819629669189453,-0.22166073322296143
1.4514444301947775,-1.2169730736328062,2.4995190179781464,0.8990306258201599,-0.03447094187140465,2.815918445587158,-0.11169358342885971,-0.9928860068321228,-0.041255950927734375,0.40194615721702576,0.03130757808685303,-0.21895205974578857
1.4281440104011418,-1.3433306209435079,2.6265646092172132,0.9230494499206543,-0.043823741376399994,2.5723371505737305,-0.13850679993629456,-0.989842414855957,-0.032060407102108,0.35537993907928467,0.11812305450439453,-0.19087040424346924
1.4053944625971437,-1.4288016221942266,2.7128234969164593,0.8229175209999084,0.009352659806609154,2.373715400695801,-0.1629929095506668,-0.986352264881134,-0.02330094203352928,0.33585959672927856,0.1907283067703247,-0.14080727100372314
1.3832153158887797,-1.4829144890460049,2.7682921815216286,0.5870745182037354,0.07932589948177338,2.2430479526519775,-0.1857633739709854,-0.982458233833313,-0.016367383301258087,0.35835546255111694,0.2478695511817932,-0.052724242210388184
1.3615256160360487,-1.5126388254258887,2.799150989427599,0.30865299701690674,0.008445866405963898,2.1645305156707764,-0.20739519596099854,-0.9781826734542847,-0.012075203470885754,0.39903023838996887,0.29832738637924194,0.028890492394566536
1.3401080857743917,-1.526617016988494,2.812754313204265,0.07509759813547134,-0.15315599739551544,2.1316769123077393,-0.22842556238174438,-0.9735092520713806,-0.01009825523942709,0.42788830399513245,0.3578168749809265,0.05030524730682373
1.318665142416847,-1.5332838566333906,2.81699934939182,-0.027199212461709976,-0.3534683287143707,2.1468489170074463,-0.24929353594779968,-0.9683829545974731,-0.009356005117297173,0.440165638923645,0.4084310531616211,-0.004773497581481934
1.2973712215036015,-1.5399747688178447,2.819592692690231,0.02924743853509426,-0.4572658836841583,2.087299108505249,-0.26990365982055664,-0.9628516435623169,-0.008321486413478851,0.4352019727230072,0.4416264295578003,-0.08629810810089111
1.2769944807113192,-1.549688675217223,2.8251137110260682,0.18696622550487518,-0.41077107191085815,1.9753329753875732,-0.28952905535697937,-0.9571498036384583,-0.00611218623816967,0.3740168809890747,0.4733545780181885,-0.16406893730163574
1.257860800753012,-1.5639448340044315,2.8363575569660435,0.4405306279659271,-0.2802163064479828,1.8446123600006104,-0.3078460097312927,-0.9514339566230774,-0.002109237713739276,0.30755600333213806,0.5238826274871826,-0.22710812091827393
1.240094538744057,-1.5834534767667738,2.8550100972592416,0.7545737624168396,-0.07313983142375946,1.6906931400299072,-0.3246808350086212,-0.9458147287368774,0.004109753295779228,0.26189085841178894,0.5501696467399597,-0.29245495796203613
1.2237616911098497,-1.607952533031506,2.8815719367282084,1.0824623107910156,0.1829807311296463,1.5216939449310303,-0.33987587690353394,-0.9403854012489319,0.01263431366533041,0.21656954288482666,0.5558487176895142,-0.34013354778289795
1.2087051383071314,-1.6359106109696333,2.9144445648643575,1.3307205438613892,0.3771427571773529,1.3650233745574951,-0.3534802794456482,-0.9351581335067749,0.02304919995367527,0.19373589754104614,0.5758745670318604,-0.33225321769714355
1.1945179823643146,-1.664926948186623,2.950296566285506,1.445218563079834,0.49443069100379944,1.2535035610198975,-0.3658354580402374,-0.9300386309623718,0.0345383882522583,0.2003079652786255,0.6033631563186646,-0.27359771728515625
1.1808698180252442,-1.691998229745759,2.9850551531129397,1.4058336019515991,0.5206127166748047,1.175682783126831,-0.37733256816864014,-0.9249370098114014,0.045958686619997025,0.22617879509925842,0.6166176795959473,-0.1840963363647461
1.167652583189189,-1.714956237431845,3.0154536400436194,1.2468221187591553,0.4888676106929779,1.1316508054733276,-0.3882429897785187,-0.9198322296142578,0.056360043585300446,0.2663556635379791,0.6196917295455933,-0.08468019962310791
1.1546456966637462,-1.7316898950438688,3.0386562261840084,0.9473108053207397,0.414409339427948,1.1579409837722778,-0.39902162551879883,-0.9146518111228943,0.06475979089736938,0.32243767380714417,0.6414585113525391,0.010405048727989197
1.1416755274963581,-1.7400732153039022,3.05166615705141,0.517269492149353,0.27744385600090027,1.2191325426101685,-0.41012507677078247,-0.9093319177627563,0.0700955018401146,0.38943400979042053,0.6491693258285522,0.11319328099489212
1.12886414370903,-1.7399371445064447,3.0538901020679408,0.10514423996210098,0.1596788763999939,1.2629327774047852,-0.42158401012420654,-0.9039269685745239,0.07199493050575256,0.4022204875946045,0.6605491638183594,0.17837142944335938
1.1163907441042804,-1.733439281220779,3.048059670899303,-0.17080099880695343,0.09127501398324966,1.2636876106262207,-0.43313613533973694,-0.8985220789909363,0.07107435166835785,0.3799591064453125,0.682839035987854,0.1586315631866455
1.1045230170210474,-1.7241965964760724,3.0385084962498836,-0.2675184905529022,0.051209088414907455,1.1974505186080933,-0.4442816376686096,-0.8932498693466187,0.06869258731603622,0.34436699748039246,0.7033237218856812,0.07324480265378952
1.093554926080587,-1.7157167725712632,3.02957632606311,-0.18870654702186584,0.05632501468062401,1.0809050798416138,-0.4545154571533203,-0.8882654309272766,0.06633360683917999,0.2885150611400604,0.7327174544334412,-0.03718926012516022
1.0835908903901705,-1.7103177765988071,3.0243039011624013,-0.00204878905788064,0.08570713549852371,0.9497249126434326,-0.463609516620636,-0.8836445808410645,0.06510648131370544,0.22917336225509644,0.7510609030723572,-0.13752460479736328
1.0747597293998672,-1.7092580251320726,3.0240100769037346,0.21656329929828644,0.06958352029323578,0.7967649102210999,-0.4713890850543976,-0.8794758319854736,0.06568966060876846,0.19499117136001587,0.7655839920043945,-0.1990361213684082
1.06729488285782,-1.7123272049789908,3.027986901793001,0.3550197184085846,0.010411279276013374,0.6212252974510193,-0.4776712954044342,-0.8758984804153442,0.06806028634309769,0.16854336857795715,0.7893201112747192,-0.20859360694885254
1.0614914426026463,-1.717909338779073,3.0340776886950223,0.38125094771385193,-0.058891661465168,0.4375520944595337,-0.4823041558265686,-0.8730836510658264,0.07146954536437988,0.14091911911964417,0.8054871559143066,-0.16169464588165283
1.0573951058404472,-1.7241528568711937,3.0401088037659343,0.3125397861003876,-0.14027039706707,0.2856975793838501,-0.4853789806365967,-0.8710790872573853,0.07502511143684387,0.13047471642494202,0.8159184455871582,-0.09615838527679443
1.05479212951131,-1.7298643141983119,3.0443950677516822,0.1787087768316269,-0.2591792345046997,0.1652502715587616,-0.48717981576919556,-0.8697977066040039,0.07815500348806381,0.13735663890838623,0.8195809125900269,-0.046324968338012695
1.0534063245742544,-1.7345230973803833,3.04585609210445,0.00428930576890707,-0.4202469289302826,0.08778823912143707,-0.4879990220069885,-0.8691130876541138,0.080620177090168,0.16292569041252136,0.8206053972244263,-0.01824212819337845
1.0529671117895503,-1.7376961325537392,3.0438120078857596,-0.18792735040187836,-0.5564207434654236,0.036843765527009964,-0.48811736702919006,-0.8688957691192627,0.08223164826631546,0.173221617937088,0.8248587846755981,0.0021800994873046875
1.053213808956346,-1.7389820558065492,3.0383066910688425,-0.3497210443019867,-0.650455892086029,0.00465360376983881,-0.4878000020980835,-0.8690178394317627,0.08282340317964554,0.1600867509841919,0.8271628022193909,0.0031142309308052063
1.0540175104789307,-1.7389127526561847,3.0303729243807545,-0.4364461600780487,-0.7057889699935913,-0.03340298682451248,-0.4871166944503784,-0.8694152235984802,0.08267264813184738,0.12330120801925659,0.830642580986023,-0.025360465049743652
1.0553288586627392,-1.7387418607245904,3.0217936190587604,-0.4230068027973175,-0.743709146976471,-0.09116961061954498,-0.4860064685344696,-0.8700624108314514,0.08239877969026566,0.06848007440567017,0.8358216285705566,-0.08160519599914551
1.0572951120160936,-1.7402044892391089,3.0148711606446743,-0.29951271414756775,-0.7412818670272827,-0.1942133903503418,-0.4841979444026947,-0.8710299730300903,0.08282089978456497,0.006246805191040039,0.8384066820144653,-0.14561069011688232
1.0602660098750725,-1.7447007355705968,3.0117233521183118,-0.09831677377223969,-0.6982986927032471,-0.3438577651977539,-0.48127004504203796,-0.8724855184555054,0.08454903960227966,-0.05586996674537659,0.8500397205352783,-0.2047119140625
1.0645298997822104,-1.7530488628979148,3.013568709170225,0.12506166100502014,-0.6467315554618835,-0.5301400423049927,-0.47688451409339905,-0.874561071395874,0.0878886729478836,-0.09934854507446289,0.8715702295303345,-0.23603618144989014
1.0703052507445652,-1.7654144082107408,3.0205018081089676,0.3074953854084015,-0.613136351108551,-0.7243180274963379,-0.4707978367805481,-0.8773469924926758,0.09280038625001907,-0.11646732687950134,0.8906678557395935,-0.22958004474639893
1.0776089462983995,-1.781192944825265,3.031540361426587,0.41480889916419983,-0.6018275022506714,-0.9107417464256287,-0.4629959464073181,-0.880828320980072,0.09887608140707016,-0.11183324456214905,0.8894952535629272,-0.19607436656951904
1.086450135404779,-1.7991099913991209,3.0451514705204192,0.428583562374115,-0.5735231637954712,-1.0865944623947144,-0.45354679226875305,-0.8849795460700989,0.10538852959871292,-0.09277904033660889,0.8879396915435791,-0.14475607872009277
1.0970674721699576,-1.8171311110186001,3.0592791052779953,0.32219192385673523,-0.5114304423332214,-1.2808531522750854,-0.44243621826171875,-0.8898733258247375,0.11124677211046219,-0.06430825591087341,0.8944661617279053,-0.07067346572875977
1.1099147014854778,-1.8331703501901542,3.0721155833665432,0.13900771737098694,-0.40503421425819397,-1.491075873374939,-0.4295176565647125,-0.8956607580184937,0.11535348743200302,-0.07274067401885986,0.8757327795028687,0.0022613853216171265
1.1249592703213915,-1.8466247046406288,3.082896575198725,-0.016006559133529663,-0.3614376485347748,-1.6408491134643555,-0.41491347551345825,-0.9022500514984131,0.1174384206533432,-0.06341910362243652,0.8488290309906006,0.024468407034873962
1.1413976896357179,-1.8590077830158367,3.0923824941764297,-0.13102449476718903,-0.4053499698638916,-1.7235658168792725,-0.39915260672569275,-0.9092162847518921,0.11833517998456955,0.004789113998413086,0.8256133198738098,-0.006686456501483917
1.1587738971272306,-1.8706983698796171,3.0999029301303667,-0.28887733817100525,-0.5670318007469177,-1.7708938121795654,-0.38258931040763855,-0.9163128137588501,0.1183076798915863,0.0861261785030365,0.8126444816589355,-0.02792978286743164
1.177218726899761,-1.8818816679556554,3.104816692785361,-0.4492741823196411,-0.7564267516136169,-1.8651037216186523,-0.3650883734226227,-0.9235429763793945,0.1173849031329155,0.10660436749458313,0.8116806745529175,-0.012602686882019043
1.1975043182512406,-1.8927002086315619,3.1075876975592,-0.6123070120811462,-0.8807441592216492,-2.0484700202941895,-0.3459510803222656,-0.9311318397521973,0.11537596583366394,0.07033145427703857,0.801264226436615,-0.026035554707050323
1.2201657965067934,-1.9030407165145848,3.1086961677109466,-0.7624667286872864,-0.9751889109611511,-2.2503435611724854,-0.32470545172691345,-0.9391562938690186,0.11203458905220032,0.033537209033966064,0.7466362118721008,-0.05846085399389267
1.2450296169153077,-1.9135117042719705,3.1087439751138306,-0.8716260194778442,-1.1074780225753784,-2.4218173027038574,-0.3014243543148041,-0.9474056363105774,0.10754670202732086,0.047868967056274414,0.6747309565544128,-0.10060381889343262
1.2715308973710306,-1.9256703515655242,3.108600449964234,-0.9404290914535522,-1.3628320693969727,-2.5284299850463867,-0.27644872665405273,-0.9555532932281494,0.10244134813547134,0.12900295853614807,0.6298238635063171,-0.1377805471420288
1.2990200420885634,-1.9408957423820266,3.1082516694575246,-1.0248641967773438,-1.744617223739624,-2.586489200592041,-0.250267893075943,-0.963295578956604,0.09709832817316055,0.23230817914009094,0.5743793249130249,-0.1513584703207016
1.3270271741835162,-1.957604916681247,3.1056137112899957,-1.1631783246994019,-2.0848796367645264,-2.551851511001587,-0.2235303819179535,-0.9704351425170898,0.09105043858289719,0.28607603907585144,0.4891880750656128,-0.13441574573516846
1.355545053193449,-1.972689830660725,3.098479532247258,-1.3236091136932373,-2.2858612537384033,-2.577838659286499,-0.19657477736473083,-0.9769227504730225,0.08354958891868591,0.28600645065307617,0.3859497904777527,-0.10166168957948685
1.3850269577582734,-1.9830358457658188,3.0851675873904445,-1.4842400550842285,-2.367940902709961,-2.595057249069214,-0.1692306101322174,-0.982794463634491,0.0740039274096489,0.22550493478775024,0.26708078384399414,-0.09605276584625244
1.414866499907354,-1.986195404481186,3.0641891781270343,-1.526349425315857,-2.3720273971557617,-2.5758068561553955,-0.1420927494764328,-0.987867534160614,0.0626721903681755,0.21403785049915314,0.1913890242576599,-0.09595143049955368
1.4449032274419595,-1.9914037804135367,3.0468040282121187,-1.3520950078964233,-2.034675121307373,-2.68499493598938,-0.11461897194385529,-0.9920859336853027,0.05126921832561493,0.20672087371349335,0.15146374702453613,-0.1238551065325737
1.4749320971820323,-2.0085999615152517,3.046390007052237,-1.1431734561920166,-1.482669711112976,-2.7615103721618652,-0.08669275045394897,-0.9954085350036621,0.04058088734745979,0.1377943456172943,0.06947445869445801,-0.18140411376953125
1.5049167369964538,-2.063810085189188,3.0894497600930295,-0.9266116619110107,-0.9572122693061829,-2.8974111080169678,-0.05799482390284538,-0.9978307485580444,0.031158622354269028,0.12310399860143661,0.004376530647277832,-0.1492919921875
1.5347244477992268,-2.26005299733275,-3.004503430140935,-0.7949241399765015,-0.5131871700286865,-3.093930721282959,-0.02783634513616562,-0.9993494749069214,0.02293957583606243,0.10875362157821655,-0.12975537776947021,-0.14629149436950684
1.5552353649707964,2.859094145457631,-1.8444632935962537,-0.8351019024848938,-0.371712863445282,-3.3006186485290527,0.0043391152285039425,-0.9998789429664612,0.014948992058634758,0.12075236439704895,-0.2628469467163086,-0.12678050994873047
1.532293685167341,1.708454722394099,-0.6977504072760174,-1.102278709411621,-0.5044781565666199,-3.4142630100250244,0.03813198581337929,-0.9992588758468628,0.005282598081976175,0.17399564385414124,-0.38901638984680176,-0.05079936981201172
1.4981092102486453,1.4554716002083858,-0.45120975345870423,-1.566195011138916,-0.8719128370285034,-3.3540613651275635,0.07214394211769104,-0.9973594546318054,-0.008357062004506588,0.2903895974159241,-0.5138254165649414,0.024882495403289795
1.462537145724006,1.30891650992623,-0.31502773846359733,-2.175076484680176,-1.2952075004577637,-3.1176633834838867,0.1043667122721672,-0.9941456913948059,-0.027973972260951996,0.4186587631702423,-0.6248732209205627,0.11243151873350143
1.4263503164029578,1.1835071796283088,-0.20332211890350554,-2.764219045639038,-1.5839093923568726,-2.8116602897644043,0.1332835853099823,-0.989585816860199,-0.05436497926712036,0.5024585127830505,-0.7075120210647583,0.1837749481201172
1.3893163855632833,1.072234427257834,-0.10713896769503287,-3.1732590198516846,-1.6479740142822266,-2.51995849609375,0.1585160493850708,-0.9835776686668396,-0.08630194514989853,0.5152204632759094,-0.7805063724517822,0.1729414463043213
1.35187651913903,0.9785244595559545,-0.028186600284415487,-3.343113422393799,-1.601909875869751,-2.223762035369873,0.1801857203245163,-0.9761326313018799,-0.12123814225196838,0.44858318567276,-0.8475370407104492,0.08000902831554413
1.315481131809817,0.9044591041647717,0.03279102633981937,-3.1811678409576416,-1.3063602447509766,-1.9681634902954102,0.1985282301902771,-0.9675837159156799,-0.1561046540737152,0.3783455193042755,-0.9156562685966492,-0.06375910341739655
1.2820868221015806,0.8542483878981495,0.07334702378703487,-2.7067153453826904,-0.9164995551109314,-1.7852628231048584,0.21469774842262268,-0.9586120843887329,-0.1869971752166748,0.28048044443130493,-0.9714570045471191,-0.24235451221466064
1.2531774298355525,0.827173760608332,0.09404138668874701,-2.0413224697113037,-0.5464019775390625,-1.6931356191635132,0.22986382246017456,-0.9499817490577698,-0.2114182710647583,0.19300296902656555,-1.017685055732727,-0.39546942710876465
1.2294370317655365,0.819932265459405,0.09736447998717492,-1.33810293674469,-0.28490373492240906,-1.6325758695602417,0.24474918842315674,-0.9423004984855652,-0.22840280830860138,0.167527973651886,-1.0532288551330566,-0.4931546449661255
1.210891033863425,0.8271634779936899,0.08757635802072203,-0.6923757195472717,-0.11594061553478241,-1.5283259153366089,0.25921398401260376,-0.9359301924705505,-0.2384181171655655,0.18435895442962646,-1.1029646396636963,-0.5052798986434937
1.1974360200296756,0.8438545425875389,0.06880559634266156,-0.11905733495950699,-0.062118399888277054,-1.3524787425994873,0.27254238724708557,-0.9311069250106812,-0.24240602552890778,0.23244720697402954,-1.1631619930267334,-0.48295092582702637
1.1891108513504933,0.8662457458816927,0.04394788826167282,0.4022365212440491,-0.08217513561248779,-1.0876432657241821,0.28379788994789124,-0.9280381202697754,-0.24125584959983826,0.29350313544273376,-1.2280442714691162,-0.4529884159564972
1.1861221155823936,0.8920373179336674,0.015195832136800232,0.8612120747566223,-0.08570489287376404,-0.7296467423439026,0.2920825481414795,-0.9269207119941711,-0.23559696972370148,0.36499133706092834,-1.2587177753448486,-0.40159469842910767
1.1883949782132635,0.9202151464022179,-0.015863563760828234,1.2279372215270996,-0.021898765116930008,-0.34702402353286743,0.2969271242618561,-0.927771270275116,-0.22599773108959198,0.40609100461006165,-1.2650847434997559,-0.3199310898780823
1.1952634618581228,0.9509642798129367,-0.04850152558986914,1.5073331594467163,0.11430114507675171,0.007314607966691256,0.29854100942611694,-0.9303123354911804,-0.21305541694164276,0.40273764729499817,-1.259049415588379,-0.2205381989479065
1.2055855531659283,0.9844367281110602,-0.08240601397403823,1.6622331142425537,0.24842414259910583,0.2874244153499603,0.2974891662597656,-0.9340485334396362,-0.19762086868286133,0.3665733337402344,-1.2384982109069824,-0.1260789930820465
1.2181871887518427,1.0201301928030233,-0.11758290520634443,1.7575948238372803,0.2913931906223297,0.49203935265541077,0.29429736733436584,-0.9384748339653015,-0.18070508539676666,0.31307870149612427,-1.2120990753173828,-0.04575049877166748
1.2321719280113381,1.0577266948157493,-0.15458784872973064,1.8000587224960327,0.2528176009654999,0.6391550898551941,0.28941819071769714,-0.9432125091552734,-0.16305696964263916,0.24891185760498047,-1.1855566501617432,-0.013853326439857483
1.2468351694530768,1.0961926543437202,-0.19312496436549118,1.7804964780807495,0.1462155282497406,0.7459699511528015,0.2831413745880127,-0.9479819536209106,-0.14546984434127808,0.1984717845916748,-1.1539011001586914,0.020500540733337402
1.2617135642857913,1.1347395488511682,-0.23272339059319874,1.730298399925232,0.042608167976140976,0.8378549218177795,0.27572110295295715,-0.9526129961013794,-0.12847837805747986,0.16487643122673035,-1.1222926378250122,0.0634608119726181
1.276849682880349,1.1732448435222291,-0.2728912665379111,1.6649603843688965,0.0022133411839604378,0.9654179215431213,0.26713627576828003,-0.9571078419685364,-0.11217319965362549,0.1595146656036377,-1.0760648250579834,0.09943224489688873
1.2926190820755994,1.2117961764119594,-0.3129420724181101,1.5907063484191895,0.03022102266550064,1.128156304359436,0.2570973038673401,-0.9615575671195984,-0.09647879004478455,0.18202000856399536,-1.0221613645553589,0.12319709360599518
1.3093359019134854,1.2507555181324863,-0.3527196582681365,1.5122863054275513,0.09145162254571915,1.3100829124450684,0.24536669254302979,-0.966013491153717,-0.0813230350613594,0.19533759355545044,-0.96744304895401,0.13507992029190063
1.3270796409800807,1.2905081576683861,-0.39261180282383895,1.432798147201538,0.13196885585784912,1.4751073122024536,0.2318950593471527,-0.9704477787017822,-0.0667547881603241,0.2001117467880249,-0.8995932340621948,0.12659990787506104
1.3455851333324458,1.3321748788959338,-0.43389888013481187,1.3603793382644653,0.1700398027896881,1.5948792695999146,0.21698462963104248,-0.9747469425201416,-0.05278283357620239,0.19724562764167786,-0.8134763240814209,0.10475445538759232
1.3643871038515822,1.3767910318336025,-0.4777833028291209,1.2673335075378418,0.17305052280426025,1.6554341316223145,0.2011023461818695,-0.9787731170654297,-0.03951188549399376,0.1847161054611206,-0.7304402589797974,0.0632699728012085
1.3828709976412001,1.4234951680031391,-0.5239671306215665,1.128130316734314,0.10063439607620239,1.6582744121551514,0.18479818105697632,-0.9823939204216003,-0.02741958573460579,0.1676034778356552,-0.6458104252815247,0.0315854549407959
1.400404463032216,1.4699155395989434,-0.5708111407932641,0.9540244340896606,-0.04506738856434822,1.597410798072815,0.1687074601650238,-0.9855183959007263,-0.017077311873435974,0.14676794409751892,-0.5610058307647705,0.009890615940093994
1.416530237645726,1.5143919543346998,-0.6173178812470586,0.7930512428283691,-0.24207499623298645,1.4843783378601074,0.1534113734960556,-0.9881245493888855,-0.008662260137498379,0.13496443629264832,-0.47842830419540405,-0.02557826042175293
1.4309430785848203,1.5571754717264268,-0.6640174695352314,0.6775439977645874,-0.4365940988063812,1.3348751068115234,0.1393848955631256,-0.9902364611625671,-0.0018986589275300503,0.12628579139709473,-0.38819676637649536,-0.07248783111572266
1.4433123819930793,1.601192223917919,-0.7136343812122167,0.6339169144630432,-0.5773717164993286,1.1368019580841064,0.12708121538162231,-0.9918849468231201,0.0038639376871287823,0.10999453067779541,-0.29810845851898193,-0.12419462203979492
1.4532406974269405,1.6536440608860077,-0.7724542085017233,0.6948006749153137,-0.5840288400650024,0.9213966727256775,0.11688324064016342,-0.9930983185768127,0.00970572791993618,0.08613486588001251,-0.20110034942626953,-0.1817636489868164
1.4605216349097558,1.7235458851945709,-0.8480290052457853,0.8395504355430603,-0.43191519379615784,0.7234591245651245,0.10877078026533127,-0.993925929069519,0.016745125874876976,0.07668446749448776,-0.10875058174133301,-0.2409576177597046
1.465000776126287,1.815277222104055,-0.9433826170431467,0.9855272769927979,-0.17730042338371277,0.5654593706130981,0.10246077179908752,-0.9944088459014893,0.025561010465025902,0.0806904286146164,-0.022727012634277344,-0.2734856605529785
1.4670276388251837,1.9231158252560685,-1.0524668058754032,1.0541048049926758,0.03477562218904495,0.5022343397140503,0.09722282737493515,-0.9946208596229553,0.03574487566947937,0.09909670054912567,0.05492335557937622,-0.25612735748291016
1.4675966392367608,2.034949525122407,-1.1639206269166038,0.9933159351348877,0.14705602824687958,0.5164241194725037,0.09211883693933487,-0.9946796298027039,0.04611764848232269,0.13844141364097595,0.1197405457496643,-0.20857787132263184
1.467945643829768,2.1382673355531305,-1.2664743166454864,0.7824385762214661,0.08331965655088425,0.5870663523674011,0.08657840639352798,-0.9947155117988586,0.05518561974167824,0.19561755657196045,0.1758372187614441,-0.14959168434143066
1.4696680056258844,2.2236397357516053,-1.3526869367246226,0.4443531334400177,-0.17686189711093903,0.7009499669075012,0.0801980048418045,-0.9948908686637878,0.061327479779720306,0.2482474148273468,0.22123944759368896,-0.07708953320980072
1.4740950852614614,2.289660444364094,-1.4223754461985694,0.05853140726685524,-0.4921751320362091,0.854291558265686,0.07266078144311905,-0.9953280687332153,0.06358256191015244,0.2803512215614319,0.2715578079223633,-0.015593528747558594
1.4817764332625154,2.342437073169773,-1.4819746370560212,-0.2746499478816986,-0.8191945552825928,1.0138722658157349,0.06372324377298355,-0.9960403442382812,0.06199359893798828,0.2901432514190674,0.3281172513961792,-0.01095283031463623
1.4920045847078232,2.392697795466052,-1.5422828644186257,-0.4602275490760803,-1.1336259841918945,1.1236389875411987,0.05358991399407387,-0.9968975186347961,0.05765243247151375,0.27780038118362427,0.3704019784927368,-0.06505274772644043
1.503356302689935,2.4554085796003444,-1.6178402218540375,-0.49799442291259766,-1.3788567781448364,1.1879699230194092,0.04269935563206673,-0.9977267980575562,0.05213972181081772,0.2550453245639801,0.42030346393585205,-0.1563265323638916
1.5141020990219,2.5566101713653966,-1.7338842207267642,-0.35108113288879395,-1.5166438817977905,1.2374613285064697,0.03129028156399727,-0.9983932971954346,0.04724394530057907,0.25063103437423706,0.4783126711845398,-0.23157000541687012
1.5222469120199402,2.7340222337728024,-1.926846698071527,-0.10018701106309891,-1.5131051540374756,1.310833215713501,0.019238010048866272,-0.9988217353820801,0.04455865919589996,0.23314228653907776,0.5210688710212708,-0.2758970260620117
1.525582142717157,3.0009923862913532,-2.2088599317137114,0.17606721818447113,-1.4152358770370483,1.3875714540481567,0.006334691774100065,-0.9989780187606812,0.04475734010338783,0.19999459385871887,0.5543825030326843,-0.2855865955352783
1.5223332953640936,-2.9948987819326494,-2.509951902471359,0.4548685848712921,-1.2676653861999512,1.405394434928894,-0.007081577554345131,-0.9988259077072144,0.04792775586247444,0.1499342918395996,0.5762794017791748,-0.2646939754486084
1.5131164599602027,-2.7792959844605574,-2.737640563890464,0.7004653215408325,-1.0671812295913696,1.3764863014221191,-0.020431986078619957,-0.9983369708061218,0.0539063885807991,0.10499611496925354,0.5955812335014343,-0.22218012809753418
1.5002490455366655,-2.648616780963011,-2.87807529339415,0.8765982985496521,-0.8263134360313416,1.309351921081543,-0.03335995599627495,-0.9975125789642334,0.062097761780023575,0.05678212642669678,0.6181179285049438,-0.17600440979003906
1.4856629998761681,-2.5769491533981648,-2.957541585534829,1.0036745071411133,-0.6972220540046692,1.2179996967315674,-0.04550149664282799,-0.9963783621788025,0.07183269411325455,0.00979587808251381,0.6220039129257202,-0.1407259702682495
1.4704175471553222,-2.5388709578471294,-3.0026183808005666,1.0628575086593628,-0.6752715110778809,1.157971739768982,-0.056808292865753174,-0.9949662685394287,0.08255341649055481,0.008620955049991608,0.6205155849456787,-0.11267412453889847
1.4553113503082096,-2.515125250897417,-3.0334615380741976,1.0026863813400269,-0.667928159236908,1.1145837306976318,-0.06755781918764114,-0.9933390021324158,0.09334826469421387,0.02686256170272827,0.6153024435043335,-0.059549808502197266
1.441391166110181,-2.496893579192586,-3.0573190173572864,0.8911778926849365,-0.4358510971069336,0.9908216595649719,-0.07755058258771896,-0.9916388392448425,0.1031431257724762,-0.021631620824337006,0.5900121927261353,0.010885946452617645
1.429016618907017,-2.484955839585543,-3.073744835432228,0.8004104495048523,-0.4449481964111328,0.8587232232093811,-0.08626076579093933,-0.989966094493866,0.11192087084054947,-0.03970059007406235,0.570807158946991,-0.019376173615455627
1.4182079667981835,-2.4769654001804966,-3.0865542315086563,0.6640203595161438,-0.48306307196617126,0.7586705088615417,-0.0937473326921463,-0.9883809685707092,0.11964493989944458,-0.004473567008972168,0.5660175681114197,0.015471816062927246
1.4091707309696515,-2.4695020413324262,-3.0990585295315127,0.5118046998977661,-0.49022138118743896,0.6629908680915833,-0.10019534081220627,-0.9869669675827026,0.1259269118309021,0.004003837704658508,0.5638405084609985,0.04248453676700592
1.401692494294772,-2.46236790450327,-3.1114830073979394,0.40019968152046204,-0.5399035215377808,0.5889526009559631,-0.10572468489408493,-0.9857360124588013,0.13094785809516907,-0.0033757537603378296,0.5280483365058899,0.040225401520729065
1.3953318433789852,-2.455704327479821,-3.1242252991422115,0.3086511194705963,-0.6360814571380615,0.5541909337043762,-0.11056389659643173,-0.9846455454826355,0.13508987426757812,0.003019869327545166,0.48144108057022095,0.030605554580688477
1.3897812528139235,-2.4483947761247706,-3.1387343276055004,0.22122524678707123,-0.7528229355812073,0.5447832345962524,-0.1150384321808815,-0.9836614727973938,0.1384792923927307,0.02417224645614624,0.44560593366622925,0.026788830757141113
1.38505706202446,-2.440186263075409,3.128018476990655,0.1166066974401474,-0.8164849877357483,0.5121949315071106,-0.11916869878768921,-0.9828000068664551,0.1410789042711258,0.026196815073490143,0.4136776328086853,0.04465125501155853
1.3815229194452903,-2.4315105255119365,3.111118168047046,0.01561463251709938,-0.7600367069244385,0.41395339369773865,-0.12265189737081528,-0.9821411967277527,0.14267298579216003,-0.01748490333557129,0.39083248376846313,0.07984614372253418
1.379405731067256,-2.424656468388292,3.096632563161157,-0.05029088258743286,-0.7199941873550415,0.2736354172229767,-0.124992735683918,-0.9817406535148621,0.14339591562747955,-0.06894657015800476,0.3618675470352173,0.08243429660797119
1.3784902465426465,-2.4210677433128223,3.085683871462507,-0.08429441601037979,-0.7047889232635498,0.16832001507282257,-0.12609967589378357,-0.9815660715103149,0.14362198114395142,-0.0885305404663086,0.3326859474182129,0.08701479434967041
1.3782424769018413,-2.4191152133385945,3.0766174546715908,-0.10365239530801773,-0.6794622540473938,0.12964504957199097,-0.12654051184654236,-0.9815187454223633,0.14355774223804474,-0.07360909879207611,0.30508124828338623,0.09495256841182709
1.3781608027413865,-2.4176670933816613,3.0683431353546355,-0.0862618237733841,-0.6481025815010071,0.11678560078144073,-0.12680096924304962,-0.9815030694007874,0.14343397319316864,-0.06086696684360504,0.25982338190078735,0.0802295058965683
1.3778448759631454,-2.4177677643807844,3.0620602231515153,-0.026443500071763992,-0.6016117930412292,0.1050405278801918,-0.12699228525161743,-0.9814425706863403,0.14367952942848206,-0.06287290155887604,0.22768878936767578,0.04791007936000824
1.3771218366474494,-2.4197224833749935,3.0580531700963527,0.031216280534863472,-0.5809798240661621,0.10667052865028381,-0.12717992067337036,-0.9813036322593689,0.14445990324020386,-0.0585501492023468,0.20826280117034912,0.02364635467529297
1.3759369774919756,-2.422874154554435,3.0551743760649632,0.06972639262676239,-0.6104245185852051,0.1308531016111374,-0.12748944759368896,-0.9810749292373657,0.1457350105047226,-0.039411261677742004,0.17989689111709595,0.02267645299434662
1.3742718837994297,-2.4267683193770475,3.0528562637681382,0.12047035992145538,-0.6136441230773926,0.15021184086799622,-0.12799175083637238,-0.9807511568069458,0.14746405184268951,-0.03320220112800598,0.16129302978515625,0.02465534210205078
1.3721700606681042,-2.4319557178378064,3.0520134987627783,0.17720447480678558,-0.5812875032424927,0.14774683117866516,-0.12856774032115936,-0.9803385734558105,0.14968927204608917,-0.05302716791629791,0.15534156560897827,0.019881948828697205
1.3697222746036912,-2.438861347846772,3.053399093738788,0.22848498821258545,-0.5220765471458435,0.12616050243377686,-0.12908178567886353,-0.9798526167869568,0.1524045169353485,-0.07146456837654114,0.14286214113235474,0.016357898712158203
1.3670518914660847,-2.4478763794606433,3.0576003825134492,0.2902737855911255,-0.45193716883659363,0.08348894119262695,-0.12937521934509277,-0.9793158173561096,0.1555732786655426,-0.09079393744468689,0.13350576162338257,0.015584707260131836
1.364177018386608,-2.4601602922965062,3.065855405392875,0.36411502957344055,-0.39376550912857056,0.01972636952996254,-0.12922725081443787,-0.9787300825119019,0.15933658182621002,-0.1090388298034668,0.1270453929901123,0.0030782222747802734
1.3611221188024356,-2.4761446362822,3.078107450705408,0.41880491375923157,-0.41365933418273926,-0.03689775988459587,-0.1285095512866974,-0.9780987501144409,0.16373321413993835,-0.10342413187026978,0.10984307527542114,-0.02045297622680664
1.358230498730142,-2.494798663594642,3.0926176141014126,0.3972473442554474,-0.47595784068107605,-0.09101328253746033,-0.12713707983493805,-0.9774928092956543,0.16835828125476837,-0.084670290350914,0.0818169116973877,-0.0035631507635116577
1.3560143009117638,-2.5139542921945166,3.1071275302681496,0.3193911612033844,-0.519032895565033,-0.1394258290529251,-0.1251603215932846,-0.9770228862762451,0.17251504957675934,-0.07602688670158386,0.061022400856018066,0.039368629455566406
1.3547707942347391,-2.532525719292733,3.1205416246340323,0.20624372363090515,-0.5787880420684814,-0.17506814002990723,-0.12263026088476181,-0.9767571091651917,0.1758061945438385,-0.06769269704818726,0.0435599684715271,0.06021690368652344
1.3547643101597975,-2.5485746809721914,3.13046646523351,0.023354869335889816,-0.6964438557624817,-0.16680142283439636,-0.11979639530181885,-0.976755678653717,0.17775648832321167,-0.039154499769210815,0.022196292877197266,0.06867313385009766
1.356291199439816,-2.5590375126878517,3.1333432957490785,-0.2115493267774582,-0.8245371580123901,-0.10007140040397644,-0.11710948497056961,-0.977081835269928,0.17775467038154602,0.005216687917709351,-0.002273082733154297,0.10698986053466797
1.3592957852035856,-2.561239965398586,3.1267551767694304,-0.4348018765449524,-0.8905041813850403,0.009145897813141346,-0.1151076927781105,-0.9777169823646545,0.17555664479732513,0.03547199070453644,-0.028981804847717285,0.13590587675571442
1.3632455682145532,-2.554296650018122,3.1104337127455643,-0.5876033306121826,-0.9003585577011108,0.11746658384799957,-0.1141829714179039,-0.9785385727882385,0.17153695225715637,0.057725369930267334,-0.0444871187210083,0.11995196342468262
1.3675653530264071,-2.5402915612041017,3.0868648576476625,-0.6520563364028931,-0.907600462436676,0.18572206795215607,-0.11418138444423676,-0.9794195890426636,0.1664333939552307,0.05693034082651138,-0.0439111590385437,0.08414660394191742
1.371718832309896,-2.523015465133665,3.0599155350374554,-0.6358749270439148,-0.9109792709350586,0.21595486998558044,-0.11468007415533066,-0.9802494049072266,0.16112110018730164,0.041529372334480286,-0.053472697734832764,0.03585483133792877
1.3752142654503101,-2.505280271835422,3.032469637866726,-0.5533635020256042,-0.9199525117874146,0.24766434729099274,-0.11548228561878204,-0.980934739112854,0.1563047617673874,0.02946842461824417,-0.06813758611679077,-0.0161067396402359
1.377508294623437,-2.488354213662641,3.0057237230043166,-0.428017795085907,-0.9368871450424194,0.30060648918151855,-0.11674390733242035,-0.9813779592514038,0.15254120528697968,0.0440814346075058,-0.07076156139373779,-0.05398450791835785
1.3784001030042865,-2.4734550264275406,2.9809024301162985,-0.29939112067222595,-0.9515209794044495,0.329827219247818,-0.1184609904885292,-0.9815488457679749,0.15009742975234985,0.06548239290714264,-0.06261026859283447,-0.07862506806850433
1.3784004973210287,-2.461464183896062,2.9590676674880028,-0.23471426963806152,-0.9221700429916382,0.3132593035697937,-0.12025187164545059,-0.9815489649772644,0.14866578578948975,0.05393710732460022,-0.05337858200073242,-0.06973183155059814
1.3784314692073374,-2.450945540444183,2.9393050440155166,-0.2568952143192291,-0.8475003242492676,0.26596689224243164,-0.1217891275882721,-0.9815548658370972,0.14736871421337128,0.01252090185880661,-0.05456262826919556,-0.01837065815925598
1.3790975223303146,-2.439930504092839,2.919750951608509,-0.3279302716255188,-0.7851556539535522,0.21966904401779175,-0.12298327684402466,-0.9816820025444031,0.14551930129528046,-0.010729551315307617,-0.06270593404769897,0.026569485664367676
1.3805677333951505,-2.4268001137656587,2.8986265444358597,-0.41820797324180603,-0.7322067022323608,0.1952345371246338,-0.12393740564584732,-0.9819610118865967,0.14280207455158234,-0.00898200273513794,-0.05914628505706787,0.046712279319763184
1.382862278730315,-2.4102771240118663,2.8744669256256934,-0.5253552794456482,-0.7114676237106323,0.1800248622894287,-0.1247747391462326,-0.9823923110961914,0.13905739784240723,0.0016667544841766357,-0.052443623542785645,0.049053192138671875
1.3859855249264919,-2.38972820420765,2.8461551664661053,-0.6414200663566589,-0.742582380771637,0.16992616653442383,-0.12551000714302063,-0.9829710125923157,0.1342230886220932,0.008093520998954773,-0.05131566524505615,0.0505916029214859
1.3898524984647602,-2.364904038598133,2.812990703086409,-0.7416595816612244,-0.8121266961097717,0.16276098787784576,-0.1261374056339264,-0.9836742877960205,0.12835396826267242,0.014122530817985535,-0.047087669372558594,0.042697325348854065
1.3942342539438068,-2.3372460158414343,2.776126125002235,-0.7986469864845276,-0.9082819819450378,0.12776917219161987,-0.1265326887369156,-0.9844533801078796,0.12182610481977463,0.014411002397537231,-0.03307914733886719,0.025162100791931152
1.399125839703514,-2.309287568007058,2.7380213678466534,-0.8269376754760742,-0.9942560195922852,0.058702580630779266,-0.12632626295089722,-0.9853007793426514,0.11499816924333572,-0.00604383647441864,-0.021291255950927734,0.007682695984840393
1.4046017939492033,-2.281643789071564,2.6994670595869326,-0.8666020035743713,-1.0671806335449219,-0.012855757027864456,-0.12536463141441345,-0.986221432685852,0.10793935507535934,-0.04335185885429382,-0.0238187313079834,0.006165958940982819
1.4105333179244683,-2.2524915219054993,2.6588071393706274,-0.9036248326301575,-1.1180137395858765,-0.044300537556409836,-0.12391381710767746,-0.9871853590011597,0.10055221617221832,-0.04643537104129791,-0.027844667434692383,0.016589641571044922
1.4165024437128404,-2.21958602634838,2.6140155520251547,-0.929660975933075,-1.1378403902053833,-0.02056325413286686,-0.12245768308639526,-0.9881203174591064,0.09285922348499298,-0.009454652667045593,-0.024453163146972656,0.021154649555683136
1.4219171966476716,-2.1807212970383607,2.563162858814237,-0.9404286742210388,-1.128208875656128,0.05295578017830849,-0.1215861365199089,-0.9889379739761353,0.08496526628732681,0.03071996569633484,-0.024062752723693848,0.02314341813325882
1.426193937859698,-2.13519522121513,2.5058750759909376,-0.918287992477417,-1.088904619216919,0.16109077632427216,-0.12175155431032181,-0.9895632863044739,0.07708023488521576,0.05684060603380203,-0.029571354389190674,0.01964544504880905
1.4289690262186172,-2.0852934306113315,2.444737116395696,-0.8516222238540649,-1.024226188659668,0.25364524126052856,-0.12305436283349991,-0.9899593591690063,0.06955990195274353,0.06900765001773834,-0.019638657569885254,0.00819910317659378
1.430210750714267,-2.036040368713858,2.3849027824195344,-0.7440624833106995,-0.9645559787750244,0.3130004405975342,-0.12522998452186584,-0.9901341199874878,0.06286509335041046,0.05481064319610596,-0.011407017707824707,-0.018583908677101135
1.4302399138212663,-1.9912929915839372,2.3301126217618875,-0.6458606719970703,-0.9372138977050781,0.3341137170791626,-0.12789033353328705,-0.9901381731033325,0.05718851834535599,0.028677642345428467,-0.00941932201385498,-0.038114793598651886
1.4294829154902196,-1.9521277893407956,2.2809528524025677,-0.5625349283218384,-0.9650108814239502,0.34006908535957336,-0.13072724640369415,-0.9900318384170532,0.052416056394577026,0.018208861351013184,0.0020252466201782227,-0.04013252630829811
1.4282564336551409,-1.9189994325491464,2.237397780330686,-0.49886825680732727,-1.0279912948608398,0.3243100941181183,-0.13353322446346283,-0.9898583889007568,0.04847169294953346,0.012897178530693054,0.011495232582092285,-0.03450978174805641
1.4269170035914671,-1.8915762328830643,2.198948311511883,-0.44882744550704956,-1.0935958623886108,0.2828340232372284,-0.13606970012187958,-0.9896672368049622,0.0452098622918129,-0.008080124855041504,0.012692749500274658,-0.026273496448993683
1.4258133067142598,-1.8694521390214272,2.165099916178445,-0.41807496547698975,-1.1403521299362183,0.21940983831882477,-0.13808079063892365,-0.989508330821991,0.04251011088490486,-0.026363253593444824,0.01653158664703369,-0.017531275749206543
1.4252209572295613,-1.8508460967041063,2.1349713963331585,-0.3807406425476074,-1.088381052017212,0.1446370631456375,-0.13941073417663574,-0.989422619342804,0.04009567201137543,-0.03975802659988403,0.02555537223815918,-0.004023674875497818
1.4250865783683753,-1.8354202402642203,2.1088589407382456,-0.33892884850502014,-0.9745691418647766,0.08380357176065445,-0.14014098048210144,-0.9894031286239624,0.037975236773490906,-0.052501291036605835,0.023033440113067627,0.001484151929616928
1.425267132140816,-1.8224363416583578,2.0866552137948853,-0.2895730137825012,-0.8147842884063721,0.04697658494114876,-0.14045022428035736,-0.9894292950630188,0.036108292639255524,-0.05857023596763611,0.022876441478729248,0.014932513236999512
1.4255541672280625,-1.8122463674290785,2.068977456284995,-0.2184930294752121,-0.6403720378875732,0.019468409940600395,-0.14053474366664886,-0.989470899105072,0.034607257694005966,-0.04861326515674591,0.02815181016921997,0.02247607335448265
1.4259553732950712,-1.8055974025220731,2.0566405401344965,-0.14343370497226715,-0.4733599126338959,-0.01719692535698414,-0.14037661254405975,-0.9895288944244385,0.03357996791601181,-0.047443896532058716,0.0274009108543396,0.01064026728272438
1.426593061118448,-1.8037872138818054,2.0505908079181996,-0.05707152560353279,-0.3669242560863495,-0.0671059787273407,-0.13982301950454712,-0.9896206855773926,0.03318006545305252,-0.05533696711063385,0.03213143348693848,-0.004310246556997299
1.4275007503171118,-1.806768705006238,2.0500962208228417,-0.003084726631641388,-0.34138667583465576,-0.10224612057209015,-0.13884828984737396,-0.9897507429122925,0.03338635712862015,-0.05110843479633331,0.04268348217010498,-0.0198974646627903
1.4285536027195052,-1.812758525738903,2.0524350847433896,0.014744896441698074,-0.3909076154232025,-0.11447650194168091,-0.13763540983200073,-0.989900529384613,0.033968064934015274,-0.04580579698085785,0.037645161151885986,-0.019456863403320312
1.4296553193117647,-1.819651029796885,2.0553355232675883,0.011370139196515083,-0.40813371539115906,-0.1194896325469017,-0.13634032011032104,-0.9900561571121216,0.03464711830019951,-0.03370365500450134,0.02951526641845703,-0.005060199648141861
1.430784408812904,-1.826091825203911,2.057697796275195,-0.00656979251652956,-0.40572232007980347,-0.114655502140522,-0.1350330114364624,-0.9902143478393555,0.035242315381765366,-0.020484626293182373,0.03417474031448364,0.0021876096725463867
1.4319180365291067,-1.830270007863925,2.0579097168717952,-0.04750657081604004,-0.3866008222103119,-0.10188378393650055,-0.13380008935928345,-0.9903718829154968,0.03551831096410751,-0.017490893602371216,0.027191162109375,0.014896873384714127
1.4329956034794276,-1.8303560391073952,2.0541387037967733,-0.10671134293079376,-0.37290629744529724,-0.0813555046916008,-0.13276520371437073,-0.9905204772949219,0.03525581955909729,-0.011369392275810242,0.02375394105911255,0.03525519743561745
1.434032839065597,-1.8262931147458432,2.046446746934501,-0.14533622562885284,-0.3329136073589325,-0.06572328507900238,-0.13191157579421997,-0.9906624555587769,0.03445601463317871,-0.006790846586227417,0.02348417043685913,0.04626309126615524
1.4350647144838995,-1.819496524721587,2.0366399464003813,-0.16090001165866852,-0.23976774513721466,-0.07250611484050751,-0.13115251064300537,-0.9908025860786438,0.03330720588564873,-0.013073623180389404,0.0259893536567688,0.03901958093047142
1.4362987817805237,-1.811849070514595,2.0270762186637925,-0.14250634610652924,-0.13781048357486725,-0.10317907482385635,-0.130216583609581,-0.9909688234329224,0.03201150521636009,-0.030687406659126282,0.024827957153320312,0.03145003318786621
1.4376971269374785,-1.8056084450127512,2.0196170795461246,-0.11352799087762833,-0.09083203226327896,-0.11780372262001038,-0.1290665715932846,-0.9911553859710693,0.030875956639647484,-0.03322598338127136,0.023595333099365234,0.007698420435190201
1.4390525280072808,-1.801811683196874,2.0150862274716617,-0.06151459366083145,-0.04394468665122986,-0.11839840561151505,-0.12787343561649323,-0.9913343191146851,0.030077703297138214,-0.008860617876052856,0.02632272243499756,0.003522392362356186
1.440180707214386,-1.802360016799342,2.015367743725053,0.019493676722049713,-0.007068134378641844,-0.1018877699971199,-0.1267690360546112,-0.9914819002151489,0.029891299083828926,-0.0024271756410598755,0.01662832498550415,-0.006285788491368294
1.4409121391483248,-1.8081986515039037,2.021446406444401,0.09524036943912506,0.040325745940208435,-0.07408889383077621,-0.12588614225387573,-0.9915769100189209,0.030460065230727196,0.002442494034767151,0.007491886615753174,-0.01925993524491787
1.441257565287446,-1.8178857503716446,2.0318003052819265,0.1465769112110138,0.07487893849611282,-0.058172062039375305,-0.12525445222854614,-0.9916215538978577,0.031594667583703995,0.010203152894973755,0.005918979644775391,-0.010171178728342056
1.4413271831872971,-1.8297570762068898,2.044638713767473,0.169742152094841,0.09411921352148056,-0.04008147865533829,-0.12480408698320389,-0.9916305541992188,0.03306173160672188,0.008745670318603516,0.0018996000289916992,0.006580829620361328
1.441105435881746,-1.8429925248082444,2.0587573100265026,0.1889074146747589,0.05381598323583603,-0.012511642649769783,-0.12456735223531723,-0.9916019439697266,0.03476973623037338,0.012003198266029358,-0.006414532661437988,-0.00022363662719726562
1.4404741260067921,-1.856357126695444,2.0724905491910226,0.1846759170293808,-0.0018957499414682388,0.035621799528598785,-0.12469267845153809,-0.9915200471878052,0.036607854068279266,0.02877587080001831,-0.014217376708984375,-0.0011614561080932617
1.4394045823718553,-1.8683207907131398,2.084433812728121,0.1754593849182129,-0.013576332479715347,0.07533948868513107,-0.1252594292163849,-0.991380512714386,0.038407787680625916,0.03684994578361511,-0.022550880908966064,0.011732816696166992
1.4379359142684214,-1.8787836012683132,2.0947935726617724,0.17907916009426117,-0.03092922270298004,0.09611693769693375,-0.126238152384758,-0.9911870360374451,0.04015757888555527,0.025331705808639526,-0.027627289295196533,0.008472446352243423
1.4364113755083974,-1.8891745413857897,2.1048651577016138,0.1946972757577896,-0.047866448760032654,0.09872201830148697,-0.12724877893924713,-0.9909839034080505,0.04193998500704765,0.021596834063529968,-0.02654862403869629,-0.003273960202932358
1.4350559389979098,-1.8992127352410015,2.1147924866262513,0.19945767521858215,0.00814355630427599,0.07378524541854858,-0.12809288501739502,-0.9908013939857483,0.043648477643728256,0.012766912579536438,-0.02505260705947876,0.008078932762145996
1.4340685593942455,-1.9098391996624784,2.1261636755554787,0.1977149397134781,0.11578535288572311,0.034737370908260345,-0.1285439431667328,-0.9906672835350037,0.04533235356211662,-0.012355759739875793,-0.028665661811828613,0.02813887596130371
1.4333442749151137,-1.9204755309226595,2.13855045302674,0.17875269055366516,0.2085328847169876,0.013176951557397842,-0.12872850894927979,-0.9905683398246765,0.046942781656980515,-0.020655080676078796,-0.03465449810028076,0.04323684796690941
1.4328396588848964,-1.929198474769674,2.1498527134701146,0.16644562780857086,0.28017115592956543,0.0006837295368313789,-0.12878185510635376,-0.9904990792274475,0.04823907092213631,-0.012529850006103516,-0.037653446197509766,0.04947840794920921
1.432522237881665,-1.9376771742778278,2.1615158621554382,0.1756737381219864,0.32657352089881897,-0.007308683358132839,-0.1286623179912567,-0.9904553890228271,0.04944223538041115,-0.009460300207138062,-0.04215282201766968,0.03823494911193848
1.4321751118991337,-1.9476445883996054,2.174833911978444,0.18780618906021118,0.31008630990982056,-0.008900688961148262,-0.12848326563835144,-0.9904074668884277,0.05084889382123947,-0.005885705351829529,-0.04361987113952637,0.010384805500507355
1.4316406825673917,-1.9576783042274033,2.187643359670437,0.18061113357543945,0.20980499684810638,0.002721611876040697,-0.12845632433891296,-0.9903334379196167,0.052334997802972794,0.007789745926856995,-0.04564690589904785,-0.005887031555175781
1.4309811553013856,-1.966818861769329,2.1984603563002056,0.15714889764785767,0.1038847342133522,0.02482977695763111,-0.12857569754123688,-0.9902417659759521,0.05375911667943001,0.019246399402618408,-0.04676103591918945,-0.003298036754131317
1.4300869757442563,-1.9748112050244737,2.207088262061788,0.138444185256958,0.0074735116213560104,0.0538952499628067,-0.12895485758781433,-0.9901167750358582,0.05513256788253784,0.03238193690776825,-0.04130113124847412,-0.009600169956684113
1.4289241480873127,-1.9821783368160424,2.2142624447671504,0.12812167406082153,-0.054555170238018036,0.07134219259023666,-0.12960034608840942,-0.9899530410766602,0.056541427969932556,0.030174031853675842,-0.04341799020767212,-0.012870557606220245
1.4277766856510994,-1.9890223381367491,2.220466351850603,0.11006543785333633,-0.08025387674570084,0.056772831827402115,-0.13024823367595673,-0.989790141582489,0.05788836628198624,0.01992715895175934,-0.04303157329559326,-0.010891087353229523
1.427003748717138,-1.9956404428050125,2.226498942531938,0.09519706666469574,-0.03648020327091217,0.005365707911550999,-0.1305597573518753,-0.9896796345710754,0.059064626693725586,-0.002725839614868164,-0.03355962038040161,0.0016196966171264648
1.4268406284491713,-2.0021736462525452,2.2331894961995347,0.08464748412370682,0.06444507837295532,-0.05646303668618202,-0.13031761348247528,-0.9896562695503235,0.05998377501964569,-0.03443160653114319,-0.028272926807403564,0.010725736618041992
1.427190124297034,-2.0084950676400553,2.240781160070068,0.08593738824129105,0.16940061748027802,-0.09277462214231491,-0.12962301075458527,-0.9897063374519348,0.060659974813461304,-0.042969197034835815,-0.030526936054229736,0.01223146915435791
1.4276998034498916,-2.014745726857783,2.2490828473852367,0.0895712673664093,0.21408605575561523,-0.09270298480987549,-0.1287849247455597,-0.9897791743278503,0.06125194951891899,-0.020644456148147583,-0.034085631370544434,0.0044830963015556335
1.4281022369097371,-2.0210170186039442,2.257513237615251,0.09318378567695618,0.19170676171779633,-0.07181082665920258,-0.12803998589515686,-0.9898364543914795,0.06188521906733513,0.009936898946762085,-0.03277713060379028,-0.011820916086435318
1.4282858848455686,-2.0270481042168145,2.2652592903931494,0.09225274622440338,0.132445827126503,-0.0478583499789238,-0.1275015026330948,-0.9898625612258911,0.06257634609937668,0.029066994786262512,-0.028097152709960938,-0.02593982219696045
1.428271097967762,-2.032807039736639,2.27205218891916,0.08819258958101273,0.06271781027317047,-0.0253892932087183,-0.1271512508392334,-0.989860475063324,0.06331566721200943,0.03366060554981232,-0.024848997592926025,-0.03526986390352249
1.428138789777671,-2.038275001185154,2.2778773844097344,0.07682142406702042,-0.0034681297838687897,-0.02015325054526329,-0.12692083418369293,-0.989841639995575,0.06406939029693604,0.03130920231342316,-0.019466280937194824,-0.03956354409456253
1.428098278536684,-2.043003667127639,2.2822334199716146,0.03641090542078018,-0.0830385610461235,-0.03425503149628639,-0.12665319442749023,-0.9898359179496765,0.06468760222196579,0.020741865038871765,-0.015306532382965088,-0.03403245657682419
1.428515450834345,-2.0458622136257247,2.28385562555874,-0.036261968314647675,-0.16524262726306915,-0.08168379962444305,-0.12609949707984924,-0.9898951649665833,0.06485995650291443,0.0028236806392669678,-0.010959446430206299,-0.014597296714782715
1.4297470334866322,-2.0463502873764035,2.282267316088842,-0.12034553289413452,-0.2439880520105362,-0.14174705743789673,-0.12498484551906586,-0.9900690317153931,0.06436379253864288,-0.013488739728927612,-0.00042498111724853516,0.009549982845783234
1.4320600812536615,-2.044086043703612,2.2773017292821884,-0.21188077330589294,-0.27531054615974426,-0.2150644212961197,-0.12309051305055618,-0.9903915524482727,0.06303605437278748,-0.036211296916007996,0.0035445094108581543,0.02746403217315674
1.435420743074836,-2.0386606264449156,2.26908640366222,-0.2776569128036499,-0.26303738355636597,-0.27038127183914185,-0.1204591765999794,-0.9908506870269775,0.0608658567070961,-0.04491562396287918,0.002935647964477539,0.03384565934538841
1.439425789796383,-2.0304607352603163,2.2583154113230988,-0.3143627345561981,-0.22911882400512695,-0.29157552123069763,-0.11739778518676758,-0.9913833141326904,0.05811552703380585,-0.02455480396747589,0.008533954620361328,0.028280027210712433
1.4437495413734514,-2.019905884305763,2.2454580878193644,-0.32527175545692444,-0.21405509114265442,-0.312703937292099,-0.11414134502410889,-0.9919403791427612,0.05501125380396843,-0.016702845692634583,0.009732067584991455,0.02396845817565918
1.4481431299190541,-2.0090994438469743,2.2324922942766587,-0.300497442483902,-0.1944449096918106,-0.3154893219470978,-0.11078245937824249,-0.9924875497817993,0.05192475765943527,-0.02161814272403717,0.005075812339782715,0.016007550060749054
1.452314259660513,-2.00031162384897,2.2218183774354556,-0.25172868371009827,-0.17120489478111267,-0.32420021295547485,-0.10746907442808151,-0.992989182472229,0.04922454431653023,-0.018690645694732666,0.0052114129066467285,-0.00010633468627929688
1.456282003087607,-1.996535789092671,2.216226566212516,-0.19483397901058197,-0.1930670589208603,-0.34547778964042664,-0.10406529158353806,-0.993450403213501,0.04719094559550285,-0.015411093831062317,0.013332486152648926,-0.02035045623779297
1.4603700993593494,-1.9985992294922719,2.216096205162436,-0.14491716027259827,-0.24434460699558258,-0.3988713324069977,-0.10027118772268295,-0.9939092397689819,0.04572010040283203,-0.02919968217611313,0.017148315906524658,-0.03076637163758278
1.464781509355899,-2.0070917669382573,2.221817846256006,-0.11405538767576218,-0.3189961910247803,-0.45060431957244873,-0.09590381383895874,-0.9943857192993164,0.044716376811265945,-0.03655777871608734,0.023423194885253906,-0.0310138501226902
1.4694156663481046,-2.020433904433526,2.231617585132321,-0.10302333533763885,-0.3956659436225891,-0.463886022567749,-0.09114792943000793,-0.994865357875824,0.04398873448371887,-0.023964427411556244,0.026603639125823975,-0.020367983728647232
1.4738665873090557,-2.0356914886657127,2.2426262546428735,-0.09313155710697174,-0.4621424376964569,-0.4225364625453949,-0.08650743216276169,-0.9953060150146484,0.04338870570063591,0.0010123923420906067,0.015081346035003662,-0.00356316938996315
1.4775921583594827,-2.0508597549967638,2.252994733621479,-0.06803280115127563,-0.493413507938385,-0.3247477412223816,-0.08254943788051605,-0.9956596493721008,0.042982786893844604,0.03283626586198807,-0.0007392764091491699,0.002091880887746811
1.4801346510281987,-2.0650286994496647,2.2624503244922383,-0.013981817290186882,-0.444694459438324,-0.20757503807544708,-0.07970491796731949,-0.9958930611610413,0.042947959154844284,0.06555995345115662,-0.002398073673248291,-0.0032291412353515625
1.4815101008281977,-2.07958501874085,2.273149710296447,0.04799358546733856,-0.32734575867652893,-0.13117535412311554,-0.07787563651800156,-0.9960166215896606,0.04343665391206741,0.05735251307487488,-0.005112648010253906,-0.007166266441345215
1.4821673214895268,-2.0954561013764446,2.286374463364965,0.0856805071234703,-0.2172088772058487,-0.1021554246544838,-0.07660946995019913,-0.9960750341415405,0.04433894157409668,0.023737698793411255,-0.012698888778686523,-0.003063678741455078
1.4825425077932244,-2.111393705871612,2.3005515555769316,0.08855334669351578,-0.14785267412662506,-0.09161035716533661,-0.07557361572980881,-0.9961081743240356,0.045362453907728195,-0.000750906765460968,-0.013352513313293457,0.020113233476877213
1.482855545687451,-2.1264338042643707,2.314509530677899,0.09074459224939346,-0.07627861201763153,-0.09534038603305817,-0.07461627572774887,-0.9961357116699219,0.046328406780958176,-0.015654772520065308,-0.0010720491409301758,0.045041441917419434
1.4832742016830887,-2.1437616486952837,2.331559124168891,0.11795568466186523,0.004924383945763111,-0.1444961130619049,-0.0734517052769661,-0.9961723685264587,0.04738811030983925,-0.048313483595848083,0.009310126304626465,0.04044163227081299
