attitudeX,attitudeY,attitudeZ,gyroX,gyroY,gyroZ,gravityX,gravityY,gravityZ,accX,accY,accZ
0.910070354730844,0.41153672582945533,-2.8877653203684184,0.3733835816383362,-0.6620233654975891,-0.6816821098327637,0.2454872578382492,-0.7895469069480896,-0.5624514818191528,-0.0757332593202591,-0.0133705735206604,-0.09259307384490967
0.9109801224693836,0.4140414548933299,-2.9000846474232955,0.39617037773132324,-0.7929694056510925,-0.6226137280464172,0.24660617113113403,-0.7901049256324768,-0.5611769556999207,-0.06159338355064392,0.011784613132476807,-0.0986892580986023
0.9122668092089548,0.4141270600077505,-2.9116262568670987,0.40151089429855347,-1.0141825675964355,-0.5643539428710938,0.24624495208263397,-0.7908929586410522,-0.560224711894989,-0.057890474796295166,0.016570448875427246,-0.07156538963317871
0.9136634801423257,0.41120631426412113,-2.9222396148622147,0.36857983469963074,-1.2328968048095703,-0.5092899799346924,0.24416583776474,-0.7917468547821045,-0.5599284172058105,-0.05959555506706238,0.005690336227416992,-0.0360797643661499
0.9148981443640427,0.4053867090507759,-2.931885793075411,0.3221448063850403,-1.4568958282470703,-0.4843588173389435,0.24051746726036072,-0.7925004959106445,-0.5604411363601685,-0.0682762861251831,-0.006632804870605469,-0.021391630172729492
0.915656421635315,0.3972292416506455,-2.94154273025757,0.27573123574256897,-1.696368932723999,-0.5483462810516357,0.23570522665977478,-0.7929626703262329,-0.5618303418159485,-0.11265838146209717,-0.03317868709564209,-0.009672284126281738
0.915592895358072,0.38781378174480025,-2.952416438124055,0.217483788728714,-1.888239860534668,-0.6849063634872437,0.2304239422082901,-0.7929239869117737,-0.5640711188316345,-0.1720438450574875,-0.05818068981170654,-0.0013890266418457031
0.9143665247093931,0.37878905711255695,-2.9655573333880447,0.1551184207201004,-1.9628976583480835,-0.8959416151046753,0.2256835252046585,-0.7921761274337769,-0.5670308470726013,-0.2256530523300171,-0.07888710498809814,-0.0008554458618164062
0.9118946830676811,0.37260243955449124,-2.9819895946440127,0.1250075250864029,-1.8491744995117188,-1.1529000997543335,0.22288334369659424,-0.7906651496887207,-0.5702381134033203,-0.2809125483036041,-0.08673042058944702,-0.03126329183578491
0.908355973795089,0.3707244218430383,-3.0021783106892648,0.11628434807062149,-1.7060327529907227,-1.4028263092041016,0.2228243350982666,-0.7884936332702637,-0.5732600092887878,-0.2996523380279541,-0.06697511672973633,-0.06980633735656738
0.9039227806622491,0.3727046566852211,-3.025739654914911,0.11743483692407608,-1.6037862300872803,-1.6114027500152588,0.22522975504398346,-0.7857593297958374,-0.5760676264762878,-0.28165674209594727,-0.04494452476501465,-0.09173327684402466
0.8989522200481247,0.3772186721346313,-3.051860303411353,0.14703907072544098,-1.5953011512756348,-1.7484148740768433,0.22926358878612518,-0.7826751470565796,-0.5786689519882202,-0.23838837444782257,-0.02492678165435791,-0.10945659875869751
0.8937568477537667,0.3823870627519215,-3.0794359291751574,0.16192618012428284,-1.6814496517181396,-1.8100310564041138,0.23376543819904327,-0.7794308662414551,-0.5812411308288574,-0.20506367087364197,-0.007861614227294922,-0.11329305171966553
0.888481764447855,0.38664878478928527,-3.1072365732055354,0.1716158241033554,-1.7673925161361694,-1.8128702640533447,0.23778751492500305,-0.7761152386665344,-0.584039568901062,-0.17696599662303925,0.023475468158721924,-0.09863859415054321
0.883168105929796,0.38986745738763684,-3.1346353448505524,0.14848893880844116,-1.8389595746994019,-1.7780288457870483,0.24123013019561768,-0.7727535963058472,-0.5870774984359741,-0.14517606794834137,0.031191706657409668,-0.0961804986000061
0.8774625285083865,0.3911032635668343,3.1222595172668344,0.06412879377603531,-1.9485198259353638,-1.7523202896118164,0.2436322569847107,-0.7691196203231812,-0.5908454060554504,-0.1650037169456482,0.04837071895599365,-0.06537401676177979
0.8706570390657974,0.3903433831169542,3.0967072616252573,-0.08529635518789291,-2.134223222732544,-1.8013005256652832,0.2451692372560501,-0.7647524476051331,-0.5958572030067444,-0.1935182511806488,0.03880029916763306,-0.05654752254486084
0.862169791797939,0.3877095007443181,3.0713556510949087,-0.23348022997379303,-2.2110836505889893,-1.866247296333313,0.24604403972625732,-0.7592564225196838,-0.602488100528717,-0.2591666281223297,0.023813307285308838,-0.07050073146820068
0.8526165932100246,0.3858664790529602,3.045758090903801,-0.2441558688879013,-1.9968911409378052,-1.9456697702407837,0.2476518750190735,-0.7530047297477722,-0.6096329092979431,-0.3275927007198334,0.03739809989929199,-0.09666579961776733
0.8436552525733013,0.3866640025720718,3.01908991164823,-0.06639545410871506,-1.851507306098938,-1.9825752973556519,0.2506726384162903,-0.7470778822898865,-0.6156604290008545,-0.41627630591392517,0.06963342428207397,-0.15110886096954346
0.8363771236034678,0.39026339401190285,2.990142631322775,0.17855709791183472,-1.7090632915496826,-2.164656400680542,0.25494885444641113,-0.7422201037406921,-0.6197664141654968,-0.46072888374328613,-0.06262004375457764,-0.2646939754486084
0.8301526147274974,0.39896142052604866,2.9563680506831327,0.41548895835876465,-1.5545389652252197,-2.5065174102783203,0.2621195316314697,-0.7380343675613403,-0.6217705607414246,-0.4965097904205322,-0.23149389028549194,-0.40479493141174316
0.8243595222654281,0.41245832427025986,2.916609851658044,0.6344090700149536,-1.6144074201583862,-2.880286455154419,0.2721967101097107,-0.7341130375862122,-0.6220827698707581,-0.5271710753440857,-0.21444964408874512,-0.41530120372772217
0.8185230835616947,0.4285907422860111,2.8711504308872944,0.8181554675102234,-1.8325831890106201,-3.2224743366241455,0.2839723527431488,-0.7301374673843384,-0.6214973330497742,-0.5550447702407837,-0.08498704433441162,-0.3454672694206238
0.8124585081406068,0.4444517582014632,2.821196730653271,0.9668538570404053,-2.2529664039611816,-3.4670586585998535,0.2956922650337219,-0.7259801030158997,-0.6209017038345337,-0.5455091595649719,0.03242236375808716,-0.3051694631576538
0.8059412328728219,0.459238597035798,2.768110858473454,1.047629952430725,-2.4395763874053955,-3.6645874977111816,0.3069315552711487,-0.7214826941490173,-0.6206896901130676,-0.4723063111305237,0.11970657110214233,-0.2575603723526001
0.7988995795632642,0.47308738391728666,2.7130127994113105,1.1384716033935547,-2.735567808151245,-3.770962715148926,0.31780463457107544,-0.7165889739990234,-0.6208868026733398,-0.3883460462093353,0.14671897888183594,-0.25379276275634766
0.7924096518182236,0.4833227750531838,2.65702778701121,1.3274750709533691,-3.190403699874878,-3.746060371398926,0.3262973427772522,-0.7120472192764282,-0.6217064261436462,-0.3218722939491272,0.14715158939361572,-0.19627141952514648
0.7880601493913502,0.48953048886050576,2.6006366440614808,1.61481511592865,-3.55645751953125,-3.640681505203247,0.3316035270690918,-0.7089865803718567,-0.6223962903022766,-0.2731013596057892,0.1346305012702942,-0.1708317995071411
0.7866838923339273,0.4917588838287672,2.544103980172153,1.8831069469451904,-3.9953951835632324,-3.5110809803009033,0.333450049161911,-0.7080153226852417,-0.6225152611732483,-0.2249448001384735,0.10453027486801147,-0.20524340867996216
0.787662431239684,0.4894971399306073,2.4872231345148412,2.0546319484710693,-4.479513168334961,-3.4719998836517334,0.33171531558036804,-0.7087060213088989,-0.6226561665534973,-0.31465595960617065,0.08233273029327393,-0.2029205560684204
0.7899781603128806,0.4841174227661436,2.428667684483701,2.201540470123291,-4.859169006347656,-3.6078717708587646,0.32759612798690796,-0.7103378772735596,-0.6229774355888367,-0.47284451127052307,0.10789036750793457,-0.23250651359558105
0.7931608402989697,0.4787338055810346,2.3661968536084332,2.4285881519317627,-5.0410380363464355,-3.866257905960083,0.32319438457489014,-0.7125744819641113,-0.6227222084999084,-0.6013773679733276,0.15196657180786133,-0.2692149877548218
0.7978213879175472,0.4762295548334536,2.29874143496202,2.728339672088623,-5.062681198120117,-4.021629333496094,0.320108026266098,-0.7158365249633789,-0.6205714344978333,-0.5851684212684631,0.1614999771118164,-0.342044472694397
0.8057525407918745,0.4743583269686523,2.2292828096776196,3.089121103286743,-5.298142910003662,-3.801124095916748,0.3163430094718933,-0.7213520407676697,-0.6160993576049805,-0.39104998111724854,0.3309558629989624,-0.38429731130599976
0.8182374286340669,0.47032039543114146,2.1595101730515887,3.493617534637451,-5.58191442489624,-3.616746187210083,0.30974701046943665,-0.7299422025680542,-0.6092956066131592,-0.25364041328430176,0.4356459379196167,-0.3966705799102783
0.8348603406143692,0.46703328002455985,2.086766829052,3.8800718784332275,-5.724837303161621,-3.6944656372070312,0.3022371828556061,-0.7412027716636658,-0.5993923544883728,-0.2349153757095337,0.26615089178085327,-0.4299044609069824
0.853207364096092,0.4677704571353006,2.0081194701590785,4.0376996994018555,-5.860508918762207,-3.9716784954071045,0.29649659991264343,-0.7533933520317078,-0.5869311094284058,-0.18789976835250854,0.19312113523483276,-0.35429197549819946
0.8705035442478273,0.4717953225074379,1.9238142395877655,3.972339153289795,-6.104916095733643,-4.2054243087768555,0.2928898334503174,-0.7646535634994507,-0.5740388035774231,-0.09747046232223511,0.2868093252182007,-0.21198713779449463
0.8860051859888443,0.47616978069177646,1.8366356451947852,3.839345693588257,-6.4057698249816895,-4.229719161987305,0.28992947936058044,-0.7745511531829834,-0.5621488690376282,-0.06359586119651794,0.4081571698188782,-0.08082592487335205
0.9002632726622473,0.47770827496106816,1.7500044184569488,3.651123285293579,-6.740728855133057,-4.068125247955322,0.2856873571872711,-0.7834905385971069,-0.5518380403518677,-0.008480876684188843,0.4835333228111267,-0.02210599184036255
0.913521233574972,0.474248719296382,1.6667076558030405,3.3822896480560303,-7.008688926696777,-3.8084864616394043,0.2790081202983856,-0.7916600108146667,-0.5435338020324707,0.08624154329299927,0.5281865000724792,-0.005568981170654297
0.925728111275783,0.4655494479710202,1.5885565037086253,3.054616689682007,-7.095860481262207,-3.501910448074341,0.2699107825756073,-0.799058735370636,-0.5372646450996399,0.15017899870872498,0.5596331357955933,-0.013333439826965332
0.9361001114972645,0.4540694755092463,1.5179792928789293,2.4592597484588623,-6.260435104370117,-3.0801148414611816,0.26007595658302307,-0.8052518367767334,-0.5328508019447327,0.1787668764591217,0.5840909481048584,-0.045548856258392334
0.9417610370378405,0.4448501737209866,1.4604610203160953,1.5497279167175293,-4.900768756866455,-2.5304417610168457,0.25318682193756104,-0.8085954785346985,-0.5311025381088257,0.16990894079208374,0.6020371913909912,-0.09424847364425659
0.9438559106293735,0.4379357609734301,1.4153176390551827,1.0771986246109009,-3.756523847579956,-2.0882937908172607,0.24878960847854614,-0.8098262548446655,-0.5313051342964172,0.22157788276672363,0.609005331993103,-0.05284702777862549
0.9423812335350933,0.43265688498888566,1.3803170012334474,0.36961328983306885,-3.013312816619873,-1.7618207931518555,0.24648191034793854,-0.8089602589607239,-0.5336946845054626,0.17757515609264374,0.6228030323982239,-0.061123430728912354
0.9360561262917796,0.42542146413262816,1.3547893909920514,-0.24320271611213684,-2.542914628982544,-1.5008230209350586,0.24472081661224365,-0.8052257895469666,-0.5401139855384827,0.15377779304981232,0.5768780708312988,-0.06662124395370483
0.9259319705005361,0.41645426019814924,1.3368902367422306,-0.714730978012085,-2.121352195739746,-1.2758140563964844,0.24315312504768372,-0.7991812825202942,-0.5497142672538757,0.17226745188236237,0.5623802542686462,-0.16241341829299927
0.9128561480551602,0.4064676740760106,1.3248999542268822,-1.089377522468567,-1.7709821462631226,-1.1001242399215698,0.24176248908042908,-0.7912534475326538,-0.5616661906242371,0.1766030490398407,0.560265839099884,-0.28052741289138794
0.8973759485474879,0.39637832231430026,1.3174219492216632,-1.3788323402404785,-1.4215211868286133,-0.9613470435142517,0.2407839596271515,-0.7816931009292603,-0.5753078460693359,0.2029111534357071,0.5507818460464478,-0.40500831604003906
0.8802999255563831,0.3865839507998352,1.312743340165839,-1.5249497890472412,-1.3067586421966553,-0.8964024186134338,0.24013583362102509,-0.7709299325942993,-0.5899168252944946,0.257682204246521,0.5156351327896118,-0.5572084188461304
0.8628495961317718,0.3759560800867467,1.3079215855093649,-1.4373509883880615,-1.5814305543899536,-1.0011967420578003,0.23875635862350464,-0.7596986889839172,-0.6048580408096313,0.31387126445770264,0.446435809135437,-0.7933810353279114
0.8470501287453307,0.3648387325436463,1.2990246501321894,-1.0364792346954346,-1.9612191915512085,-1.2375731468200684,0.23627080023288727,-0.7493302822113037,-0.6186115741729736,0.3729364275932312,0.3557146191596985,-1.1473033428192139
0.8354173961612341,0.3552850175318462,1.2839121551083321,-0.41971758008003235,-2.163412570953369,-1.4535020589828491,0.23336660861968994,-0.741576611995697,-0.628970742225647,0.44804519414901733,0.305755078792572,-1.532863974571228
0.8290136479028744,0.348167403224189,1.2634431751048671,0.15137869119644165,-2.2644851207733154,-1.5529881715774536,0.23049944639205933,-0.7372653484344482,-0.6350667476654053,0.548080325126648,0.329306423664093,-1.8121836185455322
0.8273149669097326,0.34315209611208936,1.2395953161613287,0.6068214774131775,-2.207148313522339,-1.5790231227874756,0.22773253917694092,-0.7361166477203369,-0.6373931765556335,0.6537677645683289,0.3490622639656067,-1.9892089366912842
0.8296375004636457,0.3412496334259616,1.2138929646797183,0.9810799956321716,-1.918886661529541,-1.5150516033172607,0.22594676911830902,-0.7376866936683655,-0.6362125873565674,0.7151696085929871,0.321838915348053,-2.155855894088745
0.8355928007791208,0.3434244085907305,1.188154542579195,1.2885152101516724,-1.4050867557525635,-1.3236329555511475,0.22584658861160278,-0.7416942715644836,-0.6315718293190002,0.731367826461792,0.34383660554885864,-2.294804573059082
0.8449517736002191,0.35105953141339324,1.1641396749260742,1.5490213632583618,-0.6050766110420227,-1.0400630235671997,0.22826486825942993,-0.7479391098022461,-0.6232833862304688,0.7013006210327148,0.40881258249282837,-2.3970413208007812
0.8575276352073341,0.36609962296324056,1.1426212395731419,1.7917567491531372,0.3857368230819702,-0.7309278845787048,0.23422712087631226,-0.7562271952629089,-0.6109485030174255,0.62433922290802,0.4542863368988037,-2.467741012573242
0.8733727538627889,0.38991017098027725,1.123166197623841,2.0785200595855713,1.406087875366211,-0.4522736370563507,0.2441207468509674,-0.766499400138855,-0.5940401554107666,0.49449625611305237,0.47237104177474976,-2.521453619003296
0.8926272938651714,0.42308901037034247,1.104186129969685,2.403707981109619,2.260103702545166,-0.24905316531658173,0.25758424401283264,-0.7787227034568787,-0.5720499753952026,0.31761109828948975,0.4776516556739807,-2.5159778594970703
0.9152263565343027,0.4650677150892325,1.083615654062201,2.7580795288085938,2.8546066284179688,-0.11456938087940216,0.2734004557132721,-0.7927005887031555,-0.5448651313781738,0.09792223572731018,0.4901646375656128,-2.4255480766296387
0.9409135061877756,0.5150706747048209,1.0593039522324315,3.132503032684326,3.2126481533050537,-0.047341786324977875,0.29016387462615967,-0.8080965280532837,-0.5126254558563232,-0.13890346884727478,0.5272433161735535,-2.2879116535186768
0.9693075705628338,0.5736168417889576,1.0288872730855458,3.525966167449951,3.509768009185791,-0.025916390120983124,0.3070829510688782,-0.8244940638542175,-0.4752993881702423,-0.3574674427509308,0.5720527768135071,-2.14347505569458
0.9998008249165875,0.6429147561674897,0.989787711431287,3.928062677383423,3.807680606842041,-0.0457858182489872,0.324028342962265,-0.8413633704185486,-0.43256595730781555,-0.5638964772224426,0.6079955101013184,-2.0092523097991943
1.0314737167156418,0.7256109073471976,0.9389642113827452,4.344701766967773,4.0634260177612305,-0.0997164323925972,0.3407911956310272,-0.8580567836761475,-0.38418740034103394,-0.7786573171615601,0.66141676902771,-1.8556196689605713
1.0633367049602513,0.8247899969859194,0.873111489936825,4.784617900848389,4.3314361572265625,-0.13948510587215424,0.35689041018486023,-0.8739818334579468,-0.32982540130615234,-1.0061671733856201,0.7363781929016113,-1.6940240859985352
1.0938446266967634,0.9434884499907963,0.7889543163068868,5.195959091186523,4.5210394859313965,-0.19114963710308075,0.371670663356781,-0.8883984684944153,-0.269461065530777,-1.1951721906661987,0.8208019137382507,-1.5007110834121704
1.1203244653329925,1.083682693166235,0.6833676305866273,5.5765814781188965,4.582973957061768,-0.32364076375961304,0.38474908471107483,-0.9002417325973511,-0.20379632711410522,-1.3975359201431274,0.8807258009910583,-1.274993896484375
1.1390253593074013,1.2451595276028096,0.5556239263488607,5.86711311340332,4.56339168548584,-0.5667541027069092,0.3964874744415283,-0.9082260727882385,-0.133876770734787,-1.6494629383087158,0.9382554292678833,-1.0282630920410156
1.146024513558211,1.4221563696942914,0.41149655761472936,6.038283348083496,4.586377143859863,-0.8895399570465088,0.40756842494010925,-0.9111328125,-0.06103108823299408,-1.8542389869689941,1.0072633028030396,-0.773273766040802
1.1389415756546817,1.6030403405989626,0.26372690424599465,6.073672771453857,4.649221897125244,-1.225152850151062,0.41833844780921936,-0.9081909656524658,0.013493587262928486,-1.987460732460022,1.0830261707305908,-0.5328264236450195
1.1182040439869287,1.773780379909685,0.12592876687832064,6.088196754455566,4.50516414642334,-1.4743545055389404,0.4283205568790436,-0.8993165493011475,0.0881563350558281,-2.064688205718994,1.165353536605835,-0.3162599802017212
1.0863266716325048,1.9250083995781977,0.005018627964843574,6.128151893615723,4.115146636962891,-1.624842882156372,0.43682625889778137,-0.8849220871925354,0.1615423560142517,-2.070127010345459,1.2040901184082031,-0.1967596858739853
1.0457806986331022,2.0539458242655235,-0.0971503358878624,6.147696495056152,3.7691617012023926,-1.7438405752182007,0.44385433197021484,-0.8653160929679871,0.23285509645938873,-2.0821142196655273,1.2126214504241943,-0.13496994972229004
0.9987135900293177,2.1613266932420903,-0.18003146378917265,6.039679050445557,3.549203634262085,-1.9201922416687012,0.44969868659973145,-0.8407752513885498,0.30144384503364563,-2.09415340423584,1.2337652444839478,-0.061484068632125854
0.9470621917775287,2.2485576249913835,-0.24301500803747444,5.74669885635376,3.484462261199951,-2.200296640396118,0.45497819781303406,-0.8117031455039978,0.3662416934967041,-2.142157554626465,1.2371028661727905,0.08512857556343079
0.8931029717617472,2.3181389415103983,-0.28606362976810135,5.223931789398193,3.581331253051758,-2.560960292816162,0.45990148186683655,-0.7790210247039795,0.4261654317378998,-2.193559169769287,1.2285449504852295,0.2863895893096924
0.8383787081853121,2.3736189963636454,-0.3108977198775723,4.736424446105957,3.6989266872406006,-2.9993484020233154,0.46451058983802795,-0.7435600161552429,0.4809871017932892,-2.2106499671936035,1.2254631519317627,0.5019536018371582
0.7822479080736865,2.41895182920126,-0.3219198694442194,4.567826271057129,3.725959062576294,-3.47786283493042,0.46912840008735657,-0.7048757076263428,0.5320417881011963,-2.1428496837615967,1.2000694274902344,0.5724655389785767
0.7228861351160194,2.457295736054724,-0.32447146142823924,4.744156837463379,3.526785373687744,-3.881178140640259,0.4740329384803772,-0.6615517139434814,0.581070065498352,-2.01350736618042,1.2148964405059814,0.5884703993797302
0.6588805712196277,2.488859768089292,-0.32317902227796963,5.174474716186523,2.8603856563568115,-4.160942554473877,0.4802260100841522,-0.6122321486473083,0.6281359195709229,-1.7710280418395996,1.2457008361816406,0.6643445491790771
0.5895884502085095,2.5109344705342793,-0.3208515100986832,5.67729377746582,1.7853666543960571,-4.410556793212891,0.49012112617492676,-0.5560190081596375,0.6712854504585266,-1.4612362384796143,1.2374308109283447,0.8559820055961609
0.5148646474110316,2.5216462424258097,-0.3178995908770194,6.088309288024902,0.6730918288230896,-4.711238861083984,0.5056714415550232,-0.49241703748703003,0.7083938121795654,-1.209513545036316,1.2256476879119873,1.153651475906372
0.4364928969768621,2.521614231969132,-0.313458037511631,6.119484901428223,-0.23755155503749847,-4.994987487792969,0.5265412926673889,-0.42276379466056824,0.737580418586731,-0.9346070885658264,1.1781044006347656,1.5284411907196045
0.3584328410816898,2.513124808285207,-0.30600694422171526,5.65211296081543,-0.8505987524986267,-5.186746120452881,0.5505431890487671,-0.3508071005344391,0.7575197815895081,-0.6291107535362244,1.1790847778320312,1.9998958110809326
0.2856407684592026,2.498969386565594,-0.2944535207875478,4.667316436767578,-1.2217096090316772,-5.144344806671143,0.5750146508216858,-0.28177231550216675,0.7680899500846863,-0.24159491062164307,1.208606481552124,2.4680700302124023
0.2233992512164974,2.4818663805901786,-0.2786159279452405,3.3328943252563477,-1.373180627822876,-4.758018493652344,0.5976700186729431,-0.22154568135738373,0.7705245018005371,0.20538479089736938,1.2850985527038574,2.833967685699463
0.17498048852244602,2.4644313455224363,-0.25990780685584824,2.001236915588379,-1.355337142944336,-4.066568851470947,0.6170152425765991,-0.17408892512321472,0.7674537301063538,0.6868482232093811,1.3658766746520996,2.9748711585998535
0.1404051324222982,2.448041395515073,-0.24056282191840742,0.9778765439987183,-1.3139492273330688,-3.232971668243408,0.6329811215400696,-0.13994427025318146,0.7614132761955261,1.0907889604568481,1.4223692417144775,2.889434814453125
0.11757798424227578,2.432458469735669,-0.22333670909579265,0.36068761348724365,-1.3822733163833618,-2.3026082515716553,0.6466808319091797,-0.11730726063251495,0.7536858916282654,1.3925951719284058,1.4933449029922485,2.65769100189209
0.10423751815976263,2.4155140094997436,-0.21097572422022262,0.07065286487340927,-1.7743523120880127,-1.2850537300109863,0.6603386998176575,-0.10404885560274124,0.7437248826026917,1.6281745433807373,1.5712578296661377,2.429065704345703
0.09913167389821811,2.3938812688946554,-0.20527033585140453,-0.06735451519489288,-2.4400415420532227,-0.23828628659248352,0.6766241788864136,-0.09896939247846603,0.729647159576416,1.7567713260650635,1.6188364028930664,2.286069393157959
0.10212775645642104,2.3661696722626835,-0.20615111156116314,-0.2565039396286011,-3.0797312259674072,0.7645618915557861,0.6963706612586975,-0.10195031762123108,0.7104039192199707,1.7339729070663452,1.6444919109344482,2.2224574089050293
0.11380648816195446,2.333740314000418,-0.2119935028694951,-0.5607756972312927,-3.4769864082336426,1.7043241262435913,0.7181288599967957,-0.1135609820485115,0.6865819692611694,1.5808517932891846,1.6615499258041382,2.1868157386779785
0.13485706865851393,2.2991321648687473,-0.2213043855800814,-0.9346632361412048,-3.6256558895111084,2.629929780960083,0.7395071983337402,-0.13444867730140686,0.6595849990844727,1.3891091346740723,1.671314001083374,2.093268394470215
0.16564518806406078,2.2643846888360666,-0.23300794744936934,-1.3171050548553467,-3.639885663986206,3.5237181186676025,0.7584314942359924,-0.16488872468471527,0.6305499076843262,1.1721408367156982,1.6880059242248535,1.9617505073547363
0.20580066108981881,2.2304204090846644,-0.24633558151562962,-1.6469402313232422,-3.6223666667938232,4.340043544769287,0.7735470533370972,-0.20435099303722382,0.5998878479003906,0.9028444290161133,1.7032219171524048,1.8201713562011719
0.2541282640613621,2.197376625073109,-0.26073535298131645,-1.8790792226791382,-3.6270527839660645,5.029861927032471,0.7840214371681213,-0.25140175223350525,0.5675453543663025,0.604559063911438,1.7200144529342651,1.6819663047790527
0.30906645823073686,2.1649402951223173,-0.2759525824115399,-1.9937219619750977,-3.6939544677734375,5.603933811187744,0.789365828037262,-0.3041694462299347,0.5332751274108887,0.29414546489715576,1.7403877973556519,1.5447735786437988
0.3693060347049907,2.1324822575646722,-0.2920785606932724,-2.018697738647461,-3.8513269424438477,6.10112190246582,0.7892950773239136,-0.36096835136413574,0.4967039227485657,0.022975921630859375,1.7440555095672607,1.4261016845703125
0.43391873772937517,2.0995933037624135,-0.3090798649784463,-1.9912407398223877,-4.027857303619385,6.5207438468933105,0.7833976745605469,-0.4204295873641968,0.4577409327030182,-0.23482906818389893,1.7524456977844238,1.3359601497650146
0.5023297584738134,2.0662926572569806,-0.32653468316479745,-1.9930806159973145,-4.174376487731934,6.881860256195068,0.7710536122322083,-0.4814687967300415,0.4167306125164032,-0.4974176287651062,1.775093674659729,1.2757437229156494
0.5743149097930116,2.032629118416878,-0.34324850731420314,-2.091667890548706,-4.221238136291504,7.16370153427124,0.7516098022460938,-0.5432597398757935,0.3741014003753662,-0.7464674115180969,1.795930027961731,1.2534773349761963
0.6495956230550061,1.998766390721419,-0.35738403825243353,-2.2955994606018066,-4.133398056030273,7.370140552520752,0.7245078086853027,-0.6048644185066223,0.3304961323738098,-0.979237973690033,1.8257200717926025,1.232492208480835
0.7276805718753263,1.964224393383256,-0.36718508497438535,-2.5346901416778564,-3.9858155250549316,7.500597953796387,0.6896699070930481,-0.6651394367218018,0.28625982999801636,-1.1738313436508179,1.8499083518981934,1.1761424541473389
0.80777358154404,1.9277736716709308,-0.3713225753395872,-2.7587504386901855,-3.857996940612793,7.565463066101074,0.6475399732589722,-0.7227502465248108,0.24150383472442627,-1.3468959331512451,1.879152774810791,1.1091125011444092
0.8888181133218688,1.887010333333155,-0.3684428979682081,-2.9284677505493164,-3.8460774421691895,7.548403739929199,0.5990780591964722,-0.7763273119926453,0.19601406157016754,-1.4973018169403076,1.9141294956207275,1.0419009923934937
0.9694185227761279,1.8386819475876766,-0.35656327686269323,-3.052931070327759,-3.886654853820801,7.420351028442383,0.5455994606018066,-0.8245568871498108,0.14975784718990326,-1.643103003501892,1.9189019203186035,0.981635570526123
1.0479472584542822,1.7789695329668374,-0.33253369138201666,-3.1135928630828857,-3.9699039459228516,7.179019451141357,0.48856958746910095,-0.8664000034332275,0.1032022163271904,-1.7575514316558838,1.893484354019165,0.923317551612854
1.1224293613619092,1.7028210762172566,-0.29274612101250674,-3.0321390628814697,-4.213640213012695,6.8135600090026855,0.4297223389148712,-0.9011561870574951,0.0570659302175045,-1.8513225317001343,1.8559443950653076,0.8504199981689453
1.1906327846286022,1.6049548336690707,-0.23407352320605238,-2.786306142807007,-4.589545249938965,6.332795143127441,0.3708561062812805,-0.9286039471626282,0.012672820128500462,-1.9534671306610107,1.785156011581421,0.742805004119873
1.2505608053472752,1.4805270251037657,-0.15258775576196046,-2.4757449626922607,-4.949567794799805,5.766165256500244,0.31350842118263245,-0.9491612911224365,-0.02837730571627617,-2.0071730613708496,1.6749303340911865,0.6381490230560303
1.3009708738868455,1.3240569741979245,-0.04250081633850849,-2.151418924331665,-5.226130962371826,5.218658924102783,0.25849053263664246,-0.9638174176216125,-0.06510641425848007,-1.9859226942062378,1.5731160640716553,0.5618562698364258
1.341779149193176,1.1310438490892836,0.1016244129974864,-1.8003524541854858,-5.38786506652832,4.843904972076416,0.20542091131210327,-0.9738900065422058,-0.09664605557918549,-1.9088815450668335,1.494046926498413,0.4958769679069519
1.3739502376939026,0.8946702126550895,0.2876576269791344,-1.4733368158340454,-5.465212821960449,4.756547927856445,0.15255101025104523,-0.9806882739067078,-0.12238774448633194,-1.7919247150421143,1.442922830581665,0.43577271699905396
1.3970379807935145,0.6012394420284795,0.5300714492533837,-1.229822039604187,-5.537471294403076,4.873400688171387,0.097795270383358,-0.9849419593811035,-0.1425674557685852,-1.6905686855316162,1.392122745513916,0.4113968014717102
1.4072848311828734,0.2517748954389992,0.8271263122841155,-1.0380781888961792,-5.752859115600586,4.975252628326416,0.04055333510041237,-0.9866617321968079,-0.1576519012451172,-1.7251999378204346,1.3214396238327026,0.3863048553466797
1.4010784314695433,-0.11095241371429951,1.1352942855002222,-0.9123157858848572,-5.944446563720703,5.064846515655518,-0.018701961264014244,-0.9856324791908264,-0.16786615550518036,-1.8457846641540527,1.1982941627502441,0.3285259008407593
1.3784518729919628,-0.4278892955285248,1.39635408729302,-0.935191810131073,-6.011078357696533,5.125842571258545,-0.07932216674089432,-0.9815587401390076,-0.17392586171627045,-1.9949270486831665,1.0723333358764648,0.29282230138778687
1.342935788285939,-0.6678108685655986,1.5807181120808806,-1.1043169498443604,-5.824525833129883,5.063917636871338,-0.1398887187242508,-0.9741519093513489,-0.17736682295799255,-2.213672637939453,0.9480289816856384,0.2538285255432129
1.299995296886898,-0.8354634764308474,1.6953405398771615,-1.291372299194336,-5.430447578430176,4.883995056152344,-0.19838280975818634,-0.9635569453239441,-0.1794506311416626,-2.4922146797180176,0.7703805565834045,0.11444811522960663
1.25401494294517,-0.9509069279518567,1.7612532995259904,-1.4891482591629028,-5.002567291259766,4.632265090942383,-0.25355079770088196,-0.9502429962158203,-0.18096986413002014,-2.7491347789764404,0.5370656251907349,-0.12098632752895355
1.2080081913168987,-1.0308552134337696,1.7952306904749482,-1.6320604085922241,-4.536086559295654,4.254954814910889,-0.3043964207172394,-0.9349110126495361,-0.1824398636817932,-2.9564220905303955,0.26360058784484863,-0.40772438049316406
1.165316768645167,-1.0866502982724955,1.8089289601892753,-1.6308188438415527,-4.060769081115723,3.6340112686157227,-0.34912556409835815,-0.9189133644104004,-0.18360234797000885,-3.1893112659454346,-0.01020967960357666,-0.7589026093482971
1.1291668369064904,-1.1256184624000196,1.8092066499680899,-1.5897555351257324,-3.6527395248413086,2.8027102947235107,-0.38575515151023865,-0.9040563702583313,-0.18405207991600037,-3.4031548500061035,-0.294109582901001,-1.1168360710144043
1.1009222550927034,-1.150109271948233,1.7984807736243222,-1.6513168811798096,-3.132465362548828,1.919389247894287,-0.4132958948612213,-0.8916252851486206,-0.18490728735923767,-3.3970983028411865,-0.5368719100952148,-1.3951404094696045
1.0800501277677466,-1.1597860810653677,1.7770770763260264,-1.8557502031326294,-2.5705153942108154,1.1080577373504639,-0.4320346713066101,-0.8819814324378967,-0.1882948875427246,-3.14258074760437,-0.7121195197105408,-1.61624014377594
1.0647846621279302,-1.1545131061205662,1.7449282015917138,-2.187213659286499,-2.006592273712158,0.47531256079673767,-0.44329896569252014,-0.8746845722198486,-0.19599218666553497,-2.7020103931427,-0.8383281230926514,-1.8426889181137085
1.0525993792685098,-1.1353895339386073,1.7030865808902826,-2.5368125438690186,-1.4506596326828003,0.08134287595748901,-0.44910097122192383,-0.8687136769294739,-0.2089134156703949,-2.1218066215515137,-0.9305111169815063,-2.0985512733459473
1.0412643713234468,-1.1059821177316693,1.6553989572269463,-2.7298645973205566,-0.9089672565460205,-0.10912393778562546,-0.4515375792980194,-0.8630436062812805,-0.22642762959003448,-1.5796055793762207,-0.9741450548171997,-2.4300360679626465
1.0299834140818418,-1.0701787635630073,1.6066810450434295,-2.6704823970794678,-0.27069219946861267,-0.18990133702754974,-0.45165592432022095,-0.8572904467582703,-0.24710305035114288,-1.2343028783798218,-0.99259352684021,-2.813413381576538
1.0195977121305126,-1.0304947348560396,1.5626171490089786,-2.2706174850463867,0.7187802195549011,-0.2975509464740753,-0.44910845160484314,-0.8518974184989929,-0.26939305663108826,-1.0489842891693115,-1.035355567932129,-3.1775522232055664
1.0128779432396469,-0.9872964348176546,1.5276741085223935,-1.5073994398117065,1.9976598024368286,-0.5317868590354919,-0.4418230652809143,-0.8483589887619019,-0.29168370366096497,-1.0106762647628784,-1.054427146911621,-3.45564603805542
1.0126615075174272,-0.9411594462146857,1.5046862882466463,-0.49484241008758545,3.2959141731262207,-0.8111779093742371,-0.42804858088493347,-0.8482443690299988,-0.31185853481292725,-1.0269684791564941,-1.0219643115997314,-3.5193488597869873
1.0204273867428655,-0.8942105238159568,1.49408980777436,0.5358704328536987,4.19476842880249,-1.0894219875335693,-0.40779224038124084,-0.8523316383361816,-0.32746943831443787,-1.052138090133667,-0.9285368323326111,-3.3018946647644043
1.036106199733436,-0.8492808016908423,1.4932082017620125,1.3768442869186401,4.56130838394165,-1.3484694957733154,-0.3825911283493042,-0.8604265451431274,-0.3365856409072876,-1.1142044067382812,-0.7751476168632507,-2.824913501739502
1.0582631576857646,-0.807304876933759,1.4981520320758686,1.9315961599349976,4.639510631561279,-1.5690006017684937,-0.3542681932449341,-0.871505081653595,-0.33907684683799744,-1.1895091533660889,-0.59935063123703,-2.2658426761627197
1.0848637469126514,-0.765403594090902,1.503712529207066,2.156096935272217,4.701747417449951,-1.814300298690796,-0.32357361912727356,-0.8842397928237915,-0.33677881956100464,-1.3033336400985718,-0.4336312413215637,-1.7425211668014526
1.114035733862674,-0.7174336593250258,1.504053374582711,2.132326602935791,4.944441318511963,-2.094683885574341,-0.28996506333351135,-0.8974859118461609,-0.3323238492012024,-1.419614315032959,-0.31191033124923706,-1.3019993305206299
1.1443715070296503,-0.6570543403585127,1.494424669429727,2.025021553039551,5.377996444702148,-2.3763179779052734,-0.252632737159729,-0.9104503393173218,-0.3275008201599121,-1.5327523946762085,-0.19297367334365845,-1.0041794776916504
1.1752782312800174,-0.5801367432438718,1.472379120442553,1.9942171573638916,5.923173904418945,-2.6229262351989746,-0.21119020879268646,-0.9227970838546753,-0.32224878668785095,-1.6143560409545898,-0.05349075794219971,-0.8370530605316162
1.2068702001251719,-0.48562102235156396,1.4372674426302656,2.135725736618042,6.402177810668945,-2.8040573596954346,-0.16614054143428802,-0.9345065355300903,-0.3147934377193451,-1.6620302200317383,0.09815704822540283,-0.7398330569267273
1.2396188840154727,-0.3737294079331973,1.3885887441638636,2.4486889839172363,6.772773265838623,-2.912365436553955,-0.1187114492058754,-0.9456601738929749,-0.3027118742465973,-1.7060108184814453,0.26153236627578735,-0.6847301721572876
1.2741429191699338,-0.24176441428684178,1.323058578530902,2.8965413570404053,7.09998083114624,-3.0233190059661865,-0.06998651474714279,-0.9563201069831848,-0.28382009267807007,-1.7803399562835693,0.44348740577697754,-0.6308223009109497
1.3102151579263839,-0.07890244183106822,1.2287177641769687,3.3697400093078613,7.250815391540527,-3.242473602294922,-0.020307492464780807,-0.966240406036377,-0.25684037804603577,-1.9141101837158203,0.6194539666175842,-0.5201525092124939
1.345298271725019,0.1360655626204348,1.0817622321978058,3.8037474155426025,7.1257171630859375,-3.610548496246338,0.03032936528325081,-0.9746828675270081,-0.22152529656887054,-2.0745949745178223,0.7878085374832153,-0.34842103719711304
1.3731554623889155,0.4306316017633308,0.852201360302496,4.1724653244018555,6.821186065673828,-4.057152271270752,0.08196807652711868,-0.9805325269699097,-0.1784297525882721,-2.220609426498413,0.9766873717308044,-0.1682194322347641
1.3836825825633665,0.8078057107228448,0.536175382311957,4.480557441711426,6.516195774078369,-4.502969264984131,0.13445299863815308,-0.9825452566146851,-0.12855856120586395,-2.3218917846679688,1.1954511404037476,-0.01899397373199463
1.3685240654947026,1.2006165752440277,0.20145664710588032,4.767571449279785,6.305549144744873,-4.899016857147217,0.18728762865066528,-0.9796126484870911,-0.07268070429563522,-2.3695690631866455,1.3854963779449463,0.06666868925094604
1.328745081093805,1.5238352760282698,-0.0654745019938843,5.052880764007568,6.216169834136963,-5.197225570678711,0.2394300103187561,-0.9708483219146729,-0.011252157390117645,-2.370335102081299,1.53888738155365,0.08693575859069824
1.2717313771895509,1.7609612538333417,-0.24636077153760869,5.364085674285889,6.301304817199707,-5.397533893585205,0.2893158495426178,-0.9556124210357666,0.05569066107273102,-2.384957790374756,1.664642572402954,0.06645584106445312
1.2036383201023615,1.9352708558516614,-0.36281250137944965,5.6431779861450195,6.495077133178711,-5.56539249420166,0.33538439869880676,-0.9333512783050537,0.1279558390378952,-2.424480438232422,1.7823350429534912,0.09589062631130219
1.127895894820439,2.0683292800370365,-0.4355769203648451,5.8468017578125,6.674769401550293,-5.771883487701416,0.3766045570373535,-0.9035124778747559,0.20453523099422455,-2.5093557834625244,1.8922359943389893,0.18419770896434784
1.046443038535654,2.1725659357614875,-0.47741905170631466,5.9275336265563965,6.675209045410156,-6.055634021759033,0.4127064347267151,-0.8656479120254517,0.2834210991859436,-2.6042957305908203,1.973832607269287,0.33665040135383606
0.9614304682467683,2.254114597746439,-0.49602534482031946,5.8174848556518555,6.415144920349121,-6.31007719039917,0.44384533166885376,-0.8200111389160156,0.3613630533218384,-2.618039608001709,2.038135528564453,0.5376542806625366
0.8758933879623965,2.3183268886416526,-0.49813368245206113,5.567080020904541,6.03770112991333,-6.377636909484863,0.46958476305007935,-0.7681158781051636,0.4353024661540985,-2.493129014968872,2.0811195373535156,0.7028200626373291
0.7930975210575624,2.370451515255899,-0.48954471291248214,5.135862827301025,5.620699405670166,-6.233494281768799,0.4890119135379791,-0.7125300168991089,0.5031582713127136,-2.268796920776367,2.071676254272461,0.8088533878326416
0.7155932365560792,2.4142668103995923,-0.4732364005539089,4.576257705688477,5.379610061645508,-6.034544467926025,0.501783549785614,-0.6560652256011963,0.5637300610542297,-2.041975259780884,1.9956954717636108,0.9024564623832703
0.644015688153982,2.4550098673592466,-0.45130504869000443,4.07804536819458,5.538201808929443,-5.8303728103637695,0.506922721862793,-0.600411593914032,0.6184946298599243,-1.8861949443817139,1.9211970567703247,0.9363912343978882
0.5777775049988767,2.4975582671112635,-0.4252696043851835,3.7101776599884033,5.921813488006592,-5.6798319816589355,0.5029646158218384,-0.5461635589599609,0.6698749661445618,-1.7073864936828613,1.8840999603271484,0.9820416569709778
0.515302498903087,2.5435116803157793,-0.3964907645990549,3.60428786277771,6.184483528137207,-5.556472301483154,0.4899410903453827,-0.4927980899810791,0.7191022634506226,-1.4384732246398926,1.856750726699829,1.0992419719696045
0.45463454153675364,2.5914099065334892,-0.3670251893842733,3.7484874725341797,6.031403064727783,-5.355588436126709,0.4697333574295044,-0.43913400173187256,0.765840470790863,-1.095694661140442,1.842301845550537,1.2753124237060547
0.3953906942180562,2.6364926022840525,-0.3389321599917301,3.8761770725250244,5.160574913024902,-4.972194671630859,0.44656050205230713,-0.38516876101493835,0.8076065182685852,-0.6219756603240967,1.8116062879562378,1.5998945236206055
0.3390556119947519,2.6719408720804907,-0.31381388802902743,3.8344388008117676,3.6726009845733643,-4.394685745239258,0.4268103837966919,-0.33259662985801697,0.8409594297409058,-0.06250670552253723,1.7215584516525269,2.0383284091949463
0.28799294610398013,2.694838775926536,-0.29215995737084577,3.4346189498901367,2.2711479663848877,-3.8008873462677,0.41424715518951416,-0.28402841091156006,0.8647123575210571,0.3784928023815155,1.611878752708435,2.442981243133545
0.24517549086540685,2.7076011165570315,-0.27234073020096183,2.612767457962036,1.3737252950668335,-3.2869622707366943,0.40792062878608704,-0.24272656440734863,0.880161702632904,0.6427080631256104,1.5320484638214111,2.800532817840576
0.2138370718877502,2.714553142383703,-0.2530657565319337,1.4877744913101196,0.9372894167900085,-2.709571599960327,0.4047446846961975,-0.21221113204956055,0.8894652724266052,0.8798471093177795,1.4258646965026855,3.0498504638671875
0.19579333062480572,2.7196333743539234,-0.23481964981446116,0.33696138858795166,0.83948814868927,-2.0018670558929443,0.40172380208969116,-0.19454476237297058,0.8948580622673035,1.1560918092727661,1.304713249206543,3.0832457542419434
0.1908939077512629,2.725134053130404,-0.21946600848847195,-0.629086434841156,0.8295449614524841,-1.1190305948257446,0.39717620611190796,-0.18973663449287415,0.8979150652885437,1.4253795146942139,1.2851498126983643,2.9516639709472656
0.19745387279024917,2.730694554984841,-0.20965905568584572,-1.2984509468078613,0.6177967190742493,-0.10733630508184433,0.39167147874832153,-0.1961733102798462,0.8989489078521729,1.6526247262954712,1.2882144451141357,2.7153239250183105
0.2129267138229395,2.734084043324919,-0.2071486899042318,-1.6955623626708984,0.12837161123752594,0.8667129874229431,0.38737285137176514,-0.2113214135169983,0.8973769545555115,1.7053242921829224,1.255999207496643,2.4716720581054688
0.2347946400475972,2.7333018502951822,-0.21182217238783072,-1.94379723072052,-0.4989551603794098,1.6681787967681885,0.3861472010612488,-0.232643261551857,0.8926181793212891,1.5435097217559814,1.2076799869537354,2.2679195404052734
0.26199840959362863,2.7275265226767322,-0.22193319038746537,-2.2612087726593018,-1.1477118730545044,2.269867181777954,0.38860511779785156,-0.25901126861572266,0.8842504620552063,1.2577571868896484,1.1353083848953247,2.1375999450683594
0.2948415676349229,2.7168313743123327,-0.2354221395490428,-2.672595262527466,-1.7010538578033447,2.74715256690979,0.3943202793598175,-0.29058825969696045,0.8718199133872986,0.9473545551300049,1.068084716796875,2.0448670387268066
0.3335602510915096,2.7025389262551016,-0.25107363980030617,-3.0851094722747803,-2.0936882495880127,3.1741268634796143,0.40165382623672485,-0.32740911841392517,0.8552649021148682,0.6581913232803345,1.0265514850616455,1.9014949798583984
0.37747456636911964,2.6859787387338487,-0.2687921064606264,-3.3553314208984375,-2.439577579498291,3.599567413330078,0.40903615951538086,-0.36857399344444275,0.8347713351249695,0.37680691480636597,0.9998452663421631,1.7079839706420898
0.4253147371546324,2.6676157304250854,-0.28893831941030895,-3.510852098464966,-2.7950456142425537,3.9582555294036865,0.41576483845710754,-0.41260749101638794,0.8104907274246216,0.0917578637599945,0.9621069431304932,1.512995719909668
0.4761160334116938,2.64673018781338,-0.310339241406131,-3.670210123062134,-3.2350523471832275,4.131170272827148,0.42209184169769287,-0.4583306312561035,0.7821580767631531,-0.22677934169769287,0.8948694467544556,1.3990399837493896
0.5293300433273277,2.6217150100902376,-0.33082537186743133,-3.871920347213745,-3.7207753658294678,4.130446910858154,0.4287882447242737,-0.5049551725387573,0.749106764793396,-0.5602731704711914,0.8488577604293823,1.341179370880127
0.5845199978365386,2.591054702695471,-0.3482709961610848,-4.091981887817383,-4.229438781738281,4.010010242462158,0.43629172444343567,-0.5517991185188293,0.7107515335083008,-0.8710144758224487,0.8392441272735596,1.2644989490509033
0.6412148412626237,2.5535598870128857,-0.361051713415366,-4.303927421569824,-4.697022914886475,3.8345859050750732,0.4445399343967438,-0.5981694459915161,0.666766345500946,-1.1174068450927734,0.8432562351226807,1.1661803722381592
0.6987682671742449,2.508872438746366,-0.36802561447873733,-4.470739364624023,-5.05808162689209,3.635223865509033,0.4527510106563568,-0.6432751417160034,0.6174247860908508,-1.3223799467086792,0.888392448425293,1.041464924812317
0.7563818451510854,2.4570139947277356,-0.3683151503174814,-4.5813374519348145,-5.30228853225708,3.4268510341644287,0.4599210321903229,-0.6862943768501282,0.5634475350379944,-1.490560531616211,0.9635922312736511,0.9095749855041504
0.81316011358695,2.3979310244943934,-0.36107967665704377,-4.642727375030518,-5.442896366119385,3.2188963890075684,0.4652300179004669,-0.7264624238014221,0.5057801604270935,-1.6019638776779175,1.0401372909545898,0.7805357575416565
0.8684317184608439,2.331185065886396,-0.3453629936291617,-4.681241035461426,-5.514378547668457,3.01936674118042,0.4680884778499603,-0.7633167505264282,0.44524186849594116,-1.6745246648788452,1.1245381832122803,0.674737811088562
0.921668333344708,2.2561296204487267,-0.3199734634166168,-4.716742515563965,-5.4838762283325195,2.85193133354187,0.46800267696380615,-0.7966112494468689,0.3826018273830414,-1.7222445011138916,1.2184863090515137,0.5893220901489258
0.9724853633471389,2.1721744951236515,-0.2837640597376795,-4.737398624420166,-5.378871917724609,2.726747989654541,0.464429646730423,-0.8262881636619568,0.3186739385128021,-1.7282845973968506,1.303628921508789,0.5203763246536255
1.0202661155570258,2.077959501246338,-0.2351276885265532,-4.760162353515625,-5.260066509246826,2.599991798400879,0.45728975534439087,-0.8522472381591797,0.25408855080604553,-1.715880274772644,1.3754100799560547,0.4687507748603821
1.0640366899071911,1.9709891599420029,-0.17174716086397368,-4.797817230224609,-5.145236492156982,2.4397616386413574,0.44699758291244507,-0.8743218183517456,0.18908916413784027,-1.6899327039718628,1.426033854484558,0.42574846744537354
1.1022434326130761,1.8490865999255353,-0.09110931467447854,-4.838930606842041,-4.930592060089111,2.231886386871338,0.4342209994792938,-0.8922227025032043,0.12405873835086823,-1.6868455410003662,1.4551196098327637,0.37732982635498047
1.1332669618568674,1.7124783043555851,0.007293850590665566,-4.841174125671387,-4.659162521362305,2.026027202606201,0.4194573760032654,-0.9058012366294861,0.059830427169799805,-1.6608208417892456,1.4689269065856934,0.3168022632598877
1.1559108038717958,1.5633161269537263,0.12071459159608439,-4.78075647354126,-4.506190776824951,1.8505464792251587,0.4030735492706299,-0.9151624441146851,-0.003015127032995224,-1.5755589008331299,1.479539394378662,0.2596222162246704
1.1697713412945498,1.4053888243164534,0.24340303750630696,-4.641794204711914,-4.544597625732422,1.7422698736190796,0.38503435254096985,-0.9206613898277283,-0.06427481770515442,-1.479623556137085,1.4911417961120605,0.21233081817626953
1.1754196048885552,1.2439198611757083,0.36818000588610106,-4.439368724822998,-4.732171535491943,1.698642373085022,0.3647618591785431,-0.9228515625,-0.12366834282875061,-1.3955388069152832,1.502899169921875,0.18195688724517822
1.1741235885722425,1.0855555849941105,0.487019860331571,-4.179091453552246,-5.036529064178467,1.680868148803711,0.3417523503303528,-0.922351598739624,-0.18020270764827728,-1.358628511428833,1.510974645614624,0.15526986122131348
1.1669363175925023,0.9316630464102985,0.5974936505477285,-3.8457143306732178,-5.3634138107299805,1.6814720630645752,0.3154035806655884,-0.9195509552955627,-0.23440714180469513,-1.3310437202453613,1.48249351978302,0.10002297163009644
1.1558143786821178,0.7865004094062573,0.6952068445220502,-3.4790425300598145,-5.7032470703125,1.707656979560852,0.2854005694389343,-0.9151235818862915,-0.2847720980644226,-1.274917721748352,1.392266035079956,0.022015780210494995
1.1423259438019264,0.6494114925804426,0.78073549855166,-3.1440227031707764,-6.082691192626953,1.7865753173828125,0.2512481212615967,-0.9096023440361023,-0.3309047818183899,-1.1914336681365967,1.273005723953247,-0.06380957365036011
1.1276056240189318,0.5176667850684872,0.8565175083894392,-2.8169620037078857,-6.46597957611084,1.9228713512420654,0.21220529079437256,-0.9033880233764648,-0.37263786792755127,-1.09829843044281,1.1260137557983398,-0.2251710295677185
1.112706965213524,0.390273429275951,0.9248786881506872,-2.4487879276275635,-6.63463020324707,2.103269100189209,0.1682446300983429,-0.8968991041183472,-0.408981591463089,-1.052048921585083,0.9328640699386597,-0.4565427303314209
1.098411259145187,0.2677725090944745,0.9874561005074077,-2.060621738433838,-6.621328353881836,2.2745518684387207,0.12038875371217728,-0.8904855847358704,-0.4387960731983185,-1.0063750743865967,0.7293375730514526,-0.7491159439086914
1.0844141128302285,0.1492739388459947,1.0472580179913922,-1.84331476688385,-6.386240005493164,2.545605421066284,0.0695163905620575,-0.8840296864509583,-0.46223264932632446,-0.9903079867362976,0.5080074071884155,-1.0607776641845703
1.0679089821818872,0.034161682349960615,1.1081354757265354,-2.007572889328003,-5.836546421051025,2.885852813720703,0.01646127924323082,-0.8761946558952332,-0.4816763401031494,-1.0143402814865112,0.27322834730148315,-1.2888314723968506
1.0450138138736003,-0.07196185240621991,1.1675305678092067,-2.4593505859375,-4.963363170623779,2.987067699432373,-0.036085765808820724,-0.8649314641952515,-0.500590980052948,-1.1265270709991455,0.0037865042686462402,-1.5291942358016968
1.0150715393567642,-0.15835174000818494,1.2168512704940653,-2.855778932571411,-3.8004150390625,2.680936098098755,-0.08319123089313507,-0.8495182991027832,-0.5209587216377258,-1.3209987878799438,-0.2910303473472595,-1.9374001026153564
0.9821741096495121,-0.21823219074011962,1.249926980299942,-2.852144479751587,-2.6021034717559814,2.036586046218872,-0.12020645290613174,-0.8317064642906189,-0.5420469045639038,-1.502550482749939,-0.5685773491859436,-2.5671908855438232
0.9524091078272415,-0.2541145090165663,1.2678834893231294,-2.390507459640503,-1.633459210395813,1.3339862823486328,-0.14573539793491364,-0.8148145079612732,-0.5611048936843872,-1.5610822439193726,-0.8143665194511414,-3.2916324138641357
0.9304941415552537,-0.2723885904289143,1.2752591496715342,-1.5696789026260376,-0.8215057849884033,0.6333174109458923,-0.16073031723499298,-0.8019152283668518,-0.5754108428955078,-1.508291244506836,-0.9873608350753784,-3.8923778533935547
0.9194771057498168,-0.2760937339852165,1.2748737662959,-0.5465582013130188,0.0341297909617424,-0.08059989660978317,-0.16525961458683014,-0.7952847480773926,-0.5832765102386475,-1.463219404220581,-1.042102336883545,-4.254156112670898
0.920286685656184,-0.2659700851730165,1.2685396191239455,0.48326951265335083,0.9845285415649414,-0.6715773940086365,-0.15917707979679108,-0.795775294303894,-0.5842982530593872,-1.4177272319793701,-0.966431736946106,-4.293646812438965
0.9314598863684781,-0.24343161077132108,1.2586744908372085,1.3461723327636719,1.93019700050354,-1.0048877000808716,-0.14381639659404755,-0.8024918437004089,-0.5790715217590332,-1.2906928062438965,-0.8026259541511536,-4.018203258514404
0.9502673892950171,-0.21010314291445734,1.246996948520013,1.968622088432312,2.8283908367156982,-1.160609483718872,-0.12127091735601425,-0.813571035861969,-0.5686788558959961,-1.162969708442688,-0.603390634059906,-3.5542917251586914
0.9740142029571104,-0.1660375489441298,1.2331995323616587,2.360360622406006,3.6963040828704834,-1.2663910388946533,-0.09288225322961807,-0.8271482586860657,-0.554254949092865,-1.1238535642623901,-0.40382397174835205,-3.0107169151306152
1.0004110366526513,-0.11053995881129142,1.2157988900669106,2.5711069107055664,4.451247215270996,-1.3562349081039429,-0.05956526845693588,-0.8416929841041565,-0.5366607308387756,-1.1447803974151611,-0.22362983226776123,-2.4787354469299316
1.0279058057045694,-0.04324520536994325,1.1928570641719536,2.708091974258423,5.064183712005615,-1.4816482067108154,-0.02233407460153103,-0.8562189936637878,-0.5161300301551819,-1.209355354309082,-0.05853009223937988,-2.022413730621338
1.0559718841067827,0.03660351854085196,1.162000448685435,2.8845033645629883,5.521753787994385,-1.6472762823104858,0.01801888644695282,-0.8703791499137878,-0.4920521080493927,-1.3025189638137817,0.10240441560745239,-1.6819591522216797
1.084556908778284,0.1300999482401856,1.1205231518649412,3.136427402496338,5.843408107757568,-1.8316149711608887,0.06062495335936546,-0.8840964436531067,-0.4633554518222809,-1.3914202451705933,0.2654135823249817,-1.4402700662612915
1.1136167290185959,0.23892268102425934,1.0654815128738813,3.485435724258423,6.06695556640625,-2.0037074089050293,0.10446447879076004,-0.8973010182380676,-0.42887982726097107,-1.4605892896652222,0.4332203269004822,-1.2677754163742065
1.1427661683018355,0.3658923996227352,0.9932141031598939,3.903510808944702,6.212133884429932,-2.148639440536499,0.1485082507133484,-0.9097851514816284,-0.38760313391685486,-1.5090123414993286,0.6075391173362732,-1.1397864818572998
1.1708736576459424,0.5143404613839085,0.8995383723553616,4.366936683654785,6.26961088180542,-2.2523677349090576,0.19154347479343414,-0.9210910797119141,-0.3389723300933838,-1.5621947050094604,0.7872716188430786,-1.0193192958831787
1.195938272728296,0.6877423403490615,0.7802050490784416,4.822819709777832,6.2614593505859375,-2.334813117980957,0.2324237823486328,-0.9305595755577087,-0.28290969133377075,-1.6313037872314453,0.9693933129310608,-0.8941075801849365
1.2143959651150058,0.8879719779468983,0.6330022858050631,5.185961723327637,6.2384867668151855,-2.4676413536071777,0.2706769108772278,-0.9371588230133057,-0.22015325725078583,-1.747422456741333,1.1339972019195557,-0.7490850687026978
1.2215280496598657,1.1101746459851658,0.4628168072225491,5.416511535644531,6.205018997192383,-2.6918656826019287,0.30654406547546387,-0.9396233558654785,-0.15211431682109833,-1.9024608135223389,1.272524356842041,-0.5775610208511353
1.2132742638920309,1.3387938377343163,0.285253441077624,5.535242080688477,6.140232563018799,-3.0091428756713867,0.3405779004096985,-0.9367668628692627,-0.08046378940343857,-2.0583512783050537,1.3939964771270752,-0.4041095972061157
1.1885005189267535,1.553400863863337,0.12073452999745711,5.610222816467285,6.046202659606934,-3.349656820297241,0.3729951083660126,-0.9278106093406677,-0.006489077117294073,-2.162545919418335,1.5069427490234375,-0.2656972408294678
1.1490323821785722,1.7400936844010655,-0.016771541187126402,5.682402610778809,5.919671058654785,-3.653350591659546,0.40351784229278564,-0.9123682379722595,0.06897474080324173,-2.210097312927246,1.6132960319519043,-0.16974377632141113
1.098406470232402,1.895167857543563,-0.12380344151763856,5.725629806518555,5.737536430358887,-3.8569986820220947,0.43128731846809387,-0.8904834389686584,0.14501953125,-2.178647518157959,1.7140307426452637,-0.085784912109375
1.040043417094173,2.0220629680063884,-0.20372093771166672,5.774929523468018,5.590512752532959,-4.005613327026367,0.45551159977912903,-0.862426221370697,0.22074922919273376,-2.1210694313049316,1.8184962272644043,-0.03695714473724365
0.9764295685309241,2.127199564990861,-0.26235478948325175,5.808535575866699,5.475353240966797,-4.077892303466797,0.4755164384841919,-0.8285032510757446,0.2957475781440735,-2.07120418548584,1.8739134073257446,-0.02496504783630371
0.9100160113720301,2.2159023793548744,-0.3043913904637855,5.74681282043457,5.447722911834717,-4.061784744262695,0.4903947710990906,-0.7895135879516602,0.36902734637260437,-2.008140802383423,1.8747644424438477,0.030890315771102905
0.8431165844180728,2.293439539684178,-0.33336021051764364,5.5355610847473145,5.58953332901001,-3.9419426918029785,0.4988940954208374,-0.7467197179794312,0.43990251421928406,-1.931419849395752,1.8804173469543457,0.13930588960647583
0.7781642166642676,2.3638329686737976,-0.35142959137478186,5.157944202423096,5.834653377532959,-3.767133951187134,0.49974238872528076,-0.7019731402397156,0.5074358582496643,-1.8714922666549683,1.8651964664459229,0.2874707579612732
0.7167410316924161,2.4298412595070586,-0.360011943109482,4.694177627563477,6.174675464630127,-3.628051519393921,0.49245113134384155,-0.6569310426712036,0.5709058046340942,-1.8523448705673218,1.8067724704742432,0.4175126552581787
0.6593239155601258,2.4942571930437856,-0.36016983113029627,4.237823963165283,6.6506218910217285,-3.566215753555298,0.4766651690006256,-0.6125826239585876,0.6305024027824402,-1.8541827201843262,1.7349122762680054,0.5465454459190369
0.6053138719200443,2.5587491779577913,-0.35323411407005845,3.945604085922241,6.975621700286865,-3.5687015056610107,0.4526071846485138,-0.5690202116966248,0.6865590214729309,-1.8032540082931519,1.6613510847091675,0.7003278136253357
0.553052889061708,2.621609227166062,-0.34136997966346544,3.9372973442077637,6.7745361328125,-3.579319715499878,0.4227956533432007,-0.5252874493598938,0.7384563088417053,-1.6429492235183716,1.5967442989349365,0.883385419845581
0.49989156301564214,2.6787922573539245,-0.32701880846827075,4.286335468292236,5.994783878326416,-3.5985286235809326,0.391824871301651,-0.4793303608894348,0.7853123545646667,-1.3964482545852661,1.5433868169784546,1.0690577030181885
0.44315244505962764,2.7258843237331,-0.3117963081112173,4.807825088500977,4.735281944274902,-3.6631743907928467,0.36482900381088257,-0.42878952622413635,0.8264617919921875,-1.1588201522827148,1.4763054847717285,1.265518069267273
0.3822053513761118,2.760094391538433,-0.29524111934653924,5.185777187347412,3.439316749572754,-3.8359525203704834,0.3454470634460449,-0.37296760082244873,0.8611396551132202,-0.9868502616882324,1.3588991165161133,1.5328422784805298
0.3194026171076759,2.7833944634385075,-0.2763391701965949,5.154871940612793,2.560465097427368,-3.9717352390289307,0.33285579085350037,-0.3139994442462921,0.8891633749008179,-0.7708592414855957,1.2359659671783447,1.8465849161148071
0.2589979072727801,2.8005800920163963,-0.25495641621580684,4.729127883911133,2.118947744369507,-3.971234083175659,0.32328689098358154,-0.2561120092868805,0.9109840989112854,-0.49500933289527893,1.1985254287719727,2.2002370357513428
0.204212438634639,2.815187884100927,-0.2318216503703261,4.104042053222656,1.8571431636810303,-3.8267195224761963,0.31397706270217896,-0.20279602706432343,0.9275192022323608,-0.17324528098106384,1.1977607011795044,2.4931654930114746
0.1571103924193791,2.8283817972991256,-0.2082723357052835,3.346754789352417,1.6134244203567505,-3.475532054901123,0.30432000756263733,-0.1564648449420929,0.939631998538971,0.18881356716156006,1.1836103200912476,2.7303051948547363
0.11942316616862322,2.8401915917662954,-0.18667255216730613,2.515890121459961,1.3147099018096924,-2.825864791870117,0.2947441041469574,-0.11913949996232986,0.9481203556060791,0.5989022254943848,1.2242878675460815,2.904052734375
0.09249588275872817,2.849610115779351,-0.16947832871029814,1.6154179573059082,0.9227144718170166,-1.9946340322494507,0.2866209149360657,-0.09236405044794083,0.9535812139511108,0.961624264717102,1.2697322368621826,3.007798671722412
0.07711590214854215,2.856010978094404,-0.1576401634876482,0.6490402221679688,0.5599743723869324,-1.137533187866211,0.28087836503982544,-0.07703949511051178,0.9566463828086853,1.1701104640960693,1.2691782712936401,3.06001615524292
0.07361218423368689,2.859495995268585,-0.15119530688657007,-0.33310189843177795,0.22033262252807617,-0.2862806022167206,0.27761611342430115,-0.07354572415351868,0.9578726291656494,1.246996283531189,1.2602523565292358,3.0654120445251465
0.08181826878003455,2.859288656165799,-0.15074818354072436,-1.2523325681686401,-0.27710849046707153,0.6766767501831055,0.27763721346855164,-0.08172701299190521,0.9572030901908875,1.285290002822876,1.293671727180481,3.0066637992858887
0.1015024014706794,2.8543191103001195,-0.1575659606918786,-2.131629705429077,-0.8307876586914062,1.7185685634613037,0.281880259513855,-0.10132820159196854,0.9540839791297913,1.2761948108673096,1.3519080877304077,2.8803582191467285
0.13240166986007051,2.8453907542001673,-0.17131693282600546,-2.9734444618225098,-1.2447797060012817,2.6333119869232178,0.2893349230289459,-0.1320151686668396,0.948080837726593,1.114336371421814,1.3835868835449219,2.705132484436035
0.17325964394796514,2.834347553919563,-0.19036934288386026,-3.6654272079467773,-1.5291392803192139,3.3468739986419678,0.297905832529068,-0.17239409685134888,0.9388993978500366,0.7834540009498596,1.4019626379013062,2.4653210639953613
0.2218740237144855,2.8218628349797026,-0.21310227812313695,-4.1619038581848145,-1.8683735132217407,3.839648723602295,0.3066052794456482,-0.22005809843540192,0.9260492920875549,0.4104051887989044,1.4139211177825928,2.1969516277313232
0.27593115776362076,2.8067306665196803,-0.23784021009939812,-4.488120079040527,-2.386072874069214,4.127458095550537,0.31620702147483826,-0.2724429965019226,0.9087286591529846,0.04689112305641174,1.4146702289581299,1.9808281660079956
0.33357199697383244,2.7872436617975,-0.2632532538952217,-4.68398904800415,-3.025179624557495,4.290274620056152,0.3278540074825287,-0.3274202048778534,0.8861761689186096,-0.2843816578388214,1.4133119583129883,1.8075038194656372
0.39365410939971235,2.762733474447939,-0.2884408707641334,-4.8120808601379395,-3.6402618885040283,4.3713178634643555,0.3415714502334595,-0.3835655748844147,0.8580245971679688,-0.587405800819397,1.4145410060882568,1.6602249145507812
0.45569305930371956,2.733257596633158,-0.31254270532647377,-4.934185981750488,-4.20695161819458,4.4072370529174805,0.356562077999115,-0.4400847554206848,0.8241291046142578,-0.862055242061615,1.4197295904159546,1.5427532196044922
0.5196737791457979,2.6989341071142006,-0.33464738715768927,-5.090814590454102,-4.682206630706787,4.398722171783447,0.3717939555644989,-0.496597021818161,0.7843218445777893,-1.1220228672027588,1.434173345565796,1.4574689865112305
0.5861650331107084,2.6598577849652956,-0.3535247939198253,-5.37018346786499,-5.065213203430176,4.380354404449463,0.3859748840332031,-0.5531703233718872,0.7382587194442749,-1.3763922452926636,1.4756098985671997,1.4016642570495605
0.6562953379471447,2.615973093249039,-0.367585825236425,-5.797704696655273,-5.280854225158691,4.364407062530518,0.3975149095058441,-0.610185980796814,0.6853140592575073,-1.6086506843566895,1.5364248752593994,1.3361704349517822
0.7308942836896425,2.5673859174518996,-0.3744446142025573,-6.346012115478516,-5.241515636444092,4.302655220031738,0.40443137288093567,-0.6675357818603516,0.6251647472381592,-1.8155336380004883,1.6275426149368286,1.2337830066680908
0.8101019532965725,2.513614477088131,-0.37080153014005485,-6.981579780578613,-4.9306135177612305,4.201406955718994,0.4050436019897461,-0.7243574857711792,0.5578938722610474,-1.989363670349121,1.7389602661132812,1.0999581813812256
0.893316261029168,2.452711044408643,-0.3525690709634742,-7.5967912673950195,-4.452517032623291,4.0547261238098145,0.3984605371952057,-0.7791547775268555,0.4838871359825134,-2.0911333560943604,1.8498642444610596,0.9255824089050293
0.9785165581100083,2.380158712255713,-0.3145978796212393,-8.066494941711426,-3.903799533843994,3.8469247817993164,0.38517317175865173,-0.8296701312065125,0.40409088134765625,-2.142451524734497,1.9582862854003906,0.6997910737991333
1.062303701668998,2.2881314025885,-0.24999808256919262,-8.322986602783203,-3.4666788578033447,3.551927328109741,0.36687907576560974,-0.8734793663024902,0.3200520873069763,-2.1666531562805176,2.0472006797790527,0.46640118956565857
1.1403230066559509,2.164050586626092,-0.14830483961832264,-8.400643348693848,-3.188905715942383,3.173593521118164,0.3459949195384979,-0.908768355846405,0.23329713940620422,-2.1814441680908203,2.0800940990448,0.26557374000549316
1.2074158880188377,1.9913414946768757,0.004930406372712586,-8.397141456604004,-3.0500540733337402,2.754899024963379,0.3244657516479492,-0.934700608253479,0.14510971307754517,-2.1719236373901367,2.096153736114502,0.12317027151584625
1.2565845072572748,1.7540758741697684,0.22392188600729873,-8.31977367401123,-3.0646302700042725,2.218498945236206,0.3038901686668396,-0.9510402679443359,0.05632898956537247,-2.157360076904297,2.094534158706665,0.011954057961702347
1.2783988854853512,1.4616189251527114,0.4970157839147871,-8.018062591552734,-3.2475063800811768,1.4543730020523071,0.28653261065483093,-0.9575555920600891,-0.03140777722001076,-2.227862596511841,2.0527093410491943,-0.16236358880996704
1.2684050891448315,1.1745275967523794,0.7620814779835258,-7.397433757781982,-3.4176604747772217,0.4616769850254059,0.27472636103630066,-0.9546270966529846,-0.11494603008031845,-2.305976390838623,1.8868780136108398,-0.44891196489334106
1.2340078535350698,0.958132626797223,0.9534272486259506,-6.35491418838501,-3.4784421920776367,-0.6598671674728394,0.27035391330718994,-0.9438208341598511,-0.19002938270568848,-2.2764267921447754,1.648013949394226,-0.787952184677124
1.1895595515281139,0.8241542022789262,1.0585374423050493,-4.933651447296143,-3.627979040145874,-1.5632654428482056,0.27308881282806396,-0.9282051920890808,-0.252701073884964,-2.096529245376587,1.455960988998413,-1.1404263973236084
1.146649685554424,0.7465265987041529,1.1010549611520248,-3.4921762943267822,-4.128966808319092,-2.089106321334839,0.2794763147830963,-0.9113902449607849,-0.3020942509174347,-1.7517967224121094,1.3534374237060547,-1.3440849781036377
1.1107176967400376,0.6929519557580661,1.1084541011094577,-2.3686347007751465,-5.2866668701171875,-2.104022979736328,0.28364405035972595,-0.8960176110267639,-0.3416118323802948,-1.3340590000152588,1.3126740455627441,-1.3406238555908203
1.0828820704477609,0.6373170508939929,1.1033556349288038,-1.7857130765914917,-6.699278831481934,-1.6405640840530396,0.2789461612701416,-0.8833125233650208,-0.3767598271369934,-0.8877564668655396,1.1668208837509155,-1.2798259258270264
1.0611517058102284,0.5657880429457026,1.1024793426732162,-1.801755428314209,-7.606805324554443,-0.8667150735855103,0.2615363895893097,-0.8729179501533508,-0.4118410050868988,-0.4790808856487274,0.8905113339424133,-1.2479032278060913
1.0415172205776513,0.4791342477289418,1.1139192624981364,-2.17604660987854,-7.583218097686768,-0.12766201794147491,0.23276972770690918,-0.8631712794303894,-0.4480554759502411,-0.3408781886100769,0.6464507579803467,-1.315173864364624
1.0202261954498062,0.3871773126625743,1.1358224351014885,-2.6115477085113525,-6.964174270629883,0.3595459759235382,0.19753770530223846,-0.8522263765335083,-0.48444709181785583,-0.5093357563018799,0.5079118609428406,-1.5603070259094238
0.9957418676722882,0.2983618444316693,1.1628097138214337,-2.916152000427246,-6.188343524932861,0.6909692883491516,0.15987630188465118,-0.8391627073287964,-0.5198515057563782,-0.7267554998397827,0.3591974973678589,-1.933105707168579
0.9692267901061441,0.21816557418929788,1.1898048757061428,-2.9249677658081055,-5.301087856292725,0.8172436356544495,0.12249089777469635,-0.8244483470916748,-0.5525222420692444,-0.8970727920532227,0.17086875438690186,-2.3753952980041504
0.9426483821946773,0.15228370473447508,1.211406901593492,-2.7257754802703857,-4.324827194213867,0.5976072549819946,0.08914363384246826,-0.8091172575950623,-0.5808466076850891,-1.0776841640472412,-0.0008803009986877441,-2.801737070083618
0.9174893613364454,0.10451653711883334,1.2219947344654714,-2.4067702293395996,-3.532331943511963,-0.02806120365858078,0.06341119855642319,-0.7940781116485596,-0.6044989824295044,-1.2023423910140991,-0.19730061292648315,-3.1049280166625977
0.8950652963778516,0.07490740288939989,1.2185987332660448,-2.0109946727752686,-2.9203386306762695,-0.7843015789985657,0.04680837690830231,-0.7802499532699585,-0.6237139701843262,-1.2212010622024536,-0.3328176736831665,-3.264744281768799
0.8764048081963195,0.06003410415095218,1.2029197283756576,-1.5738476514816284,-2.478074550628662,-1.421985387802124,0.03839383274316788,-0.76844322681427,-0.6387652158737183,-1.0943324565887451,-0.33427894115448,-3.2887096405029297
0.8619180009415355,0.05565015883046382,1.1784370897621117,-1.131316900253296,-2.1279733180999756,-1.8709518909454346,0.03620859608054161,-0.7590925693511963,-0.6499749422073364,-0.9381555914878845,-0.2433488368988037,-3.2253456115722656
0.8515599834348525,0.058531893764408816,1.1484640698434447,-0.7095893025398254,-1.8043220043182373,-2.130764961242676,0.038539398461580276,-0.7523090243339539,-0.6576820611953735,-0.7718004584312439,-0.1391856074333191,-3.113161325454712
0.8451108969985967,0.0668849824829126,1.1157372467915314,-0.30983057618141174,-1.4095054864883423,-2.24079966545105,0.04435501992702484,-0.7480447292327881,-0.6621644496917725,-0.6260047554969788,-0.02887171506881714,-2.9516661167144775
0.8421071928874516,0.08011500667143666,1.0821898885025443,0.0254635252058506,-0.9364631772041321,-2.216858386993408,0.05329091101884842,-0.7460479140281677,-0.6637563705444336,-0.5350565910339355,0.0793914794921875,-2.756028175354004
0.8416553959336368,0.09782867929957836,1.0499124295322382,0.24878698587417603,-0.3136799931526184,-2.0452654361724854,0.0650724247097969,-0.7457470297813416,-0.6630437970161438,-0.4844144284725189,0.19264644384384155,-2.5260584354400635
0.842626219324887,0.12029386386145287,1.0208233256317194,0.3545885384082794,0.4919842779636383,-1.764345645904541,0.07986321300268173,-0.7463934421539307,-0.6606955528259277,-0.49279651045799255,0.31685858964920044,-2.2803292274475098
0.8444714827083948,0.14884816794782144,0.9959946125214899,0.4596559405326843,1.5263153314590454,-1.4405544996261597,0.09848939627408981,-0.7476202249526978,-0.6567829847335815,-0.5456481575965881,0.41479551792144775,-2.064927101135254
0.8478380585226813,0.1847046419100448,0.975857332841919,0.6535729765892029,2.6301894187927246,-1.0585967302322388,0.12150800228118896,-0.7498518228530884,-0.6503521800041199,-0.6357443928718567,0.5077711939811707,-1.9580461978912354
0.8541489538099492,0.2287860495015975,0.9607514277765117,1.0049498081207275,3.918973445892334,-0.6291515231132507,0.14897291362285614,-0.7540121674537659,-0.639744222164154,-0.7448896169662476,0.6062461137771606,-1.9135394096374512
0.8649232207497025,0.2835056669272864,0.9492369097721449,1.4561156034469604,5.231992721557617,-0.2905433773994446,0.18145596981048584,-0.7610454559326172,-0.6228030323982239,-0.8425887227058411,0.6756115555763245,-1.867461919784546
0.8804036932698218,0.3495622742834829,0.938592532731351,1.8944188356399536,6.269800662994385,-0.05368732288479805,0.218109130859375,-0.7709960341453552,-0.5983255505561829,-0.9823760390281677,0.7443695068359375,-1.7368032932281494
0.8999540397409945,0.4256426411137758,0.9265312022410572,2.28652024269104,6.9922943115234375,0.12095531821250916,0.2566814124584198,-0.7832983136177063,-0.5661786198616028,-1.1075267791748047,0.8310737013816833,-1.51644766330719
0.9231001549763704,0.5103704060882265,0.9109972368821647,2.693786859512329,7.407106876373291,0.2653364837169647,0.2947371304035187,-0.7974759340286255,-0.5264618992805481,-1.2237989902496338,0.9224302172660828,-1.2843443155288696
0.9495758635582578,0.602065849296205,0.8897302744559572,3.1168386936187744,7.4021172523498535,0.3881002366542816,0.32962942123413086,-0.8131687045097351,-0.4796885550022125,-1.3610167503356934,1.0234196186065674,-1.0645009279251099
0.9786317147423991,0.698880184026316,0.8601915123578081,3.5260331630706787,7.027695655822754,0.4399515688419342,0.35909730195999146,-0.8297344446182251,-0.42730554938316345,-1.4998137950897217,1.1197277307510376,-0.8432633280754089
1.0088944223583836,0.8012916315959383,0.8189849337472048,3.9509947299957275,6.496037006378174,0.38573944568634033,0.38268405199050903,-0.8462433218955994,-0.37070900201797485,-1.6343472003936768,1.2013306617736816,-0.6661562323570251
1.0387740770091025,0.9125432549598933,0.7621355332549845,4.411679744720459,6.022641181945801,0.25798875093460083,0.4012877941131592,-0.861782968044281,-0.3103196620941162,-1.7651182413101196,1.2558106184005737,-0.5449812412261963
1.0665183221238022,1.0373381620909792,0.6861876280261128,4.904479503631592,5.729633808135986,0.10963842272758484,0.4160400927066803,-0.875523567199707,-0.24570155143737793,-1.899469017982483,1.315373420715332,-0.44486546516418457
1.0897464367817076,1.1808363895723224,0.5884177734859902,5.413660049438477,5.739554405212402,-0.07639050483703613,0.4279720187187195,-0.8865095973014832,-0.17589996755123138,-2.015313148498535,1.3665357828140259,-0.3123507499694824
1.1053115705126,1.346114282995894,0.4688213857761288,5.8709797859191895,5.996372699737549,-0.25412988662719727,0.4375743269920349,-0.8936040997505188,-0.10000357776880264,-2.1191537380218506,1.423663854598999,-0.14276374876499176
1.1100482126039952,1.528893002044336,0.33353765194197943,6.166741371154785,6.300093173980713,-0.4175473153591156,0.44422799348831177,-0.8957201242446899,-0.018625533208251,-2.1800830364227295,1.4796130657196045,0.07090216875076294
1.1016040314862172,1.7160600569563107,0.1961465428319051,6.1374969482421875,6.492424011230469,-0.637743353843689,0.4474037289619446,-0.891933798789978,0.06545256823301315,-2.2105872631073,1.4869046211242676,0.36594390869140625
1.080649225594286,1.8882853669653217,0.07523882698827314,5.597598552703857,6.422516345977783,-0.8666741847991943,0.44722840189933777,-0.8822636008262634,0.1469614952802658,-2.212700843811035,1.4637608528137207,0.6701619625091553
1.0527599517215753,2.031347726783316,-0.015899405277299664,4.647570610046387,6.208176136016846,-0.9337155222892761,0.44358158111572266,-0.8687931895256042,0.22007666528224945,-2.1212854385375977,1.4466283321380615,0.8958290815353394
1.0245053277481755,2.147791242873229,-0.07874114819513547,3.6983468532562256,6.275457859039307,-0.7834036946296692,0.43541374802589417,-0.8544573187828064,0.2834029197692871,-1.9470868110656738,1.4073902368545532,0.9541000723838806
0.9999788663241159,2.2508439076118463,-0.12293284946325825,2.988741636276245,6.860870838165283,-0.40754514932632446,0.42012205719947815,-0.8414595723152161,0.33976954221725464,-1.7951067686080933,1.3405593633651733,0.9166239500045776
0.9806841139414153,2.3535200237750415,-0.15815794351849088,2.464789390563965,7.751816272735596,0.11205335706472397,0.3945237100124359,-0.8308782577514648,0.3924190402030945,-1.6476821899414062,1.2561712265014648,0.8796147704124451
0.9661623168540946,2.4616389544753994,-0.18990392244248866,2.089026927947998,8.530531883239746,0.5746734738349915,0.3574238717556,-0.8227102160453796,0.44203636050224304,-1.4764728546142578,1.1280385255813599,0.9111893773078918
0.9547573317313718,2.574430122918903,-0.22090396654113417,1.8366495370864868,8.815495491027832,0.9636911153793335,0.3104217052459717,-0.8161735534667969,0.48733916878700256,-1.2924162149429321,0.9708518385887146,1.0095634460449219
0.9450273183662601,2.686998740107458,-0.2524075410873003,1.6498324871063232,8.440723419189453,1.2521101236343384,0.2571886479854584,-0.8105129599571228,0.5262348651885986,-1.1454331874847412,0.8257258534431458,1.1836042404174805
0.9352535719063734,2.7927425892124855,-0.283635441213986,1.6062504053115845,7.564014434814453,1.3321237564086914,0.20290781557559967,-0.804749608039856,0.5578591823577881,-1.0890618562698364,0.6777811646461487,1.3432639837265015
0.923229171366838,2.8859083119593345,-0.31200187119828604,1.6912566423416138,6.47451639175415,1.1607437133789062,0.15256598591804504,-0.7975537776947021,0.5836367011070251,-1.0894403457641602,0.47202277183532715,1.4694792032241821
0.9089019430018396,2.9625988797239047,-0.3336211728966,1.6478286981582642,5.40578556060791,0.7649701237678528,0.10942526161670685,-0.7888293266296387,0.6047927737236023,-1.0465437173843384,0.2642170190811157,1.661869764328003
0.8940192169442848,3.0218344026805153,-0.34565521006304656,1.510860800743103,4.5723490715026855,0.26766344904899597,0.07482350617647171,-0.7795951962471008,0.6217981576919556,-1.0060979127883911,0.08115458488464355,1.831418514251709
0.8797160219219959,3.0677671298999867,-0.3489483926299177,1.3738096952438354,4.111773490905762,-0.10521571338176727,0.04701145365834236,-0.7705579400062561,0.6356340646743774,-0.9034109711647034,-0.08364444971084595,1.9125075340270996
0.8663771475342494,3.1057777772541013,-0.3470656456849857,1.28035569190979,3.739112615585327,-0.2510181665420532,0.023188455030322075,-0.7619878053665161,0.6471763253211975,-0.6816967129707336,-0.18054765462875366,1.9843544960021973
0.8536558622024942,3.138798935159922,-0.3437994886841931,1.2516576051712036,3.3530023097991943,-0.20038263499736786,0.00183611991815269,-0.7536882162094116,0.6572298407554626,-0.4776966869831085,-0.2219894528388977,2.075451612472534
0.8417944589503497,-3.1137915267693534,-0.34156281823430357,1.0917696952819824,3.0947813987731934,-0.06270253658294678,-0.0185166597366333,-0.7458396553993225,0.6658682823181152,-0.3547743260860443,-0.2781776785850525,2.2098183631896973
0.8328904034267001,-3.0840254309416664,-0.34115232525405575,0.6497037410736084,2.8950796127319336,0.07360105961561203,-0.038706377148628235,-0.7398789525032043,0.6716254353523254,-0.32852688431739807,-0.3490949273109436,2.452596426010132
0.8301062078543928,-3.05566357264466,-0.34222753237197007,-0.07144911587238312,2.586918592453003,0.10543728619813919,-0.05791337788105011,-0.7380030155181885,0.672307550907135,-0.3842405080795288,-0.406100869178772,2.7981362342834473
0.8344480228235839,-3.030941704161462,-0.3440361988130379,-0.8009240627288818,2.0405383110046387,0.02439047396183014,-0.0741601437330246,-0.7409259080886841,0.6674794554710388,-0.3854345679283142,-0.43076586723327637,3.0229501724243164
0.8456569945272836,-3.013076461595567,-0.34512840374203935,-1.4203717708587646,1.3592644929885864,-0.14381957054138184,-0.08500257879495621,-0.7484070062637329,0.6577699184417725,-0.472278892993927,-0.4053252339363098,3.0542356967926025
0.862661550323789,-3.0023199639097755,-0.3455555859949744,-1.9354143142700195,0.7348520159721375,-0.24513839185237885,-0.09029290080070496,-0.7595763802528381,0.6441201567649841,-0.40770816802978516,-0.3847411870956421,2.963606834411621
0.8844162521293354,-2.996828596850921,-0.3464037687357768,-2.3676421642303467,0.24835056066513062,-0.25277209281921387,-0.09142284840345383,-0.7735451459884644,0.6271122694015503,-0.3104325830936432,-0.30972200632095337,2.7974328994750977
0.9104031069894452,-2.9944206840793592,-0.34867934162571207,-2.8047826290130615,-0.11106167733669281,-0.21634811162948608,-0.08995382487773895,-0.7897510528564453,0.6067964434623718,-0.27026039361953735,-0.20922672748565674,2.6349945068359375
0.9409503183951614,-2.993500117395405,-0.353035726245774,-3.3034121990203857,-0.39237111806869507,-0.1619652956724167,-0.08691105991601944,-0.8081182241439819,0.5825733542442322,-0.25502312183380127,-0.09532427787780762,2.484504222869873
0.9765856916654736,-2.9928389869852006,-0.3601590642920025,-3.8441779613494873,-0.6355709433555603,-0.08151120692491531,-0.0829736664891243,-0.8285906910896301,0.5536721348762512,-0.2830083668231964,0.027336478233337402,2.333611249923706
1.0175425311293842,-2.991198807356271,-0.3708305297463278,-4.402383804321289,-0.8110671043395996,0.002622847445309162,-0.07872814685106277,-0.8508192896842957,0.5195271372795105,-0.35144761204719543,0.16345667839050293,2.158054828643799
1.0638511612543373,-2.9872248519776767,-0.38545737142577774,-4.940892219543457,-0.8997873663902283,0.048806171864271164,-0.07464960962533951,-0.87423175573349,0.47973549365997314,-0.4521448016166687,0.29636621475219727,1.9691017866134644
1.1151158650167143,-2.9799264508016283,-0.4040152191805529,-5.4106831550598145,-0.9188963174819946,0.02484198473393917,-0.07083549350500107,-0.8979617953300476,0.43433502316474915,-0.5981555581092834,0.4107334017753601,1.7568881511688232
1.170646073202332,-2.9692745581803015,-0.4257399119558303,-5.794722080230713,-0.8818836212158203,-0.10717260837554932,-0.06679598987102509,-0.9210024476051331,0.3837875425815582,-0.7582619786262512,0.5137758255004883,1.5350511074066162
1.229876784633039,-2.9562370732526966,-0.44840608843944413,-6.106846809387207,-0.7193253040313721,-0.4068405330181122,-0.06162017956376076,-0.9424476027488708,0.3286271095275879,-0.9439035058021545,0.6051671504974365,1.3155380487442017
1.29229089078079,-2.9448459488083905,-0.46692263539801554,-6.304111957550049,-0.5287694931030273,-0.865066409111023,-0.053741198033094406,-0.9614673852920532,0.2696155607700348,-1.1644136905670166,0.6890826225280762,1.093101143836975
1.3567277950947079,-2.9434719312527102,-0.4728376372660538,-6.330958843231201,-0.32740500569343567,-1.366142749786377,-0.04181336984038353,-0.977174699306488,0.20828133821487427,-1.3170886039733887,0.7777729034423828,0.8341381549835205
1.421577511133069,-2.967045754224538,-0.4509032470824229,-6.2144389152526855,-0.061652638018131256,-1.7928062677383423,-0.025817524641752243,-0.9888874888420105,0.14640650153160095,-1.3427584171295166,0.8799550533294678,0.5679490566253662
1.4849078547279717,-3.0678131124380785,-0.3486691182703162,-5.9951043128967285,0.22361719608306885,-2.1364071369171143,-0.006323318462818861,-0.9963138699531555,0.08555001765489578,-1.3030333518981934,0.990347683429718,0.3344329595565796
1.5393697106748756,2.59309384039878,0.2780374464197067,-5.732296943664551,0.5036017894744873,-2.431159496307373,0.016384556889533997,-0.9995062351226807,0.026814140379428864,-1.2591060400009155,1.0869696140289307,0.15912950038909912
1.5199321772680607,0.9736007295290059,1.9044629915483557,-5.3297200202941895,0.6915472149848938,-2.6822938919067383,0.04204345867037773,-0.9987066984176636,-0.028590716421604156,-1.2033441066741943,1.1640814542770386,-0.0023693442344665527
1.465139521934198,0.7303172402682611,2.155013777844885,-4.709716320037842,0.5903842449188232,-2.899214506149292,0.07035371661186218,-0.994423508644104,-0.07856457680463791,-1.1667128801345825,1.217262864112854,-0.18471050262451172
1.4129355207895886,0.6901237742443757,2.1995426239636013,-3.927480936050415,0.16267099976539612,-2.9850165843963623,0.10008270293474197,-0.987565815448761,-0.12123239785432816,-1.083984613418579,1.2580430507659912,-0.36152511835098267
1.3667384366257636,0.690235623996944,2.197801921067092,-3.1427969932556152,-0.4919598400592804,-2.9115781784057617,0.1290280967950821,-0.9792523384094238,-0.15625900030136108,-0.9410092830657959,1.2822459936141968,-0.46095895767211914
1.327095528028326,0.6980570841570319,2.18126342453169,-2.488137722015381,-1.1405715942382812,-2.692138433456421,0.15508803725242615,-0.9704516530036926,-0.18485473096370697,-0.7384009957313538,1.285316824913025,-0.49382567405700684
1.2934164922445135,0.7029869280024014,2.1617962588786344,-2.025207042694092,-1.5977340936660767,-2.4040558338165283,0.1770351380109787,-0.9617762565612793,-0.2089138776063919,-0.5668971538543701,1.2629542350769043,-0.487665057182312
1.2645292303173121,0.7028956711482617,2.143972994984269,-1.7257124185562134,-1.7921024560928345,-2.098081350326538,0.19489943981170654,-0.9534657001495361,-0.23003755509853363,-0.46633803844451904,1.2227222919464111,-0.4921608567237854
1.2392765765389608,0.698654567972645,2.1298149849827497,-1.5742979049682617,-1.6779958009719849,-1.8429938554763794,0.2093450427055359,-0.9455487728118896,-0.24922294914722443,-0.4061681628227234,1.1724927425384521,-0.4969775676727295
1.216155321602904,0.6937099846896914,2.118594239210696,-1.488671064376831,-1.419766902923584,-1.6920466423034668,0.22203190624713898,-0.937771201133728,-0.2669960558414459,-0.3820507824420929,1.10929536819458,-0.5058615207672119
1.1945932694904644,0.6888466108230094,2.109950812894079,-1.441099762916565,-1.1443531513214111,-1.52773118019104,0.233531653881073,-0.9300662875175476,-0.28361910581588745,-0.3021046221256256,1.0592930316925049,-0.5213124752044678
1.1746253714635915,0.6835730944010564,2.104726856427235,-1.3989102840423584,-0.8545766472816467,-1.2886335849761963,0.24371473491191864,-0.922545313835144,-0.29918766021728516,-0.14949166774749756,1.0262898206710815,-0.5666264891624451
1.1568661268555056,0.676248108151748,2.1051615129262466,-1.398372769355774,-0.5196712613105774,-0.9058172106742859,0.25173208117485046,-0.9155471324920654,-0.31369468569755554,0.014869481325149536,0.9962966442108154,-0.6172134876251221
1.141051040123886,0.6651947379507377,2.1138311643344823,-1.5476205348968506,-0.11315198242664337,-0.5161331295967102,0.2571548819541931,-0.9090719223022461,-0.3278103172779083,0.09440764784812927,0.9784536361694336,-0.5778140425682068
1.125772956834165,0.6488537773622776,2.1321251065113533,-1.8858023881912231,0.0873178243637085,-0.17766748368740082,0.26012706756591797,-0.9026005864143372,-0.3429957330226898,0.04370599985122681,0.9709599614143372,-0.4363774061203003
1.108085386105465,0.6233036029473563,2.1603007185118566,-2.457303524017334,-0.16058465838432312,0.013188485987484455,0.26055872440338135,-0.8948456645011902,-0.3624367117881775,-0.07096821069717407,0.952096700668335,-0.28192663192749023
1.085205338654805,0.5886631242266266,2.1953277324295857,-3.115429639816284,-0.5299357771873474,-0.03762010112404823,0.2591521739959717,-0.8843992948532104,-0.3881725072860718,-0.1824919879436493,0.8515014052391052,-0.21354252099990845
1.0554978029575122,0.5505191326634074,2.2305755951743023,-3.668614625930786,-0.9152445793151855,-0.34718355536460876,0.25779545307159424,-0.8701456785202026,-0.4199856221675873,-0.21986207365989685,0.7215098738670349,-0.30553919076919556
1.0198360260569288,0.5138639355341016,2.2596121797678235,-3.8893463611602783,-1.3713616132736206,-0.7265673279762268,0.25732702016830444,-0.8520221710205078,-0.4558958113193512,-0.17474642395973206,0.5594501495361328,-0.5690675377845764
0.9821395497036008,0.4851741728810149,2.2784090015181775,-3.6444919109344482,-1.0612415075302124,-1.0907013416290283,0.25894516706466675,-0.8316872715950012,-0.49116575717926025,-0.06558573246002197,0.41152119636535645,-0.9583428502082825
0.9466128099738195,0.4725279587821817,2.2865782359383444,-3.0437963008880615,-0.047791916877031326,-1.3211854696273804,0.2659989297389984,-0.8114405870437622,-0.5203928351402283,-0.007545530796051025,0.4441004991531372,-1.2851338386535645
0.9155373946692978,0.47816535266270094,2.2889513096089664,-2.6616616249084473,1.4863922595977783,-1.225789189338684,0.28039973974227905,-0.792890191078186,-0.5410186052322388,0.07058292627334595,0.5863014459609985,-1.3104676008224487
0.8873658765346512,0.4920924365494102,2.2931584812503654,-2.5466806888580322,1.8169032335281372,-0.9262462258338928,0.29834499955177307,-0.7754111289978027,-0.5565319061279297,0.18085727095603943,0.699224054813385,-1.1032427549362183
0.8624291453258992,0.5043626454924223,2.300298714946651,-2.230835199356079,1.7330727577209473,-0.6720064878463745,0.3143996000289917,-0.759425163269043,-0.5695844292640686,0.4930039942264557,0.668604850769043,-1.0729326009750366
0.8417217088378554,0.5171712172294479,2.3065555459000606,-1.7563139200210571,1.7745234966278076,-0.6693151593208313,0.3293748199939728,-0.7457911968231201,-0.5790576934814453,0.6840682029724121,0.4418208599090576,-0.9728984832763672
0.8250412783486284,0.5329634233268861,2.3080102354945033,-1.2226852178573608,1.501347303390503,-0.8315021991729736,0.3447512090206146,-0.7345758080482483,-0.5844184756278992,0.781713604927063,0.1529412865638733,-0.8353812098503113
0.8121942846549405,0.5467144743296439,2.3043845386165773,-0.72221440076828,0.6979150176048279,-0.9156726002693176,0.3576316833496094,-0.7257983684539795,-0.5876361727714539,0.7255134582519531,0.04783511161804199,-0.7220866680145264
0.8030206098591819,0.5560614624396358,2.295959899150754,-0.22735483944416046,0.028875146061182022,-1.0902742147445679,0.3666078448295593,-0.7194572687149048,-0.5898982882499695,0.5738219022750854,0.11787950992584229,-0.6336123943328857
0.7966497095810974,0.5646697951059709,2.2814553097442882,0.20878872275352478,-0.3467915952205658,-1.289897084236145,0.3741174638271332,-0.7150179147720337,-0.5905805826187134,0.4934210181236267,0.1763216257095337,-0.5706437230110168
0.7927823689498313,0.5727931860896326,2.2630776381753086,0.5043772459030151,-0.6563153862953186,-1.2687901258468628,0.3803984224796295,-0.7123088836669922,-0.5898414850234985,0.5852845907211304,0.18459898233413696,-0.4913504123687744
0.7913019103110083,0.5778536485346871,2.244518383484517,0.6471508145332336,-0.9532877206802368,-1.0522757768630981,0.38395407795906067,-0.7112690210342407,-0.5887917280197144,0.7268400192260742,0.16817820072174072,-0.39144814014434814
0.7918629128121784,0.5785694792094597,2.229061060094285,0.6075487732887268,-1.0630900859832764,-0.6931719183921814,0.3841572105884552,-0.7116632461547852,-0.5881825685501099,0.8345775604248047,0.14698123931884766,-0.29821568727493286
0.793536279228638,0.5757502470943083,2.218793449025529,0.44950419664382935,-0.9232915639877319,-0.3382607698440552,0.38184854388237,-0.712837815284729,-0.5882635712623596,0.8369320034980774,0.130989670753479,-0.2292259931564331
0.7953960199073142,0.5718273101571292,2.2135354803994187,0.2618117928504944,-0.5876725316047668,-0.09972329437732697,0.3788197338581085,-0.7141408920288086,-0.5886411070823669,0.7427470684051514,0.10690218210220337,-0.22353839874267578
0.7965960743224824,0.569396062453046,2.2114701139621458,0.10158367455005646,-0.1918126344680786,-0.03682820871472359,0.3769252896308899,-0.71498042345047,-0.5888382792472839,0.5775730609893799,0.0935509204864502,-0.2274610996246338
0.7966620711571336,0.5699574472767115,2.2101606406350505,0.019732750952243805,0.09873851388692856,-0.12601827085018158,0.37723028659820557,-0.7150265574455261,-0.5885868072509766,0.42748773097991943,0.06645166873931885,-0.21985429525375366
0.7956503317236484,0.5734339286347094,2.2075344669166745,0.02169150486588478,0.19801609218120575,-0.29796794056892395,0.3796665072441101,-0.7143188714981079,-0.5878792405128479,0.33101165294647217,0.03179323673248291,-0.21067416667938232
0.7940027050634224,0.578808406336343,2.202422043471946,0.10082946717739105,0.12630142271518707,-0.4794943332672119,0.3834638297557831,-0.7131648659706116,-0.5868146419525146,0.2826434075832367,0.014327526092529297,-0.19333666563034058
0.7922029333517816,0.5846524890542448,2.1945545423057715,0.2080969661474228,-0.09455185383558273,-0.6297827959060669,0.38759440183639526,-0.7119020819664001,-0.5856330394744873,0.2790010869503021,0.005786299705505371,-0.15261763334274292
0.7906611025794353,0.5894512854577729,2.1844763173721375,0.31680983304977417,-0.37037569284439087,-0.7056975364685059,0.39100998640060425,-0.7108184099197388,-0.5846779942512512,0.30091506242752075,0.00029289722442626953,-0.107826828956604
0.7895338155121728,0.5928305339479175,2.173375239129164,0.35107603669166565,-0.49378687143325806,-0.7023023962974548,0.3934309184551239,-0.7100250720977783,-0.5840175151824951,0.3228777050971985,0.01663517951965332,-0.06864666938781738
0.7886121894582173,0.5963911470988011,2.1628712567261954,0.32170403003692627,-0.23658810555934906,-0.61598801612854,0.39587533473968506,-0.70937579870224,-0.5831542015075684,0.3297564387321472,0.06969678401947021,-0.06273502111434937
0.7879997397939345,0.6029126358644794,2.1538255778607445,0.29522183537483215,0.24341349303722382,-0.49829211831092834,0.3999161124229431,-0.7089439630508423,-0.5809177756309509,0.3309341073036194,0.11682665348052979,-0.1241908073425293
0.7878708984509113,0.6125659501574803,2.1463383690047544,0.2851705551147461,0.6151570081710815,-0.37992897629737854,0.4055577218532562,-0.7088531255722046,-0.5771049857139587,0.33894914388656616,0.09731137752532959,-0.15925359725952148
0.788178147307579,0.6244882755997099,2.1405213523049778,0.2355221062898636,0.9379610419273376,-0.25253909826278687,0.4122818410396576,-0.7090697884559631,-0.5720522403717041,0.3331710696220398,0.06893301010131836,-0.1465604305267334
0.7885880493005624,0.6382630226112384,2.1365142195543916,0.16497495770454407,1.2372121810913086,-0.1593332588672638,0.41994911432266235,-0.7093587517738342,-0.5660855174064636,0.29362815618515015,0.060402512550354004,-0.09414690732955933
0.7889826110572036,0.6534870122300633,2.1338469825914257,0.12772482633590698,1.39032781124115,-0.09429735690355301,0.42834803462028503,-0.7096368074417114,-0.5594046711921692,0.25399452447891235,0.049495816230773926,-0.045362114906311035
0.7895314976762473,0.6685731587785031,2.1317629638525593,0.14660398662090302,1.282817006111145,-0.06638183444738388,0.43649667501449585,-0.7100234627723694,-0.5525733232498169,0.23521044850349426,0.029939234256744385,0.009894609451293945
0.7905815167352126,0.6809543428606742,2.1297040610989497,0.19716516137123108,0.8775016069412231,-0.020989179611206055,0.4428349733352661,-0.7107624411582947,-0.5465472340583801,0.23184767365455627,-0.0038829445838928223,0.0571216344833374
0.7923994547823616,0.6887422556175059,2.127960267501428,0.23500946164131165,0.4222507178783417,0.06365141272544861,0.44625598192214966,-0.7120400667190552,-0.5420834422111511,0.23892468214035034,-0.005824923515319824,0.0907437801361084
0.7948497971779193,0.6914141715832305,2.1269468763540744,0.2271336019039154,-0.015786105766892433,0.13328291475772858,0.44658902287483215,-0.7137584090232849,-0.5395435690879822,0.24391695857048035,-0.004381239414215088,0.11290788650512695
0.7972594652788131,0.6899613224357569,2.126961890504808,0.12655507028102875,-0.2526620328426361,0.17577418684959412,0.4447086453437805,-0.715444028377533,-0.5388637185096741,0.21921655535697937,-0.010630190372467041,0.13120996952056885
0.7989398064645551,0.6855852829457008,2.1290936946402366,-0.048637717962265015,-0.2570551335811615,0.2746127247810364,0.4415845572948456,-0.7166170477867126,-0.5398733019828796,0.2029467225074768,-0.007885515689849854,0.11438202857971191
0.8001416586441781,0.6814592768456432,2.1335527966715206,-0.14845219254493713,0.07908826321363449,0.3454991579055786,0.43881043791770935,-0.7174547910690308,-0.5410214066505432,0.18634220957756042,0.021531879901885986,0.013143599033355713
0.8010931156135797,0.6799727908227505,2.1390765899295245,-0.17815430462360382,0.42052197456359863,0.37270262837409973,0.4375762343406677,-0.7181172370910645,-0.541141927242279,0.14862069487571716,0.03591209650039673,-0.0629076361656189
0.8021599015709986,0.6811818111235375,2.1452240659079935,-0.19635328650474548,0.6764688491821289,0.42955338954925537,0.437747597694397,-0.7188592553138733,-0.5400171875953674,0.14725911617279053,0.042070865631103516,-0.09075057506561279
0.8034896089558473,0.6832266423716441,2.1525355587548565,-0.2380300760269165,0.7606959939002991,0.5249208807945251,0.43824705481529236,-0.7197829484939575,-0.5383791327476501,0.17201298475265503,0.06931602954864502,-0.04230928421020508
0.8051332883270619,0.684235573883311,2.161261425836178,-0.2682311236858368,0.6736931800842285,0.6119876503944397,0.4380415678024292,-0.7209230065345764,-0.5370191335678101,0.1913071572780609,0.08016073703765869,0.020066678524017334
0.8070837755139736,0.6830050449457519,2.1709607032120832,-0.2710670232772827,0.4644089639186859,0.667556881904602,0.4364922046661377,-0.7222733497619629,-0.5364660620689392,0.18145829439163208,0.07964944839477539,0.058454036712646484
0.8092837397317483,0.6790540301030649,2.181058738686878,-0.26231080293655396,0.20091311633586884,0.6820518970489502,0.43337011337280273,-0.7237931489944458,-0.536948561668396,0.16146326065063477,0.0674058198928833,0.07463783025741577
0.8113250326316866,0.67258407907882,2.1910075150370214,-0.28080928325653076,-0.0466100350022316,0.633492648601532,0.42896568775177,-0.7252001166343689,-0.5385844111442566,0.11707007884979248,0.048625409603118896,0.08584094047546387
0.8125339388983013,0.6643727880433576,2.200696157722908,-0.35975632071495056,-0.16738943755626678,0.5557632446289062,0.42398801445961,-0.726032018661499,-0.5413980484008789,0.06797069311141968,0.028705298900604248,0.08587735891342163
0.8123892487493952,0.6559157911075032,2.210329530239593,-0.4750640392303467,-0.11062439531087875,0.4707210063934326,0.41945838928222656,-0.7259324789047241,-0.5450475215911865,0.03929710388183594,0.02210557460784912,0.0713995099067688
0.8105988295819663,0.6485322910328437,2.220044315878886,-0.6168187856674194,0.05783066153526306,0.371543288230896,0.4162070155143738,-0.7246999144554138,-0.5491647124290466,0.019446730613708496,0.012282311916351318,0.03900235891342163
0.8070586512149529,0.6433270850756008,2.2298289735365513,-0.7548701763153076,0.3251395523548126,0.28703123331069946,0.4148791432380676,-0.7222560048103333,-0.5533728003501892,0.008247077465057373,0.006969749927520752,0.0021491050720214844
0.8020596681799338,0.6407693587376448,2.2399310928151697,-0.8765052556991577,0.6154177188873291,0.2418278157711029,0.4156157374382019,-0.7187895774841309,-0.5573196411132812,0.025149673223495483,0.01499319076538086,-0.020271241664886475
0.7959987707034026,0.6404018634945621,2.250699325355058,-0.9842052459716797,0.8348313570022583,0.2403404712677002,0.41800636053085327,-0.7145626544952393,-0.5609553456306458,0.047203660011291504,0.021233797073364258,-0.017474770545959473
0.7892530288635388,0.6408312371359831,2.262422743433777,-1.0699971914291382,0.8910096883773804,0.2760941982269287,0.42111948132514954,-0.7098273038864136,-0.564626932144165,0.06920647621154785,0.015064120292663574,0.007833778858184814
0.7823283065735813,0.6403474218498079,2.275212722358467,-1.1021509170532227,0.803402841091156,0.34321877360343933,0.4237728714942932,-0.7049327492713928,-0.5687585473060608,0.0862216055393219,0.005378305912017822,0.027987182140350342
0.7758453706742913,0.6383107105717466,2.2885484844145196,-1.0550891160964966,0.6592168807983398,0.40093931555747986,0.42532771825790405,-0.700319766998291,-0.5732786655426025,0.08285096287727356,0.004702150821685791,0.01422727108001709
0.7703013052361467,0.6350766646227158,2.3017455409875174,-0.942663311958313,0.5325795412063599,0.4591362178325653,0.4257683753967285,-0.6963515281677246,-0.577768087387085,0.06438976526260376,0.015702664852142334,-0.003439188003540039
0.765971041524577,0.6305909004543526,2.314415017946716,-0.8337122797966003,0.305788516998291,0.4815096855163574,0.4249463379383087,-0.6932371854782104,-0.5821021795272827,0.05111265182495117,0.015319645404815674,-0.00447613000869751
0.7621626649549188,0.6241905394132059,2.3260813497751482,-0.7692498564720154,0.037943147122859955,0.4241411089897156,0.42275187373161316,-0.6904873847961426,-0.586948037147522,0.008049488067626953,-0.017840802669525146,0.012363135814666748
0.7583960508933211,0.6166679205948354,2.33631866664549,-0.699271023273468,-0.11961504817008972,0.34580451250076294,0.4198256731033325,-0.6877579689025879,-0.5922291278839111,-0.03449547290802002,-0.05767965316772461,0.002599060535430908
0.7549505869810799,0.6091450077848853,2.345077953841865,-0.588273286819458,-0.16593512892723083,0.3016833961009979,0.4167118966579437,-0.6852526664733887,-0.5973105430603027,-0.043390363454818726,-0.06221437454223633,-0.04506915807723999
0.7523940494061389,0.6027176740054428,2.3522196266454203,-0.4149787724018097,-0.13809816539287567,0.26171812415122986,0.41385599970817566,-0.6833885312080383,-0.6014178395271301,-0.04926249384880066,-0.043677568435668945,-0.0917431116104126
0.7512627886228536,0.5978007135118599,2.3574174681394173,-0.19354376196861267,-0.14044559001922607,0.23817366361618042,0.4113287329673767,-0.6825621724128723,-0.6040841341018677,-0.038174986839294434,-0.03299880027770996,-0.11468112468719482
0.7518731232024684,0.5938079710198133,2.3608664023727655,-0.002996711991727352,-0.18959902226924896,0.2515251338481903,0.4086802899837494,-0.6830081343650818,-0.6053761839866638,-0.00017195940017700195,-0.04065525531768799,-0.1097726821899414
0.753671788010591,0.5898437712781072,2.3636273415378515,0.05995504558086395,-0.2127525806427002,0.28562045097351074,0.40559324622154236,-0.6843207478523254,-0.6059695482254028,0.02565068006515503,-0.05043572187423706,-0.06109881401062012
0.7557505272383517,0.5858087582830696,2.366839129129605,0.019467003643512726,-0.1480332314968109,0.3340716063976288,0.4023575186729431,-0.685835063457489,-0.6064145565032959,0.028504937887191772,-0.045762836933135986,0.002227604389190674
0.7575466986165335,0.5820553209742503,2.3710199044792097,-0.0554153248667717,-0.025598324835300446,0.36812931299209595,0.3994007110595703,-0.6871411204338074,-0.6068905591964722,0.018812179565429688,-0.03699523210525513,0.03877532482147217
0.7589072206210522,0.5788651601483308,2.3760630039702306,-0.11446826159954071,0.07312292605638504,0.39311879873275757,0.39695075154304504,-0.6881289482116699,-0.6073784232139587,0.003561943769454956,-0.0313839316368103,0.04997497797012329
0.7599412031438758,0.575749812498957,2.3818159905094016,-0.17030532658100128,0.08564307540655136,0.41784149408340454,0.3946690559387207,-0.6888788342475891,-0.6080150008201599,0.005294293165206909,-0.03626459836959839,0.06185728311538696
0.7604458568901463,0.57174192147223,2.388453781853672,-0.26764094829559326,0.02884717471897602,0.444364994764328,0.392040878534317,-0.6892445683479309,-0.6092994809150696,0.011706680059432983,-0.04989117383956909,0.08335965871810913
0.7602796898371154,0.5668598769851737,2.3961018198727855,-0.33842775225639343,0.068305104970932,0.4649046063423157,0.3891230821609497,-0.6891241669654846,-0.6113027930259705,0.006277918815612793,-0.050942420959472656,0.07507848739624023
0.760037608091042,0.5628850507135342,2.4034384058013507,-0.24747946858406067,0.14256815612316132,0.38976991176605225,0.38677921891212463,-0.6889486908912659,-0.6129857301712036,-0.050917983055114746,-0.04461759328842163,-0.02086430788040161
0.7605958446669298,0.5613231138446605,2.4080354220736404,0.004856017883867025,0.16711275279521942,0.22495990991592407,0.3856165111064911,-0.6893532276153564,-0.6132634282112122,-0.1278497576713562,-0.042824506759643555,-0.14764654636383057
0.762699222828615,0.5625359800496113,2.408500404423152,0.30730295181274414,0.13173265755176544,0.05916215479373932,0.38558584451675415,-0.6908754110336304,-0.6115673780441284,-0.14670950174331665,-0.045147478580474854,-0.2165423035621643
0.7661535878658033,0.5659359778791563,2.405417320324961,0.4914390444755554,0.13226318359375,-0.05700698122382164,0.3863809406757355,-0.6933687329292297,-0.6082347631454468,-0.12623387575149536,-0.046804606914520264,-0.19889408349990845
0.7701186262259327,0.571025120276826,2.4005023960384038,0.544671356678009,0.20340952277183533,-0.10562804341316223,0.3879823386669159,-0.6962203979492188,-0.6039427518844604,-0.0913209319114685,-0.03112030029296875,-0.12294018268585205
0.7740496254665697,0.5771396991780856,2.395150539790145,0.5209728479385376,0.26546600461006165,-0.10169517993927002,0.3901715874671936,-0.6990367770195007,-0.5992609262466431,-0.054173052310943604,-0.007521390914916992,-0.05332690477371216
0.7777513166047064,0.582985781757531,2.3905294910271073,0.4499077796936035,0.24475887417793274,-0.03977588936686516,0.3922410011291504,-0.7016790509223938,-0.5948054194450378,-0.005598574876785278,0.004703342914581299,0.004549801349639893
0.7809989533585416,0.5873012374206922,2.3874116175076545,0.33333709836006165,0.1787053495645523,0.030950598418712616,0.3935393989086151,-0.7039892673492432,-0.5912070870399475,0.030090361833572388,0.012308359146118164,0.04547661542892456
0.7837154704235804,0.5899408828900545,2.385873381933664,0.24382559955120087,0.1341317594051361,0.08541330695152283,0.3940332233905792,-0.7059159278869629,-0.5885748863220215,0.038995951414108276,0.010099947452545166,0.05146557092666626
0.7860054862232405,0.5918222254387172,2.385151434123335,0.19688913226127625,0.14746715128421783,0.07106146961450577,0.3942369520664215,-0.7075361013412476,-0.5864893198013306,0.007374316453933716,0.007798612117767334,0.021944701671600342
0.7876434289867182,0.5945437209449898,2.3840225697047974,0.1675914227962494,0.2493346631526947,-0.022941462695598602,0.3951820433139801,-0.7086926102638245,-0.5844535827636719,-0.0653480589389801,0.006956160068511963,-0.016300201416015625
0.7884923591266926,0.5995618445360386,2.381699987221647,0.1601182520389557,0.4280310869216919,-0.14821867644786835,0.3977702856063843,-0.7092913389205933,-0.58196622133255,-0.1155131459236145,0.0022752881050109863,-0.057239651679992676
0.7887031813798946,0.6074324931871884,2.378023155104563,0.1695770025253296,0.6154947280883789,-0.24593138694763184,0.40225300192832947,-0.7094399333000183,-0.5786947011947632,-0.11961445212364197,0.004804253578186035,-0.08526092767715454
0.7885611212755431,0.6177993047277631,2.3732313795269344,0.19667024910449982,0.7711065411567688,-0.3194442093372345,0.4082888662815094,-0.7093397974967957,-0.5745757222175598,-0.0987338125705719,0.01707899570465088,-0.08535158634185791
0.788221246657001,0.6300425023889388,2.3675351068787767,0.21427108347415924,0.8527156710624695,-0.36526307463645935,0.41543468832969666,-0.7091001868247986,-0.5697287321090698,-0.07736101746559143,0.031793057918548584,-0.061267852783203125
0.7877307568675311,0.6428863108818791,2.361525051758713,0.2084617167711258,0.8512943983078003,-0.36584368348121643,0.4229262173175812,-0.7087542414665222,-0.5646244883537292,-0.042951881885528564,0.04720944166183472,-0.0181085467338562
0.787168656112973,0.6550738344674574,2.355861723568626,0.17677941918373108,0.7694168090820312,-0.33316802978515625,0.43001866340637207,-0.708357572555542,-0.559744119644165,-0.003932207822799683,0.05631899833679199,0.029394447803497314
0.7863758592465508,0.6654885264603829,2.351227747967328,0.09324797987937927,0.6538923382759094,-0.27413344383239746,0.43617141246795654,-0.7077977657318115,-0.5556768774986267,0.028153598308563232,0.06412100791931152,0.07212591171264648
0.7851695301243409,0.673659774317969,2.348338173538954,-0.03198370710015297,0.569351077079773,-0.19187690317630768,0.4412297308444977,-0.7069451212882996,-0.5527612566947937,0.04816544055938721,0.07889330387115479,0.10844063758850098
0.783394073118382,0.6796595485134724,2.34757243456506,-0.17467275261878967,0.5205128192901611,-0.11936886608600616,0.44532638788223267,-0.7056882381439209,-0.5510793924331665,0.06056353449821472,0.08009320497512817,0.12026280164718628
0.7808845446992285,0.6841172105302639,2.3485674153328473,-0.2951866388320923,0.5144549012184143,-0.09128876030445099,0.4488963186740875,-0.7039079666137695,-0.5504595637321472,0.044099897146224976,0.07355213165283203,0.09936404228210449
0.7777004484075436,0.6879928056785652,2.350527149923868,-0.3634909987449646,0.5352604389190674,-0.10053892433643341,0.45244720578193665,-0.7016427516937256,-0.5504443049430847,0.020987272262573242,0.06995940208435059,0.06371951103210449
0.7741341609354699,0.6919926382665993,2.3526421998637534,-0.3676876127719879,0.5574413537979126,-0.12343758344650269,0.4562390148639679,-0.699097216129303,-0.5505534410476685,0.010512083768844604,0.06936699151992798,0.020859897136688232
0.7705539000816939,0.6965826696756205,2.354242619757117,-0.3203768730163574,0.5789197683334351,-0.16120953857898712,0.4603641927242279,-0.6965327858924866,-0.5503697991371155,0.004800021648406982,0.0647730827331543,-0.019713759422302246
0.7671859814583591,0.702043555402988,2.354842576504368,-0.2423318773508072,0.5923373103141785,-0.2068483978509903,0.46487513184547424,-0.6941123008728027,-0.5496357083320618,-0.003525644540786743,0.05660003423690796,-0.04202377796173096
0.7642843352358589,0.7084657632356218,2.354251694002958,-0.14245589077472687,0.6046645641326904,-0.226183220744133,0.46970391273498535,-0.6920205354690552,-0.5481659173965454,-0.0016557574272155762,0.053348660469055176,-0.057363808155059814
0.7620499703798386,0.7153410164358424,2.352895789706562,-0.07033589482307434,0.5751775503158569,-0.20909690856933594,0.4744744300842285,-0.6904059052467346,-0.5460894107818604,0.009351223707199097,0.05721193552017212,-0.0466076135635376
0.7604788927255979,0.7217699911793034,2.3514639260983263,-0.028758762404322624,0.5016574263572693,-0.1483532190322876,0.478691428899765,-0.6892684698104858,-0.5438412427902222,0.029685616493225098,0.052000463008880615,-0.007794380187988281
0.7596359258481326,0.7268680484712512,2.350539126864784,-0.011681774631142616,0.3826117217540741,-0.0628441795706749,0.4818437695503235,-0.6886575222015381,-0.541827917098999,0.055509746074676514,0.04093712568283081,0.026126623153686523
0.7593398628623543,0.73010602666838,2.3504631030943175,-0.028187353163957596,0.25931763648986816,0.014505710452795029,0.48373156785964966,-0.6884428262710571,-0.5404167175292969,0.05850479006767273,0.031109511852264404,0.05166250467300415
0.7593579662635163,0.7316560435971802,2.351371641950787,-0.05708504468202591,0.18315070867538452,0.08233642578125,0.4845603406429291,-0.6884559392929077,-0.5396569967269897,0.05506676435470581,0.014719367027282715,0.06495612859725952
0.7595294138690035,0.7322128085233244,2.3530451114491377,-0.0761038288474083,0.16473540663719177,0.11373377591371536,0.4847818613052368,-0.6885802745819092,-0.5392994284629822,0.04384365677833557,-0.00450444221496582,0.05419206619262695
0.7596385247940647,0.7327279563901172,2.354874298235923,-0.08255426585674286,0.1995873898267746,0.09639100730419159,0.48500925302505493,-0.6886593699455261,-0.5389936566352844,0.012930750846862793,-0.0219118595123291,0.031272828578948975
0.7595354210241203,0.7341084948828609,2.356439627866867,-0.07934177666902542,0.2921912670135498,0.058487311005592346,0.48580050468444824,-0.6885846257209778,-0.5383762717247009,-0.00624731183052063,-0.03594845533370972,0.008850634098052979
0.7592133301082452,0.7368743585024446,2.3574354946661593,-0.0659484714269638,0.39182785153388977,0.002840558998286724,0.4874367117881775,-0.688351035118103,-0.5371947884559631,-0.01372760534286499,-0.05095255374908447,-0.0063231587409973145
0.7584546998462903,0.7408972820051056,2.357687785570571,-0.07124193757772446,0.44180572032928467,-0.07602108269929886,0.4899462163448334,-0.6878005266189575,-0.5356147289276123,-0.030000507831573486,-0.06142127513885498,0.00216752290725708
0.7570902910214555,0.7456278424354882,2.3573724370420828,-0.09665249288082123,0.45291003584861755,-0.1344580352306366,0.493110716342926,-0.6868094801902771,-0.5339799523353577,-0.024864256381988525,-0.07574856281280518,0.02253592014312744
0.7550754898321889,0.7505211973563574,2.357248797314035,-0.21244686841964722,0.5070465803146362,-0.14382854104042053,0.4966605007648468,-0.6853436231613159,-0.53257155418396,-0.00033786892890930176,-0.07448303699493408,0.059335529804229736
0.7518800534029609,0.7528953899189997,2.3591176994326735,-0.4267042875289917,0.18314918875694275,-0.08074944466352463,0.49941834807395935,-0.6830131411552429,-0.5329861640930176,0.05563533306121826,-0.0691382884979248,0.19327986240386963
0.7484030614532112,0.7512086371063443,2.3631517514913174,-0.46166539192199707,0.0698179230093956,0.03218667581677437,0.5001364946365356,-0.6804694533348083,-0.5355602502822876,0.11074912548065186,-0.054714322090148926,0.11907166242599487
0.7454801048211189,0.7486417031620571,2.3679831616579397,-0.4384863078594208,0.07399722188711166,0.08975490182638168,0.5001117587089539,-0.6783246397972107,-0.538297176361084,0.07726556062698364,-0.03361994028091431,0.007123589515686035
0.7433740907874445,0.7463658856979662,2.3728586568957364,-0.35142314434051514,0.13462351262569427,0.14472223818302155,0.4998542368412018,-0.6767757534980774,-0.5404815673828125,0.05303272604942322,-0.023831546306610107,-0.058257997035980225
0.7421686260855905,0.7451841577853621,2.3770683218428563,-0.24350547790527344,0.19537687301635742,0.13855968415737152,0.49976804852485657,-0.6758877635002136,-0.541671097278595,0.03195497393608093,-0.03323394060134888,-0.11213743686676025
0.7415858738529111,0.745373484998492,2.3800463514688532,-0.14237423241138458,0.24060073494911194,0.10349424928426743,0.5001376867294312,-0.6754581928253174,-0.5418658256530762,-0.008942008018493652,-0.04255938529968262,-0.12224239110946655
0.7414181765984295,0.7465545375333629,2.381968262747883,-0.08797331154346466,0.24530279636383057,0.08570726960897446,0.5008541941642761,-0.6753345131874084,-0.5413578748703003,-0.011398077011108398,-0.04971736669540405,-0.10144907236099243
0.7412709332771612,0.7473292012335103,2.383846072351719,-0.1333497017621994,0.15457820892333984,0.10239671915769577,0.5013409852981567,-0.6752259135246277,-0.5410426259040833,0.0036791563034057617,-0.03607785701751709,-0.03245890140533447
0.7406327706834549,0.7463187175153276,2.386703352018207,-0.25056979060173035,0.028581393882632256,0.11834106594324112,0.5010865330696106,-0.6747550368309021,-0.5418652892112732,0.012264907360076904,-0.0285072922706604,0.03481578826904297
0.7390897787904771,0.7432209261036882,2.3908953847337564,-0.39312776923179626,-0.07430469244718552,0.12758657336235046,0.5001093745231628,-0.6736154556274414,-0.5441808104515076,0.010678589344024658,-0.03132528066635132,0.06792360544204712
0.7366850986845952,0.7385186050231802,2.396349085618901,-0.49657905101776123,-0.12258967012166977,0.14533041417598724,0.4986340403556824,-0.671836256980896,-0.5477227568626404,0.015754997730255127,-0.034309983253479004,0.051430702209472656
0.7338906421303035,0.7330288135877077,2.4026669356946493,-0.5344907641410828,-0.12401482462882996,0.17526477575302124,0.4968739449977875,-0.6697638034820557,-0.5518448948860168,0.017637193202972412,-0.01891118288040161,0.004863142967224121
0.7312174340278,0.7274170908487607,2.409397961025454,-0.5208913683891296,-0.09283880144357681,0.21519434452056885,0.4949580729007721,-0.667776346206665,-0.5559598207473755,0.022040218114852905,0.00043320655822753906,-0.02968776226043701
0.728981333044272,0.722173674974908,2.4162127435067307,-0.48100006580352783,-0.04736199975013733,0.2460922747850418,0.49302196502685547,-0.6661102175712585,-0.5596665143966675,0.02577686309814453,0.01169121265411377,-0.05662071704864502
0.7271964617935863,0.7175236293466282,2.422916781791441,-0.44410303235054016,0.009474385529756546,0.2697499096393585,0.49119511246681213,-0.6647778749465942,-0.5628478527069092,0.009155839681625366,0.02116215229034424,-0.08360594511032104
0.7258306993622375,0.713626271861087,2.4295258387038468,-0.405234694480896,0.08813410252332687,0.29730024933815,0.4895916283130646,-0.6637569665908813,-0.5654438138008118,0.0004901587963104248,0.03366053104400635,-0.09027206897735596
0.7249690550993181,0.7105389020654808,2.43610149570109,-0.3634670078754425,0.16420170664787292,0.33461272716522217,0.48821645975112915,-0.6631122827529907,-0.5673860311508179,0.00665658712387085,0.04352915287017822,-0.08355391025543213
0.7247116128754141,0.7080426312004048,2.4427845998380353,-0.32445284724235535,0.22145122289657593,0.3897717595100403,0.48690956830978394,-0.6629195809364319,-0.5687326192855835,0.017622292041778564,0.05203390121459961,-0.061623215675354004
0.7251058064726729,0.7059071896789079,2.4497297707273296,-0.2935546040534973,0.26510947942733765,0.45142364501953125,0.48552438616752625,-0.6632146239280701,-0.5695721507072449,0.029673367738723755,0.05905812978744507,-0.029594600200653076
0.7259262412472642,0.7034706793681087,2.457174474039117,-0.30917632579803467,0.22963888943195343,0.49796372652053833,0.483783096075058,-0.663828432559967,-0.5703383684158325,0.033978164196014404,0.057413578033447266,0.0064040422439575195
0.726661385201297,0.7001557712166192,2.4653170585560806,-0.36623772978782654,0.19119510054588318,0.521153450012207,0.48157522082328796,-0.6643780469894409,-0.571565568447113,0.01647162437438965,0.05982482433319092,0.04231446981430054
0.7270001639341273,0.6960956340650847,2.474178395098479,-0.43053507804870605,0.17174145579338074,0.5364274382591248,0.47910624742507935,-0.6646312475204468,-0.5733433365821838,0.005268752574920654,0.06079518795013428,0.06209760904312134
0.7269467056511372,0.6914358836776917,2.483725969875357,-0.4837239980697632,0.1639929860830307,0.5498679280281067,0.476452112197876,-0.6645913124084473,-0.5755969882011414,0.003543645143508911,0.06405115127563477,0.06808972358703613
0.7264722306955229,0.6862742987265588,2.4938390127392576,-0.5503745079040527,0.14272959530353546,0.5509977340698242,0.4736745059490204,-0.6642366647720337,-0.5782924294471741,0.002292931079864502,0.06394064426422119,0.07231098413467407
0.7252404052348773,0.6805567132572086,2.504513143735606,-0.646889328956604,0.1360011100769043,0.527018666267395,0.4708748161792755,-0.6633153557777405,-0.5816266536712646,-0.007663756608963013,0.06251579523086548,0.0844191312789917
0.7230751631730105,0.6747147344724862,2.515622289412268,-0.7219246029853821,0.1727372109889984,0.496006578207016,0.4683650732040405,-0.6616934537887573,-0.5854877829551697,-0.018734335899353027,0.060329318046569824,0.07491350173950195
0.7202459500604629,0.6693521091795234,2.526835854996683,-0.7572684288024902,0.23394304513931274,0.4708445072174072,0.4663783311843872,-0.6595695614814758,-0.5894567966461182,-0.02250012755393982,0.061745405197143555,0.04633551836013794
0.7171159274799678,0.6647406749570314,2.53788188844092,-0.7565541863441467,0.29455870389938354,0.4508369266986847,0.4649263024330139,-0.6572136878967285,-0.5932231545448303,-0.017004549503326416,0.06802600622177124,0.028800606727600098
0.7138215703314861,0.6607833362695299,2.5487345656576013,-0.7707842588424683,0.33029407262802124,0.4263145327568054,0.4639013707637787,-0.6547271609306335,-0.5967645049095154,-0.009998142719268799,0.06737053394317627,0.030800819396972656
0.7099745318252499,0.6571171923585116,2.559580721689867,-0.8364096879959106,0.35480955243110657,0.39787405729293823,0.46324557065963745,-0.6518144607543945,-0.6004510521888733,-0.010196864604949951,0.06561756134033203,0.055117249488830566
0.7053786771839498,0.653751261733483,2.570634110012336,-0.9061139225959778,0.40950796008110046,0.37290531396865845,0.4630388021469116,-0.6483221650123596,-0.6043784618377686,-0.00010243058204650879,0.0637885332107544,0.06852036714553833
0.7002874378227182,0.6509377764520281,2.5818145520096696,-0.9266061782836914,0.4687362313270569,0.368246465921402,0.4633306562900543,-0.6444374918937683,-0.608296811580658,0.012148499488830566,0.07392662763595581,0.055501461029052734
0.695211041702459,0.6487924045430197,2.592881654784886,-0.8984533548355103,0.5228599309921265,0.36889708042144775,0.4639952778816223,-0.640547513961792,-0.6118882298469543,0.014627188444137573,0.09724307060241699,0.02903306484222412
0.6903239547204262,0.6473722708211441,2.6036865534711833,-0.8818404674530029,0.5667171478271484,0.3623029887676239,0.4650081992149353,-0.6367869973182678,-0.6150362491607666,0.012088298797607422,0.11234241724014282,0.028183281421661377
0.6853409394662682,0.6465371445829123,2.614315189914148,-0.9034740924835205,0.611954391002655,0.3450334370136261,0.46640023589134216,-0.6329370141029358,-0.6179494857788086,0.007583528757095337,0.12175226211547852,0.05766206979751587
0.6800052429090493,0.6461385787271778,2.6249658907706572,-0.9375881552696228,0.6485984325408936,0.33042871952056885,0.46818068623542786,-0.6287971138954163,-0.6208228468894958,0.009190529584884644,0.12476873397827148,0.08833694458007812
0.6742730013037024,0.6459370445508995,2.635677793918935,-0.9752891659736633,0.6434998512268066,0.30925577878952026,0.4702174961566925,-0.6243295669555664,-0.6237852573394775,0.014111697673797607,0.1239633560180664,0.11243277788162231
0.6680634110265116,0.6455053609451149,2.646369358081623,-1.017062783241272,0.5919166803359985,0.2788347601890564,0.4722714424133301,-0.6194669008255005,-0.6270729303359985,0.01825287938117981,0.12213718891143799,0.13490068912506104
0.6612589646680264,0.6444981882929219,2.656980848746542,-1.0665901899337769,0.5125065445899963,0.2371320277452469,0.4741611182689667,-0.6141109466552734,-0.6309033036231995,0.019399672746658325,0.12149620056152344,0.15954405069351196
0.6537484883898891,0.6428113078978797,2.667512347651217,-1.1282449960708618,0.4314742982387543,0.19380488991737366,0.47584766149520874,-0.6081662774085999,-0.6353761553764343,0.022443324327468872,0.12220430374145508,0.1798708438873291
0.6454010002406518,0.6403076425581677,2.678090675980325,-1.2129454612731934,0.3404937982559204,0.15386812388896942,0.4772718548774719,-0.6015188097953796,-0.6406143307685852,0.026268184185028076,0.12291157245635986,0.20009315013885498
0.6359973071309968,0.6368610398212523,2.6888463641316527,-1.3158694505691528,0.25345322489738464,0.10955823212862015,0.47840380668640137,-0.5939801335334778,-0.6467746496200562,0.02727249264717102,0.12342953681945801,0.22079509496688843
0.6254765447491274,0.6325442952218554,2.6997976244743693,-1.4160045385360718,0.17448674142360687,0.06998498737812042,0.4792754650115967,-0.5854836702346802,-0.6538378596305847,0.03212285041809082,0.1232796311378479,0.230696439743042
0.6139074086061823,0.6273959606841771,2.710925424919982,-1.5080828666687012,0.08749610930681229,0.02878495305776596,0.4798473119735718,-0.5760657787322998,-0.6617361307144165,0.03329050540924072,0.1242225170135498,0.22733372449874878
0.6014315297119991,0.6216496260163493,2.7220209221456355,-1.567880630493164,0.0373072475194931,-0.009114755317568779,0.48018521070480347,-0.5658233761787415,-0.6702730655670166,0.02977880835533142,0.12612611055374146,0.20822179317474365
0.5883507417821185,0.6159297364869654,2.732832123943888,-1.5887165069580078,0.03249242156744003,-0.04596494138240814,0.4805785119533539,-0.5549898147583008,-0.6789922714233398,0.02758491039276123,0.13241291046142578,0.18553829193115234
0.5748340955732764,0.6106383592798275,2.7432408963351413,-1.6162424087524414,0.05228104069828987,-0.08649825304746628,0.48123663663864136,-0.5436955690383911,-0.6876091361045837,0.020426511764526367,0.1424199342727661,0.1778588891029358
