attitudeX,attitudeY,attitudeZ,gyroX,gyroY,gyroZ,gravityX,gravityY,gravityZ,accX,accY,accZ
0.26516553526084524,-0.21319907691111187,-1.6890738325980819,6.861034870147705,1.6084184646606445,-0.5682317614555359,-0.20419245958328247,-0.2620690166950226,-0.9431995153427124,-0.4929358959197998,1.2453148365020752,-1.653586983680725
0.3350293138958815,-0.20207918408033032,-1.68039864016856,7.120177268981934,1.1018720865249634,-0.6875637173652649,-0.18954747915267944,-0.3287968635559082,-0.9251834154129028,-0.6870089769363403,1.3097844123840332,-1.3099391460418701
0.4080767057292315,-0.1963853259782299,-1.6731117926673746,7.4252824783325195,0.572873055934906,-0.8760172724723816,-0.1791028529405594,-0.39684468507766724,-0.9002424478530884,-0.7495929002761841,1.32364821434021,-1.1556657552719116
0.4849081103146992,-0.19443026927401807,-1.6679286546214085,7.7912397384643555,0.281629741191864,-1.1898341178894043,-0.17093417048454285,-0.46612706780433655,-0.8680478930473328,-0.7755075693130493,1.3221451044082642,-1.13993239402771
0.5664161374349266,-0.19406964464326046,-1.6654571027191845,8.244772911071777,0.03346977382898331,-1.5166796445846558,-0.16273567080497742,-0.5366113185882568,-0.8279887437820435,-0.7844536900520325,1.3859307765960693,-1.175276517868042
0.6531999243372953,-0.19553090219954464,-1.6651183804286762,8.741476058959961,-0.299350768327713,-1.7654435634613037,-0.15429197251796722,-0.6077306866645813,-0.779010534286499,-0.7451068758964539,1.566867709159851,-1.123119592666626
0.7451430840936435,-0.19920161363191857,-1.6663050949727796,9.170466423034668,-0.5797936916351318,-2.013164520263672,-0.14544500410556793,-0.678076982498169,-0.7204564213752747,-0.7418078780174255,1.7892982959747314,-1.0131556987762451
0.8405212210513698,-0.20352487806950345,-1.6703343052192174,9.316336631774902,-0.855944812297821,-2.3492209911346436,-0.13483093678951263,-0.744990885257721,-0.6533063650131226,-0.796687662601471,1.9658771753311157,-0.8090959191322327
0.9372811041005464,-0.2061596920848444,-1.6796990780586512,9.327204704284668,-1.106703519821167,-2.732008218765259,-0.12118006497621536,-0.8059515357017517,-0.5794458985328674,-0.81912761926651,2.0452704429626465,-0.5933750867843628
1.0345758498981648,-0.2031821723047422,-1.6975276290973138,9.235462188720703,-1.2626971006393433,-3.128892421722412,-0.10309109836816788,-0.8596457242965698,-0.5003812313079834,-0.8830692172050476,2.0952110290527344,-0.5101014971733093
1.1306424852319836,-0.1889073507832524,-1.7287654697905663,8.973429679870605,-1.386330246925354,-3.4538047313690186,-0.08001149445772171,-0.9046861529350281,-0.41849860548973083,-0.8921260237693787,2.2112505435943604,-0.3628428876399994
1.2243850940838683,-0.15406449672506373,-1.7813740993783223,8.751410484313965,-1.3658989667892456,-3.6827638149261475,-0.0521019883453846,-0.9405972361564636,-0.3355030417442322,-0.8249275088310242,2.2808377742767334,-0.32726240158081055
1.3150083723465604,-0.0800348011179993,-1.8739797737623742,8.537076950073242,-1.5964629650115967,-3.856088161468506,-0.020227819681167603,-0.9674642086029053,-0.2521979510784149,-0.7426353693008423,2.2718007564544678,-0.3666374683380127
1.4001180724077302,0.08677300887262368,-2.0629783635805476,8.39552116394043,-1.988553524017334,-4.049530506134033,0.014719978906214237,-0.9854698181152344,-0.16921177506446838,-0.6999006867408752,2.277324676513672,-0.37989097833633423
1.4689307136911591,0.5478769446999048,-2.548775483753498,8.335001945495605,-2.1045520305633545,-4.179347515106201,0.05296683311462402,-0.9948161840438843,-0.08680413663387299,-0.6022832989692688,2.223240375518799,-0.5287353992462158
1.4768300387373499,1.5176232517506993,2.7395731200719395,8.36103630065918,-2.0828697681427,-4.118683338165283,0.09369603544473648,-0.9955884218215942,-0.0049868072383105755,-0.6155619025230408,2.2920665740966797,-0.7046079039573669
1.4158317328827656,2.0842261012494903,2.1494946074145638,8.287543296813965,-1.7132424116134644,-3.954756736755371,0.1344452053308487,-0.9880170226097107,0.07580965757369995,-0.6075287461280823,2.2967631816864014,-0.7553902864456177
1.3353887334981134,2.2907684382018556,1.923887246290399,8.004927635192871,-1.351420521736145,-4.02638578414917,0.17535537481307983,-0.9724193811416626,0.15378990769386292,-0.5539565086364746,2.2998881340026855,-0.564297080039978
1.2519129382137086,2.3777084179812156,1.8194355236167912,7.592955589294434,-1.3870577812194824,-4.028403282165527,0.21686258912086487,-0.9495860934257507,0.22640039026737213,-0.5915573835372925,2.2821054458618164,-0.38245198130607605
1.170275942533369,2.417142000769807,1.762162239554645,7.090281009674072,-1.4268743991851807,-4.04137659072876,0.25839459896087646,-0.9208582043647766,0.29198017716407776,-0.6163352727890015,2.170034170150757,-0.295489639043808
1.092116473371556,2.4333062292787133,1.729376681875465,6.468155384063721,-1.2306909561157227,-4.0929412841796875,0.29964083433151245,-0.887603759765625,0.3498215079307556,-0.6538279056549072,2.0877685546875,-0.27886807918548584
1.0187849223124639,2.439112239844012,1.7120666318532336,5.759469032287598,-0.5370864272117615,-4.087337017059326,0.33882227540016174,-0.851471483707428,0.40024489164352417,-0.6826943755149841,2.012207508087158,-0.2922888994216919
0.9510147514033959,2.445161998940567,1.7051789761212954,5.07686710357666,0.6016308665275574,-4.029115200042725,0.37261077761650085,-0.8140053749084473,0.44559741020202637,-0.702887237071991,1.9764502048492432,-0.37739038467407227
0.8884649594103047,2.4564645416873234,1.7048950219851051,4.592345714569092,1.5727055072784424,-3.894530773162842,0.3990285396575928,-0.7761046886444092,0.4883004426956177,-0.7242697477340698,1.9375885725021362,-0.48630163073539734
0.82939763309278,2.4734122890446875,1.7077175643321445,4.416593074798584,2.146394968032837,-3.793874740600586,0.4184003174304962,-0.737524688243866,0.5300925970077515,-0.7083631753921509,1.8792941570281982,-0.5846428275108337
0.7702953767253958,2.4919375678549116,1.7108722844085424,4.701694488525391,1.8953015804290771,-3.7762951850891113,0.4341483414173126,-0.6963472366333008,0.5715032815933228,-0.7348990440368652,1.8384828567504883,-0.7653356194496155
0.7068720983869639,2.5064882614470103,1.7110471618122092,5.4557952880859375,0.9601449966430664,-3.828465223312378,0.4511142671108246,-0.6494585275650024,0.6121269464492798,-0.7998692393302917,1.7909839153289795,-0.9669854044914246
0.6356797850123894,2.5121612583118718,1.7071237990408958,6.350279331207275,-0.32064133882522583,-4.088562965393066,0.4736965000629425,-0.5937246680259705,0.6504638195037842,-0.9310786128044128,1.7905628681182861,-1.07487154006958
0.5559362619825698,2.5064055372457075,1.7016596037637612,6.951481342315674,-1.3872007131576538,-4.591222286224365,0.5039768218994141,-0.5277388095855713,0.6837388873100281,-1.0888005495071411,1.7746260166168213,-1.0108721256256104
0.4700175513172085,2.491083395494641,1.6978711688769967,7.1002421379089355,-1.9615085124969482,-5.139713287353516,0.5399216413497925,-0.4529019296169281,0.709481954574585,-1.1715744733810425,1.744619369506836,-0.7936798930168152
0.38144853273537244,2.4711020897373475,1.6974022521212568,6.852192401885986,-2.0145649909973145,-5.607160568237305,0.5767104625701904,-0.3722652792930603,0.7272029519081116,-1.1704299449920654,1.7685664892196655,-0.5588372349739075
0.29383813065339104,2.4515148812080807,1.700923744725147,6.259133815765381,-1.5885143280029297,-5.864032745361328,0.6093122363090515,-0.28962796926498413,0.7381425499916077,-1.0822126865386963,1.7719582319259644,-0.34915024042129517
0.2113249193283025,2.4378164748429563,1.7090839972320298,5.300957679748535,-0.7083575129508972,-5.87996768951416,0.6327056884765625,-0.2097555249929428,0.7454434037208557,-0.9540253281593323,1.752663254737854,-0.08215922117233276
0.1372841058059404,2.433193158546569,1.7228043653548528,4.170444488525391,0.24346424639225006,-5.737632751464844,0.6444976329803467,-0.13685327768325806,0.7522591352462769,-0.8177307844161987,1.7098666429519653,0.24485695362091064
0.0727300965292293,2.4374835138153346,1.7423841183642557,3.1130988597869873,0.9664679169654846,-5.577665328979492,0.6456435918807983,-0.0726659968495369,0.7601734399795532,-0.6938004493713379,1.637302279472351,0.5353128910064697
0.01646423252816265,2.4481242147576565,1.7675359564864361,2.2954514026641846,1.3468691110610962,-5.490876197814941,0.6391218304634094,-0.016463488340377808,0.7689294815063477,-0.6115186810493469,1.5974876880645752,0.7395546436309814
-0.03404382634649651,2.4633050824675875,1.7975446945512599,1.7339345216751099,1.6020150184631348,-5.5288615226745605,0.6270968914031982,0.03403725102543831,0.7781970500946045,-0.5268011093139648,1.5467580556869507,0.8196269869804382
-0.08095813060682674,2.48141273150622,1.831413902558864,1.4549177885055542,1.5898624658584595,-5.550735950469971,0.6112502217292786,0.08086972683668137,0.7872945666313171,-0.3424057960510254,1.5807512998580933,0.8622719049453735
-0.12579476697384553,2.5004191989335047,1.8668426935850109,1.418812870979309,1.4517487287521362,-5.418741703033447,0.593410074710846,0.12546326220035553,0.7950621843338013,-0.027446329593658447,1.6288397312164307,0.8627291917800903
-0.16813388809399468,2.5186525140838287,1.9009355611931997,1.4111299514770508,1.1725938320159912,-4.94322395324707,0.5751985311508179,0.16734284162521362,0.8007140755653381,0.49271827936172485,1.666137933731079,0.9464631080627441
-0.20561248975737173,2.534384009028353,1.9307754839704019,1.3080552816390991,0.8644635677337646,-4.105197429656982,0.5585587024688721,0.20416678488254547,0.8039452433586121,1.1678054332733154,1.7001301050186157,1.1793920993804932
-0.23596592418274207,2.5470218026581457,1.9542053652291134,1.0885825157165527,0.6433050632476807,-3.0675911903381348,0.544630765914917,0.23378224670886993,0.8054333329200745,1.769669532775879,1.7229743003845215,1.4675310850143433
-0.2579461779775609,2.556609085319723,1.9708874802299203,0.7477988004684448,0.4545575976371765,-2.0651676654815674,0.5339171290397644,0.2550952136516571,0.806138277053833,2.150622606277466,1.736680269241333,1.7882068157196045
-0.27151166910595853,2.5632473361360066,1.9820197003709683,0.32580435276031494,0.29780659079551697,-1.2386280298233032,0.5266138315200806,0.2681880295276642,0.8066926598548889,2.2833683490753174,1.7435917854309082,2.0869688987731934
-0.2771633557429584,2.5672292881865437,1.9893781966132575,-0.15760087966918945,0.08356054127216339,-0.5747944116592407,0.5225655436515808,0.2736283540725708,0.8074976801872253,2.2614917755126953,1.7769391536712646,2.3236820697784424
-0.2750668426863034,2.567710673885419,1.9938356349122015,-0.6508662700653076,-0.24782271683216095,0.09758055210113525,0.5224872827529907,0.2716112732887268,0.8082294464111328,2.235538959503174,1.832942008972168,2.539289712905884
-0.2649193235702632,2.563863963207283,1.9947107406868103,-1.1421705484390259,-0.5562611222267151,0.8694941997528076,0.5270703434944153,0.2618314027786255,0.8084806203842163,2.2548203468322754,1.9081666469573975,2.6334900856018066
-0.24607005689996958,2.5561396523971456,1.9918192214140507,-1.6939421892166138,-0.8392482995986938,1.658940076828003,0.5359317660331726,0.24359428882598877,0.8083555102348328,2.2188591957092285,1.9383972883224487,2.62235426902771
-0.21833952890430092,2.5447653087106334,1.9856101145916676,-2.216322183609009,-1.1507056951522827,2.41508150100708,0.5486778616905212,0.21660886704921722,0.8074856400489807,2.0831427574157715,1.9029589891433716,2.5194642543792725
-0.1823203899678865,2.5299845526189815,1.9764982724348898,-2.6748831272125244,-1.4168577194213867,3.121912717819214,0.5646681785583496,0.18131199479103088,0.8051559925079346,1.828505039215088,1.842812180519104,2.3118181228637695
-0.13868236631025238,2.513240392601919,1.9652688815529769,-3.128591537475586,-1.5519723892211914,3.7150187492370605,0.5821690559387207,0.13823825120925903,0.8012301325798035,1.4989008903503418,1.7631137371063232,2.051034450531006
-0.08782441802393787,2.4959353778881437,1.9534008467616975,-3.620230197906494,-1.6241639852523804,4.195073127746582,0.599404513835907,0.08771155774593353,0.7956262826919556,1.1479861736297607,1.6775319576263428,1.814725399017334
-0.030243432647004877,2.4787588995122984,1.9418285387749252,-4.082560062408447,-1.6612985134124756,4.60984992980957,0.615071713924408,0.030238822102546692,0.7878912687301636,0.8095346093177795,1.6457102298736572,1.583141565322876
0.03345459875206742,2.461819817115303,1.9312177435329065,-4.546255588531494,-1.7235409021377563,4.936429500579834,0.6282647848129272,-0.03344835713505745,0.7772805690765381,0.4830939769744873,1.6533061265945435,1.361635684967041
0.10275238743707182,2.444708318071785,1.9223754796248231,-5.006743907928467,-1.80049467086792,5.190227031707764,0.6384463310241699,-0.10257167369127274,0.7628010511398315,0.1744655966758728,1.679781198501587,1.178269624710083
0.17714045893644212,2.4274516929278285,1.9159360046589498,-5.455584526062012,-1.8083549737930298,5.3905205726623535,0.6447193026542664,-0.1762154996395111,0.7438313364982605,-0.08742266893386841,1.740500807762146,0.9885600209236145
0.25610773018422517,2.409938261766663,1.9123175236754015,-5.876066207885742,-1.8494150638580322,5.543722152709961,0.6463103294372559,-0.2533171772956848,0.7198010683059692,-0.28746944665908813,1.8413145542144775,0.7916126251220703
0.33883134504965273,2.3905442955200757,1.9119267470653207,-6.220821857452393,-2.061007261276245,5.642393112182617,0.6436066031455994,-0.3323851227760315,0.6894136071205139,-0.4579375982284546,1.9722623825073242,0.6176086068153381
0.4240260362698429,2.3669854117244156,1.9147743133361081,-6.399533748626709,-2.4243617057800293,5.71061372756958,0.637493371963501,-0.41143327951431274,0.6514022350311279,-0.6177332401275635,2.1231184005737305,0.43073582649230957
0.5106375868095848,2.3388932849329755,1.9205312338951193,-6.494596481323242,-2.6174819469451904,5.823987007141113,0.6274837255477905,-0.48873358964920044,0.6061384677886963,-0.7358822226524353,2.2463324069976807,0.1947954297065735
0.5988271910947073,2.3084392105463953,1.9292855615425888,-6.6096954345703125,-2.4977364540100098,5.991411209106445,0.6112842559814453,-0.5636741518974304,0.55552077293396,-0.7797870635986328,2.3611135482788086,0.012564122676849365
0.6888919061629778,2.277331655952839,1.9414847962386554,-6.70570707321167,-2.2407562732696533,6.205990791320801,0.5871580839157104,-0.6356821656227112,0.5011524558067322,-0.8007200956344604,2.483262062072754,-0.11147338151931763
0.7806554270522262,2.2453632541653437,1.956861226001843,-6.68175745010376,-2.109816074371338,6.441009521484375,0.5548471808433533,-0.7037452459335327,0.44371941685676575,-0.8243632912635803,2.5855050086975098,-0.22884517908096313
0.873031018310248,2.209906304069177,1.9756376106978388,-6.558284282684326,-2.224853515625,6.57968807220459,0.5156933665275574,-0.7662798762321472,0.3832433819770813,-0.8551404476165771,2.6550586223602295,-0.2883642911911011
0.9647878469422068,2.167361983989333,1.999366774232505,-6.373410224914551,-2.505889654159546,6.663259029388428,0.4712055027484894,-0.821928083896637,0.3199988603591919,-0.905272364616394,2.698744058609009,-0.27236098051071167
1.0552584816397466,2.114217008494752,2.030463361125753,-6.129402160644531,-2.8353803157806396,6.736144542694092,0.4219832718372345,-0.8700276613235474,0.2549154460430145,-0.9372116327285767,2.7347891330718994,-0.2477743923664093
1.1438015054907462,2.0463946972182345,2.07295673718547,-5.841200828552246,-3.122631072998047,6.791092395782471,0.3681759834289551,-0.9102144241333008,0.18962128460407257,-0.9740872383117676,2.7604799270629883,-0.22340428829193115
1.2298314398227808,1.9553446118782152,2.1359714538835193,-5.592252731323242,-3.356921672821045,6.824932098388672,0.30997520685195923,-0.9424324631690979,0.12544579803943634,-1.0111165046691895,2.748523712158203,-0.16835354268550873
1.3122597999264896,1.8209153569831622,2.2406894389522325,-5.391263961791992,-3.446870803833008,6.840207099914551,0.24771088361740112,-0.9667651653289795,0.06328238546848297,-1.0287015438079834,2.7199997901916504,-0.08545338362455368
1.3879107485660864,1.5929912276748774,2.439249892439398,-5.24893856048584,-3.313730478286743,6.866320610046387,0.18182365596294403,-0.9833229780197144,0.004036220721900463,-1.0191650390625,2.6993720531463623,0.00022101448848843575
1.4460988331736473,1.135770148959375,2.869370563196049,-5.208200454711914,-3.0074334144592285,6.899018287658691,0.11279019713401794,-0.9922353625297546,-0.05241568759083748,-0.9848147630691528,2.6405813694000244,0.05490291118621826
1.4557986640959653,0.3737421836002455,-2.6745335425700945,-5.294985771179199,-2.4582977294921875,6.885033130645752,0.041892971843481064,-0.9933950304985046,-0.10682225227355957,-0.9475021362304688,2.5393242835998535,0.07656415551900864
1.4068366952067304,-0.17959549330175598,-2.137932607567334,-5.510913372039795,-1.8470731973648071,6.836391448974609,-0.029157355427742004,-0.986588716506958,-0.16060088574886322,-0.8813956379890442,2.426438570022583,0.10125946998596191
1.3318600852023286,-0.4317292708199756,-1.8976201699721391,-5.752919673919678,-1.4723097085952759,6.750297546386719,-0.09903238713741302,-0.9715902805328369,-0.21495336294174194,-0.8129244446754456,2.307222604751587,0.13859844207763672
1.2486118859060116,-0.5555311655199987,-1.7840765410537118,-5.842113018035889,-1.4886494874954224,6.60935115814209,-0.16699399054050446,-0.9485459923744202,-0.26902341842651367,-0.7890759706497192,2.1735825538635254,0.16024351119995117
1.1642127661506518,-0.6293034682494304,-1.7235351531874592,-5.684511184692383,-1.9741780757904053,6.33933162689209,-0.23276866972446442,-0.9184772968292236,-0.3197158873081207,-0.8728679418563843,2.0320637226104736,0.1301560401916504
1.0824231700156803,-0.6852314677292484,-1.6877746683540877,-5.316834926605225,-2.7524096965789795,6.0507426261901855,-0.2969277799129486,-0.8830973505973816,-0.3632807433605194,-0.9719473123550415,1.7947947978973389,0.055358439683914185
1.005153149702352,-0.7365664945524374,-1.6643737451083553,-4.826587677001953,-3.406386375427246,5.781274318695068,-0.36002951860427856,-0.8442440629005432,-0.39702728390693665,-1.0267350673675537,1.5447444915771484,-0.03159207105636597
0.9331256987319417,-0.7852898314055535,-1.6483581833436196,-4.335673809051514,-3.6162707805633545,5.407864093780518,-0.42091304063796997,-0.8034846782684326,-0.4210042655467987,-1.1036689281463623,1.3626430034637451,-0.048935890197753906
0.866201303759686,-0.8283237726678317,-1.6386607661825923,-4.085047245025635,-3.393144130706787,5.093055725097656,-0.47724342346191406,-0.7618739008903503,-0.4379346966743469,-1.0903072357177734,1.1482570171356201,-0.0906296968460083
0.7996108995777685,-0.8627207153883439,-1.6348286079167662,-4.407260894775391,-2.855637788772583,5.265178203582764,-0.529440701007843,-0.7170849442481995,-0.453300803899765,-0.9089747667312622,1.1117078065872192,-0.06200370192527771
0.72644967844746,-0.8867695051956141,-1.636035482621206,-5.080569267272949,-2.0990939140319824,5.828165531158447,-0.5793670415878296,-0.664219856262207,-0.4723829925060272,-0.6976715326309204,1.238682746887207,0.032044947147369385
0.6459442209129981,-0.9021490780784199,-1.6413148887850508,-5.549734592437744,-1.7149829864501953,6.135313034057617,-0.6265766620635986,-0.6019526720046997,-0.49502983689308167,-0.8524271845817566,1.2978909015655518,-0.018016308546066284
0.5626415094804748,-0.9150544330671965,-1.6496031963302797,-5.698700904846191,-1.8226737976074219,6.075671195983887,-0.6704163551330566,-0.5334223508834839,-0.515754222869873,-1.4604582786560059,1.208913803100586,-0.2499927282333374
0.48154110280081475,-0.9285645137117514,-1.66016048344933,-5.472081661224365,-1.8637477159500122,5.65819787979126,-0.7097001671791077,-0.46314558386802673,-0.5308689475059509,-1.952531337738037,0.9202073216438293,-0.5907130241394043
0.4073806456461561,-0.9406762341987369,-1.672175776010012,-5.060449600219727,-1.5363577604293823,4.917335510253906,-0.7418349385261536,-0.39620569348335266,-0.5410192608833313,-2.303758144378662,0.5550496578216553,-1.1081657409667969
0.34213140398509634,-0.9487317887865011,-1.6867172174917446,-4.7460761070251465,-1.1151905059814453,4.036365032196045,-0.7655757069587708,-0.3354957103729248,-0.5489410758018494,-2.5765414237976074,0.2033851444721222,-1.4203429222106934
0.28672992472464875,-0.9521340932549357,-1.7042036114918648,-4.357662677764893,-0.6412940621376038,3.0045831203460693,-0.7813958525657654,-0.28281718492507935,-0.5562689304351807,-2.574286460876465,-0.06296226382255554,-1.7821557521820068
0.24241438762870468,-0.9517719975767412,-1.723811534200934,-3.82291579246521,-0.3436001241207123,2.0315513610839844,-0.7906315922737122,-0.24004711210727692,-0.5632752776145935,-2.67840838432312,-0.13681447505950928,-2.0260801315307617
0.20874584009872058,-0.9506074050608034,-1.743307708681222,-3.1450231075286865,-0.3148376941680908,1.245192289352417,-0.7961030602455139,-0.20723313093185425,-0.5685722231864929,-2.665414333343506,-0.10956987738609314,-2.2118232250213623
0.18530691501539817,-0.950689664356035,-1.76130599110172,-2.436657190322876,-0.4034808576107025,0.5178359150886536,-0.7998837232589722,-0.1842482089996338,-0.5711730122566223,-2.6635560989379883,-0.0520952045917511,-2.3436217308044434
0.17168326874504078,-0.9519616791203375,-1.7776003703164827,-1.7420707941055298,-0.3762516379356384,-0.15815402567386627,-0.802579939365387,-0.17084111273288727,-0.5715582370758057,-2.748537063598633,0.004245638847351074,-2.433156728744507
0.16782281831107035,-0.9517535268620014,-1.7921810929613595,-1.0355215072631836,-0.03264202922582626,-0.8947855234146118,-0.8029921054840088,-0.16703614592552185,-0.57210373878479,-2.841142416000366,0.04986390471458435,-2.5659730434417725
0.17457385024989608,-0.9470668239086116,-1.8056429357851107,-0.33451414108276367,0.5289328694343567,-1.7417954206466675,-0.7993683815002441,-0.17368848621845245,-0.5751889944076538,-2.8991026878356934,0.08743052184581757,-2.6727967262268066
0.1921577210654412,-0.93629043731347,-1.8182039019745388,0.42257699370384216,1.154789924621582,-2.5299501419067383,-0.7905414700508118,-0.19097734987735748,-0.5818691849708557,-2.8379528522491455,0.1842176914215088,-2.690042495727539
0.22054945067463969,-0.9197409102774405,-1.8288548668100553,1.3231227397918701,1.7132542133331299,-3.2314841747283936,-0.776176929473877,-0.21876579523086548,-0.591346800327301,-2.6607890129089355,0.3617100715637207,-2.6571273803710938
0.2595463801734663,-0.8982336813575257,-1.836618955823747,2.2620270252227783,2.185763120651245,-3.8046584129333496,-0.7560281157493591,-0.2566421627998352,-0.6021263599395752,-2.432997703552246,0.5663650631904602,-2.5150763988494873
0.30817654772041253,-0.8736608298296946,-1.8413042287867878,3.171220064163208,2.417640447616577,-4.261752605438232,-0.730564534664154,-0.30332159996032715,-0.6117772459983826,-2.1946520805358887,0.7942121028900146,-2.23537540435791
0.36583665505481777,-0.848913162699875,-1.8430755343648775,4.066414833068848,2.3690364360809326,-4.676525115966797,-0.7008939981460571,-0.3577307164669037,-0.617070734500885,-2.0511813163757324,1.021671175956726,-1.9172155857086182
0.43265073308521934,-0.826539083153047,-1.8423083770686097,4.9517130851745605,2.1333792209625244,-5.131265163421631,-0.6678120493888855,-0.4192787706851959,-0.6150059103965759,-1.9804270267486572,1.2193886041641235,-1.6200709342956543
0.508957990739661,-0.8079839902515754,-1.8398383635327797,5.760779857635498,1.7819730043411255,-5.66626501083374,-0.6312706470489502,-0.4872675836086273,-0.6033802628517151,-1.9422004222869873,1.4118127822875977,-1.3329752683639526
0.5942547406509612,-0.793630879678813,-1.8372425572305697,6.36395263671875,1.3395676612854004,-6.230781555175781,-0.5906881093978882,-0.559891402721405,-0.5810413956642151,-1.9140267372131348,1.5776069164276123,-1.0217570066452026
0.687005541414176,-0.7833348422826584,-1.8363775159196545,6.7514567375183105,0.8371067643165588,-6.790891170501709,-0.5455694794654846,-0.6342248916625977,-0.5478255152702332,-1.857033610343933,1.7344598770141602,-0.7224228382110596
0.7862951103274689,-0.7749412356658593,-1.839299144986539,7.016835689544678,0.4370051920413971,-7.422346591949463,-0.49430033564567566,-0.7077407240867615,-0.5047476887702942,-1.820015549659729,1.9189682006835938,-0.520917534828186
0.8915347057286406,-0.7656105909566977,-1.8486373221256864,7.159355640411377,0.044302526861429214,-8.07298755645752,-0.43534138798713684,-0.7780367732048035,-0.45292022824287415,-1.8001933097839355,2.1075503826141357,-0.38550442457199097
1.0015105693682542,-0.7508442618793517,-1.868456228009295,7.158892631530762,-0.32806599140167236,-8.667523384094238,-0.36775708198547363,-0.8422861695289612,-0.3940924406051636,-1.7239787578582764,2.332901954650879,-0.2798882722854614
1.1146568593261152,-0.7236097004348162,-1.9058451125542122,7.081937313079834,-0.7397295236587524,-9.181306838989258,-0.29164284467697144,-0.8977596759796143,-0.3301088809967041,-1.5954725742340088,2.5651333332061768,-0.16400113701820374
1.2291263944123387,-0.6679201463143278,-1.975732902518686,6.946376323699951,-0.9897465705871582,-9.572154998779297,-0.20752137899398804,-0.9421964287757874,-0.2630600929260254,-1.4770336151123047,2.784557819366455,-0.07745498418807983
1.3411452777946458,-0.5371190156551354,-2.1222811234190377,6.737369537353516,-0.9932181239128113,-9.804226875305176,-0.11647364497184753,-0.9737458825111389,-0.1955830305814743,-1.3320279121398926,2.996664524078369,-0.013874292373657227
1.43914464588592,-0.1610262814658565,-2.5133917560160404,6.504211902618408,-0.8380197286605835,-9.818382263183594,-0.021047020331025124,-0.9913464188575745,-0.12957383692264557,-1.1947885751724243,3.077543258666992,0.02035146951675415
1.4700531397844947,0.8520395764785512,2.7440678603546496,6.223560333251953,-0.5341909527778625,-9.710526466369629,0.07569348067045212,-0.9949296712875366,-0.06622200459241867,-1.1110786199569702,3.1013293266296387,0.05038344860076904
1.398432894992418,1.532944186694954,2.0538902660597427,5.8688459396362305,-0.2303788810968399,-9.566427230834961,0.17138859629631042,-0.9851821660995483,-0.0064905257895588875,-1.0813159942626953,3.095686435699463,0.1279810667037964
1.2988816654968667,1.7524404898028865,1.8276305405794016,5.436501502990723,-0.09315663576126099,-9.38467788696289,0.26415735483169556,-0.9632584452629089,0.04851742088794708,-1.0827304124832153,3.020738363265991,0.2161310911178589
1.1964138227635823,1.841880143219616,1.7330846999693457,4.970125675201416,0.026418503373861313,-9.155325889587402,0.35234349966049194,-0.9307336211204529,0.09792517870664597,-1.0887783765792847,2.896507978439331,0.23950769007205963
1.0959417715663156,1.885790282474868,1.6862724206858457,4.494856834411621,0.22354041039943695,-8.904356956481934,0.43471357226371765,-0.8893592357635498,0.1416482776403427,-1.110586404800415,2.77436900138855,0.22630226612091064
0.9988380000353536,1.9108454700985804,1.6619154897414412,4.028539180755615,0.5756545066833496,-8.652877807617188,0.510284960269928,-0.840842604637146,0.18053482472896576,-1.1220252513885498,2.6435465812683105,0.23084209859371185
0.9053758334009989,1.9275086181397578,1.6505970407618529,3.5654447078704834,0.8650431036949158,-8.44974422454834,0.5785253047943115,-0.7866572737693787,0.2155897468328476,-1.163379430770874,2.5650691986083984,0.2622849941253662
0.8147622953438588,1.9383608361692934,1.6483302033238945,3.116067409515381,0.9323568940162659,-8.365418434143066,0.6402174830436707,-0.7275625467300415,0.2465246468782425,-1.233402967453003,2.4286885261535645,0.3073999881744385
0.7256697790600666,1.9448741575654969,1.65285333862492,2.7336313724517822,0.9956758618354797,-8.445455551147461,0.6963233351707458,-0.6636366248130798,0.2733500003814697,-1.2628669738769531,2.282792568206787,0.3793446719646454
0.6363036700156607,1.9491807774317749,1.6619590715727992,2.5326125621795654,0.9750943779945374,-8.664748191833496,0.7474040389060974,-0.5942265391349792,0.2971234917640686,-1.2512949705123901,2.246936321258545,0.41984131932258606
0.5443565989675041,1.9512777603717275,1.6728660113333504,2.6200685501098633,0.5940726399421692,-9.04965591430664,0.7942833304405212,-0.5178678035736084,0.31769034266471863,-1.2023794651031494,2.211761236190796,0.4088722765445709
0.44747046179426303,1.9487893158472405,1.68297327684155,2.9079113006591797,-0.16359882056713104,-9.558846473693848,0.8379020094871521,-0.4326864182949066,0.3327203392982483,-1.0902670621871948,2.177971363067627,0.37583687901496887
0.3445415555155754,1.9394830417219655,1.6910418674521994,3.1941606998443604,-1.0821382999420166,-10.074281692504883,0.8779810070991516,-0.3377652168273926,0.3392106592655182,-0.8870295882225037,2.232861042022705,0.4096296727657318
0.23693041769749976,1.9216543095257674,1.6967092888838697,3.3347723484039307,-2.156813859939575,-10.338919639587402,0.9128431081771851,-0.2347199022769928,0.3341015875339508,-0.5144361853599548,2.3801209926605225,0.5364886522293091
0.12918931456325944,1.8944168258323084,1.70021712372754,3.0515260696411133,-3.094313144683838,-10.065963745117188,0.9401894807815552,-0.12883025407791138,0.3153511583805084,0.12003684043884277,2.5645601749420166,0.725908637046814
0.02966368668611769,1.8604310150263683,1.7047672610376992,1.995149850845337,-3.5123162269592285,-9.016955375671387,0.9579266905784607,-0.029659336432814598,0.2854765057563782,1.055272102355957,2.723278045654297,0.9974825382232666
-0.052910127306383635,1.8281292883153315,1.7146391337860953,0.548258364200592,-2.816544532775879,-7.290541648864746,0.9657189249992371,0.05288544297218323,0.25414609909057617,2.1045784950256348,2.8023695945739746,1.1570783853530884
-0.11330861854469933,1.8075327282972231,1.7309548075384884,-0.7020374536514282,-1.5645724534988403,-5.145448207855225,0.9658750891685486,0.11306631565093994,0.2330274134874344,3.0182712078094482,2.9015822410583496,1.0670368671417236
-0.1501496117666599,1.8005427565199892,1.752096797741196,-1.6392158269882202,-0.42328307032585144,-2.9917545318603516,0.9627685546875,0.14958606660366058,0.2251683622598648,3.6084136962890625,2.8555715084075928,0.7785853147506714
-0.16534488743669212,1.8041411659529591,1.776559208836974,-2.3044593334198,0.30387628078460693,-1.09538996219635,0.9596297144889832,0.16459251940250397,0.22807937860488892,3.8250231742858887,2.7821695804595947,0.5506682395935059
-0.16235799859787284,1.8126655537574052,1.801149846520703,-2.4535350799560547,0.4966396391391754,0.46694520115852356,0.9581237435340881,0.16164563596248627,0.23636795580387115,3.782827854156494,2.760061502456665,0.3142149746417999
-0.14599216830489725,1.8193700684929173,1.82135901306237,-2.1663551330566406,0.1576261669397354,1.6971522569656372,0.9589534401893616,0.1454741209745407,0.24340465664863586,3.526337146759033,2.7021210193634033,0.03004816174507141
-0.1194763997238202,1.8198186451749743,1.8348886531088955,-1.7215113639831543,-0.43244415521621704,2.757660150527954,0.9622449278831482,0.11919235438108444,0.2446996122598648,3.218815803527832,2.6191956996917725,-0.14412881433963776
-0.08382251756288293,1.8136590123849101,1.8416230947938295,-1.3221369981765747,-0.9073640704154968,3.810502767562866,0.9672455191612244,0.08372439444065094,0.23963792622089386,2.9026732444763184,2.560944080352783,-0.2127823829650879
-0.038717505382231385,1.8034053066821876,1.8431149735264305,-1.1109038591384888,-1.1174590587615967,4.851499080657959,0.9723390936851501,0.038707833737134933,0.2303442806005478,2.5278592109680176,2.504230499267578,-0.19608819484710693
0.015985196357465713,1.7922849969589385,1.8418543522781907,-1.1226459741592407,-1.0867059230804443,5.8210296630859375,0.9754469990730286,-0.015984514728188515,0.2196541428565979,2.065263509750366,2.4544458389282227,-0.08008190989494324
0.08002947912696057,1.7817183989889118,1.8401794026653064,-1.3030270338058472,-1.0269505977630615,6.708039283752441,0.9747087359428406,-0.07994408160448074,0.2086915671825409,1.5581893920898438,2.40785551071167,0.05972591042518616
0.15268053297691175,1.7721746731316406,1.8395481712942459,-1.546080231666565,-0.8756619691848755,7.482131481170654,0.9683939218521118,-0.15208803117275238,0.19769318401813507,1.0356801748275757,2.407794713973999,0.1978452205657959
0.23301793006291638,1.7640599968429753,1.8407335426359481,-1.8203229904174805,-0.7116132378578186,8.167305946350098,0.954859733581543,-0.23091493546962738,0.18687212467193604,0.555912971496582,2.430255889892578,0.28985822200775146
0.3199945261444416,1.7560773547472015,1.8440025716654334,-2.0505502223968506,-0.7233841419219971,8.727887153625488,0.932990550994873,-0.3145613670349121,0.17487110197544098,0.13965660333633423,2.461961269378662,0.3536781072616577
0.41216093639796375,1.7463061525778083,1.849281153397859,-2.2042906284332275,-0.8381472229957581,9.151630401611328,0.9021813273429871,-0.4005902409553528,0.15998780727386475,-0.2361811399459839,2.525712490081787,0.3819434642791748
0.507891583098008,1.7347751145305441,1.8566256220288144,-2.310591697692871,-0.7751514911651611,9.416136741638184,0.8620508313179016,-0.4863360524177551,0.14263883233070374,-0.5690514445304871,2.545067071914673,0.31669652462005615
0.6054379383576108,1.7228119715991304,1.8667861629565912,-2.458082675933838,-0.5222697257995605,9.494146347045898,0.8127707242965698,-0.5691222548484802,0.12451447546482086,-0.8237570524215698,2.5221405029296875,0.23067975044250488
0.7031737880723319,1.7099410081280748,1.8815187464285188,-2.6777119636535645,-0.2598314583301544,9.430413246154785,0.7554213404655457,-0.6466419100761414,0.10579652339220047,-1.004276990890503,2.489201784133911,0.2087329626083374
0.7998523291251289,1.6936903923731372,1.90301522846687,-2.946681022644043,-0.059994764626026154,9.25656795501709,0.6915574073791504,-0.7172532081604004,0.08541876077651978,-1.106001377105713,2.4317612648010254,0.21180713176727295
0.894442287384039,1.6702147580226032,1.9341530780652652,-3.2232906818389893,0.03607504069805145,9.007936477661133,0.6228631138801575,-0.7798600792884827,0.06212890148162842,-1.1559746265411377,2.383589267730713,0.23991882801055908
0.9856205939592421,1.63488034940344,1.9785436957923397,-3.4725921154022217,0.053010083734989166,8.706960678100586,0.5512123107910156,-0.8336150050163269,0.03537233546376228,-1.1646766662597656,2.35514497756958,0.2737555503845215
1.0738933062510176,1.5799206908616201,2.0424788708577575,-3.728449821472168,-0.06965485215187073,8.65605354309082,0.47668543457984924,-0.8790631294250488,0.004349572118371725,-1.144272804260254,2.359074115753174,0.29597389698028564
1.1597558005369724,1.4942403913306945,2.1365129823384463,-3.902364492416382,-0.12175977975130081,8.716043472290039,0.39839333295822144,-0.9167055487632751,-0.030559096485376358,-1.0915085077285767,2.391223192214966,0.2616535425186157
1.2405686270514806,1.3604682367341119,2.2791735311532877,-4.025641918182373,-0.012495073489844799,8.686880111694336,0.3171130120754242,-0.945968508720398,-0.06769901514053345,-1.027562141418457,2.372497320175171,0.21810495853424072
1.310005987968387,1.142459985170853,2.5071100745396766,-4.215847492218018,0.056848373264074326,8.521605491638184,0.2345498949289322,-0.9661865234375,-0.10709758847951889,-0.9927744269371033,2.30096435546875,0.21320724487304688
1.3556773749298319,0.7940670997529827,2.866048570204136,-4.552319526672363,0.10030689835548401,8.379220008850098,0.15224431455135345,-0.976951003074646,-0.14962734282016754,-0.9727246761322021,2.256080150604248,0.23826570808887482
1.360557632117353,0.3467654915075724,-2.9583529383040643,-4.993066310882568,0.1998748481273651,8.248628616333008,0.07092580199241638,-0.9779811501502991,-0.1962706744670868,-0.9085723161697388,2.219787359237671,0.22784116864204407
1.3210633927889974,-0.03437723714555386,-2.565037560061037,-5.3920769691467285,0.22248882055282593,8.102798461914062,-0.008494488894939423,-0.9689784646034241,-0.24699898064136505,-0.82347571849823,2.145019054412842,0.18033340573310852
1.2530597874696743,-0.2764835563236187,-2.3106250731619244,-5.691168785095215,0.2676960527896881,7.978759765625,-0.08528192341327667,-0.9499449729919434,-0.30055204033851624,-0.719237744808197,2.0647521018981934,0.1218564510345459
1.1708768664607452,-0.4197841991846172,-2.154266875719254,-5.933566570281982,0.38911888003349304,7.878269195556641,-0.1586824655532837,-0.9210923314094543,-0.3555401861667633,-0.6095365285873413,1.986537218093872,0.04175853729248047
1.0812109809844845,-0.5061732128547269,-2.053978371522372,-6.208876132965088,0.43453046679496765,7.793715476989746,-0.2279980331659317,-0.8825279474258423,-0.4112924635410309,-0.5154101848602295,1.8908591270446777,-0.03615623712539673
0.9867183936233392,-0.5609684030059013,-1.9856348921790876,-6.43961763381958,0.37530097365379333,7.809159755706787,-0.2933644950389862,-0.8342208862304688,-0.46691828966140747,-0.4381418228149414,1.8418502807617188,-0.09327754378318787
0.88887591973438,-0.5996221451170944,-1.9328998673981974,-6.411146640777588,0.40729546546936035,8.125571250915527,-0.355689138174057,-0.776363730430603,-0.5203311443328857,-0.3612755835056305,1.893520712852478,-0.19623678922653198
0.7893792529825758,-0.6317992445818604,-1.884882631637093,-6.048701763153076,0.25431308150291443,8.53987979888916,-0.4159497618675232,-0.7099162340164185,-0.5683351159095764,-0.3198443353176117,1.926850438117981,-0.4428800344467163
0.6904560019626426,-0.6630189030256837,-1.8378049616630387,-5.484301567077637,-0.16151350736618042,8.868038177490234,-0.4745224416255951,-0.6368888020515442,-0.6076192855834961,-0.3957473635673523,1.8624441623687744,-0.6790475845336914
0.5931599035174554,-0.6944790576576266,-1.79083752934204,-4.918196678161621,-0.4819660782814026,9.13869571685791,-0.5306620001792908,-0.5589839220046997,-0.6371301412582397,-0.5523915886878967,1.8151179552078247,-0.838165819644928
0.4969913794516644,-0.72393381741773,-1.7445509084770556,-4.509121417999268,-0.5577258467674255,9.310844421386719,-0.5822081565856934,-0.47678306698799133,-0.6585678458213806,-0.7635712623596191,1.739814043045044,-0.9310011863708496
0.4014254722077282,-0.7473024138339264,-1.7006825926673452,-4.367400169372559,-0.26305240392684937,9.28275203704834,-0.625632643699646,-0.3907308876514435,-0.6752133369445801,-1.114708423614502,1.6407461166381836,-0.9671510457992554
0.30598775897766056,-0.7606645451427587,-1.662095389113992,-4.582769393920898,0.3070048391819,8.960084915161133,-0.6573801636695862,-0.3012351989746094,-0.690730631351471,-1.580122947692871,1.5815391540527344,-0.940891683101654
0.21201744723300758,-0.7616975144163735,-1.631176998662674,-4.844732761383057,1.081578016281128,8.215230941772461,-0.6746972799301147,-0.21043260395526886,-0.7074614763259888,-2.1356663703918457,1.493544101715088,-1.0241059064865112
0.1239184956841989,-0.7512384037417059,-1.608864576800446,-4.853372573852539,1.7217363119125366,6.974582672119141,-0.6773105263710022,-0.12360159307718277,-0.7252399921417236,-2.7532315254211426,1.3189598321914673,-1.3486735820770264
0.04781702766425161,-0.733801002425825,-1.594617137150442,-4.326693534851074,1.9177441596984863,5.32516622543335,-0.6689317226409912,-0.04779880866408348,-0.7417854070663452,-3.3970625400543213,1.1957632303237915,-1.8477989435195923
-0.009519660759114593,-0.7167532544943335,-1.5871179261923012,-3.1568264961242676,1.4334063529968262,3.339756727218628,-0.6569105386734009,0.009519517421722412,-0.7539084553718567,-3.8978381156921387,1.0072345733642578,-2.4399237632751465
-0.04205135294926795,-0.7067615256727131,-1.5851954698907063,-1.4537482261657715,0.52517169713974,1.1823660135269165,-0.6488003134727478,0.04203896224498749,-0.7597965598106384,-4.19002103805542,0.7853078246116638,-2.9822535514831543
-0.046889578002492806,-0.7058236227629736,-1.5874175856070525,0.4223962128162384,-0.27987828850746155,-0.8687859177589417,-0.6479479074478149,0.046872396022081375,-0.7602410316467285,-4.217149257659912,0.6536281108856201,-3.337064266204834
-0.02593698650138584,-0.7113234630682885,-1.5926434189121212,2.017484426498413,-0.7197014689445496,-2.5864181518554688,-0.6526172757148743,0.02593407779932022,-0.7572437524795532,-3.932999849319458,0.639165997505188,-3.3681833744049072
0.015363484580267555,-0.7185049352903118,-1.600034553201247,3.1780643463134766,-0.6409944891929626,-3.8741936683654785,-0.6581822633743286,-0.015362880192697048,-0.7527018785476685,-3.4606380462646484,0.7726107835769653,-3.1241137981414795
0.07119521270880375,-0.7227365207932602,-1.6092418567174356,3.9274556636810303,-0.2689908444881439,-4.816993236541748,-0.6597639322280884,-0.07113508135080338,-0.7480985522270203,-2.935115337371826,0.9527115821838379,-2.743661642074585
0.13729293999967837,-0.7225462620037492,-1.6205050601210176,4.46274995803833,0.04882150515913963,-5.552015781402588,-0.6550741195678711,-0.13686203956604004,-0.7430657744407654,-2.450943946838379,1.1355650424957275,-2.323248863220215
0.21144464732921484,-0.718944571193451,-1.6334401585465994,4.963541030883789,0.21369993686676025,-6.086074352264404,-0.6439231634140015,-0.20987258851528168,-0.7357420921325684,-2.124417781829834,1.4009279012680054,-1.9668641090393066
0.2922980001022392,-0.7130265680414413,-1.6469956942493384,5.4861226081848145,0.2696118950843811,-6.455499172210693,-0.6263807415962219,-0.2881534993648529,-0.7243028879165649,-1.8744127750396729,1.6950596570968628,-1.7279369831085205
0.3796618877691668,-0.7063910492925297,-1.6602627497958713,6.115931510925293,0.17803294956684113,-6.782553672790527,-0.602870762348175,-0.3706064522266388,-0.7065392732620239,-1.6717722415924072,1.923630714416504,-1.5811651945114136
0.4745097202297373,-0.6999795700769945,-1.6726385983967347,6.863653659820557,0.08412033319473267,-7.164883613586426,-0.5730286240577698,-0.4569023847579956,-0.680351734161377,-1.527740478515625,2.0687949657440186,-1.513007640838623
0.5777011044278577,-0.6935033345165047,-1.684221008319019,7.6230974197387695,0.05497283488512039,-7.567255973815918,-0.5355002880096436,-0.5460995435714722,-0.6442163586616516,-1.414160966873169,2.1996030807495117,-1.4494572877883911
0.6889861512052079,-0.6862584704091899,-1.6956757872000432,8.305207252502441,0.03828425705432892,-7.969550609588623,-0.4891064763069153,-0.6357549428939819,-0.5971519947052002,-1.300337553024292,2.3689703941345215,-1.3192602396011353
0.8076159617448859,-0.6776366244751739,-1.7081019386131506,8.899206161499023,-0.023175107315182686,-8.344130516052246,-0.4333648383617401,-0.7226413488388062,-0.5385019779205322,-1.1967315673828125,2.5668492317199707,-1.1474416255950928
0.9326484222813164,-0.6674020743725323,-1.7230981334095556,9.384902000427246,-0.24578841030597687,-8.68554401397705,-0.36871251463890076,-0.8032004237174988,-0.4678889214992523,-1.0777748823165894,2.7676475048065186,-0.9498966932296753
1.062942251509628,-0.6546270302530437,-1.7436976914547062,9.738017082214355,-0.7108508944511414,-9.00846004486084,-0.2960922420024872,-0.8737900853157043,-0.3857721984386444,-0.9782912731170654,2.968104839324951,-0.7285008430480957
1.1974540151808737,-0.635100076381609,-1.7773601036601532,9.966573715209961,-1.5089075565338135,-9.393278121948242,-0.21637862920761108,-0.9311134815216064,-0.293611615896225,-0.9352174401283264,3.151069164276123,-0.5037668943405151
1.3349294966766994,-0.5861879612810826,-1.8484687248241,10.012138366699219,-2.2622900009155273,-9.796890258789062,-0.12927259504795074,-0.9723121523857117,-0.19467337429523468,-0.9522703886032104,3.3282692432403564,-0.34443485736846924
1.4702494023410748,-0.34543165426618044,-2.1178875139624087,9.823644638061523,-2.81089186668396,-10.21992015838623,-0.033988308161497116,-0.9949494004249573,-0.09444869309663773,-0.924645185470581,3.440521240234375,-0.2259553223848343
1.5015327142923975,1.593155584340637,2.193041483176024,9.447805404663086,-3.2484991550445557,-10.676922798156738,0.06919065862894058,-0.9976022243499756,0.0015473095700144768,-0.9227978587150574,3.4638497829437256,-0.12277829647064209
1.369481184412735,2.0301558622138844,1.718013632591873,8.943470001220703,-3.7075729370117188,-11.140545845031738,0.17922945320606232,-0.9798044562339783,0.08865608274936676,-0.9660184383392334,3.448249340057373,-0.05172980576753616
1.2284274904239592,2.0767071176928162,1.628822922310883,8.319737434387207,-4.169142246246338,-11.50422191619873,0.29366499185562134,-0.9419620633125305,0.16269108653068542,-1.0093022584915161,3.4287328720092773,-0.017503634095191956
1.0877097894068728,2.065670716529733,1.593482555776627,7.61934232711792,-4.478346347808838,-11.734436988830566,0.40878617763519287,-0.8855654001235962,0.22060787677764893,-1.0097230672836304,3.399252414703369,-0.007762908935546875
0.9488834168903515,2.0358438304957263,1.5745170918196643,6.936126708984375,-4.69427490234375,-11.905558586120605,0.5207197666168213,-0.8127654790878296,0.26127171516418457,-1.0385267734527588,3.327841281890869,-0.026026993989944458
0.8117598033383912,1.9973195926969103,1.5621393774239252,6.274240016937256,-4.877878665924072,-12.088980674743652,0.6265648007392883,-0.7254994511604309,0.2847233712673187,-1.056603193283081,3.1907551288604736,-0.060724347829818726
0.6760091020966742,1.9538580892791702,1.5532964840874155,5.574548721313477,-4.961426734924316,-12.270552635192871,0.7235395312309265,-0.6256847977638245,0.2915627658367157,-1.0633680820465088,3.080763101577759,-0.025510579347610474
0.5415902805023802,1.9081315255439504,1.5470672013905362,4.816392421722412,-4.8533220291137695,-12.447011947631836,0.8085956573486328,-0.5154993534088135,0.28360798954963684,-1.0258350372314453,2.9953882694244385,0.06246134638786316
0.4087854734816664,1.861945294690342,1.5433020505042103,3.986077070236206,-4.6827616691589355,-12.488290786743164,0.8789867162704468,-0.39749518036842346,0.2634011209011078,-0.9286081790924072,2.9455604553222656,0.19245532155036926
0.27983672291499784,1.8173405262812672,1.542313182973266,2.992159605026245,-4.216060638427734,-12.202862739562988,0.9320383071899414,-0.27619871497154236,0.2345605194568634,-0.6866924166679382,2.975158214569092,0.2948126494884491
0.15798187300453972,1.7789661635723697,1.5458471801617653,1.7663586139678955,-3.2229957580566406,-11.575319290161133,0.9662262797355652,-0.15732553601264954,0.20409587025642395,-0.3191622495651245,3.006995916366577,0.36386677622795105
0.0468707342967921,1.7531049755687262,1.5571967791688364,0.2833114564418793,-1.6383522748947144,-10.533172607421875,0.9823477864265442,-0.046853575855493546,0.18110135197639465,0.13572478294372559,3.031930446624756,0.45320653915405273
-0.04943433739780847,1.7462528493211518,1.5789390425753371,-1.1103750467300415,0.2347320020198822,-9.087647438049316,0.9834440350532532,0.04941420629620552,0.17434440553188324,0.799484372138977,3.0473570823669434,0.4784114360809326
-0.1278685911304784,1.7583801534188956,1.6090404051704457,-1.8503210544586182,1.5196375846862793,-7.325328826904297,0.9744368195533752,0.12752042710781097,0.1849631667137146,1.60454261302948,3.029324769973755,0.3438149690628052
-0.18662041291011794,1.7800952832370407,1.6397486008225803,-1.6711158752441406,1.6759153604507446,-5.339820384979248,0.9611926078796387,0.18553905189037323,0.20416659116744995,2.384220600128174,3.0691606998443604,0.023570775985717773
-0.22663456550787509,1.7979055706359912,1.6630806028185297,-1.0277706384658813,0.864335298538208,-3.4767019748687744,0.949406087398529,0.22469942271709442,0.21940411627292633,2.8579516410827637,3.0708327293395996,-0.35751140117645264
-0.2515381706821422,1.8055598248403173,1.6769499763453601,-0.48705384135246277,0.040980152785778046,-2.0287094116210938,0.9419631958007812,0.24889402091503143,0.22529278695583344,2.9348831176757812,3.0103681087493896,-0.41906416416168213
-0.264874801893959,1.804910321750992,1.6840523168402863,-0.2566958963871002,-0.5013769865036011,-0.8946067094802856,0.938797116279602,0.26178842782974243,0.2238910049200058,2.81097412109375,2.92795467376709,-0.30514392256736755
-0.26774308206720554,1.799148088876025,1.687209878493025,-0.21797779202461243,-0.7901110649108887,0.21149542927742004,0.9393361806869507,0.26455560326576233,0.21830682456493378,2.7060799598693848,2.9144909381866455,-0.1695702075958252
-0.2589607342427865,1.790777526865013,1.687771651923975,-0.29109713435173035,-0.8760801553726196,1.50748872756958,0.9433616995811462,0.25607606768608093,0.21093538403511047,2.7293219566345215,2.935375928878784,-0.06777739524841309
-0.23594762322321206,1.7825089348286898,1.686678093481231,-0.4979856014251709,-0.6919326782226562,3.034595012664795,0.9505844712257385,0.23376445472240448,0.20431245863437653,2.7977676391601562,2.9502413272857666,-0.004834294319152832
-0.19740511008105185,1.776889254753107,1.685144752171744,-0.8032211661338806,-0.3538895547389984,4.5284223556518555,0.9598276615142822,0.19612549245357513,0.2006627768278122,2.6945302486419678,2.917445659637451,0.015966281294822693
-0.14433340101542766,1.7749910654391619,1.6839195987677293,-1.104036808013916,0.01136617362499237,5.853452682495117,0.9690425395965576,0.14383278787136078,0.20067018270492554,2.3525514602661133,2.817455768585205,0.01193055510520935
-0.07873076463994086,1.7761794846172239,1.6826644075879698,-1.2926065921783447,0.22061395645141602,6.977855205535889,0.975950300693512,0.07864945381879807,0.2033105194568634,1.8770158290863037,2.714975357055664,0.0014472901821136475
-0.002686350905132022,1.778199348454314,1.6803252974369667,-1.3462070226669312,0.17122404277324677,7.938013076782227,0.9785653948783875,0.0026863475795835257,0.20591852068901062,1.3644368648529053,2.6264641284942627,0.0022419393062591553
0.08221095908535668,1.7789672588072498,1.6762573853444687,-1.358829379081726,-0.08562979847192764,8.77764892578125,0.9751061797142029,-0.08211838454008102,0.20597268640995026,0.8584052324295044,2.544886827468872,0.046896010637283325
0.17497705341906533,1.7764113803880357,1.6709268771388839,-1.4229049682617188,-0.5900875926017761,9.529003143310547,0.9639875888824463,-0.17408554255962372,0.20105169713497162,0.4017043709754944,2.5132274627685547,0.1817454993724823
0.27515370797819155,1.768561035038273,1.6654387453756259,-1.54825758934021,-1.2155760526657104,10.251327514648438,0.9436247944831848,-0.2716948688030243,0.18908725678920746,-0.013845860958099365,2.5419585704803467,0.3465878665447235
0.38277990792178457,1.7554505277132166,1.6611255484574194,-1.744918704032898,-1.618316888809204,10.962279319763184,0.9118598103523254,-0.37350064516067505,0.17031896114349365,-0.37177520990371704,2.6084096431732178,0.43286094069480896
0.4977317250313723,1.739868419928018,1.6598825289794528,-2.086071729660034,-1.5171122550964355,11.63857650756836,0.8661391735076904,-0.4774337112903595,0.14785145223140717,-0.6614272594451904,2.698350429534912,0.4612032175064087
0.6200326977680064,1.7247923581099764,1.6644927015401956,-2.6230504512786865,-0.9428752660751343,12.291818618774414,0.8042281866073608,-0.5810617804527283,0.12483633309602737,-0.8576645851135254,2.8040995597839355,0.4657094478607178
0.7489660266901835,1.7101296770521368,1.67887938381757,-3.3445098400115967,-0.13722319900989532,12.787456512451172,0.7252956032752991,-0.6808818578720093,0.10171695053577423,-1.0182490348815918,2.9588208198547363,0.44134342670440674
0.8825891325733617,1.690818687373427,1.7092560426012504,-4.223705768585205,0.7287917733192444,13.06048583984375,0.6305841207504272,-0.7723859548568726,0.07604972273111343,-1.2005609273910522,3.077226161956787,0.40235912799835205
1.0181930108416763,1.6556814262574815,1.767283378183072,-5.233902454376221,1.7385295629501343,13.112923622131348,0.5230150818824768,-0.8511609435081482,0.04450312629342079,-1.355717658996582,3.1259260177612305,0.3600989580154419
1.15181152374327,1.5803009819994644,1.8783621068126333,-6.347353935241699,2.8768129348754883,12.939620018005371,0.4068150222301483,-0.9135024547576904,0.003866753075271845,-1.4335484504699707,3.1103408336639404,0.27456045150756836
1.2742653902001202,1.3992823269606134,2.107488896712872,-7.627101421356201,3.9036550521850586,12.514324188232422,0.28791719675064087,-0.9563559293746948,-0.049871817231178284,-1.4454030990600586,3.0715291500091553,0.18855899572372437
1.358509395280014,0.9596080980393227,2.605131855237626,-9.010838508605957,4.640533447265625,11.979519844055176,0.1725528985261917,-0.9775516390800476,-0.12090592086315155,-1.3500736951828003,3.0102970600128174,0.13032066822052002
1.3494745286577163,0.30465356622300793,-2.958347879544303,-10.168790817260742,5.158827781677246,11.411686897277832,0.06584778428077698,-0.9756081700325012,-0.20941121876239777,-1.1610015630722046,2.946845054626465,-0.00068703293800354
1.2530698165125305,-0.08941313573633304,-2.4956882899785557,-11.021173477172852,5.343873500823975,10.791462898254395,-0.027896149083971977,-0.9499481320381165,-0.31115975975990295,-0.9847381114959717,2.9215667247772217,-0.16190844774246216
1.1226420448538108,-0.24678720319315622,-2.2695273853742446,-11.608046531677246,5.175652503967285,10.119879722595215,-0.10585147887468338,-0.9012483954429626,-0.42017483711242676,-0.844954252243042,2.92073392868042,-0.25794094800949097
0.9819759945631745,-0.30644415803195857,-2.1441690756406597,-11.897578239440918,4.641563892364502,9.42966079711914,-0.1675417721271515,-0.8315964341163635,-0.5295063853263855,-0.7372434139251709,2.8911361694335938,-0.37323397397994995
0.8401590890669053,-0.3279120360326275,-2.0636002074982702,-11.830639839172363,3.7613940238952637,8.734978675842285,-0.21492959558963776,-0.7447493076324463,-0.6317861080169678,-0.7326259613037109,2.834425210952759,-0.5468789935112
0.7022914647278488,-0.3359805521614731,-2.005482050920348,-11.406661987304688,2.7140846252441406,8.067292213439941,-0.2516773045063019,-0.6459686160087585,-0.7206823229789734,-0.825791597366333,2.757708787918091,-0.7565362453460693
0.5715734838018789,-0.34056751920826644,-1.960187655936464,-10.746309280395508,1.7818427085876465,7.430054187774658,-0.2809295356273651,-0.5409560799598694,-0.7927452921867371,-0.9766082763671875,2.6547865867614746,-1.0102941989898682
0.4495614265068983,-0.34456522494337066,-1.9227116586084212,-9.960947036743164,1.1181083917617798,6.887465953826904,-0.3042241930961609,-0.4345705807209015,-0.8477004766464233,-1.1315821409225464,2.5339205265045166,-1.3169876337051392
0.33743623085453855,-0.3475032380990293,-1.8899077937313915,-8.983871459960938,0.8468493223190308,6.367754936218262,-0.3213464915752411,-0.3310689926147461,-0.8872033357620239,-1.301563024520874,2.397994041442871,-1.721698522567749
0.23773478468274256,-0.34767547640827867,-1.8604116295813815,-7.748668670654297,0.7991478443145752,5.675873756408691,-0.33113035559654236,-0.2355017215013504,-0.9137240648269653,-1.5227973461151123,2.2118659019470215,-2.228396415710449
0.15348058055843508,-0.34492059640199035,-1.8343863327465233,-6.310491561889648,0.7413816452026367,4.8060736656188965,-0.33414730429649353,-0.15287871658802032,-0.9300395846366882,-1.7971088886260986,1.961838722229004,-2.7082507610321045
0.08697088787954918,-0.34068158908128565,-1.8118476904442538,-4.647154331207275,0.6347540020942688,3.835810661315918,-0.33286672830581665,-0.08686129003763199,-0.9389647841453552,-2.0226173400878906,1.7601553201675415,-3.089935302734375
0.04044996213684704,-0.3362779928266225,-1.7928289564984192,-2.8338141441345215,0.4782126843929291,2.8205859661102295,-0.3297059237957001,-0.0404389314353466,-0.9432172179222107,-2.20442795753479,1.5893585681915283,-3.396367073059082
0.014548622681134566,-0.33263130902525295,-1.777110821573544,-1.0268316268920898,0.3346264958381653,1.8368252515792847,-0.3264966607093811,-0.014548109844326973,-0.9450863599777222,-2.305232524871826,1.4983890056610107,-3.531125068664551
0.008557365408578302,-0.32996263813101645,-1.7649424255816752,0.6750169396400452,0.23176075518131256,0.8453935384750366,-0.32399582862854004,-0.00855726096779108,-0.9460198283195496,-2.329171895980835,1.4074372053146362,-3.511820077896118
0.021089419368348353,-0.32817908627749803,-1.7567309277811145,2.185905694961548,0.15313838422298431,-0.09106817841529846,-0.3222481608390808,-0.021087856963276863,-0.9464203119277954,-2.2480642795562744,1.2853243350982666,-3.3711607456207275
0.04923973275453381,-0.32672137319951905,-1.7522244747085443,3.3718068599700928,0.18865007162094116,-0.8271816372871399,-0.3205505907535553,-0.04921983927488327,-0.9459517598152161,-2.037893772125244,1.1958873271942139,-3.069200277328491
0.08894239055398852,-0.32404922442874257,-1.750285581846971,4.207949161529541,0.3853316903114319,-1.3126955032348633,-0.3171490430831909,-0.08882517367601395,-0.9442068338394165,-1.7475634813308716,1.1790655851364136,-2.6465981006622314
0.13658193966645799,-0.31880822394036223,-1.7502568129247442,4.782088756561279,0.666340708732605,-1.6744564771652222,-0.3105160892009735,-0.13615769147872925,-0.9407660961151123,-1.4618074893951416,1.1358983516693115,-2.235244035720825
0.19010536012891363,-0.31019920467392464,-1.752227667966663,5.231508255004883,0.9859445691108704,-1.9903502464294434,-0.29974907636642456,-0.18896235525608063,-0.9351169466972351,-1.2499183416366577,1.0911229848861694,-1.8883845806121826
0.24848736339602356,-0.2978973719764715,-1.7563441967475506,5.6323933601379395,1.2740825414657593,-2.2471883296966553,-0.2844958007335663,-0.24593806266784668,-0.926594078540802,-1.1171154975891113,1.1316955089569092,-1.5900532007217407
0.31148713950380325,-0.28238018482170046,-1.762327618880802,6.0815277099609375,1.480414628982544,-2.4404685497283936,-0.26523375511169434,-0.3064745366573334,-0.9141796231269836,-1.0028784275054932,1.2101610898971558,-1.347615361213684
0.37952539913508127,-0.26411986152063444,-1.7701227176473002,6.588369846343994,1.6183449029922485,-2.6316702365875244,-0.24248288571834564,-0.37047967314720154,-0.8966308236122131,-0.9267523884773254,1.3015862703323364,-1.175604224205017
0.45303360472053256,-0.24365751984365694,-1.7804151285239433,7.1322784423828125,1.6126044988632202,-2.8735811710357666,-0.21691687405109406,-0.43769511580467224,-0.8725652098655701,-0.8891470432281494,1.4219175577163696,-1.0189599990844727
0.5325984709359054,-0.22155363266056824,-1.7942677359312873,7.751563549041748,1.4568990468978882,-3.1505253314971924,-0.18930871784687042,-0.5077736377716064,-0.8404333591461182,-0.856971263885498,1.543006181716919,-0.8742272853851318
0.6188661476126147,-0.1984576090910176,-1.8130066778491363,8.42214584350586,1.0780798196792603,-3.501870632171631,-0.1605919897556305,-0.5801119804382324,-0.7985488772392273,-0.8217536211013794,1.691882610321045,-0.7438247203826904
0.7121832255095403,-0.17439097725023037,-1.8385777075924927,9.124165534973145,0.5625582933425903,-3.886470317840576,-0.13133491575717926,-0.6534879207611084,-0.7454560399055481,-0.7786382436752319,1.863830327987671,-0.6178098917007446
0.8126310681814258,-0.14719396134428622,-1.8735451729177726,9.830543518066406,0.038773663341999054,-4.291192531585693,-0.10084407776594162,-0.7260987758636475,-0.6801550984382629,-0.7289899587631226,2.0362794399261475,-0.5120598077774048
0.9194990735709684,-0.11224741431973817,-1.9220996446210434,10.468188285827637,-0.44553107023239136,-4.674006462097168,-0.06790367513895035,-0.7952980399131775,-0.6024036407470703,-0.6971873044967651,2.1915535926818848,-0.4347057342529297
1.0311242320527705,-0.06125436311779314,-1.991510114060334,11.008371353149414,-0.8460544943809509,-4.975828647613525,-0.03145616129040718,-0.8578771948814392,-0.5128909349441528,-0.6758955717086792,2.341214656829834,-0.3619258999824524
1.1449586423660476,0.023079414471585447,-2.098075148288896,11.451018333435059,-1.2012628316879272,-5.326104164123535,0.009532884694635868,-0.9106929898262024,-0.4129737615585327,-0.6610984802246094,2.4751157760620117,-0.3217673897743225
1.2558219499591508,0.1825895133589314,-2.284301495820198,11.812893867492676,-1.698701024055481,-5.781891822814941,0.05625096708536148,-0.9508042931556702,-0.3046421408653259,-0.6935343742370605,2.6282029151916504,-0.2703852355480194
1.3488072440496246,0.5225790734383496,-2.6575166352510973,12.056485176086426,-2.4183778762817383,-6.359349727630615,0.10989078879356384,-0.9754614233970642,-0.1907854527235031,-0.7344330549240112,2.769742488861084,-0.19130989909172058
1.3819701882979478,1.155410462443585,2.9514901268944724,12.119894027709961,-3.211265802383423,-6.9661078453063965,0.17174337804317474,-0.982225239276886,-0.07574734091758728,-0.7580013871192932,2.894227981567383,-0.10233788937330246
1.3237894865298336,1.7144076531322443,2.343312266664688,11.947233200073242,-3.930989980697632,-7.483091354370117,0.24198615550994873,-0.9696485996246338,0.034992851316928864,-0.7443360090255737,3.003049850463867,-0.02249586209654808
1.2162789775304192,1.9716763075158428,2.0296294819491787,11.505041122436523,-4.628293037414551,-7.933596611022949,0.3196161985397339,-0.9378141164779663,0.13546322286128998,-0.6911982893943787,3.0502867698669434,0.05582106113433838
1.0933091394682943,2.071372471794854,1.8672280902124794,10.925999641418457,-5.1419148445129395,-8.364356994628906,0.4031648635864258,-0.8881524801254272,0.22055166959762573,-0.6634035706520081,2.981963634490967,0.1164691150188446
0.9659469657199261,2.10079794887323,1.7696864875778389,10.270054817199707,-5.717262268066406,-8.753959655761719,0.49062445759773254,-0.822587788105011,0.28746628761291504,-0.6802912950515747,2.8006153106689453,0.057214587926864624
0.839104942963748,2.0921891970183237,1.7043217425313573,9.39254379272461,-6.201873779296875,-9.027573585510254,0.5793522000312805,-0.7440453767776489,0.33278730511665344,-0.7435826063156128,2.7805140018463135,0.15726396441459656
0.7160644067226797,2.062303733064978,1.6572067738786755,8.332645416259766,-6.303066730499268,-9.149433135986328,0.6650913953781128,-0.6564207673072815,0.35604068636894226,-0.7267979979515076,2.6028778553009033,0.21678945422172546
0.5986703844226047,2.021472384100556,1.6227317612896284,7.134053707122803,-6.001500606536865,-9.233126640319824,0.7436034083366394,-0.5635445713996887,0.359821617603302,-0.7399718761444092,2.4033424854278564,0.22304892539978027
0.48674889591930043,1.9766639671452444,1.5980885954696917,5.96848726272583,-5.4532341957092285,-9.312994003295898,0.8120537400245667,-0.4677548408508301,0.34896141290664673,-0.7947961091995239,2.177074909210205,0.21536967158317566
0.3794310292144934,1.932662303178513,1.5810597096676025,4.90695333480835,-4.724196434020996,-9.36292839050293,0.8687194585800171,-0.3703920245170593,0.3288404643535614,-0.8505616188049316,1.990783929824829,0.17071697115898132
0.2763624126868404,1.893103991536884,1.5703701827000893,3.8769302368164062,-3.842907190322876,-9.3018798828125,0.9125151038169861,-0.2728579044342041,0.3047366738319397,-0.8463836908340454,1.900207757949829,0.1518368422985077
0.17801889585494776,1.8603607794336043,1.5659744957102186,2.833956003189087,-2.8803048133850098,-9.128080368041992,0.94322270154953,-0.17708012461662292,0.2810223698616028,-0.7237250804901123,1.8303394317626953,0.1938464343547821
0.08457755212212341,1.836574314737648,1.5682735752211765,1.837743878364563,-1.7982736825942993,-8.906936645507812,0.961439311504364,-0.08447675406932831,0.26172110438346863,-0.5931532979011536,1.7749216556549072,0.25187453627586365
-0.004090513141536165,1.8234892523599673,1.5774147354430073,0.9305089712142944,-0.7688531875610352,-8.6385498046875,0.968234658241272,0.004090501926839352,0.2500101923942566,-0.4738956093788147,1.7533711194992065,0.29956570267677307
-0.08764980447516658,1.8209070416778432,1.5938072842700737,0.03825705870985985,0.06719060987234116,-8.300050735473633,0.9651656746864319,0.08753761649131775,0.24656109511852264,-0.30975496768951416,1.7848225831985474,0.39929771423339844
-0.16514159365628972,1.827828215245137,1.6181527882611766,-0.8108750581741333,0.6606202125549316,-7.843173503875732,0.9539905786514282,0.16439199447631836,0.2507525086402893,-0.08410251140594482,1.8733735084533691,0.5519208312034607
-0.23511216274627658,1.8425473824006973,1.6490004319782186,-1.2963483333587646,1.0090991258621216,-7.164770126342773,0.9368002414703369,0.2329520583152771,0.2610339820384979,0.26984959840774536,1.9461556673049927,0.5879344940185547
-0.29661293190615834,1.8614049657522997,1.681255662948484,-1.1978453397750854,0.9972582459449768,-6.318424224853516,0.9162325263023376,0.29228273034095764,0.2740229368209839,0.7342342734336853,1.9779350757598877,0.4175359904766083
-0.34962448578632266,1.8775050577499177,1.7093945476212522,-0.7496349215507507,0.3430415689945221,-5.333883285522461,0.8956573605537415,0.3425450325012207,0.2836567759513855,1.1822236776351929,1.9546352624893188,0.15332454442977905
-0.3941984532738778,1.8830164620779986,1.7301135576190918,-0.2019413858652115,-0.7571780681610107,-4.310565948486328,0.8786665797233582,0.38406825065612793,0.28361353278160095,1.595668077468872,1.951716661453247,-0.00227200984954834
-0.4311016745298301,1.8755702096435638,1.7425460055363275,0.25392308831214905,-1.6552443504333496,-3.4020838737487793,0.8666372299194336,0.4178719222545624,0.27262213826179504,1.8520210981369019,1.9421744346618652,-0.07625678181648254
-0.46080880733698004,1.8599587367921904,1.7484852966684599,0.4133661687374115,-1.8708096742630005,-2.5858640670776367,0.8585068583488464,0.44467270374298096,0.2554064989089966,1.966536045074463,1.945967674255371,-0.06380173563957214
-0.48293621211419985,1.8443371317599389,1.75171421920983,0.2263163924217224,-1.4956629276275635,-1.8049124479293823,0.8527078628540039,0.4643815755844116,0.23924757540225983,2.0423574447631836,2.0239455699920654,0.044550806283950806
-0.4963206804237613,1.8335329638838593,1.7551885311514253,-0.10978671908378601,-0.9960691332817078,-0.913801372051239,0.8491641283035278,0.4761933982372284,0.22838608920574188,2.1603877544403076,2.1488218307495117,0.1571882963180542
-0.4995619666189992,1.8272150990994531,1.7590711849632064,-0.34670525789260864,-0.6894180774688721,0.12535102665424347,0.8490925431251526,0.47904106974601746,0.2226240187883377,2.336057662963867,2.3039941787719727,0.20060908794403076
-0.4918545479730252,1.821614771675526,1.7614223923033654,-0.42015478014945984,-0.6832400560379028,1.2631492614746094,0.8538771867752075,0.4722613990306854,0.21877521276474,2.515141248703003,2.410764694213867,0.18079136312007904
-0.4730968128458358,1.8140814199194042,1.761043638863993,-0.42756208777427673,-0.7814670205116272,2.365194797515869,0.8639479279518127,0.4556451439857483,0.21443304419517517,2.5517473220825195,2.4413275718688965,0.14289727807044983
-0.4442216299314695,1.8050107249137874,1.7581482077692905,-0.42763805389404297,-0.7445250749588013,3.327742099761963,0.878292441368103,0.42975518107414246,0.20955462753772736,2.395435094833374,2.41219425201416,0.10068705677986145
-0.4067529765393745,1.7963671686183924,1.7531798893824988,-0.3847920298576355,-0.5630439519882202,4.1346025466918945,0.8951437473297119,0.39562931656837463,0.20541417598724365,2.1261725425720215,2.3483128547668457,0.042785391211509705
-0.3620752005708411,1.7888458980428539,1.7460107947438261,-0.2717536985874176,-0.4123428463935852,4.840597629547119,0.9130203127861023,0.3542156517505646,0.2023000568151474,1.8334853649139404,2.2691211700439453,-0.020979762077331543
-0.3108373759534579,1.7816100276674163,1.7363114018839065,-0.11700620502233505,-0.4128030240535736,5.529581069946289,0.9309998750686646,0.30585598945617676,0.1992276906967163,1.5908050537109375,2.2045047283172607,-0.04007837176322937
-0.252955262593169,1.7735139749139741,1.7241368742285295,0.02391386218369007,-0.5250630378723145,6.2478227615356445,0.9483518004417419,0.25026625394821167,0.19492511451244354,1.3650637865066528,2.1670005321502686,0.013738900423049927
-0.18789948583663674,1.764896781681967,1.7102237111133787,0.05328613147139549,-0.5727837085723877,7.001073360443115,0.9639508724212646,0.18679577112197876,0.1894889771938324,1.0939714908599854,2.156130313873291,0.1241401731967926
-0.11502549915686788,1.7573191511825568,1.6963528415073577,-0.1499183177947998,-0.49307873845100403,7.792296886444092,0.9761614799499512,0.1147720217704773,0.18421773612499237,0.8020977973937988,2.157963514328003,0.2884995937347412
-0.03324722038491451,1.7528368841949262,1.6849329789660366,-0.6381596326828003,-0.20010440051555634,8.66011905670166,0.9829326868057251,0.03324109688401222,0.18093670904636383,0.5246660113334656,2.1870195865631104,0.4758320748806
0.05854486273779817,1.7531379408654566,1.6782200359167394,-1.384863018989563,0.27408239245414734,9.57979679107666,0.9817368388175964,-0.05851142480969429,0.18102218210697174,0.2503949999809265,2.2796876430511475,0.626732349395752
0.16075591159362726,1.7591015187570793,1.6778814015326828,-2.3080766201019287,0.9425129294395447,10.445343017578125,0.9696574807167053,-0.16006441414356232,0.1847807615995407,-0.04476124048233032,2.4239041805267334,0.7047151327133179
0.27271660594127944,1.7710921936138035,1.684377539255936,-3.222432851791382,1.7347421646118164,11.19525146484375,0.9437893033027649,-0.2693486213684082,0.1916062980890274,-0.35130584239959717,2.6147923469543457,0.6629774570465088
0.3929240912290844,1.7880540748165108,1.6967220343820002,-3.9910717010498047,2.441136121749878,11.73280143737793,0.9020771384239197,-0.38289129734039307,0.19912613928318024,-0.6243824362754822,2.7796196937561035,0.445298433303833
0.5187891225417655,1.8079738066495845,1.7137941834419255,-4.618181228637695,3.011707305908203,11.989861488342285,0.8441087603569031,-0.4958289563655853,0.20404405891895294,-0.8696062564849854,2.8954110145568848,0.16398273408412933
0.647443576656635,1.8283964355143736,1.7353020540036264,-5.111281871795654,3.393455982208252,11.966782569885254,0.7713098526000977,-0.6031492948532104,0.2032042294740677,-1.0339441299438477,2.974273681640625,-0.05725385248661041
0.776178285745073,1.845956672449286,1.7617067263355992,-5.472624778747559,3.516747236251831,11.715474128723145,0.6867517232894897,-0.7005574107170105,0.193884938955307,-1.1283564567565918,2.9749867916107178,-0.21074582636356354
0.9029244409424205,1.8559796798184909,1.7947780783086857,-5.747735977172852,3.3653404712677,11.334822654724121,0.5943021774291992,-0.7851414084434509,0.17423436045646667,-1.1921263933181763,2.9201817512512207,-0.3135775327682495
1.026394901609805,1.8510219749300534,1.8402412541722557,-6.0999755859375,3.1102142333984375,10.838902473449707,0.4977041780948639,-0.8554374575614929,0.1432385891675949,-1.214165449142456,2.8460991382598877,-0.37016725540161133
1.145323865525088,1.8169314243749959,1.9124666004354225,-6.557040214538574,2.85665225982666,10.299859046936035,0.40031129121780396,-0.9108438491821289,0.10056983679533005,-1.1623505353927612,2.775620460510254,-0.33528053760528564
1.2578850738620726,1.7242065900502535,2.0413838443606402,-6.964128017425537,2.685246229171753,9.812699317932129,0.3042145073413849,-0.9514414072036743,0.047039225697517395,-1.0486146211624146,2.6862895488739014,-0.295665979385376
1.3579588715539097,1.499970771767298,2.300848218920389,-7.2470316886901855,2.6580984592437744,9.417786598205566,0.2107042819261551,-0.9774354696273804,-0.014948250725865364,-0.9394335746765137,2.6105380058288574,-0.30667644739151
1.423721137619119,0.9659076138850827,2.8703154738979806,-7.526073455810547,2.719359874725342,9.130266189575195,0.12054309248924255,-0.989203929901123,-0.0833359956741333,-0.8286272287368774,2.5889811515808105,-0.2900618314743042
1.4087302789643055,0.21490595109013952,-2.625919110415165,-7.896698951721191,2.7577412128448486,8.89183235168457,0.03441021218895912,-0.9868960380554199,-0.15764492750167847,-0.7381150722503662,2.5683016777038574,-0.21813318133354187
1.3262697492192494,-0.19062154902043998,-2.1842956475571498,-8.376388549804688,2.7493228912353516,8.527032852172852,-0.04586983844637871,-0.9702520370483398,-0.2377113401889801,-0.7086925506591797,2.5153722763061523,-0.12251803278923035
1.219893757071791,-0.34906404450726664,-1.9900464788122532,-8.953826904296875,2.759395122528076,8.024627685546875,-0.11756729334592819,-0.9390628337860107,-0.3230153024196625,-0.7478960156440735,2.4366672039031982,-0.010465472936630249
1.1047489823010692,-0.4084744145409471,-1.894834904510415,-9.55845832824707,2.8626983165740967,7.460927486419678,-0.17848965525627136,-0.8933514356613159,-0.41238901019096375,-0.7747727036476135,2.3633525371551514,0.022542238235473633
0.9854361812034639,-0.4240024820503316,-1.842736173750316,-10.052526473999023,3.0498545169830322,6.929963111877441,-0.2273048460483551,-0.8335131406784058,-0.5035755038261414,-0.7619682550430298,2.3296985626220703,-0.04798388481140137
0.8646150172983728,-0.4181803960615384,-1.8107110033018903,-10.32316780090332,3.2052998542785645,6.4311909675598145,-0.26353058218955994,-0.7608454823493958,-0.5930140018463135,-0.7484475374221802,2.34879732131958,-0.23768961429595947
0.7446491132011285,-0.402765397756325,-1.7879865902653966,-10.309467315673828,3.0831332206726074,5.99445104598999,-0.28822118043899536,-0.6777138113975525,-0.6764853596687317,-0.7521688938140869,2.3678383827209473,-0.5175148248672485
0.6284899806577873,-0.3859931768514087,-1.7694308125619682,-9.920512199401855,2.5664122104644775,5.534760475158691,-0.3045403063297272,-0.5879239439964294,-0.7494001388549805,-0.7337592840194702,2.2692441940307617,-0.8590134978294373
0.5199031144389632,-0.3726603513878822,-1.7529674045261392,-9.119498252868652,1.8589413166046143,5.032516002655029,-0.31598567962646484,-0.49679604172706604,-0.808298647403717,-0.7589807510375977,2.122528553009033,-1.2148793935775757
0.42228066962160754,-0.3652066667202734,-1.7376099298832708,-8.028820991516113,0.995858371257782,4.523382186889648,-0.3257697522640228,-0.4098418354988098,-0.851999819278717,-0.8402154445648193,1.9616148471832275,-1.5585683584213257
0.33799015011336725,-0.3651973840496781,-1.7231360026478417,-6.685371398925781,0.08089236170053482,3.963557720184326,-0.336928129196167,-0.3315916359424591,-0.8812073469161987,-0.9599164128303528,1.8021116256713867,-1.8421354293823242
0.26887223672371174,-0.37271292653433014,-1.7095183625551478,-5.2349019050598145,-0.7553616166114807,3.431053876876831,-0.351060152053833,-0.265644371509552,-0.8978807330131531,-1.144545316696167,1.6352121829986572,-2.118751287460327
0.21487396575734852,-0.38695121858749515,-1.6961217124434864,-3.807373523712158,-1.4144635200500488,2.956526279449463,-0.3686886131763458,-0.21322429180145264,-0.9047674536705017,-1.303049087524414,1.5066660642623901,-2.3676018714904785
0.17585804692399568,-0.40566422932888757,-1.6833442452853338,-2.4086382389068604,-1.7763339281082153,2.3229012489318848,-0.38854271173477173,-0.17495301365852356,-0.9046689867973328,-1.514808177947998,1.3251605033874512,-2.5709474086761475
0.15200698424796066,-0.42555022168128714,-1.672353890340467,-1.0914067029953003,-1.787038803100586,1.5609163045883179,-0.40806180238723755,-0.15142227709293365,-0.9003093242645264,-1.7921946048736572,1.12442946434021,-2.704259157180786
0.14228956260667877,-0.44316844509495756,-1.663952849082673,-0.0006988183595240116,-1.4400904178619385,0.7539611458778381,-0.424470454454422,-0.14180991053581238,-0.894267737865448,-1.9780869483947754,0.9438118934631348,-2.7186472415924072
0.14473842869265102,-0.4555729122713196,-1.6588043365705007,0.8554616570472717,-0.8755460977554321,-0.05235401168465614,-0.4353763163089752,-0.1442335993051529,-0.8886192440986633,-2.045718193054199,0.7951277494430542,-2.607215166091919
0.15749065645858198,-0.46189684263423963,-1.6572376134942104,1.5429314374923706,-0.35378703474998474,-0.7846571803092957,-0.44013163447380066,-0.15684041380882263,-0.8841296434402466,-2.018364429473877,0.6991530656814575,-2.431299924850464
0.17893805586618614,-0.4633332860821817,-1.6589638519582843,2.1246554851531982,-0.0087974164634943,-1.4178290367126465,-0.4397963881492615,-0.17798468470573425,-0.8802843689918518,-1.8793565034866333,0.6376098990440369,-2.2197065353393555
0.20812102237854704,-0.4615251582539178,-1.6635836708789757,2.6769611835479736,0.17435455322265625,-1.9811991453170776,-0.4357047379016876,-0.20662184059619904,-0.876052975654602,-1.7191109657287598,0.6245142817497253,-2.025024175643921
0.24464738366993855,-0.4576897553590488,-1.6709498007531725,3.2122015953063965,0.2526957094669342,-2.528442144393921,-0.4287189543247223,-0.24221421778202057,-0.8703632950782776,-1.547874093055725,0.6081504821777344,-1.8734720945358276
0.28811505594030723,-0.45239139729358246,-1.6811951727691277,3.6972572803497314,0.2598532736301422,-3.0455572605133057,-0.4191001355648041,-0.2841454744338989,-0.8623319268226624,-1.380521535873413,0.6229974031448364,-1.7291749715805054
0.3379494635155454,-0.44584560903173887,-1.694388820777374,4.16810417175293,0.23302780091762543,-3.5197255611419678,-0.4068295955657959,-0.33155325055122375,-0.8512121438980103,-1.235656976699829,0.7005412578582764,-1.5874779224395752
0.3941801070763439,-0.43809681240153964,-1.7104975966492462,4.694690227508545,0.15034237504005432,-3.98522686958313,-0.391684353351593,-0.38405129313468933,-0.8361148238182068,-1.1371395587921143,0.8252134323120117,-1.4951534271240234
0.4575365121439261,-0.42961806118678736,-1.7295503797691931,5.324924468994141,-0.04129098728299141,-4.4666547775268555,-0.3736814260482788,-0.44173935055732727,-0.8156154155731201,-1.1048647165298462,0.9823429584503174,-1.4421513080596924
0.5290729450478594,-0.42087942363317316,-1.751853457460049,6.059452056884766,-0.3398911952972412,-4.995190143585205,-0.35270261764526367,-0.5047332644462585,-0.7879372835159302,-1.0903363227844238,1.1495239734649658,-1.4134786128997803
0.6096456067691975,-0.41203572630774027,-1.7785170663238017,6.8448805809021,-0.7772759795188904,-5.601747035980225,-0.32833024859428406,-0.5725769400596619,-0.7512356042861938,-1.125633955001831,1.3484253883361816,-1.3818668127059937
0.7004460489632329,-0.4025401695226483,-1.810782670360825,7.766252517700195,-1.2455857992172241,-6.248924732208252,-0.29951947927474976,-0.6445587873458862,-0.7034429907798767,-1.17139732837677,1.5052154064178467,-1.367708683013916
0.8019915457961384,-0.39012465501960064,-1.849979601838576,8.692917823791504,-1.5950886011123657,-6.81808614730835,-0.26441630721092224,-0.7187421917915344,-0.6430347561836243,-1.17329740524292,1.6585919857025146,-1.3524333238601685
0.9129994599038518,-0.3702495210845541,-1.8987923976679273,9.46451187133789,-1.792877197265625,-7.300782203674316,-0.2212248295545578,-0.7913410663604736,-0.5699464082717896,-1.1037569046020508,1.8562519550323486,-1.265609622001648
1.03081455733967,-0.33417338511140415,-1.9649117459894074,9.970233917236328,-1.914878249168396,-7.773383617401123,-0.16862547397613525,-0.8577180504798889,-0.4856800138950348,-1.0525506734848022,2.0780396461486816,-1.0920329093933105
1.151393499693186,-0.26351019843253515,-2.0666715631853085,10.185471534729004,-2.0273776054382324,-8.244216918945312,-0.1060677319765091,-0.9133322834968567,-0.3931584656238556,-1.0212059020996094,2.3202385902404785,-0.8860467672348022
1.2681423200939648,-0.11423665548851984,-2.24839895999749,10.159831047058105,-2.1777586936950684,-8.659626007080078,-0.03397471830248833,-0.9545488357543945,-0.2961116135120392,-1.0005865097045898,2.573521614074707,-0.6985937356948853
1.3655756721463486,0.2298408356248377,-2.6262758925429517,9.966984748840332,-2.263302803039551,-9.025847434997559,0.04642641916871071,-0.9790160655975342,-0.19842429459095,-0.9582306742668152,2.777203321456909,-0.5728769302368164
1.4011268083347304,0.9119244127023803,2.941332158008226,9.685015678405762,-2.1024065017700195,-9.277922630310059,0.1335119605064392,-0.9856406450271606,-0.10337816178798676,-0.8727545738220215,2.9180901050567627,-0.48666393756866455
1.3442494931701043,1.5133532656373423,2.309568078314083,9.378326416015625,-1.6552116870880127,-9.360052108764648,0.22424374520778656,-0.9744478464126587,-0.0128954341635108,-0.7777258157730103,2.969992160797119,-0.43169987201690674
1.2419846241753,1.7970743994352338,2.0006144295228427,9.09145450592041,-1.1301006078720093,-9.291728019714355,0.31468647718429565,-0.9464267492294312,0.07244736701250076,-0.7224929332733154,2.9586949348449707,-0.39494192600250244
1.126816853337154,1.9344322420599636,1.8429579804171945,8.906041145324707,-0.6759529709815979,-9.184908866882324,0.4014487862586975,-0.9030494689941406,0.15277518332004547,-0.7000938653945923,2.902515411376953,-0.3648418188095093
1.007111078665574,2.0117217750887217,1.7480595027353687,8.857879638671875,-0.574626088142395,-9.213197708129883,0.48320236802101135,-0.845291793346405,0.2280287891626358,-0.7344536781311035,2.819992780685425,-0.3189558982849121
0.8839279001371224,2.0566490741962675,1.6833120050332504,8.887177467346191,-1.0420259237289429,-9.381256103515625,0.5607367157936096,-0.7732356190681458,0.29610973596572876,-0.8278723955154419,2.745617151260376,-0.20487740635871887
0.7579661618348235,2.076842464511886,1.6347520498127759,8.85654354095459,-2.065412998199463,-9.53386402130127,0.6352151036262512,-0.6874458193778992,0.3520229756832123,-0.8843606114387512,2.731421709060669,-0.019808650016784668
0.6318641266940167,2.0761819587623993,1.5952716669540523,8.584504127502441,-3.076739549636841,-9.48895263671875,0.7060521841049194,-0.5906500220298767,0.3906700611114502,-0.8301824331283569,2.724271297454834,0.18449485301971436
0.5093688787111845,2.060229950335236,1.5620383494983159,7.926189422607422,-3.616725206375122,-9.290827751159668,0.7705554962158203,-0.4876263439655304,0.4104447364807129,-0.7015705108642578,2.6180431842803955,0.3250594139099121
0.393313840073537,2.034954104427657,1.5354568008814213,6.889544486999512,-3.6900522708892822,-9.085661888122559,0.8259215950965881,-0.3832513093948364,0.41348764300346375,-0.6210876107215881,2.429607629776001,0.4060009717941284
0.28437172347620737,2.005365208455676,1.5169565660844613,5.678725719451904,-3.3955330848693848,-8.979171752929688,0.8706225156784058,-0.28055447340011597,0.4041103720664978,-0.6459981203079224,2.1906955242156982,0.4648318886756897
0.1813777091603412,1.9773490927817146,1.506643973341612,4.5341877937316895,-2.5961270332336426,-8.956769943237305,0.9034227132797241,-0.18038485944271088,0.388958603143692,-0.6731065511703491,1.963221788406372,0.42920243740081787
0.08297981416174234,1.9577665818251553,1.5044121403524877,3.437006950378418,-1.3318744897842407,-8.967930793762207,0.9228702187538147,-0.08288461714982986,0.37608590722084045,-0.6874881982803345,1.835265040397644,0.37902578711509705
-0.011282016800073829,1.9516245391895113,1.5113743731168958,2.2876620292663574,0.14562226831912994,-8.97602367401123,0.9282980561256409,0.011281777173280716,0.3716658055782318,-0.6159659028053284,1.8167974948883057,0.4598618745803833
-0.1009143723802903,1.960717144738904,1.5289188274466903,1.20973539352417,1.3949440717697144,-8.874100685119629,0.9202336668968201,0.10074318200349808,0.3781813979148865,-0.4363163113594055,1.894145131111145,0.6590043902397156
-0.1849698467599526,1.9825430771906734,1.5558160696298151,0.475929856300354,2.1100313663482666,-8.603702545166016,0.9007905721664429,0.18391689658164978,0.39338380098342896,-0.16607999801635742,2.01366925239563,0.7755768299102783
-0.26202394638737203,2.0121974785759096,1.5888388421333306,0.06870163232088089,2.2552649974823,-7.977120876312256,0.8732931613922119,0.25903594493865967,0.4126252233982086,0.25272923707962036,2.146573305130005,0.7711517214775085
-0.3288886827088046,2.0430607922858557,1.6233111226168055,-0.05144661292433739,1.8312400579452515,-6.817023277282715,0.8428090810775757,0.3229914605617523,0.43052199482917786,0.9524025917053223,2.2625644207000732,0.7158707976341248
-0.3824543285610822,2.068329244901388,1.6534791883657756,0.056459613144397736,1.0969929695129395,-5.224318504333496,0.8152732253074646,0.37319859862327576,0.44277769327163696,1.746799349784851,2.32051157951355,0.5745409727096558
-0.42175714210016935,2.0850024004896417,1.676092691221395,0.07553093880414963,0.5012194514274597,-3.6716277599334717,0.7943865060806274,0.409364253282547,0.4487440288066864,2.1913161277770996,2.3318161964416504,0.43216121196746826
-0.44780103329036314,2.0958983127995334,1.6932420864988253,-0.2158266007900238,0.28409141302108765,-2.411133289337158,0.7799583077430725,0.43298444151878357,0.4518737494945526,2.2612099647521973,2.285597801208496,0.4068757891654968
-0.46201416774371207,2.106133090540096,1.7077917408769503,-0.5918206572532654,0.5315715074539185,-1.3621275424957275,0.7699213027954102,0.44575199484825134,0.4566468298435211,2.2712621688842773,2.239108085632324,0.39248955249786377
-0.46553019905962206,2.119028551274862,1.719689444632721,-0.8370868563652039,0.9520630836486816,-0.33873993158340454,0.7626264691352844,0.4488966464996338,0.4657173454761505,2.2990646362304688,2.278459310531616,0.3005180358886719
-0.45932559262350386,2.132543014675879,1.7272576245925904,-0.9540560841560364,1.0004429817199707,0.6777704358100891,0.7586056590080261,0.4433436989784241,0.47745537757873535,2.344879388809204,2.316528797149658,0.23438233137130737
-0.4439792041104523,2.141469267793818,1.7294938202852324,-1.0218777656555176,0.5204370021820068,1.6838514804840088,0.7599502801895142,0.42953628301620483,0.48782607913017273,2.3716719150543213,2.3108506202697754,0.26133477687835693
-0.41995426842946454,2.1416297127998325,1.7262895680154202,-1.08011794090271,-0.21390077471733093,2.652238130569458,0.7683354616165161,0.407718688249588,0.4933827519416809,2.2914180755615234,2.293071746826172,0.3319042921066284
-0.3874914807379791,2.1338812868648556,1.7185979611984907,-1.2171742916107178,-0.6779126524925232,3.550441026687622,0.7829185724258423,0.37786707282066345,0.49422159790992737,2.1103155612945557,2.277238607406616,0.3460646867752075
-0.34671700472075945,2.1226814292754392,1.7080146410829369,-1.4151462316513062,-0.7517848610877991,4.378354549407959,0.8008655905723572,0.3398120105266571,0.49309447407722473,1.8723368644714355,2.263718843460083,0.27867984771728516
-0.2980052398745683,2.111847211390158,1.6955473355905295,-1.6113381385803223,-0.6061499118804932,5.136105060577393,0.8193872570991516,0.2936139404773712,0.4923362135887146,1.6115970611572266,2.2460436820983887,0.18039321899414062
-0.24196493104409705,2.1027640018811646,1.68138786974923,-1.74943208694458,-0.46152395009994507,5.851142883300781,0.836705207824707,0.23961077630519867,0.492453932762146,1.3583325147628784,2.214231252670288,0.08690708875656128
-0.17920527374297981,2.0949024645545595,1.6651678259351508,-1.8124505281448364,-0.44790083169937134,6.541494846343994,0.8519068360328674,0.1782476305961609,0.4924251139163971,1.0943058729171753,2.187062978744507,0.014746546745300293
-0.11040498133392128,2.0875531139726204,1.6467165415419118,-1.8489214181900024,-0.4858008325099945,7.152698040008545,0.8641324639320374,0.1101808249950409,0.49105483293533325,0.8005096912384033,2.1676511764526367,-0.018001973628997803
-0.03644676971705259,2.080923601163282,1.6266251506136091,-1.9215213060379028,-0.5535883903503418,7.634522438049316,0.8721027970314026,0.036438699811697006,0.48796406388282776,0.46027934551239014,2.160353899002075,-0.007647871971130371
0.042025046873259864,2.074796300601957,1.60600575623791,-2.094844341278076,-0.6848050355911255,8.029417991638184,0.874884843826294,-0.04201267659664154,0.4825056791305542,0.13376694917678833,2.1694388389587402,0.06319445371627808
0.12500306721062734,2.0688099087630505,1.585903594795848,-2.35652756690979,-0.8491828441619873,8.392694473266602,0.8716784119606018,-0.12467777729034424,0.4739542305469513,-0.10039228200912476,2.1485729217529297,0.12368685007095337
0.21263707414892352,2.062337817890488,1.5671078243616121,-2.6992380619049072,-1.0707011222839355,8.737909317016602,0.8617506623268127,-0.21103830635547638,0.4613553285598755,-0.27846813201904297,2.12656569480896,0.1607303023338318
0.30521953327987705,2.0548077977310015,1.5504401918304016,-3.1255412101745605,-1.2616177797317505,9.076299667358398,0.844225287437439,-0.30050256848335266,0.4438263177871704,-0.43449634313583374,2.1388814449310303,0.19295355677604675
0.40325680126585184,2.046802753952275,1.536701564649958,-3.6264700889587402,-1.2455542087554932,9.439937591552734,0.8175367712974548,-0.39241597056388855,0.4214772880077362,-0.5575729012489319,2.178091049194336,0.19632062315940857
0.5067156407649276,2.0399010849862362,1.5264966521249892,-4.1289591789245605,-0.9937024116516113,9.75110149383545,0.7798907160758972,-0.4853082001209259,0.3952799439430237,-0.6780384182929993,2.2583794593811035,0.13711446523666382
0.6147196317851843,2.035267354975094,1.519954244445422,-4.553585529327393,-0.605078399181366,9.964747428894043,0.7303878664970398,-0.5767294764518738,0.3659459948539734,-0.8087723255157471,2.350975751876831,0.018087238073349
0.725918332057947,2.033448287994431,1.5166966810901206,-4.88301944732666,-0.15620769560337067,10.092071533203125,0.669265866279602,-0.6638225317001343,0.33380040526390076,-0.9244233965873718,2.4359021186828613,-0.11361613869667053
0.8393678002657963,2.034317321922331,1.5159850519512947,-5.1135053634643555,0.1999431848526001,10.185653686523438,0.5974557399749756,-0.7442209720611572,0.298633337020874,-0.9876534938812256,2.4939005374908447,-0.22059977054595947
0.9543506742338346,2.0360562980607484,1.517059040123739,-5.267976760864258,0.2854410409927368,10.243647575378418,0.5166854858398438,-0.8159385323524475,0.2593849301338196,-1.0269851684570312,2.5354361534118652,-0.2469947338104248
1.0703215326748905,2.0359457943332466,1.5202184642733896,-5.406152725219727,0.23118466138839722,10.268242835998535,0.42886120080947876,-0.8773548603057861,0.21523632109165192,-1.087140679359436,2.565068483352661,-0.18844187259674072
1.187316913031941,2.0320279154642598,1.527775679629137,-5.60369873046875,0.40183281898498535,10.313468933105469,0.3350529670715332,-0.9273684024810791,0.16651584208011627,-1.1297612190246582,2.559112787246704,-0.10590790212154388
1.3056236084352748,2.0196650276239674,1.547786076718284,-5.916167736053467,0.9674105644226074,10.308457374572754,0.23611393570899963,-0.9650472402572632,0.11372677236795425,-1.1342768669128418,2.5302329063415527,-0.07045282423496246
1.4245815243376123,1.9647898933551584,1.617155190470629,-6.405360221862793,1.635019063949585,10.182587623596191,0.13453170657157898,-0.9893296360969543,0.055928997695446014,-1.1083171367645264,2.4723315238952637,-0.052388906478881836
1.535775498528206,1.2964877671251185,2.3064858732669142,-7.015340328216553,2.249946355819702,9.912532806396484,0.03370372951030731,-0.9993868470191956,-0.009484306909143925,-1.0664491653442383,2.413479804992676,0.004052222706377506
1.4663358071624477,-0.6476194982524918,-2.004773312785673,-7.608158588409424,2.97792911529541,9.633744239807129,-0.06290576606988907,-0.9945489764213562,-0.08315863460302353,-0.9896150231361389,2.3473472595214844,0.0027601048350334167
1.34396763456354,-0.7486971558832028,-1.8683125570846264,-8.132258415222168,3.7446064949035645,9.468814849853516,-0.15307804942131042,-0.9743844866752625,-0.16474780440330505,-0.894987165927887,2.3741495609283447,-0.08126954734325409
1.218199468778897,-0.7494756230076911,-1.8251626290892444,-8.520696640014648,4.315404891967773,9.412985801696777,-0.2352617383003235,-0.9384790658950806,-0.252801775932312,-0.8350202441215515,2.4139888286590576,-0.19945338368415833
1.0907823537756567,-0.7294403024124202,-1.7978891500204488,-8.742511749267578,4.614446640014648,9.312727928161621,-0.3077620565891266,-0.8869884610176086,-0.3442874848842621,-0.8526078462600708,2.373072624206543,-0.30974993109703064
0.9635607294961548,-0.7018527238184109,-1.7758241947081241,-8.910502433776855,4.623926639556885,9.017147064208984,-0.36839818954467773,-0.8212285041809082,-0.435736745595932,-0.9743447303771973,2.2954564094543457,-0.4129265546798706
0.8375564039706191,-0.6695991898318933,-1.7588716080074525,-9.232839584350586,4.414574146270752,8.47953987121582,-0.41540348529815674,-0.7430098652839661,-0.5247630476951599,-1.1014879941940308,2.1940901279449463,-0.4728412628173828
0.7128275405232526,-0.6349128297186606,-1.7489274493309253,-9.651464462280273,3.8658080101013184,7.710347652435303,-0.4486950635910034,-0.6539754867553711,-0.6090885400772095,-1.2152148485183716,2.061049461364746,-0.5338404774665833
0.5910515665755286,-0.6013002745689591,-1.7453224416749933,-9.74687671661377,3.285235643386841,6.79913330078125,-0.4697445034980774,-0.557234525680542,-0.6847114562988281,-1.3963444232940674,1.9262378215789795,-0.7512015700340271
0.476335544754493,-0.5707362898346191,-1.7464143274809956,-9.345200538635254,2.6676080226898193,5.650151252746582,-0.48011156916618347,-0.45852571725845337,-0.7478282451629639,-1.6308655738830566,1.7933950424194336,-1.2144672870635986
0.37447977165416246,-0.5463787269597561,-1.7521357080198774,-8.345272064208984,1.680393099784851,4.1826605796813965,-0.48358750343322754,-0.36578840017318726,-0.7951993346214294,-1.9880311489105225,1.587956428527832,-1.7781038284301758
0.2918568520770723,-0.5314116182140158,-1.7629034727856865,-6.770195960998535,0.62763911485672,2.5080769062042236,-0.48532095551490784,-0.2877310514450073,-0.8256357908248901,-2.3914644718170166,1.2524222135543823,-2.3885974884033203
0.23307960366376398,-0.5254306666731846,-1.7784102968166777,-4.833775043487549,-0.20362460613250732,0.8276365995407104,-0.4880225956439972,-0.230974942445755,-0.8417152166366577,-2.6355888843536377,0.8924891948699951,-2.9185996055603027
0.19911957726484888,-0.5265354773603321,-1.7976272015327595,-2.9227497577667236,-0.7976940274238586,-0.624535858631134,-0.49261143803596497,-0.19780638813972473,-0.8474707007408142,-2.64705228805542,0.6766271591186523,-3.198641300201416
0.18725482289187512,-0.5321948532275361,-1.8188327254137273,-1.2487444877624512,-1.0943200588226318,-1.7291656732559204,-0.4985555410385132,-0.18616241216659546,-0.8466321229934692,-2.445429563522339,0.6527761816978455,-3.2379627227783203
0.19366392448741512,-0.5393072949840247,-1.8405885984174064,0.13414771854877472,-1.1054589748382568,-2.556929111480713,-0.5039414167404175,-0.19245560467243195,-0.8420236706733704,-2.2276718616485596,0.7067835927009583,-3.0969104766845703
0.21438990959895787,-0.5453235208256154,-1.8619476437206777,1.211583137512207,-0.9263606071472168,-3.112069606781006,-0.5068199038505554,-0.2127513438463211,-0.8353863954544067,-1.9865882396697998,0.7624644637107849,-2.8662281036376953
0.24545591638583852,-0.5482878617464657,-1.8822275317934891,1.9969279766082764,-0.5660556554794312,-3.4479589462280273,-0.5056039094924927,-0.24299860000610352,-0.8278383612632751,-1.7127342224121094,0.8153252601623535,-2.5901150703430176
0.28364669921752794,-0.5469176492485568,-1.9013315504066304,2.56972599029541,-0.15634718537330627,-3.6392343044281006,-0.49927613139152527,-0.27985846996307373,-0.8200015425682068,-1.4257116317749023,0.8461884260177612,-2.297475814819336
0.3271406783083564,-0.5412615839595601,-1.9192595498093175,3.0785608291625977,0.19900211691856384,-3.764700174331665,-0.48789310455322266,-0.32133665680885315,-0.8116052746772766,-1.2185888290405273,0.8802355527877808,-2.016733407974243
0.3754394637156923,-0.5323056281681885,-1.9361781008742245,3.575273275375366,0.411984920501709,-3.8817875385284424,-0.47217071056365967,-0.36668142676353455,-0.8016231060028076,-1.1241427659988403,0.9146703481674194,-1.7744572162628174
0.428522546167676,-0.5213040270628513,-1.952510885814335,4.066415786743164,0.4973568022251129,-4.042380332946777,-0.45298153162002563,-0.4155274033546448,-0.7887614965438843,-1.0918030738830566,0.939849853515625,-1.5652270317077637
0.486808770775219,-0.5088832537626752,-1.9692072652577453,4.582071781158447,0.4984208345413208,-4.296811580657959,-0.43060415983200073,-0.4678077697753906,-0.7718393802642822,-1.1311482191085815,0.9895820617675781,-1.3958241939544678
0.5511656004944354,-0.4948636631405775,-1.9873914993837465,5.158969879150391,0.5041404962539673,-4.646575450897217,-0.40458422899246216,-0.523680567741394,-0.7497134208679199,-1.2207973003387451,1.039931297302246,-1.3014798164367676
0.6224018207856251,-0.4780039657701725,-2.0084174797375605,5.762868881225586,0.5427612066268921,-5.0906243324279785,-0.3737473785877228,-0.5829882621765137,-0.7214135527610779,-1.289994716644287,1.1046099662780762,-1.2421331405639648
0.7009247994864326,-0.4562150771706481,-2.0345036568169528,6.3623456954956055,0.5915132761001587,-5.632972717285156,-0.3366912603378296,-0.6449247598648071,-0.6860839128494263,-1.354394555091858,1.2159085273742676,-1.1597718000411987
0.7867840458845259,-0.42740797699369265,-2.0689909733250476,6.941596031188965,0.476975679397583,-6.269229412078857,-0.2926987111568451,-0.7080860733985901,-0.6426053047180176,-1.4222214221954346,1.3533954620361328,-1.0376315116882324
0.8793170530005389,-0.38783817378850804,-2.116830321079832,7.43095064163208,0.34927764534950256,-6.932613372802734,-0.24116194248199463,-0.7703035473823547,-0.5903162956237793,-1.4424165487289429,1.517099142074585,-0.8839573264122009
0.9765155572688554,-0.32954714076662023,-2.185706253674951,7.7939605712890625,0.2606102228164673,-7.569665431976318,-0.18119598925113678,-0.8285514116287231,-0.5297834873199463,-1.4079153537750244,1.7325736284255981,-0.6838852763175964
1.0747872169317583,-0.23880474689176598,-2.2891049438454933,7.962270259857178,0.17973692715168,-8.166465759277344,-0.11257468909025192,-0.8794888854026794,-0.4624135196208954,-1.3745163679122925,1.9465665817260742,-0.4937021732330322
1.1677340524678717,-0.09034315115118617,-2.4514488948390447,7.936452388763428,0.25033682584762573,-8.719334602355957,-0.03538776934146881,-0.9198641777038574,-0.39063766598701477,-1.3689701557159424,2.135486125946045,-0.30998486280441284
1.2440789545788669,0.15627598756291375,-2.7103938293919834,7.7327961921691895,0.6623544692993164,-9.134461402893066,0.04995066300034523,-0.9471009373664856,-0.3170247972011566,-1.3699427843093872,2.299670696258545,-0.137992262840271
1.285250249794328,0.5259626251276257,-3.087007523632443,7.378450393676758,1.3625174760818481,-9.364709854125977,0.14141695201396942,-0.9595080018043518,-0.24360963702201843,-1.3766160011291504,2.435185432434082,0.062121644616127014
1.2751881186644052,0.941836654828198,2.780510433101868,6.947277069091797,2.022679090499878,-9.454559326171875,0.23557423055171967,-0.9566251635551453,-0.17138557136058807,-1.3888335227966309,2.57405686378479,0.27316170930862427
1.2200095077901645,1.2725468804555298,2.455655679462113,6.525449752807617,2.3557469844818115,-9.412382125854492,0.32846617698669434,-0.9391026496887207,-0.10097681730985641,-1.3641107082366943,2.678375720977783,0.431360125541687
1.1395181014808968,1.4910741505145158,2.2450502379927326,6.190002918243408,2.2932658195495605,-9.252594947814941,0.4167047142982483,-0.908432126045227,-0.03329116478562355,-1.293581485748291,2.6793670654296875,0.495602011680603
1.0483235507632849,1.6323599950216785,2.1104970254227005,5.975772380828857,1.9960616827011108,-8.996316909790039,0.4980793595314026,-0.8665878772735596,0.030702389776706696,-1.2107868194580078,2.610041618347168,0.46932828426361084
0.9535794629890675,1.7281056294380186,2.0191345698896925,5.877739906311035,1.7492084503173828,-8.70788288116455,0.5716215968132019,-0.8154923915863037,0.09067054837942123,-1.1382262706756592,2.506425380706787,0.38889801502227783
0.8575847788500564,1.7972931342818221,1.9523249626920205,5.85349702835083,1.5560089349746704,-8.532060623168945,0.6375552415847778,-0.7562645673751831,0.14692533016204834,-1.1328556537628174,2.3826684951782227,0.3022477626800537
0.7600656325165102,1.8493245484795027,1.9011586807919008,5.82056999206543,1.437148094177246,-8.554393768310547,0.6968579888343811,-0.6889690160751343,0.19927456974983215,-1.1918227672576904,2.2396130561828613,0.23454806208610535
0.6603627276861804,1.889169622878266,1.8615969490520377,5.73544979095459,1.3398752212524414,-8.691883087158203,0.7500806450843811,-0.6134033799171448,0.24721534550189972,-1.2697339057922363,2.1320343017578125,0.2542189657688141
0.5584423724512199,1.9190288875945918,1.8310403126049755,5.634264945983887,1.096197247505188,-8.881071090698242,0.797177255153656,-0.5298658609390259,0.2893967628479004,-1.3199892044067383,2.1248669624328613,0.3368391990661621
0.45431104507819164,1.9398621737224273,1.807561124546612,5.478667259216309,0.7740450501441956,-9.124972343444824,0.838058590888977,-0.43884333968162537,0.3241517245769501,-1.319244384765625,2.1433568000793457,0.4379637539386749
0.3483013070068206,1.952469552579251,1.790406539958984,5.186789035797119,0.3783491253852844,-9.3702392578125,0.8723174333572388,-0.3413016200065613,0.35010823607444763,-1.2465543746948242,2.1488118171691895,0.563664436340332
0.24188182208571304,1.9576755844866576,1.778909774481952,4.794486999511719,0.009463032707571983,-9.443432807922363,0.8991315364837646,-0.23953008651733398,0.366316556930542,-1.0672986507415771,2.161008358001709,0.6622785329818726
0.13755535410364755,1.9582846355756507,1.7718911772832688,4.3199005126953125,-0.12120123952627182,-9.262605667114258,0.9171154499053955,-0.13712197542190552,0.37429484724998474,-0.7617047429084778,2.1659152507781982,0.7223390340805054
0.03851309577503856,1.9580797155845389,1.768815638114741,3.675065279006958,0.0661802738904953,-8.736715316772461,0.9252519011497498,-0.03850357607007027,0.37739434838294983,-0.33072370290756226,2.149374008178711,0.8017896413803101
-0.050922455453589054,1.9611324681663864,1.770152907773155,2.803915023803711,0.5685440301895142,-7.818848133087158,0.9235824346542358,0.050900451838970184,0.3800060749053955,0.24591213464736938,2.1339292526245117,0.948302149772644
-0.1268965383767416,1.97049036948447,1.7767169375175214,1.8137726783752441,1.1574254035949707,-6.647214412689209,0.9137732982635498,0.12655624747276306,0.3860076367855072,0.8358604907989502,2.132416009902954,1.1225372552871704
-0.18813122901843154,1.9858805411337144,1.7884032130727088,0.9247109889984131,1.5029324293136597,-5.499737739562988,0.8989362120628357,0.18702343106269836,0.3961515426635742,1.2206315994262695,2.0831334590911865,1.2528506517410278
-0.2362014403412505,2.004965243820615,1.8046368003760282,0.15200644731521606,1.5877610445022583,-4.556484699249268,0.8820300102233887,0.2340112328529358,0.40897658467292786,1.4199109077453613,1.954251766204834,1.293095588684082
-0.27290371337440256,2.0258580986666943,1.8247077982099182,-0.47981733083724976,1.5547820329666138,-3.7274298667907715,0.8649923205375671,0.2695288360118866,0.42325225472450256,1.5586678981781006,1.938631534576416,1.2647360563278198
-0.29963455673655753,2.0466804438582185,1.847013084207838,-0.9097139835357666,1.3085787296295166,-2.962055206298828,0.8492832779884338,0.2951710522174835,0.4377126097679138,1.7147884368896484,1.9825847148895264,1.1600658893585205
-0.31819313501378255,2.0649052643215207,1.8693336117196582,-1.084843397140503,0.9659438729286194,-2.298828363418579,0.8361977338790894,0.3128509223461151,0.4504410922527313,1.836851954460144,2.0474090576171875,0.9956036806106567
-0.330423084658127,2.079058433654576,1.8895070746384204,-1.0673991441726685,0.5624373555183411,-1.6642171144485474,0.8263348937034607,0.3244432508945465,0.46033403277397156,1.9509022235870361,2.111973285675049,0.7936180233955383
-0.3367278406275315,2.0878485834023457,1.9056366414868744,-0.9311802983283997,0.10860833525657654,-0.9236407279968262,0.8204619884490967,0.3304004669189453,0.4665592312812805,2.110964775085449,2.183713912963867,0.6221248507499695
-0.3366154072197745,2.0903681715223894,1.9159371223093609,-0.7648569941520691,-0.27083620429039,0.0013898583129048347,0.8193160891532898,0.33029434084892273,0.468643456697464,2.3183791637420654,2.2359745502471924,0.4821012020111084
-0.32834082226221134,2.087704994612638,1.9197149728196508,-0.684306800365448,-0.488931804895401,1.0964382886886597,0.8229093551635742,0.3224729299545288,0.46779459714889526,2.480282783508301,2.2537143230438232,0.39327430725097656
-0.30991417925068426,2.081690003130667,1.9173587513501713,-0.7491617202758789,-0.5500150918960571,2.335806369781494,0.8307508230209351,0.3049769103527069,0.4656629264354706,2.5422654151916504,2.255127429962158,0.37016767263412476
-0.2798979325999774,2.0740124950320533,1.9098701965802616,-0.9154364466667175,-0.544498085975647,3.574009418487549,0.8419439196586609,0.27625754475593567,0.4634782373905182,2.440175771713257,2.2517881393432617,0.378044068813324
-0.23875839394447898,2.0655668117737114,1.8987969775805267,-1.1410173177719116,-0.5870579481124878,4.620670318603516,0.8551120758056641,0.23649641871452332,0.4613599181175232,2.1145687103271484,2.2111964225769043,0.38750189542770386
-0.1879817618224009,2.056426599307111,1.8857828145778925,-1.3867655992507935,-0.6836909651756287,5.485142707824707,0.8688011169433594,0.1868765950202942,0.45854300260543823,1.673282504081726,2.1771981716156006,0.43153271079063416
-0.1288663788570633,2.0470071963850898,1.8718407828700494,-1.632746934890747,-0.7488451600074768,6.21820592880249,0.8813690543174744,0.1285099983215332,0.4546138644218445,1.245477318763733,2.140838146209717,0.4470279812812805
-0.06247832795161944,2.0377861009603695,1.8577563680029996,-1.8887227773666382,-0.8244355320930481,6.830994129180908,0.8911852240562439,0.06243768706917763,0.4493219554424286,0.865971028804779,2.099595308303833,0.43663376569747925
0.010261802667076759,2.028848827394258,1.8439679926643302,-2.1144027709960938,-0.8758271336555481,7.36212158203125,0.896868109703064,-0.01026162225753069,0.4421789050102234,0.5308509469032288,2.0740585327148438,0.41652464866638184
0.08844144612738916,2.020535269648309,1.8305535425035926,-2.3133270740509033,-0.9167769551277161,7.806704521179199,0.8970407247543335,-0.08832619339227676,0.433031290769577,0.22477006912231445,2.065148115158081,0.3717324435710907
0.1711670217979924,2.0125956868834285,1.817693104746492,-2.4997479915618896,-1.0076279640197754,8.157943725585938,0.8907734751701355,-0.1703324317932129,0.42131853103637695,-0.07418423891067505,2.071119785308838,0.33432719111442566
0.2574334814665591,2.0042614249001205,1.8056550631015682,-2.6604108810424805,-1.1744831800460815,8.399776458740234,0.8776102662086487,-0.2545994520187378,0.40617701411247253,-0.34187400341033936,2.0936954021453857,0.3015868365764618
0.3462489776867144,1.994734908950409,1.7943880918582638,-2.735715866088867,-1.3838624954223633,8.59499740600586,0.8573819994926453,-0.33937180042266846,0.38694071769714355,-0.5320493578910828,2.078812599182129,0.2141488790512085
0.437215734760602,1.9848791397850378,1.7830712262546282,-2.7358946800231934,-1.4148705005645752,8.825454711914062,0.829369843006134,-0.4234187602996826,0.36450302600860596,-0.628899872303009,2.03448748588562,0.0642690658569336
0.5306059933565631,1.9769715041849811,1.7712555046348935,-2.788311719894409,-1.2368156909942627,9.085747718811035,0.7923263311386108,-0.5060561299324036,0.34077274799346924,-0.6789078116416931,2.070265054702759,-0.02190983295440674
0.6269629742120452,1.9723610786763692,1.7596619078257703,-3.0040228366851807,-0.9240716099739075,9.334037780761719,0.7453930974006653,-0.5866880416870117,0.31652289628982544,-0.755250096321106,2.164523124694824,-0.030801922082901
0.7263004004925757,1.9710775112147698,1.750379546138358,-3.412592887878418,-0.47672009468078613,9.44002628326416,0.688537061214447,-0.6641082167625427,0.2913370430469513,-0.87153559923172,2.248260259628296,-0.00878995656967163
0.8275765514629151,1.9713258706627823,1.746690996512091,-3.996793270111084,0.018334394320845604,9.338678359985352,0.6231076717376709,-0.7362936735153198,0.26383474469184875,-1.0458524227142334,2.3122365474700928,0.013203918933868408
0.9299040314065837,1.9689747741162262,1.7535619551588868,-4.749658107757568,0.590181291103363,9.108463287353516,0.551135778427124,-0.8015625476837158,0.23183399438858032,-1.168658971786499,2.306094169616699,0.05170479416847229
1.0328779100884469,1.9582704781018379,1.7775855717898832,-5.548985481262207,1.308719277381897,8.819997787475586,0.4743672013282776,-0.8587770462036133,0.19359178841114044,-1.2093067169189453,2.2964906692504883,0.07465767860412598
1.1360490603460294,1.9307072730243067,1.8276301743312726,-6.287318706512451,2.0243592262268066,8.667978286743164,0.39419540762901306,-0.9069765210151672,0.14833620190620422,-1.223678469657898,2.3292481899261475,0.014109000563621521
1.2403583579743895,1.868837487273114,1.9205355103621842,-6.954462051391602,2.874840497970581,8.786561012268066,0.3101533353328705,-0.9459003210067749,0.09527640044689178,-1.1246064901351929,2.3242573738098145,-0.0910496711730957
1.3436734108886752,1.7245855374606547,2.105119696670944,-7.484336853027344,3.790607213973999,8.948077201843262,0.22251811623573303,-0.974318265914917,0.03449324890971184,-1.0015403032302856,2.358259677886963,-0.23603129386901855
1.432118259362062,1.3248942453440706,2.5545208525148504,-7.846701622009277,4.761759281158447,8.95141887664795,0.1340765804052353,-0.9903995990753174,-0.0336507223546505,-0.924832820892334,2.3863039016723633,-0.42992645502090454
1.4518842054814614,0.43319898717249516,-2.7781440722160142,-7.92275857925415,5.562020301818848,8.683111190795898,0.04979894310235977,-0.9929382801055908,-0.10767372697591782,-0.8675479888916016,2.3672821521759033,-0.5971602201461792
1.3833927798021601,-0.1387499672663275,-2.1420174015698827,-7.658824920654297,5.835301399230957,8.234039306640625,-0.025767438113689423,-0.9824913144111633,-0.18451803922653198,-0.8638047575950623,2.278008222579956,-0.8246524333953857
1.2916232428135752,-0.33573428059045873,-1.880528342049756,-7.1209845542907715,5.597416877746582,7.716779708862305,-0.09078695625066757,-0.9612836241722107,-0.2601758539676666,-0.8565702438354492,2.1592512130737305,-0.9565446376800537
1.2005250352441834,-0.4155860179485418,-1.74098136399484,-6.493852138519287,4.819613933563232,7.20100212097168,-0.1460956335067749,-0.932229220867157,-0.3310658931732178,-0.9146953821182251,2.0334103107452393,-0.9781534671783447
1.1132403406221287,-0.45740255611637715,-1.64844435411421,-6.204532623291016,3.7114920616149902,6.882802486419678,-0.195088192820549,-0.8971348404884338,-0.39634519815444946,-1.024836778640747,1.8585760593414307,-0.8829058408737183
1.0261618514261488,-0.48366102604683475,-1.5831965041058664,-6.472861289978027,2.511258840560913,6.5108160972595215,-0.24093107879161835,-0.855316698551178,-0.4586777985095978,-1.0579581260681152,1.6396338939666748,-0.6802533864974976
0.9389757147144817,-0.49631577428283224,-1.5408412553089674,-6.603692054748535,2.143447160720825,5.7568888664245605,-0.2812443673610687,-0.8069535493850708,-0.5193530321121216,-1.167043685913086,1.3944475650787354,-0.5386608242988586
0.8555245930222171,-0.49417441958111896,-1.513983096478219,-6.422232151031494,2.4823811054229736,5.16885232925415,-0.3110599219799042,-0.7549150586128235,-0.5773603320121765,-1.2777156829833984,1.0297868251800537,-0.6163957715034485
0.7766191082892663,-0.4826548361125392,-1.4940568384104986,-6.201883792877197,2.750635862350464,4.553689002990723,-0.33105963468551636,-0.7008718848228455,-0.6318053603172302,-1.037211298942566,0.6379752159118652,-0.7298430800437927
0.7036621642296568,-0.46102546169675446,-1.4822461920315517,-5.9165802001953125,3.1167428493499756,3.593173027038574,-0.33920103311538696,-0.647014319896698,-0.6828726530075073,-1.1152515411376953,0.8671833872795105,-0.7329903244972229
0.6392853800435507,-0.43364156959894684,-1.4778678158609344,-5.319229602813721,2.795008420944214,2.600909471511841,-0.3372022807598114,-0.596622109413147,-0.7282421588897705,-1.2723710536956787,1.0232120752334595,-0.8901354670524597
0.5856004245475372,-0.4103068140921006,-1.4776261239043993,-4.388491153717041,1.8632032871246338,1.8393319845199585,-0.3324276804924011,-0.552699863910675,-0.7642085552215576,-1.2300113439559937,0.922939121723175,-1.1995670795440674
0.5442137011135199,-0.39555323524564445,-1.478062969071374,-3.2118446826934814,1.0735042095184326,1.3743743896484375,-0.3296535611152649,-0.5177455544471741,-0.789473295211792,-1.0350925922393799,0.7623592019081116,-1.415421724319458
0.5151245934975633,-0.38842244784869545,-1.4757015820064834,-2.001235246658325,0.6285847425460815,1.24851655960083,-0.32958170771598816,-0.492643266916275,-0.8054057955741882,-0.8474202752113342,0.6214579939842224,-1.4110095500946045
0.4965452267377124,-0.38677824533480604,-1.4688292707505572,-1.0305227041244507,0.3580857217311859,1.2581349611282349,-0.33165276050567627,-0.4763908386230469,-0.8142839074134827,-0.717984139919281,0.4491691589355469,-1.3333754539489746
0.4844210230296709,-0.39057321560566893,-1.4594118334306672,-0.663349986076355,-0.28738221526145935,1.1768827438354492,-0.3369148373603821,-0.4656960666179657,-0.8183004260063171,-0.6373741626739502,0.24755644798278809,-1.242185354232788
0.47417375311990323,-0.40038657785247606,-1.4508068525310938,-0.6465914249420166,-0.7953353524208069,0.9956797957420349,-0.34677067399024963,-0.4566035270690918,-0.8193066120147705,-0.5729070901870728,0.0728754997253418,-1.0035693645477295
0.4647340900363143,-0.41104761142299595,-1.4451100037366238,-0.694379985332489,-0.7770825624465942,0.6616756916046143,-0.3571918308734894,-0.44818511605262756,-0.8194779753684998,-0.550675630569458,-0.052165836095809937,-0.8068495392799377
0.4558438921391424,-0.4188222193459341,-1.4434708236860525,-0.8163424134254456,-0.6274230480194092,0.3387453556060791,-0.3651581108570099,-0.4402202069759369,-0.8202839493751526,-0.547576904296875,-0.1298176646232605,-0.7242106795310974
0.44666108364963814,-0.4236473624774936,-1.4450430203023745,-0.9694422483444214,-0.4581964612007141,0.17366771399974823,-0.370758056640625,-0.43195658922195435,-0.8221629858016968,-0.4454498589038849,-0.16177815198898315,-0.6981617212295532
0.43652358597526225,-0.425610414619595,-1.44825017013707,-1.1071078777313232,-0.18340998888015747,0.14108186960220337,-0.37416011095046997,-0.42279160022735596,-0.8253796100616455,-0.3024756908416748,-0.16837966442108154,-0.7133166790008545
0.42523543327272834,-0.4237880187248697,-1.4519674830897207,-1.2162549495697021,0.2508370578289032,0.17950356006622314,-0.3745940625667572,-0.41253525018692017,-0.8303577303886414,-0.18714302778244019,-0.13763564825057983,-0.7264049649238586
0.4128249935839262,-0.4173072401580581,-1.4553361923998709,-1.2911376953125,0.7785449028015137,0.27988120913505554,-0.3712514042854309,-0.4011985957622528,-0.837384045124054,-0.11768600344657898,-0.08995130658149719,-0.7402983903884888
0.3990420107058937,-0.40592245893332235,-1.4575230259377392,-1.3908685445785522,1.3062169551849365,0.45940569043159485,-0.3638432025909424,-0.3885357975959778,-0.846556544303894,-0.06267049908638,-0.04243341088294983,-0.7140054702758789
0.38351615199208733,-0.3907179391486177,-1.4580938344100387,-1.4961893558502197,1.6503268480300903,0.6366448998451233,-0.3531852066516876,-0.3741835057735443,-0.857465386390686,-0.015894412994384766,-0.0323563814163208,-0.6363852620124817
0.3668486888037216,-0.37392227971001446,-1.4574869487544218,-1.5269416570663452,1.7109266519546509,0.6844534873962402,-0.34096530079841614,-0.35867559909820557,-0.868961751461029,-0.04044345021247864,-0.07606256008148193,-0.5758777260780334
0.35080067792330266,-0.3579875552206459,-1.4567109479859839,-1.3744765520095825,1.4927364587783813,0.5745209455490112,-0.32905057072639465,-0.34364983439445496,-0.8795626759529114,-0.09666970372200012,-0.12127020955085754,-0.5516048669815063
0.33773602405547304,-0.34552689658196706,-1.4562691134760317,-0.9948273301124573,1.0270696878433228,0.3792572021484375,-0.3195587992668152,-0.3313518762588501,-0.8877432942390442,-0.1229613721370697,-0.1432117521762848,-0.6002022624015808
0.3298589200347769,-0.3380260655792928,-1.4562976186736665,-0.47859638929367065,0.4695526361465454,0.1271716058254242,-0.31374692916870117,-0.32390955090522766,-0.892549991607666,-0.1032148003578186,-0.14902135729789734,-0.6732306480407715
0.3277463658850048,-0.3356836380773355,-1.4571001902142227,0.020857874304056168,-0.03314615786075592,-0.12445343285799026,-0.31188005208969116,-0.32191017270088196,-0.8939265608787537,-0.06560719013214111,-0.16914817690849304,-0.6898441910743713
0.33027131560330797,-0.33735085553122157,-1.4582654532655184,0.3522571623325348,-0.3434649705886841,-0.22673456370830536,-0.3130999505519867,-0.324299693107605,-0.8926354646682739,-0.009135186672210693,-0.16883385181427002,-0.6294286847114563
0.3348768113186568,-0.3409680869530896,-1.4590416673422102,0.43672439455986023,-0.39209720492362976,-0.20606230199337006,-0.3158239722251892,-0.32865282893180847,-0.8900800347328186,0.039075255393981934,-0.12247326970100403,-0.5127977132797241
0.33922905156253763,-0.3440452101516661,-1.4593714705632352,0.34213075041770935,-0.22360245883464813,-0.14166973531246185,-0.31807586550712585,-0.33276018500328064,-0.8877490758895874,0.06964749097824097,-0.07783856987953186,-0.3904796242713928
0.34202971785261965,-0.3451726313011561,-1.4594541620420272,0.1757953017950058,-0.0103642288595438,-0.056546058505773544,-0.318759948015213,-0.33539992570877075,-0.8865094184875488,0.07570269703865051,-0.03676190972328186,-0.2982897162437439
0.3429168856180128,-0.3446995454828776,-1.4589783274658041,0.023229774087667465,0.12557831406593323,0.0841272696852684,-0.31823986768722534,-0.33623558282852173,-0.8863797187805176,0.08497869968414307,0.015083849430084229,-0.22394126653671265
0.3420098807728874,-0.34376603847427,-1.4574616403817244,-0.0942278802394867,0.15117394924163818,0.23906812071800232,-0.31751492619514465,-0.33538123965263367,-0.8869631886482239,0.08649680018424988,0.061867475509643555,-0.17230194807052612
0.33990152301888676,-0.34321932556845614,-1.454960903758495,-0.1275213211774826,0.12244876474142075,0.332027405500412,-0.31726720929145813,-0.33339425921440125,-0.8878005146980286,0.05885958671569824,0.07849618792533875,-0.16011202335357666
0.3378337488547399,-0.34317143948285667,-1.451965988528069,-0.06464274972677231,0.0912112146615982,0.3236464560031891,-0.3174559772014618,-0.33144405484199524,-0.888463020324707,0.007427871227264404,0.07093077898025513,-0.21560192108154297
0.336533231317966,-0.343339083149759,-1.4491311848974815,-0.0002882396802306175,0.054850220680236816,0.26903802156448364,-0.3177497684955597,-0.33021679520606995,-0.8888149261474609,-0.010039567947387695,0.05641305446624756,-0.23684120178222656
0.33594732153764917,-0.34397495342402296,-1.4465205814429765,0.05562163144350052,-0.007960433140397072,0.2349569946527481,-0.31838005781173706,-0.3296636939048767,-0.8887946605682373,0.028951287269592285,0.03564208745956421,-0.21665877103805542
0.33597141884225107,-0.3450725083378331,-1.443901111267109,0.11793585121631622,-0.03405109792947769,0.22795163094997406,-0.3193526864051819,-0.3296864330768585,-0.8884372115135193,0.06282186508178711,0.02690628170967102,-0.19855308532714844
0.33661936255399616,-0.3462198734730291,-1.4410733284595798,0.18394975364208221,-0.004309448413550854,0.22862806916236877,-0.32029926776885986,-0.3302980661392212,-0.887869119644165,0.07087907195091248,0.03673425316810608,-0.18921828269958496
0.3377454687617114,-0.3470215844868258,-1.4380129629873184,0.2202196717262268,0.049403462558984756,0.23675300180912018,-0.3208842873573303,-0.331360787153244,-0.887261688709259,0.06589460372924805,0.03817838430404663,-0.1696840524673462
0.33897670406940184,-0.3473588642993883,-1.4348926895548824,0.20390647649765015,0.080405592918396,0.22881171107292175,-0.321044385433197,-0.3325222134590149,-0.8867691159248352,0.052092939615249634,0.023775875568389893,-0.1186172366142273
0.33991325145071316,-0.34765846101378395,-1.432115562769617,0.14620588719844818,0.03178985416889191,0.19661962985992432,-0.3212038278579712,-0.3334053158760071,-0.8863797187805176,0.027212679386138916,0.00680619478225708,-0.05073881149291992
0.3402725868121808,-0.3486657522999516,-1.429883381861326,0.0656828060746193,-0.0899144783616066,0.17548158764839172,-0.32205554842948914,-0.3337440490722656,-0.8859430551528931,0.00607648491859436,0.004932403564453125,0.004717528820037842
0.3398588079426385,-0.3509069726937,-1.4278976066167315,-0.017303135246038437,-0.22646118700504303,0.21003657579421997,-0.3240877687931061,-0.3333539664745331,-0.8853486180305481,0.012274354696273804,0.01575756072998047,0.04645097255706787
0.33856263525151825,-0.3545488922589927,-1.4256335102135338,-0.07208169251680374,-0.3405563533306122,0.2820127606391907,-0.3274596929550171,-0.33213165402412415,-0.8845669627189636,0.0451720654964447,0.023644745349884033,0.04321259260177612
