attitudeX,attitudeY,attitudeZ,gyroX,gyroY,gyroZ,gravityX,gravityY,gravityZ,accX,accY,accZ
0.6057798459477604,0.3044690197487146,0.3317027587735926,-0.05072285979986191,0.36977720260620117,-0.10559634864330292,0.24644212424755096,-0.569403350353241,-0.7842488288879395,-0.03606902062892914,-0.02172219753265381,-0.06429237127304077
0.6052482187135441,0.3081491722107962,0.33065449883347886,0.002970196306705475,0.23169976472854614,-0.09359028190374374,0.24941837787628174,-0.5689662098884583,-0.7836248874664307,-0.033460572361946106,-0.012866675853729248,-0.047917962074279785
0.6054182033379532,0.3101520837225484,0.32923989457263014,0.09772830456495285,-0.011128399521112442,-0.12331376224756241,0.2509578764438629,-0.5691059827804565,-0.7830316424369812,-0.03368780016899109,-0.020493686199188232,-0.05208182334899902
0.6064583704614782,0.3100716025045854,0.32671503107381283,0.22516483068466187,-0.2861365079879761,-0.2153874933719635,0.25071412324905396,-0.5699610114097595,-0.7824877500534058,-0.03748762607574463,-0.047730088233947754,-0.04960447549819946
0.6082154923716653,0.3085642855359585,0.32241207714596476,0.3218354284763336,-0.5048260688781738,-0.35474902391433716,0.24922983348369598,-0.5714038610458374,-0.7819092869758606,-0.05292533338069916,-0.08138245344161987,-0.09464704990386963
0.610139442043492,0.3055341513683389,0.31601969988406775,0.3567475974559784,-0.8997121453285217,-0.552629828453064,0.2465282678604126,-0.5729817748069763,-0.7816110253334045,-0.07117407023906708,-0.09996140003204346,-0.16721093654632568
0.6114749647009227,0.29974945445646306,0.3071613326924053,0.3268311023712158,-1.1857730150222778,-0.7444425821304321,0.24177660048007965,-0.5740758180618286,-0.7822922468185425,-0.14178557693958282,-0.07350724935531616,-0.24131304025650024
0.6115499192896241,0.29512020761599805,0.29655307383608176,0.16743104159832,-0.9233880043029785,-0.9232847690582275,0.2381400763988495,-0.5741371512413025,-0.7833618521690369,-0.19454553723335266,-0.05988079309463501,-0.3024381995201111
0.6082511580458464,0.29416600782872265,0.28473340724820395,-0.2787835896015167,-0.6359186172485352,-1.1370996236801147,0.23794032633304596,-0.5714331269264221,-0.7853971123695374,-0.13302069902420044,-0.10166263580322266,-0.24699723720550537
0.5987087038823992,0.29640991455650423,0.2726537829359324,-0.972910463809967,-0.25908559560775757,-1.2880569696426392,0.24128387868404388,-0.5635762214660645,-0.7900404930114746,-0.13750866055488586,-0.008414745330810547,0.015916407108306885
0.5827749896028803,0.3016063431691255,0.26319971113104507,-1.5998332500457764,0.25838401913642883,-1.1267380714416504,0.24802222847938538,-0.5503429770469666,-0.797249972820282,-0.12795065343379974,0.14346742630004883,0.30420809984207153
0.5624957955679196,0.30981194000536555,0.2588049097347057,-2.0199062824249268,0.9281005859375,-0.7969522476196289,0.2579057514667511,-0.5332990884780884,-0.8056529760360718,0.05895841121673584,0.07666462659835815,0.34358638525009155
0.5403361764925619,0.3220019219735154,0.259221165236729,-2.196624279022217,1.5306917428970337,-0.5288884043693542,0.27138110995292664,-0.5144243240356445,-0.8134617209434509,0.1265988051891327,-0.040110647678375244,0.2928624153137207
0.5177437954501842,0.3373615262369447,0.26248615140983766,-2.2606842517852783,1.839181900024414,-0.4194695055484772,0.28761720657348633,-0.49492090940475464,-0.8199571371078491,0.10461017489433289,-0.08027446269989014,0.1695970892906189
0.4952523349667885,0.3541505017793841,0.26672660002542886,-2.2031469345092773,1.910314917564392,-0.41433218121528625,0.30512604117393494,-0.4752536714076996,-0.8252466917037964,0.11841237545013428,-0.0624050498008728,0.05444902181625366
0.474344105707272,0.37069578030106737,0.2705627528355217,-1.931634545326233,1.7170604467391968,-0.43837812542915344,0.3222673833370209,-0.4567550718784332,-0.829167366027832,0.11236417293548584,-0.06726232171058655,-0.05604064464569092
0.4565859861679139,0.38380773370934873,0.27293216960948086,-1.5166436433792114,1.0618445873260498,-0.479910284280777,0.336095929145813,-0.44088637828826904,-0.8322612047195435,0.06481367349624634,-0.07925522327423096,-0.12245059013366699
0.44282202041240765,0.38963713466992267,0.273254482919946,-1.0631661415100098,0.13842999935150146,-0.5010912418365479,0.3432144820690155,-0.4284909963607788,-0.835822582244873,0.05621504783630371,-0.05928674340248108,-0.13692516088485718
0.4331183526844796,0.3877755255745398,0.27189027559007023,-0.6429983377456665,-0.5929781198501587,-0.4569128751754761,0.3432140350341797,-0.41970324516296387,-0.8402698040008545,0.09404200315475464,-0.0020497143268585205,-0.10073959827423096
0.42748543037977915,0.3801332488531426,0.2695608359906045,-0.24983720481395721,-1.1211899518966675,-0.35595032572746277,0.33765435218811035,-0.41458383202552795,-0.8450501561164856,0.12229153513908386,0.062288880348205566,-0.030529558658599854
0.42585875584493743,0.3673481348162861,0.26685745457642146,0.1271180659532547,-1.6754733324050903,-0.21908968687057495,0.32706478238105774,-0.41310298442840576,-0.849926233291626,0.12569421529769897,0.07879814505577087,0.003017723560333252
0.4283367358711183,0.34883450811202354,0.2640896548537484,0.5154261589050293,-2.25571870803833,-0.08297528326511383,0.3109235465526581,-0.41535836458206177,-0.8548707365989685,0.12102243304252625,0.06715276837348938,-0.008257865905761719
0.4347930962381264,0.3255378346082894,0.2612013014936642,0.8720276951789856,-2.583625555038452,0.008692316710948944,0.2900616228580475,-0.4212227463722229,-0.8593227863311768,0.12062886357307434,0.0392189621925354,-0.05576193332672119
0.4442256881886371,0.3015192381663075,0.2582938090065925,1.0515830516815186,-2.4303414821624756,0.07156049460172653,0.2681483328342438,-0.42975884675979614,-0.8622087240219116,0.11983710527420044,0.028345853090286255,-0.10284864902496338
0.4543019208790129,0.2802579345965695,0.2561515131753568,0.9682279825210571,-1.990716576576233,0.13760487735271454,0.24854697287082672,-0.43883514404296875,-0.8635092377662659,0.1019475907087326,0.04113003611564636,-0.15705955028533936
0.46316908258758227,0.2634789484592886,0.2554066024547782,0.7764076590538025,-1.4342999458312988,0.20756743848323822,0.2330012321472168,-0.4467855393886566,-0.8637668490409851,0.03979559242725372,0.05036216974258423,-0.09831500053405762
0.4702875181940719,0.25114152844761,0.25597818187686466,0.5778499841690063,-1.018330693244934,0.247716024518013,0.22153112292289734,-0.45314261317253113,-0.863473117351532,-0.0049629658460617065,0.03476187586784363,-0.030615568161010742
0.47562629143006724,0.24136084865088328,0.2573122712865756,0.4125526249408722,-0.847835123538971,0.2401110976934433,0.21249403059482574,-0.45789530873298645,-0.8632370233535767,-0.042632997035980225,0.008340835571289062,-0.011473000049591064
0.4800417206185935,0.2321331614263557,0.25876050802023004,0.4139755666255951,-0.8840728998184204,0.21251460909843445,0.20405229926109314,-0.4618161916732788,-0.8631851077079773,-0.08141721785068512,-0.007330596446990967,-0.0032393932342529297
0.4853230434371397,0.2224772342274781,0.25916579845111765,0.6210360527038574,-1.023688554763794,0.07991847395896912,0.1951671838760376,-0.4664941132068634,-0.862724244594574,-0.10378211736679077,0.010424137115478516,-0.038642942905426025
0.4925593565166966,0.21212153141850604,0.25701014721680543,0.8691386580467224,-1.2669817209243774,-0.1445053368806839,0.1855071783065796,-0.47288253903388977,-0.8613763451576233,-0.10605449974536896,-0.03886675834655762,-0.15543878078460693
0.5015389628147948,0.2004700328354793,0.2519416488510539,1.0707156658172607,-1.550483226776123,-0.34921321272850037,0.17460587620735168,-0.48077553510665894,-0.8592832684516907,-0.09326107800006866,-0.08152613043785095,-0.19859325885772705
0.51217523877857,0.18710571325118197,0.2447450075372221,1.259311556816101,-1.8336820602416992,-0.46450525522232056,0.1621464490890503,-0.4900745153427124,-0.8564668893814087,-0.07018154859542847,-0.051353126764297485,-0.12227755784988403
0.5244147481830833,0.1710089586518468,0.23652037197171613,1.4019219875335693,-2.2160744667053223,-0.49695906043052673,0.1473078429698944,-0.5007064938545227,-0.8529908657073975,-0.026046067476272583,-0.01363682746887207,-0.07242411375045776
0.537916329359092,0.15119342579736078,0.22837274074227099,1.4890942573547363,-2.5649847984313965,-0.44831550121307373,0.12934748828411102,-0.5123476982116699,-0.8489812016487122,0.028947368264198303,0.0052523016929626465,-0.047106385231018066
0.5523290774677313,0.12805435827925243,0.22132920341097756,1.5348588228225708,-2.7834391593933105,-0.34140023589134216,0.10871560871601105,-0.5246713757514954,-0.8443345427513123,0.09300574660301208,0.010724842548370361,-0.02703380584716797
0.5673087074271261,0.10301567418572342,0.2157463864763583,1.5539374351501465,-2.7974369525909424,-0.2610543370246887,0.08672471344470978,-0.5373643040657043,-0.8388792872428894,0.11685822904109955,-0.00900721549987793,-0.048404037952423096
0.5826421769985997,0.07850437501505081,0.21104214092398407,1.5804622173309326,-2.604637384414673,-0.25789955258369446,0.06548476964235306,-0.5502321124076843,-0.8324400186538696,0.08582153916358948,-0.057159245014190674,-0.0980256199836731
0.5981210293541688,0.057112330068478066,0.20643072077511646,1.5235517024993896,-2.0816409587860107,-0.3021605908870697,0.0471716970205307,-0.5630906820297241,-0.8250477313995361,0.030404146760702133,-0.10707539319992065,-0.15505480766296387
0.6111690380000305,0.04580838285849348,0.20183071656787704,1.1840596199035645,-0.7917042374610901,-0.3247005045413971,0.03750292956829071,-0.5738252401351929,-0.818118691444397,-0.018688689917325974,-0.14953291416168213,-0.21104085445404053
0.6220847683804244,0.04642904847442078,0.19763778863797274,1.0024930238723755,0.3360368609428406,-0.24264730513095856,0.037717726081609726,-0.5827306509017944,-0.8117896914482117,-0.04551480710506439,-0.18753308057785034,-0.25739365816116333
0.630361021535538,0.0530087877107288,0.19519167558180947,0.6651991605758667,0.6313009262084961,-0.06198618561029434,0.042801231145858765,-0.589436411857605,-0.8066800832748413,-0.0062715113162994385,-0.18610680103302002,-0.1973634958267212
0.6351290596851663,0.05967591667908246,0.19561642703187315,0.28883692622184753,0.7595452666282654,0.19473864138126373,0.048010315746068954,-0.5932813882827759,-0.8035622239112854,0.07091683894395828,-0.2743486166000366,-0.0923728346824646
0.6370471715735919,0.06475455088143149,0.20002268929510653,0.08222252130508423,0.7742879986763,0.5496421456336975,0.05201694369316101,-0.5948243737220764,-0.8021709322929382,0.10781902819871902,-0.36736440658569336,-0.1282947063446045
0.6382684586174675,0.06750712308724921,0.20921417993896688,0.08529181778430939,0.8879098892211914,0.9396423697471619,0.054175734519958496,-0.5958057045936584,-0.8012993335723877,0.14495162665843964,-0.36323976516723633,-0.25079411268234253
0.640799927555953,0.06869666108470321,0.22248243302511622,0.30382707715034485,0.8978935480117798,1.1920244693756104,0.055025164037942886,-0.5978368520736694,-0.7997270822525024,0.14257630705833435,-0.37893927097320557,-0.4316571354866028
0.6467241067151586,0.06755202433014246,0.23669021545314872,0.7549943327903748,0.5397893786430359,1.1226978302001953,0.053869713097810745,-0.6025753021240234,-0.7962418794631958,0.08545844256877899,-0.37690168619155884,-0.5798109769821167
0.6581091490075691,0.06324672589115185,0.24809846086355797,1.423379898071289,-0.04109988361597061,0.8214775323867798,0.05000430345535278,-0.6116219758987427,-0.7895683646202087,-0.06326403468847275,-0.3699149489402771,-0.6686988472938538
0.6764785587094965,0.055270610286835886,0.25450823403987055,2.1911025047302246,-0.7643446326255798,0.39089691638946533,0.043077096343040466,-0.6260509490966797,-0.7785914540290833,-0.23275893926620483,-0.4022999405860901,-0.7121464610099792
0.7018511118094142,0.044290342023101864,0.254755581993755,2.8584139347076416,-1.3749624490737915,-0.09402608871459961,0.03381119295954704,-0.6456323862075806,-0.7628995180130005,-0.2958349287509918,-0.4170355200767517,-0.7091920971870422
0.7323907413698402,0.032322929982925935,0.2492773868724581,3.249288558959961,-1.717990756034851,-0.4830307066440582,0.02403043583035469,-0.6686492562294006,-0.7431896328926086,-0.33927685022354126,-0.39569711685180664,-0.6454058885574341
0.7654629813375584,0.020637784582928337,0.2395757347190902,3.3860981464385986,-1.9424612522125244,-0.751701295375824,0.014880060218274593,-0.6928709149360657,-0.7209081649780273,-0.34689587354660034,-0.3517458438873291,-0.5270013809204102
0.7991953321802064,0.009255844759436188,0.22680939579029152,3.3889217376708984,-2.1307930946350098,-0.9529132843017578,0.006453858222812414,-0.7167952656745911,-0.6972538828849792,-0.3284446597099304,-0.3061235547065735,-0.3734400272369385
0.8327996197439377,-0.0013424348583495997,0.21159464304463657,3.3510446548461914,-2.1993207931518555,-1.1032664775848389,-0.0009031997178681195,-0.7398178577423096,-0.6728066802024841,-0.3208739757537842,-0.2551315426826477,-0.2615652084350586
0.8662048419589634,-0.010207024635038656,0.19416055374883298,3.327132225036621,-2.1988892555236816,-1.2430068254470825,-0.006611206568777561,-0.7618762254714966,-0.6476889252662659,-0.34820127487182617,-0.2014722228050232,-0.22882163524627686
0.8994533934467703,-0.0169370246914136,0.17409528289063456,3.2988598346710205,-2.274273633956909,-1.400844931602478,-0.01053497102111578,-0.7829869985580444,-0.6219488978385925,-0.3797999620437622,-0.14769232273101807,-0.2167656421661377
0.932628622962775,-0.02238009395959103,0.15098457134797866,3.290841579437256,-2.4983112812042236,-1.5489473342895508,-0.013331265188753605,-0.8031886219978333,-0.5955756902694702,-0.38768482208251953,-0.10438895225524902,-0.15923082828521729
0.9656613143673365,-0.026526183044894167,0.12410194656582985,3.233539342880249,-2.6952731609344482,-1.760951280593872,-0.015088265761733055,-0.8224253058433533,-0.5686730742454529,-0.38618722558021545,-0.059944748878479004,-0.07843685150146484
0.997639076847889,-0.02690042218447664,0.09152933041667162,3.0594894886016846,-2.8069536685943604,-2.0344595909118652,-0.014586003497242928,-0.8401930332183838,-0.5420913100242615,-0.4464276432991028,-0.03332686424255371,-0.00464630126953125
1.0275839391412622,-0.02257535277697805,0.05223687672942786,2.8382861614227295,-3.0362367630004883,-2.283320188522339,-0.011667955666780472,-0.8560526371002197,-0.516757071018219,-0.5068560838699341,-0.03974515199661255,0.0920286774635315
1.0557223712280674,-0.013748201416121993,0.004463558506569442,2.7278478145599365,-3.458575487136841,-2.676326036453247,-0.00677214190363884,-0.8702563047409058,-0.49255281686782837,-0.5210444927215576,-0.021253764629364014,0.17907625436782837
1.0831339168970924,0.0036041670783064092,-0.05630718106964802,2.7396769523620605,-3.7156293392181396,-3.203766345977783,0.0016887732781469822,-0.8834306001663208,-0.46855929493904114,-0.6497141122817993,0.00072479248046875,0.15239715576171875
1.1099022694108098,0.033358119383902096,-0.13270251315070172,2.734898328781128,-3.9791483879089355,-3.6669163703918457,0.014833251014351845,-0.8956552147865295,-0.44450193643569946,-0.8079696893692017,0.0012764930725097656,0.04632383584976196
1.1345458132251278,0.07276471550782246,-0.2238491292992944,2.5976569652557373,-4.61785364151001,-3.9468259811401367,0.030719200149178505,-0.9063423275947571,-0.42142629623413086,-0.7958557605743408,0.05094975233078003,0.039254605770111084
1.155752654608741,0.11697680935143545,-0.3262135240525174,2.4317946434020996,-5.176226615905762,-4.0705246925354,0.04706106707453728,-0.9150987267494202,-0.4004743695259094,-0.7081632018089294,0.1470170021057129,0.1471479833126068
1.173057164569148,0.16649512566323052,-0.43878618941990644,2.2495391368865967,-5.6120829582214355,-4.236477851867676,0.06419187784194946,-0.9219390749931335,-0.38197895884513855,-0.6216410994529724,0.24518120288848877,0.23947712779045105
1.1858120334039701,0.2182801124030073,-0.557435594079699,1.968842625617981,-5.975724220275879,-4.136429309844971,0.0813245102763176,-0.9268043041229248,-0.36663344502449036,-0.6592051982879639,0.3285071849822998,0.31402111053466797
1.193400642722648,0.2647787319733422,-0.6733956074761803,1.5689407587051392,-6.281128883361816,-3.8691766262054443,0.09643512964248657,-0.9296274781227112,-0.3556588888168335,-0.4893335700035095,0.4292306900024414,0.3877175450325012
1.1961299130944631,0.3007332619451087,-0.7811205672773122,1.1770704984664917,-6.576944351196289,-3.6158947944641113,0.10840554535388947,-0.9306297302246094,-0.34953761100769043,-0.4326852262020111,0.5035820603370667,0.4689681828022003
1.1945670282845247,0.32857568219767563,-0.8826035796982431,0.8406693935394287,-6.727270126342773,-3.6034913063049316,0.11856348812580109,-0.930056631565094,-0.3477606177330017,-0.42148086428642273,0.4793272614479065,0.5037206411361694
1.188392391500573,0.35768450791028916,-0.9852802673014885,0.5560994148254395,-6.513542652130127,-4.037611484527588,0.1306428164243698,-0.9277702569961548,-0.34953516721725464,-0.42071232199668884,0.43068474531173706,0.47345176339149475
1.1761578198937608,0.3970243129257147,-1.0960647015967075,0.251947283744812,-6.148582458496094,-4.655411243438721,0.14866700768470764,-0.9231356382369995,-0.3545684218406677,-0.42140254378318787,0.3995760679244995,0.38757315278053284
1.1577735573421237,0.44022702483247084,-1.2083216790977813,-0.007363108918070793,-5.915944576263428,-4.839982986450195,0.17104609310626984,-0.9159117341041565,-0.3631105422973633,-0.37172961235046387,0.35048186779022217,0.2865265905857086
1.1361269937867609,0.4748902692248749,-1.311063222216261,-0.12553848326206207,-5.929229259490967,-4.645112991333008,0.1925489604473114,-0.9070093631744385,-0.37451171875,-0.3186933100223541,0.4036219120025635,0.2318725287914276
1.1135296376347348,0.4968126066425022,-1.401872345347973,-0.2137022316455841,-6.105234622955322,-4.407774448394775,0.2104291319847107,-0.8972625732421875,-0.38812315464019775,-0.3141583204269409,0.5136566162109375,0.22084099054336548
1.0903162001229,0.5066989980100354,-1.482098092342727,-0.3776932656764984,-6.232179641723633,-4.192490577697754,0.22430524230003357,-0.8867731094360352,-0.40412965416908264,-0.2834177613258362,0.5503014922142029,0.23696953058242798
1.0662685618210108,0.5062988167220469,-1.552113448278577,-0.6240748763084412,-6.193099498748779,-3.9314680099487305,0.2344190925359726,-0.8754028677940369,-0.4227503538131714,-0.21565072238445282,0.5214293003082275,0.25012755393981934
1.0413962428661667,0.49653881871940553,-1.6112841328866412,-0.9314503073692322,-6.065051078796387,-3.5899412631988525,0.24058198928833008,-0.8631101846694946,-0.4440282881259918,-0.15116547048091888,0.49207746982574463,0.23611196875572205
1.01590034740022,0.47824310270799103,-1.6596073499506367,-1.233156681060791,-5.884982109069824,-3.2109155654907227,0.24246925115585327,-0.8499552607536316,-0.4677444100379944,-0.10852758586406708,0.5014597773551941,0.2091841697692871
0.990295760388026,0.45358185002033674,-1.6984951867552154,-1.4552032947540283,-5.615190505981445,-2.835865020751953,0.24032102525234222,-0.8361881971359253,-0.4929860532283783,-0.07819639146327972,0.5085057020187378,0.14775586128234863
0.9651590070200504,0.42502893400410774,-1.7297674703583272,-1.6089719533920288,-5.302297592163086,-2.4806442260742188,0.2347436249256134,-0.8221394419670105,-0.5186351537704468,-0.0569176971912384,0.4815174341201782,0.0332682728767395
0.9406643155041297,0.3943670927646167,-1.7551461656582792,-1.7196986675262451,-4.987412929534912,-2.186614751815796,0.22640454769134521,-0.8079497218132019,-0.5440205335617065,-0.06200636923313141,0.4389006495475769,-0.09793210029602051
0.9167422834499884,0.36309393605297113,-1.7764613856651348,-1.7918691635131836,-4.709633827209473,-1.9745204448699951,0.2160874903202057,-0.7936238050460815,-0.5687421560287476,-0.09925095736980438,0.39855849742889404,-0.20771664381027222
0.8934699263109127,0.3322306205260693,-1.7955976380700107,-1.782416582107544,-4.503344535827637,-1.856906771659851,0.20440363883972168,-0.7792510986328125,-0.5924414992332458,-0.13682249188423157,0.3657073974609375,-0.3197747468948364
0.8713148895768524,0.3025870144090911,-1.8147535566794828,-1.6618497371673584,-4.410647392272949,-1.8629869222640991,0.19185267388820648,-0.7651761770248413,-0.6145714521408081,-0.18440642952919006,0.3522123098373413,-0.44859999418258667
0.8511229536164495,0.27510877565250275,-1.8362269025682654,-1.4093431234359741,-4.359582424163818,-1.9870092868804932,0.17905619740486145,-0.752021074295044,-0.6343526244163513,-0.2677555978298187,0.34177327156066895,-0.5875407457351685
0.8336955374281723,0.25050329971525415,-1.8611936062072292,-1.1010795831680298,-4.298006057739258,-2.136829137802124,0.16661888360977173,-0.7404203414916992,-0.6511650681495667,-0.390328049659729,0.3199338912963867,-0.7764625549316406
0.8193884052269718,0.2292259525300683,-1.889508219069417,-0.7744854688644409,-4.1186137199401855,-2.276352882385254,0.15511848032474518,-0.7307284474372864,-0.6648114323616028,-0.46964797377586365,0.28913915157318115,-0.9575030207633972
0.8085473937709471,0.21221786817416396,-1.92071989967572,-0.40665680170059204,-3.8208425045013428,-2.3841850757598877,0.14544950425624847,-0.7232848405838013,-0.6750581860542297,-0.5134305357933044,0.27589714527130127,-1.1203978061676025
0.8017478197323329,0.20042631900089852,-1.954323176417135,0.03703648969531059,-3.367783308029175,-2.4593124389648438,0.13845552504062653,-0.718572735786438,-0.681530237197876,-0.5398380756378174,0.289617657661438,-1.2730138301849365
0.7997466044464241,0.19535506075110928,-1.9900862751498134,0.5531352162361145,-2.7882463932037354,-2.5132334232330322,0.1352764219045639,-0.717179536819458,-0.6836329102516174,-0.5641552805900574,0.316788911819458,-1.4183721542358398
0.8029471281251135,0.19790233256973616,-2.0285049945681988,1.1283774375915527,-2.2258145809173584,-2.6294972896575928,0.13656538724899292,-0.719406247138977,-0.6810320615768433,-0.5833275318145752,0.35038769245147705,-1.5389997959136963
0.8113622424451781,0.20986823065430826,-2.07134266719643,1.716784954071045,-1.568936824798584,-2.8473217487335205,0.14343823492527008,-0.7252257466316223,-0.6734041571617126,-0.6314907073974609,0.3667510151863098,-1.5881925821304321
0.8241326973509366,0.2332698047053757,-2.1198559790917897,2.22332501411438,-0.8602302670478821,-3.059462547302246,0.15700244903564453,-0.7339590191841125,-0.6607983708381653,-0.7294207811355591,0.3729360103607178,-1.5694262981414795
0.8403712325836002,0.2653517543553506,-2.173183086036532,2.710344076156616,-0.6818023324012756,-3.094815969467163,0.17496877908706665,-0.7448908686637878,-0.6438350677490234,-0.7411157488822937,0.40432989597320557,-1.448282241821289
0.8602992006795199,0.30136389217712795,-2.2306238823302373,3.244577169418335,-0.7380842566490173,-3.078423023223877,0.19359111785888672,-0.7580377459526062,-0.62281733751297,-0.6634551286697388,0.3624688386917114,-1.3786780834197998
0.8835767509580861,0.3424702442589664,-2.2931036391922373,3.706094741821289,-0.5850842595100403,-3.0980358123779297,0.21303772926330566,-0.7730128765106201,-0.5975500345230103,-0.6585487127304077,0.3589351177215576,-1.3357690572738647
0.9083661631795514,0.3921335505835155,-2.362632320930596,4.039031505584717,-0.34741443395614624,-3.264871597290039,0.23504233360290527,-0.7884999513626099,-0.5683512687683105,-0.6979635953903198,0.4490680694580078,-1.2005085945129395
0.9324858244644428,0.4530312386692916,-2.44233276722362,4.328502655029297,-0.1805693656206131,-3.588386297225952,0.26079481840133667,-0.8031035661697388,-0.5357339382171631,-0.7416908740997314,0.5167723298072815,-1.029115915298462
0.9540240457927679,0.526143545096073,-2.5350017211776352,4.59439754486084,-0.2410833090543747,-4.01117467880249,0.29047641158103943,-0.8157496452331543,-0.5001760721206665,-0.8077799677848816,0.5072168707847595,-0.9020761251449585
0.9708526401055263,0.6101542144471865,-2.641503774408427,4.794529914855957,-0.44596463441848755,-4.447535991668701,0.3235101103782654,-0.8253673911094666,-0.46272021532058716,-0.8794489502906799,0.4961589574813843,-0.7687098979949951
0.9810018112736865,0.7031025389491252,-2.7599573278832836,4.9192094802856445,-0.5796699523925781,-4.834002494812012,0.35962578654289246,-0.8310549855232239,-0.4242841601371765,-0.8973303437232971,0.5254976153373718,-0.596391499042511
0.9829770401037279,0.8025441617600678,-2.8864232594601944,4.981367588043213,-0.5543210506439209,-5.149348258972168,0.3987899124622345,-0.8321519494056702,-0.3853438198566437,-0.8487564325332642,0.5865463614463806,-0.4702165126800537
0.9760710195978677,0.9054797450103523,-3.015846965189995,4.995089530944824,-0.35106968879699707,-5.368062496185303,0.44078534841537476,-0.8283024430274963,-0.34586629271507263,-0.795323371887207,0.6348513960838318,-0.39842694997787476
0.9605298037198075,1.0078395261276416,3.1402707002688803,5.002844333648682,-0.13654404878616333,-5.470724582672119,0.48464781045913696,-0.8194953203201294,-0.30584970116615295,-0.7186567187309265,0.6652593612670898,-0.32839712500572205
0.9374232777527642,1.1054216809203943,3.0190739905579345,5.032504558563232,-0.08342596888542175,-5.500610828399658,0.5289241075515747,-0.8060356974601746,-0.2656048834323883,-0.622842013835907,0.695439875125885,-0.2555285692214966
0.9078238750257093,1.1946160389144178,2.9059791814799834,5.024433612823486,-0.10801573097705841,-5.490123271942139,0.5724260210990906,-0.7881662845611572,-0.2261027693748474,-0.5546954274177551,0.7399483919143677,-0.1701374500989914
0.8724872972074434,1.2741782667819814,2.802580835305822,4.930872440338135,-0.05747240036725998,-5.48911714553833,0.6148474812507629,-0.7659304738044739,-0.18791863322257996,-0.5309241414070129,0.795303463935852,-0.042885780334472656
0.8321316104787282,1.3431128935546128,2.710296303954291,4.721009254455566,-0.061811693012714386,-5.47799015045166,0.6559247374534607,-0.7393682599067688,-0.1519784927368164,-0.505213737487793,0.812274694442749,0.0904703289270401
0.787614764232665,1.4005647350778991,2.6296267784457457,4.439409255981445,-0.14372973144054413,-5.460289001464844,0.695339560508728,-0.7086724042892456,-0.11952555924654007,-0.4693874716758728,0.8012473583221436,0.24161118268966675
0.740037007560387,1.4469454220580427,2.5598285111158643,4.154693603515625,-0.24216844141483307,-5.446359634399414,0.7327873706817627,-0.6743152141571045,-0.09122327715158463,-0.44854670763015747,0.7728411555290222,0.3524537682533264
0.6901983503821302,1.4836461991346592,2.499582213896336,3.857938766479492,-0.31691113114356995,-5.43994665145874,0.7681933641433716,-0.6366901397705078,-0.06711816042661667,-0.4316455125808716,0.7435014843940735,0.40461212396621704
0.6388219018355843,1.5125621179387105,2.447608377586264,3.5745108127593994,-0.3062284588813782,-5.416700839996338,0.8014380931854248,-0.596250057220459,-0.04672394320368767,-0.4195258617401123,0.7300084233283997,0.44079744815826416
0.5866433888002607,1.535794097209552,2.402507151520908,3.3261020183563232,-0.232232004404068,-5.364953994750977,0.8322935700416565,-0.5535687208175659,-0.029144031926989555,-0.3891477584838867,0.7249094843864441,0.4302366375923157
0.5343826460514346,1.5549133465088054,2.3630498020382342,3.1052842140197754,-0.1499999463558197,-5.264848232269287,0.8604747653007507,-0.5093098282814026,-0.013668052852153778,-0.3440868854522705,0.7243213057518005,0.39173513650894165
0.48272039288936747,1.570342012964567,2.328239896349358,2.9055795669555664,-0.17184345424175262,-5.12851619720459,0.8857354521751404,-0.46419045329093933,-0.00040240189991891384,-0.2588891386985779,0.7232539653778076,0.37039756774902344
0.4322829026727646,1.58174160680775,2.297194792051573,2.7328288555145264,-0.30508899688720703,-4.939624309539795,0.9079574942588806,-0.4189448058605194,0.009938245639204979,-0.16711270809173584,0.7134544849395752,0.3742324113845825
0.38359125702872615,1.5890785896436608,2.269076352321511,2.581756591796875,-0.4532898962497711,-4.741889953613281,0.9271717667579651,-0.37425315380096436,0.01695268601179123,-0.06685066223144531,0.6977087259292603,0.38880908489227295
0.33646982892640703,1.5931613164220144,2.243395664939038,2.4231324195861816,-0.5311452150344849,-4.610499858856201,0.9436901807785034,-0.33015692234039307,0.021109141409397125,0.016728579998016357,0.6706261038780212,0.39243459701538086
0.2901587601753303,1.5948900877477348,2.2199551767411334,2.258993625640869,-0.5717760324478149,-4.56528377532959,0.957920491695404,-0.28610435128211975,0.023084374144673347,0.09406626224517822,0.6417255401611328,0.38945233821868896
0.24438861798225225,1.5945625182625538,2.1985616926206153,2.094320774078369,-0.6321507096290588,-4.493343353271484,0.9700114727020264,-0.24196314811706543,0.02305782027542591,0.18121838569641113,0.6140637993812561,0.3905928134918213
0.1998440714137077,1.5918924662685525,2.1790569671574946,1.910106897354126,-0.7771872878074646,-4.3281989097595215,0.9798795580863953,-0.19851650297641754,0.02067474275827408,0.3341463804244995,0.6232295036315918,0.4017343521118164
0.1576271113836332,1.5862875181854184,2.1616576901319875,1.6675764322280884,-0.9625036716461182,-4.048199653625488,0.9874840974807739,-0.1569751799106598,0.015298529528081417,0.5228308439254761,0.6631395816802979,0.4289764165878296
0.11902190170553882,1.5781192631629384,2.1467932381681982,1.3654329776763916,-1.0721485614776611,-3.6361281871795654,0.99289870262146,-0.11874108761548996,0.007271063979715109,0.6983702778816223,0.7032593488693237,0.4645460844039917
0.08522479846864907,1.5684958300492586,2.1348365319453593,1.0338491201400757,-1.0870296955108643,-3.1191048622131348,0.9963680505752563,-0.08512166887521744,-0.002292145509272814,0.8511051535606384,0.7355121374130249,0.4563327431678772
0.056980619593385455,1.558658356335074,2.125855111511546,0.7258899807929993,-1.0004841089248657,-2.546116828918457,0.9983037114143372,-0.05694979056715965,-0.012117975391447544,0.9780452847480774,0.7500953674316406,0.39171093702316284
0.034594499691093065,1.5497273890714391,2.1195076103384136,0.47921469807624817,-0.8406170606613159,-1.9605207443237305,0.9991800785064697,-0.03458759933710098,-0.02105477824807167,1.0611838102340698,0.761409342288971,0.29987871646881104
0.01801111032879877,1.5422266684673471,2.115218053761833,0.30925706028938293,-0.6894107460975647,-1.3815734386444092,0.9994300603866577,-0.018010135740041733,-0.028561146929860115,1.1279505491256714,0.7718246579170227,0.20158064365386963
0.007247572412352014,1.5359054687019222,2.112219710353641,0.23465976119041443,-0.5906273722648621,-0.7900123596191406,0.9993652701377869,-0.007247508969157934,-0.03488286957144737,1.178842306137085,0.7848504781723022,0.11512893438339233
0.0024181110068970386,1.5302618752946853,2.109684378858971,0.2450634092092514,-0.5507467985153198,-0.19584360718727112,0.9991756677627563,-0.0024181087501347065,-0.040523234754800797,1.2143253087997437,0.796714186668396,0.03918058052659035
0.0035385777949777583,1.5245764595297098,2.1070039518658272,0.30622854828834534,-0.6067172288894653,0.397552490234375,0.9989259243011475,-0.0035385703667998314,-0.0462031289935112,1.2292693853378296,0.7991469502449036,-0.011307179927825928
0.010635496719948795,1.517914701604654,2.1038652222307483,0.3948945105075836,-0.734203577041626,0.991097629070282,0.9985458254814148,-0.010635295882821083,-0.05285400524735451,1.225712776184082,0.8100888729095459,-0.020052380859851837
0.023608482193629304,1.5101262322242943,2.1002285440437207,0.4771711826324463,-0.8312080502510071,1.5585569143295288,0.9978821873664856,-0.02360628917813301,-0.06061599776148796,1.1841704845428467,0.8220527768135071,-0.0065073370933532715
0.0421066962190909,1.501724531269358,2.0964122785981125,0.5208036303520203,-0.8715594410896301,2.0839006900787354,0.9967312812805176,-0.04209425672888756,-0.06895571202039719,1.0969882011413574,0.8194683790206909,0.008805640041828156
0.06566731350958045,1.4932248855373553,2.0929008287401425,0.520565927028656,-0.8657951951026917,2.5667190551757812,0.9948439598083496,-0.06562013179063797,-0.07732664048671722,0.9830612540245056,0.806678295135498,0.02877325564622879
0.09385629156872827,1.4849504845593764,2.090221197216979,0.4674118757247925,-0.8297216296195984,3.0094332695007324,0.9919325113296509,-0.09371855854988098,-0.08536308258771896,0.8586534857749939,0.796019434928894,0.06339050084352493
0.12607965492576148,1.4771209439066313,2.0888748450776453,0.3738802969455719,-0.766352653503418,3.389732599258423,0.9877130389213562,-0.12574589252471924,-0.09279598295688629,0.7383307218551636,0.7948741316795349,0.11301399022340775
0.16172052113185217,1.4698612373283058,2.0892047624864816,0.2507684826850891,-0.678103506565094,3.719297409057617,0.9819285869598389,-0.16101650893688202,-0.09944900870323181,0.6091511845588684,0.7928675413131714,0.15998071432113647
0.2003482805681903,1.462990623634621,2.0916135922019867,0.0765945240855217,-0.6155607104301453,4.026141166687012,0.97430819272995,-0.19901065528392792,-0.10544478893280029,0.4975088834762573,0.7850700616836548,0.21204280853271484
0.24171104487457773,1.4559058776834943,2.0966103324093113,-0.12764570116996765,-0.5855966806411743,4.312307357788086,0.9645288586616516,-0.23936428129673004,-0.11130532622337341,0.4045354127883911,0.7826685905456543,0.2755510210990906
0.2853871900455497,1.4480965769948089,2.104376947585401,-0.323731005191803,-0.5751550793647766,4.550996780395508,0.952338695526123,-0.2815290093421936,-0.11744168400764465,0.32784318923950195,0.7971996068954468,0.3286234140396118
0.3310018086895574,1.4391815052174244,2.114854998678281,-0.4969746768474579,-0.5750772953033447,4.764904975891113,0.9375380873680115,-0.3249906301498413,-0.12411137670278549,0.2415696382522583,0.8136836290359497,0.35352736711502075
0.3783151017918397,1.4286215997829053,2.1279120930841833,-0.6340547204017639,-0.6437768340110779,4.9564924240112305,0.9199120998382568,-0.3693552315235138,-0.13167667388916016,0.17984992265701294,0.8242653608322144,0.36383920907974243
0.42705718605767784,1.4154440305478402,2.1432574080384588,-0.7080203294754028,-0.7923197150230408,5.114983558654785,0.899227499961853,-0.4141940772533417,-0.1408318430185318,0.1358678936958313,0.8503968715667725,0.36597537994384766
0.47688322001590583,1.399252228562351,2.160496352198676,-0.7299966812133789,-0.9431679248809814,5.239943981170654,0.8753899931907654,-0.45901235938072205,-0.1516585499048233,0.08125978708267212,0.8812533617019653,0.35942232608795166
0.5276481957892758,1.3797532429214543,2.179658400981863,-0.7497394680976868,-1.1195064783096313,5.368145942687988,0.8482747673988342,-0.5035027861595154,-0.16405779123306274,0.020484328269958496,0.8916557431221008,0.3424636125564575
0.5792194768748967,1.356300848584461,2.201313520322786,-0.7889148592948914,-1.2924110889434814,5.492700576782227,0.8177121877670288,-0.5473709106445312,-0.17813588678836823,-0.011956393718719482,0.8987194895744324,0.3463793992996216
0.6314204086534909,1.3285095709911972,2.2262226220599715,-0.8460487127304077,-1.4315303564071655,5.6250457763671875,0.7836135029792786,-0.5902919173240662,-0.19366362690925598,-0.056715309619903564,0.9089714884757996,0.35627663135528564
0.6840641632565492,1.2958356858184985,2.2552961234432023,-0.9152113795280457,-1.5473593473434448,5.7414164543151855,0.7458982467651367,-0.6319479942321777,-0.21042247116565704,-0.105502188205719,0.9152272343635559,0.3478737473487854
0.7363821411750013,1.2578855479272266,2.2892338355838273,-0.9853230714797974,-1.610177755355835,5.773545742034912,0.7049263715744019,-0.6716118454933167,-0.22807185351848602,-0.16932761669158936,0.9112355709075928,0.3208148181438446
0.787308602584588,1.214452856716489,2.3286509411402445,-1.0639455318450928,-1.6358095407485962,5.727895736694336,0.6614183187484741,-0.7084563970565796,-0.24620237946510315,-0.2696794867515564,0.863012433052063,0.2653827667236328
0.8358249387920794,1.1651977621298717,2.3742516792942543,-1.1634747982025146,-1.5852124691009521,5.630875587463379,0.6161606311798096,-0.741849958896637,-0.264584481716156,-0.35366374254226685,0.7874888181686401,0.20632648468017578
0.8812109510715112,1.110221231829267,2.4268799385907487,-1.2736835479736328,-1.4379826784133911,5.511267185211182,0.5699216723442078,-0.7715098857879639,-0.282775342464447,-0.4359038472175598,0.7169595956802368,0.15190079808235168
0.922970293086625,1.0495642258937041,2.4868454416525,-1.3448224067687988,-1.2862876653671265,5.375137805938721,0.5233194828033447,-0.7973975539207458,-0.30048951506614685,-0.4986461400985718,0.6486852765083313,0.0899030864238739
0.960799149742129,0.983345196072697,2.5538919990726368,-1.3841302394866943,-1.1078932285308838,5.2253522872924805,0.4768278896808624,-0.8196496367454529,-0.3175055682659149,-0.5737975835800171,0.5867393016815186,0.02137833833694458
0.9942458582151046,0.9120121011291661,2.627872600270732,-1.4365367889404297,-0.8953500986099243,5.059911251068115,0.4310588240623474,-0.8383480906486511,-0.33370792865753174,-0.6404247283935547,0.5150904655456543,-0.034654438495635986
1.0230680785886648,0.8357376372822443,2.708639932355174,-1.4657753705978394,-0.6956989765167236,4.902627468109131,0.3862873613834381,-0.8537097573280334,-0.34923046827316284,-0.6934468746185303,0.4504350423812866,-0.07957196235656738
1.0472959491076201,0.7552305132248394,2.7950920318255927,-1.4466540813446045,-0.5416260361671448,4.745603561401367,0.34266990423202515,-0.8660746216773987,-0.3639948070049286,-0.7490726709365845,0.39827054738998413,-0.11548206210136414
1.066912466870116,0.6716637436238617,2.8854435875660354,-1.40140700340271,-0.4415229558944702,4.539236545562744,0.30046015977859497,-0.8757139444351196,-0.37795358896255493,-0.8239588737487793,0.3374600410461426,-0.1587284505367279
1.0817603362342536,0.5872473623599546,2.976754731174176,-1.319014310836792,-0.3840157389640808,4.241752624511719,0.2602890729904175,-0.8827861547470093,-0.39107322692871094,-0.9280748963356018,0.2406046986579895,-0.204278826713562
1.092088821435094,0.5055873034932192,3.0650484880857922,-1.1847684383392334,-0.3129372298717499,3.8520383834838867,0.22309419512748718,-0.8875910043716431,-0.40300294756889343,-1.0584825277328491,0.11393976211547852,-0.2634704113006592
1.098577471288411,0.43036227886109374,-3.136571328235406,-1.0295606851577759,-0.2288452535867691,3.404261589050293,0.18976913392543793,-0.8905612230300903,-0.413386732339859,-1.2076220512390137,-0.012637138366699219,-0.33629274368286133
1.1019895903485395,0.36387881801323685,-3.06417277576753,-0.8867491483688354,-0.1648942232131958,2.9182448387145996,0.1608043611049652,-0.8921080827713013,-0.4222385585308075,-1.3127362728118896,-0.11793231964111328,-0.3836085796356201
1.102957559307412,0.30748076623389814,-3.0024912078464996,-0.7697860598564148,-0.10222019255161285,2.4097745418548584,0.1364864557981491,-0.8925449848175049,-0.42980819940567017,-1.3918882608413696,-0.19121062755584717,-0.39761483669281006
1.1020993378623702,0.26241976942140666,-2.952533725541345,-0.6672511100769043,0.013778312131762505,1.872678518295288,0.1171855553984642,-0.8921576738357544,-0.4362596869468689,-1.4616070985794067,-0.25025272369384766,-0.40224123001098633
1.099983293099842,0.23007557522860647,-2.915227231843525,-0.5669045448303223,0.17580503225326538,1.3014376163482666,0.10344655066728592,-0.8911997675895691,-0.44165822863578796,-1.5298383235931396,-0.31195586919784546,-0.42307257652282715
1.0972756807622535,0.21134198600785686,-2.8912207497968825,-0.43685805797576904,0.35314640402793884,0.709989070892334,0.09566087275743484,-0.8899683356285095,-0.44587624073028564,-1.586887240409851,-0.36470097303390503,-0.4575508236885071
1.0946190832943554,0.20667790332816408,-2.8808819304684783,-0.27402201294898987,0.5570862293243408,0.10550418496131897,0.09406507760286331,-0.8887537121772766,-0.4486299455165863,-1.6306710243225098,-0.39451056718826294,-0.49961215257644653
1.0924637753667572,0.21625291165941377,-2.8842329167416594,-0.07914003729820251,0.760066568851471,-0.49695777893066406,0.09876710921525955,-0.8877636790275574,-0.44957849383354187,-1.6644411087036133,-0.4044574499130249,-0.5322024822235107
1.0910239599081364,0.23972792098489928,-2.9011910605973146,0.15418483316898346,0.9269919395446777,-1.0944819450378418,0.10959621518850327,-0.8871000409126282,-0.44837766885757446,-1.6550217866897583,-0.38801610469818115,-0.5476397275924683
1.0900958003833359,0.2768140505036242,-2.9316421302349753,0.37868091464042664,1.1074562072753906,-1.674413800239563,0.12637056410312653,-0.886671245098114,-0.4447975158691406,-1.6143467426300049,-0.3449115753173828,-0.5395316481590271
1.0889437299218248,0.3262770530999441,-2.9743672502924627,0.5854593515396118,1.1850274801254272,-2.163919448852539,0.14853531122207642,-0.8861379027366638,-0.438972532749176,-1.5466372966766357,-0.27407944202423096,-0.4830091893672943
1.0874352045234223,0.3850512500307809,-3.0277588818765397,0.8709347248077393,1.10491144657135,-2.588754892349243,0.1745661199092865,-0.8854378461837769,-0.43072786927223206,-1.443960189819336,-0.22589033842086792,-0.43027976155281067
1.0854931759809983,0.4515038515794177,-3.090927461689468,1.1623481512069702,1.0145926475524902,-2.9473581314086914,0.20353277027606964,-0.8845335841178894,-0.41973206400871277,-1.3389852046966553,-0.16739219427108765,-0.42999935150146484
1.082189438019069,0.524391774735862,3.1210053566135487,1.3763307332992554,0.9807358384132385,-3.26462459564209,0.23502056300640106,-0.8829876184463501,-0.406323105096817,-1.233799934387207,-0.05875444412231445,-0.3702729344367981
1.07633448212188,0.6023364466047381,3.0436485132787516,1.5340455770492554,0.9732454419136047,-3.5403621196746826,0.26887014508247375,-0.8802242279052734,-0.39104270935058594,-1.134699821472168,0.04085332155227661,-0.2950991988182068
1.067234988715444,0.6828219516963423,2.96294092489086,1.6373730897903442,0.9472929835319519,-3.740997791290283,0.30448052287101746,-0.875869631767273,-0.37435850501060486,-1.0690985918045044,0.10444611310958862,-0.25691282749176025
1.0543474377676272,0.7631440950799581,2.8815041734035294,1.6972001791000366,0.9078611731529236,-3.948636531829834,0.34130996465682983,-0.8695781826972961,-0.35684940218925476,-1.0187087059020996,0.13007605075836182,-0.22786730527877808
1.0370528664022107,0.8426801629040295,2.800159386445086,1.7803981304168701,0.9318671226501465,-4.226829528808594,0.37975332140922546,-0.860908567905426,-0.3385617434978485,-1.0357134342193604,0.1554335355758667,-0.2267000675201416
1.0149833165247504,0.9213000758121476,2.7193266354525587,1.887925624847412,0.9636958837509155,-4.5124831199646,0.42020198702812195,-0.8494717478752136,-0.31910550594329834,-1.0567529201507568,0.2034907341003418,-0.23845058679580688
0.9881938898059105,0.9971118461201752,2.640784674631814,1.9742615222930908,0.9661955237388611,-4.737875461578369,0.462116003036499,-0.8350335955619812,-0.2986097037792206,-1.003726840019226,0.2946740388870239,-0.22011277079582214
0.9572190105205239,1.0682798454338744,2.5664796046016094,2.0375959873199463,0.9924893975257874,-4.872495651245117,0.5046123266220093,-0.8175934553146362,-0.27732208371162415,-0.8820690512657166,0.4027983546257019,-0.15537136793136597
0.9228530124964358,1.1337312903475962,2.49815304000976,2.0345871448516846,1.0659911632537842,-4.907707691192627,0.5468131899833679,-0.7973268032073975,-0.2554711103439331,-0.7422935962677002,0.5072875618934631,-0.08322817087173462
0.8858477884619411,1.192908587087633,2.4371459275629923,1.9585485458374023,1.1902168989181519,-4.889275074005127,0.5879985690116882,-0.7744516134262085,-0.23341518640518188,-0.598252534866333,0.5844947695732117,0.01069796085357666
0.8466720429893189,1.2462300663996575,2.3838909114853957,1.8256713151931763,1.3570276498794556,-4.853442668914795,0.6278912425041199,-0.7490798830986023,-0.21126332879066467,-0.48215460777282715,0.6273297667503357,0.10541319847106934
0.8058411436775033,1.2939343404445791,2.3382085383051048,1.6742552518844604,1.4506704807281494,-4.790484428405762,0.6661327481269836,-0.7214133739471436,-0.1892882138490677,-0.3657330274581909,0.6470571160316467,0.18611449003219604
0.7640220266354131,1.3357625574015346,2.2994597575957365,1.5189241170883179,1.4298940896987915,-4.702323913574219,0.7022075057029724,-0.6918311715126038,-0.1681501865386963,-0.2332439422607422,0.6610845923423767,0.26002341508865356
0.7217855785785053,1.3717501566145684,2.2668289163737096,1.3619834184646606,1.3536200523376465,-4.601161003112793,0.7358067035675049,-0.660726010799408,-0.14842486381530762,-0.11561322212219238,0.6692249774932861,0.3250606656074524
0.6793213110959543,1.4026457519682278,2.239441570289117,1.2132935523986816,1.3010820150375366,-4.536113262176514,0.7670265436172485,-0.6282651424407959,-0.130205437541008,-0.010755181312561035,0.6671748757362366,0.36694562435150146
0.6366058896712083,1.4295808108272514,2.2162891059860965,1.0968830585479736,1.2510745525360107,-4.475059986114502,0.7961136698722839,-0.5944696068763733,-0.11317691951990128,0.08527970314025879,0.6555046439170837,0.38157910108566284
0.5944113257192138,1.4527936993194661,2.1966508637952757,0.997796356678009,1.1161383390426636,-4.308558940887451,0.822717010974884,-0.560021162033081,-0.09753590822219849,0.2267824411392212,0.6625142693519592,0.39077937602996826
0.5539061946245974,1.4721469775430398,2.1800292677230027,0.9045708179473877,0.9551566243171692,-4.052949905395508,0.8463415503501892,-0.5260133743286133,-0.08376293629407883,0.39964544773101807,0.700268566608429,0.4137495756149292
0.5158237977889042,1.4880739258902314,2.16615330629819,0.7844208478927612,0.8205239772796631,-3.7624893188476562,0.866912305355072,-0.49325162172317505,-0.07187709212303162,0.5490728616714478,0.7199817895889282,0.4254691004753113
0.4804128715764073,1.5012081777630104,2.1548156468113717,0.6660747528076172,0.7336868643760681,-3.4623336791992188,0.8846579790115356,-0.4621453583240509,-0.06166127696633339,0.6721504330635071,0.706224799156189,0.42985594272613525
0.44790892159534107,1.5124136754153854,2.1456722390125575,0.5528297424316406,0.6920385956764221,-3.140242099761963,0.8998191356658936,-0.4330816864967346,-0.052593596279621124,0.7564614415168762,0.6771610975265503,0.4131588935852051
0.41849563359723135,1.5220531318719428,2.138508528496383,0.4306783080101013,0.6316399574279785,-2.812347888946533,0.9126163125038147,-0.4063863754272461,-0.0445190966129303,0.8375058174133301,0.660475492477417,0.41057753562927246
0.39233631340930997,1.5300029360453438,2.133187881417703,0.31376752257347107,0.537842869758606,-2.464566469192505,0.9232497811317444,-0.3823482394218445,-0.0376833938062191,0.9229569435119629,0.6469354629516602,0.42157936096191406
0.3696494582377841,1.5363450171174033,2.1294421169876196,0.21045523881912231,0.4547986090183258,-2.103916883468628,0.9319009184837341,-0.36128857731819153,-0.03211791440844536,1.0056449174880981,0.6384795904159546,0.430006206035614
0.35066284171910705,1.5412949503771864,2.127009651125525,0.12690676748752594,0.36080408096313477,-1.7048275470733643,0.9387367367744446,-0.3435203731060028,-0.02770206332206726,1.0842430591583252,0.6408071517944336,0.4298322796821594
0.3359402840319402,1.5448563823839887,2.1256452623012763,0.04905456677079201,0.2623691260814667,-1.2431728839874268,0.9437833428382874,-0.32965704798698425,-0.02448718063533306,1.17256498336792,0.6450254917144775,0.4322783946990967
0.32600763643557057,1.547084703613367,2.1254258399174013,-0.06147859990596771,0.1695411652326584,-0.7444998621940613,0.9470623135566711,-0.32026350498199463,-0.02246059477329254,1.2434589862823486,0.6526150107383728,0.4404752254486084
0.32109095975658664,1.5479152919661798,2.126683718054796,-0.20187753438949585,0.07589615136384964,-0.23540730774402618,0.9486433863639832,-0.3156019449234009,-0.021709730848670006,1.282344102859497,0.6506237983703613,0.454250693321228
0.32115973729660635,1.5473615152602573,2.129507672114961,-0.3327313959598541,-0.0038125254213809967,0.2565400302410126,0.9486095905303955,-0.31566721200942993,-0.022234557196497917,1.288557767868042,0.6378563642501831,0.4640834331512451
0.32596161337245927,1.545650086310819,2.1337408436611023,-0.44673946499824524,-0.06975985318422318,0.7217682003974915,0.9470439553260803,-0.32021990418434143,-0.023819616064429283,1.2582327127456665,0.6158282160758972,0.4452521800994873
0.3352420913352698,1.542798569356648,2.1392584912682033,-0.5470513701438904,-0.14522910118103027,1.1634459495544434,0.9439607858657837,-0.32899779081344604,-0.026435693725943565,1.2148222923278809,0.5961332321166992,0.4169387221336365
0.34881671537344405,1.538699181801391,2.1458689103915582,-0.6143390536308289,-0.2349315583705902,1.592564582824707,0.9392939805984497,-0.3417860269546509,-0.030159011483192444,1.1686468124389648,0.5963329076766968,0.3976975679397583
0.3665493459559603,1.5333298925473549,2.1533319275179035,-0.6616344451904297,-0.3148984909057617,2.0073094367980957,0.9329146146774292,-0.35839614272117615,-0.03496934846043587,1.1075212955474854,0.6005986928939819,0.3749352693557739
0.3882931224845932,1.5267101304387114,2.1617586887772933,-0.7333837151527405,-0.389849454164505,2.4060473442077637,0.92465740442276,-0.37860915064811707,-0.04079105705022812,1.0303750038146973,0.6020281910896301,0.3594404458999634
0.4137528925652021,1.5187296251599807,2.171561347739878,-0.826978862285614,-0.4407079517841339,2.7692649364471436,0.9143776893615723,-0.40204837918281555,-0.04765169695019722,0.9508109092712402,0.6057225465774536,0.3619523048400879
0.4424438345696422,1.5094202456096237,2.1829471418244024,-0.9186211228370667,-0.47888994216918945,3.0799107551574707,0.9020065069198608,-0.4281492531299591,-0.055431246757507324,0.8515945672988892,0.6147640943527222,0.3638266921043396
0.47381913059056474,1.4985232104960933,2.1960951199217202,-1.019707202911377,-0.5429172515869141,3.3441030979156494,0.8875093460083008,-0.4562879800796509,-0.06425498425960541,0.743136465549469,0.612003743648529,0.3563387989997864
0.5073638582246093,1.4855206543275392,2.211241671615823,-1.117654800415039,-0.6349883079528809,3.5600459575653076,0.8708524107933044,-0.48587486147880554,-0.07444306463003159,0.6367921829223633,0.6092725396156311,0.36535197496414185
0.5425397529696866,1.46999427444809,2.2284458286742845,-1.1957334280014038,-0.75224369764328,3.729891538619995,0.8520528674125671,-0.5163127183914185,-0.08618077635765076,0.5373207926750183,0.6117257475852966,0.3681327700614929
0.5789232860744747,1.4516286195461219,2.247697913429938,-1.2504006624221802,-0.8714199066162109,3.8710267543792725,0.8311160206794739,-0.5471230149269104,-0.0995137020945549,0.4479977488517761,0.6116216778755188,0.3593099117279053
0.6162147186169787,1.4304393329053997,2.269054821789436,-1.2898935079574585,-0.9642919301986694,3.9931440353393555,0.8080470561981201,-0.5779502391815186,-0.11416573822498322,0.3584721088409424,0.6156240105628967,0.3430628776550293
0.6541646265592247,1.4063414150805724,2.292729301545032,-1.3283036947250366,-1.0460054874420166,4.0991644859313965,0.782849907875061,-0.6084965467453003,-0.12991684675216675,0.2776665687561035,0.6207491159439087,0.321521520614624
0.6925275157128115,1.3791488040120665,2.3190393501013777,-1.3661829233169556,-1.1122937202453613,4.194220542907715,0.7555440664291382,-0.6384844779968262,-0.14659734070301056,0.20266199111938477,0.6223100423812866,0.30071115493774414
0.7310036804333743,1.348531554284435,2.348359318655912,-1.401354432106018,-1.1841861009597778,4.257673740386963,0.7261905074119568,-0.6676172018051147,-0.16411808133125305,0.12537193298339844,0.6257622241973877,0.2807563543319702
0.7691086688842997,1.3140905537419425,2.380981216659917,-1.4308940172195435,-1.2627650499343872,4.2875213623046875,0.6949859857559204,-0.695495069026947,-0.1824319213628769,0.04533994197845459,0.6187279224395752,0.26084691286087036
0.8063757275766023,1.2755685732188504,2.417019034716957,-1.4352223873138428,-1.3330501317977905,4.279667854309082,0.6621751189231873,-0.7217835187911987,-0.20137740671634674,-0.03307062387466431,0.5973173975944519,0.23438222706317902
0.8423643465737087,1.2330466571704861,2.4564935246087845,-1.4249144792556763,-1.377266764640808,4.239355564117432,0.6280902624130249,-0.7462191581726074,-0.22058968245983124,-0.11707347631454468,0.5744813084602356,0.1957942247390747
0.8765836765995069,1.1864995398296325,2.4996267482107206,-1.4364427328109741,-1.3942943811416626,4.163152694702148,0.5931167006492615,-0.7685576677322388,-0.2398585081100464,-0.19351953268051147,0.5464656949043274,0.16267958283424377
0.9085315443225147,1.1357552127617507,2.5469705432521077,-1.474721074104309,-1.3845512866973877,4.0769195556640625,0.5576280355453491,-0.7886016368865967,-0.2591501772403717,-0.2701829671859741,0.5051388144493103,0.1483713686466217
0.9378608534089611,1.0806075916214084,2.598887256865224,-1.5197263956069946,-1.367124080657959,3.98130202293396,0.5218600630760193,-0.8062946200370789,-0.27848049998283386,-0.32995033264160156,0.46442127227783203,0.14008331298828125
0.964277634188397,1.021098233640316,2.655295604081848,-1.5460439920425415,-1.3588789701461792,3.881218194961548,0.48603805899620056,-0.8216373920440674,-0.29779061675071716,-0.38729849457740784,0.43171411752700806,0.12075817584991455
0.9877352213828554,0.9576238224730089,2.715579533790977,-1.5269328355789185,-1.356973648071289,3.7637767791748047,0.4502805173397064,-0.8347811698913574,-0.31684061884880066,-0.45163869857788086,0.39042985439300537,0.08241990208625793
1.0081509262729267,0.8909617705247053,2.778735133422448,-1.4848260879516602,-1.3666504621505737,3.6301355361938477,0.41483274102211,-0.845846951007843,-0.33534571528434753,-0.5145643353462219,0.33568447828292847,0.021136850118637085
1.0254365824919534,0.8218801783581037,2.8436885020490004,-1.4135897159576416,-1.4117811918258667,3.466743230819702,0.37992897629737854,-0.8549407124519348,-0.35317209362983704,-0.5741887092590332,0.27326029539108276,-0.037208735942840576
1.0396396376123702,0.7517538796335381,2.908626752810213,-1.2954552173614502,-1.4658890962600708,3.2505054473876953,0.3459208905696869,-0.8622217774391174,-0.3700172007083893,-0.659977376461029,0.2005089521408081,-0.10723191499710083
1.0508348100394167,0.6825915822351345,2.97138989569596,-1.1624598503112793,-1.5094013214111328,2.9677186012268066,0.313414067029953,-0.8678383231163025,-0.3855237066745758,-0.7695757150650024,0.09934449195861816,-0.1957598328590393
1.0589077060973568,0.6164940400148413,3.030043781540593,-1.0624301433563232,-1.5019768476486206,2.621107816696167,0.28320613503456116,-0.8718209862709045,-0.3996533751487732,-0.8862183094024658,-0.006200551986694336,-0.2546129822731018
1.0638061682407358,0.5553511843855821,3.083317112019393,-1.0028690099716187,-1.4187703132629395,2.2608954906463623,0.25600141286849976,-0.8742098808288574,-0.4125779867172241,-0.9885607957839966,-0.09759199619293213,-0.2816205620765686
1.065859338065221,0.5004335406491348,3.130660670198261,-0.9570254683494568,-1.2820967435836792,1.9229642152786255,0.23210732638835907,-0.8752049803733826,-0.4244321584701538,-1.0506041049957275,-0.16100430488586426,-0.3014741539955139
1.0657440172862782,0.45221556184716627,-3.111206009444611,-0.8974478840827942,-1.1331144571304321,1.6309894323349,0.21142436563968658,-0.8751491904258728,-0.43521714210510254,-1.0835100412368774,-0.18568778038024902,-0.3342072367668152
1.0642551701069605,0.4107930467333248,-3.075932059691139,-0.8032099604606628,-0.9820595383644104,1.351768970489502,0.19374047219753265,-0.8744277954101562,-0.44479307532310486,-1.0970609188079834,-0.1968308687210083,-0.37437498569488525
1.0620295804575581,0.37686928357171295,-3.0473514452724815,-0.6722676157951355,-0.8098097443580627,1.0432260036468506,0.1792585700750351,-0.8733459115028381,-0.45291668176651,-1.1279586553573608,-0.2197786569595337,-0.4240669012069702
1.0595633451306827,0.35148087668338657,-3.0265409860902555,-0.5099255442619324,-0.6384508013725281,0.6767734289169312,0.16844427585601807,-0.87214195728302,-0.45934218168258667,-1.1877162456512451,-0.2504320740699768,-0.48279643058776855
1.0572069634627175,0.33578442776615686,-3.0147754535680593,-0.3219812512397766,-0.44556787610054016,0.24649502336978912,0.1618904173374176,-0.8709866404533386,-0.46386829018592834,-1.2617745399475098,-0.29287755489349365,-0.536665678024292
1.0551143545337,0.33065061181768585,-3.012799050056983,-0.14246408641338348,-0.23548445105552673,-0.19864365458488464,0.16009832918643951,-0.8699566125869751,-0.4664163291454315,-1.3270906209945679,-0.33647966384887695,-0.5751791000366211
1.053184002872143,0.3358863923698962,-3.020140851397021,0.013310598209500313,0.011357828043401241,-0.6097709536552429,0.16309133172035217,-0.8690031170845032,-0.46715614199638367,-1.3368890285491943,-0.3418886661529541,-0.5814430117607117
1.0512511317689008,0.3509246885058464,-3.0357675026317614,0.1416940987110138,0.2830483019351959,-0.9761677384376526,0.17067497968673706,-0.8680450916290283,-0.46622732281684875,-1.2925471067428589,-0.31681525707244873,-0.5580493211746216
1.0490121987727377,0.37473711917803065,-3.058445865369878,0.2406398504972458,0.5458024144172668,-1.2940587997436523,0.18243847787380219,-0.8669313192367554,-0.4638388454914093,-1.222813367843628,-0.2715117931365967,-0.520612359046936
1.046182832756421,0.40624698410744653,-3.0871107913950375,0.3276594579219818,0.7899245619773865,-1.5702056884765625,0.1979295015335083,-0.8655176162719727,-0.4601123034954071,-1.1400072574615479,-0.2268286943435669,-0.4684307277202606
1.04256329806077,0.4441047916912297,-3.120653027015879,0.4022253155708313,0.9760592579841614,-1.8017199039459229,0.21654696762561798,-0.8636989593505859,-0.45511719584465027,-1.0513859987258911,-0.1923772096633911,-0.41864675283432007
1.037854539291422,0.486704667958591,3.125131016534864,0.4574989080429077,1.0898360013961792,-2.014613628387451,0.23763205111026764,-0.8613161444664001,-0.44907182455062866,-0.947043776512146,-0.15104353427886963,-0.3583621680736542
1.0317652625460114,0.5329594320632081,3.084346840194836,0.518069326877594,1.1485874652862549,-2.2293779850006104,0.26080217957496643,-0.8582064509391785,-0.4421130120754242,-0.8763113617897034,-0.11412942409515381,-0.29722097516059875
1.024142673744945,0.5819992247137445,3.0405576261066587,0.5883497595787048,1.1650811433792114,-2.426384687423706,0.2857488989830017,-0.8542688488960266,-0.4342493414878845,-0.810254693031311,-0.08190381526947021,-0.2454838752746582
1.0149461359805905,0.6328943909312438,2.9944400169525163,0.6614998579025269,1.1638987064361572,-2.6013832092285156,0.31210431456565857,-0.8494521379470825,-0.425466924905777,-0.748490571975708,-0.04214954376220703,-0.20105889439582825
1.0039883162945835,0.6849284477396209,2.946794040952743,0.7104848623275757,1.1888065338134766,-2.761929988861084,0.3396790623664856,-0.843619167804718,-0.41584253311157227,-0.7121919393539429,0.0010134577751159668,-0.16943877935409546
0.9909813837910475,0.7375652241800823,2.898693166898593,0.7256907224655151,1.2663551568984985,-2.9026644229888916,0.3684355318546295,-0.8365640640258789,-0.40548256039619446,-0.6779296398162842,0.03085404634475708,-0.12689656019210815
0.9757126574174888,0.7905668032001827,2.8508471893590177,0.7441481947898865,1.378925085067749,-3.0529274940490723,0.39843204617500305,-0.8281015753746033,-0.39433446526527405,-0.6437171697616577,0.066520094871521,-0.0853254497051239
0.9581430836217159,0.8438892661727789,2.8036235687359756,0.7636390924453735,1.518695592880249,-3.1901557445526123,0.42968928813934326,-0.8181251883506775,-0.38214972615242004,-0.6356220245361328,0.10102301836013794,-0.06874743103981018
0.9382298818706252,0.897044571686996,2.7577563413912394,0.7591232061386108,1.6618149280548096,-3.3136370182037354,0.4620278477668762,-0.8065128326416016,-0.36887332797050476,-0.6070626974105835,0.13031941652297974,-0.03476738929748535
0.9159087473011686,0.9492748214594073,2.7139500587632854,0.7451834082603455,1.7757092714309692,-3.4313955307006836,0.4951701760292053,-0.7931163907051086,-0.3546450734138489,-0.5687481164932251,0.17472326755523682,0.015549063682556152
0.8912817661549943,1.0001112544279511,2.672306906557747,0.7619303464889526,1.8467276096343994,-3.5485432147979736,0.5288312435150146,-0.7778778672218323,-0.3394755721092224,-0.5258253812789917,0.22502124309539795,0.06588554382324219
0.8645836698619848,1.0491141995023896,2.632658568935176,0.7971551418304443,1.8471091985702515,-3.65372371673584,0.5626341104507446,-0.7608251571655273,-0.32340073585510254,-0.4772613048553467,0.2693394422531128,0.10687854886054993
0.8360029396461376,1.0955787915452764,2.5949550564055768,0.8435068130493164,1.7780252695083618,-3.758700370788574,0.5961453914642334,-0.7419692873954773,-0.30674493312835693,-0.4345701336860657,0.32078075408935547,0.1479315161705017
0.8056073172427552,1.1389607741189216,2.559177767843798,0.8788333535194397,1.6643775701522827,-3.8537673950195312,0.6290854215621948,-0.7212514281272888,-0.28991058468818665,-0.4014396071434021,0.365004301071167,0.18978244066238403
0.7734882146496299,1.1787769288594203,2.525635252996369,0.8770601749420166,1.541382908821106,-3.9380738735198975,0.661201536655426,-0.6986352205276489,-0.2733522951602936,-0.3664628267288208,0.4028739333152771,0.23432034254074097
0.7395989968255217,1.214965880143375,2.4946225542267397,0.8499898910522461,1.4474886655807495,-4.033412456512451,0.6924624443054199,-0.6739917397499084,-0.25735366344451904,-0.3368412256240845,0.4316057562828064,0.2721090018749237
0.7040536782001163,1.2478694275131477,2.4661318239292536,0.8200012445449829,1.3722119331359863,-4.104446887969971,0.7228257060050964,-0.6473128199577332,-0.24188704788684845,-0.30757302045822144,0.44862794876098633,0.28949451446533203
0.667249760166572,1.277709035532152,2.440108676995153,0.791678786277771,1.310529351234436,-4.138433933258057,0.7520290017127991,-0.6188279390335083,-0.2269458919763565,-0.24348413944244385,0.46595001220703125,0.2904987931251526
0.629697931537643,1.3049661842081972,2.416380048142002,0.7784327268600464,1.2786353826522827,-4.134776592254639,0.7798170447349548,-0.588900625705719,-0.21232393383979797,-0.17483669519424438,0.49985021352767944,0.29069313406944275
0.5917982772056968,1.3300699476518703,2.3945634828057516,0.7873753905296326,1.2398892641067505,-4.108824729919434,0.8060075640678406,-0.557854413986206,-0.19786415994167328,-0.10532408952713013,0.535591721534729,0.27693530917167664
0.5539107401086724,1.353101254943482,2.374405600719646,0.7910294532775879,1.1803289651870728,-4.050285339355469,0.8304009437561035,-0.5260172486305237,-0.1836850792169571,-0.035112977027893066,0.5547951459884644,0.2738035321235657
0.5163206745755092,1.3739669463281095,2.355993915731408,0.7623717784881592,1.1203982830047607,-3.9724817276000977,0.8528500199317932,-0.493683785200119,-0.17006787657737732,0.041192829608917236,0.5723580121994019,0.2881404161453247
0.47911920863720703,1.3927832742846746,2.33944668375364,0.7074731588363647,1.0670207738876343,-3.893603563308716,0.8733780980110168,-0.46099773049354553,-0.15713603794574738,0.1152387261390686,0.5839223861694336,0.30835068225860596
0.4423876671372531,1.4096786988948335,2.324780264703765,0.6472005248069763,1.0121484994888306,-3.802006721496582,0.8920276165008545,-0.42809849977493286,-0.14497803151607513,0.18583804368972778,0.589093804359436,0.3199201226234436
0.40643974049178727,1.4249720594684094,2.3117766163603344,0.5988304615020752,0.9836562871932983,-3.67081880569458,0.908785343170166,-0.3953416347503662,-0.13347037136554718,0.274564266204834,0.5950942635536194,0.31901729106903076
0.3718937819045073,1.4390596360193502,2.3002372362081824,0.5610870718955994,0.958880603313446,-3.4719672203063965,0.9235687255859375,-0.36338040232658386,-0.12237663567066193,0.3914644122123718,0.6128003597259521,0.314927339553833
0.3394679334951119,1.451926405084786,2.29008200042425,0.5183665156364441,0.9034274816513062,-3.2036924362182617,0.936278223991394,-0.33298543095588684,-0.11182250082492828,0.5382092595100403,0.6410906910896301,0.31990665197372437
0.3098742253966639,1.4631963600778035,2.281339310112263,0.45783552527427673,0.7932676672935486,-2.8664677143096924,0.9468642473220825,-0.3049388527870178,-0.10227758437395096,0.6915025115013123,0.669028639793396,0.33694255352020264
0.2837851526627384,1.4726256323527576,2.274135718623749,0.37816938757896423,0.6729313135147095,-2.471717119216919,0.9553803205490112,-0.27999138832092285,-0.09409281611442566,0.837725818157196,0.6853562593460083,0.3667522072792053
0.26160276321496845,1.4803310589595682,2.2684119474234503,0.3040813207626343,0.5633441209793091,-2.0548384189605713,0.9620267748832703,-0.25862911343574524,-0.08726820349693298,0.9604281187057495,0.6891404390335083,0.38211387395858765
0.24353534012068787,1.4865473436524814,2.2640061058332597,0.23121443390846252,0.46164724230766296,-1.6190928220748901,0.9670495390892029,-0.2411351501941681,-0.0816662535071373,1.053061604499817,0.6755068898200989,0.3687451481819153
0.22980268193288933,1.4912848685790057,2.260857528024092,0.15526799857616425,0.3363436460494995,-1.1723086833953857,0.9706352949142456,-0.2277853935956955,-0.07733967900276184,1.138037919998169,0.6558552980422974,0.3522573709487915
0.220478797754613,1.4944810123323122,2.2588374031687186,0.09347600489854813,0.21649903059005737,-0.7202038168907166,0.9729529619216919,-0.21869686245918274,-0.07439569383859634,1.1916894912719727,0.6410446763038635,0.3331085443496704
0.2155985034724769,1.4962874351191424,2.2577503406073323,0.043667905032634735,0.09594743698835373,-0.2707800269126892,0.9741384387016296,-0.2139321118593216,-0.07271658629179001,1.2118206024169922,0.6222876310348511,0.3098229765892029
0.21514961621548992,1.4966031001089317,2.2575685812066664,-0.017351916059851646,-0.040161386132240295,0.17687028646469116,0.9742569923400879,-0.21349360048770905,-0.07241619378328323,1.2197128534317017,0.6032028794288635,0.2865886092185974
0.2191236534224312,1.4953495864491875,2.258452445111778,-0.09887553751468658,-0.1747756451368332,0.6329107880592346,0.9733116626739502,-0.2173743098974228,-0.07357284426689148,1.2140662670135498,0.5935948491096497,0.27752190828323364
0.22760285813857212,1.4924528286000416,2.260608504882895,-0.18965137004852295,-0.30657121539115906,1.0919023752212524,0.9712220430374146,-0.2256428599357605,-0.07624498754739761,1.2133941650390625,0.6005053520202637,0.2705352306365967
0.24058245162010364,1.488159875328762,2.263993660560786,-0.2531869411468506,-0.3882596790790558,1.5534907579421997,0.9678852558135986,-0.23826834559440613,-0.08016516268253326,1.1921184062957764,0.6299307942390442,0.24642497301101685
0.25807688037586063,1.4829701721110045,2.2683412803665957,-0.2850799858570099,-0.43531277775764465,2.008216381072998,0.9631561040878296,-0.2552216053009033,-0.08480846136808395,1.1512696743011475,0.6574888825416565,0.20347613096237183
0.27996953181473677,1.4771319031358185,2.273327535296166,-0.2708185017108917,-0.4691663384437561,2.4401793479919434,0.9568514227867126,-0.27632635831832886,-0.08988595008850098,1.0913054943084717,0.6770219802856445,0.16192275285720825
0.3059662753851086,1.4707457977016196,2.2786112667749627,-0.23186349868774414,-0.5037631988525391,2.8357532024383545,0.9487878680229187,-0.30121472477912903,-0.09524474292993546,1.0067938566207886,0.6894286274909973,0.13352912664413452
0.33566282235960304,1.463736644727495,2.2841384528307374,-0.2015703171491623,-0.5558871030807495,3.1852879524230957,0.9387864470481873,-0.3293950855731964,-0.10089194029569626,0.9036208391189575,0.6886020302772522,0.14090055227279663
0.36857125932015533,1.4557372122752332,2.2901727263875205,-0.19601324200630188,-0.6336053013801575,3.4878604412078857,0.9266751408576965,-0.3602830171585083,-0.10709544271230698,0.7918154001235962,0.6780929565429688,0.17167067527770996
0.40421661378003815,1.446394403756078,2.2970001216673817,-0.21170485019683838,-0.722781240940094,3.7468111515045166,0.9123057723045349,-0.3932986259460449,-0.11408170312643051,0.6807271242141724,0.6602509617805481,0.213706374168396
0.44201438084183564,1.4355113887299469,2.3049188174404023,-0.24397872388362885,-0.8047555685043335,3.9407858848571777,0.8956329822540283,-0.42776110768318176,-0.12191029638051987,0.5648162364959717,0.6445273160934448,0.25557732582092285
0.4812914711969045,1.4229117993740161,2.3142812130488295,-0.3119300901889801,-0.8844091296195984,4.080855846405029,0.8767229318618774,-0.4629243314266205,-0.1306072622537613,0.44729751348495483,0.6333647966384888,0.2936016917228699
0.5215259276442192,1.4081924073342351,2.32564505017544,-0.4175468981266022,-0.9721339344978333,4.1897873878479,0.8556227684020996,-0.4982037842273712,-0.14036691188812256,0.3393235206604004,0.6253093481063843,0.33873122930526733
0.5623255345359719,1.3907468509048762,2.339532855754198,-0.5387780070304871,-1.092011570930481,4.268949508666992,0.8323415517807007,-0.533155083656311,-0.15150333940982819,0.24782806634902954,0.617948055267334,0.37853890657424927
0.6033646236141889,1.3700533269208088,2.3562156060587323,-0.6434340476989746,-1.207769751548767,4.3310160636901855,0.8068957328796387,-0.5674161911010742,-0.1641901284456253,0.16939210891723633,0.6085231900215149,0.4032801389694214
0.644417563436486,1.3461911297107283,2.375783498948044,-0.7296650409698486,-1.2792694568634033,4.375360488891602,0.7793694734573364,-0.6007329225540161,-0.17805469036102295,0.08401864767074585,0.6027621030807495,0.4091643691062927
0.6852050199702929,1.3191154727069658,2.3983839939336478,-0.805269181728363,-1.3535572290420532,4.406291961669922,0.7498958110809326,-0.6328317523002625,-0.19282305240631104,0.004361450672149658,0.5930976271629333,0.3890053331851959
0.7255997912125278,1.2884189995560706,2.424179884596349,-0.8528955578804016,-1.447214961051941,4.437706470489502,0.7184737324714661,-0.663584291934967,-0.2084507793188095,-0.055998146533966064,0.5770362019538879,0.3697362542152405
0.7655240890173935,1.253775268539023,2.4532227258907375,-0.8694619536399841,-1.5414364337921143,4.466100215911865,0.6850899457931519,-0.6929149627685547,-0.22476881742477417,-0.11229026317596436,0.5719430446624756,0.34645769000053406
0.8047381631701014,1.2151524765736443,2.485649809924744,-0.8733856081962585,-1.5985026359558105,4.460792064666748,0.6499150991439819,-0.7206491231918335,-0.24140292406082153,-0.1780676245689392,0.5594550967216492,0.3148740530014038
0.8426402834911719,1.1727197492153132,2.521560169980889,-0.8772014379501343,-1.618155837059021,4.392167091369629,0.6134583950042725,-0.7464028000831604,-0.25797632336616516,-0.2634981870651245,0.5268134474754333,0.28014740347862244
0.8785250119051017,1.1267390301739677,2.560975430058844,-0.8841301798820496,-1.601104497909546,4.2678961753845215,0.5763837099075317,-0.7697982788085938,-0.2742125689983368,-0.360914409160614,0.4768751263618469,0.24244379997253418
0.9118510929832183,1.0774685708617564,2.6038630201955484,-0.8948021531105042,-1.5614283084869385,4.115722179412842,0.5392758250236511,-0.7906385064125061,-0.2899525761604309,-0.4438627362251282,0.41902583837509155,0.21042385697364807
0.9423681727077192,1.0248476647625275,2.6503193631021253,-0.9225155115127563,-1.539954662322998,3.9640419483184814,0.5024176836013794,-0.8089525699615479,-0.3052412271499634,-0.500830888748169,0.3624498248100281,0.18227073550224304
0.9697922469670995,0.9683650840074516,2.7005720266344904,-0.9744250774383545,-1.5539659261703491,3.8060388565063477,0.46592581272125244,-0.8247682452201843,-0.3204227387905121,-0.5371081829071045,0.3103179931640625,0.16641581058502197
0.9938660248212924,0.9080162238881009,2.7544299145391475,-1.0086771249771118,-1.5710740089416504,3.63848876953125,0.4299730062484741,-0.8381409645080566,-0.33562371134757996,-0.5796923637390137,0.2708953022956848,0.14763545989990234
1.0146232118777896,0.8443889917814523,2.81114655828958,-1.0148043632507324,-1.5875765085220337,3.4626810550689697,0.3946698009967804,-0.8492816686630249,-0.3506515920162201,-0.6265424489974976,0.22809624671936035,0.10109418630599976
1.032163621542746,0.7784740165706193,2.8696929535404014,-0.9927691221237183,-1.599348783493042,3.2874996662139893,0.36019933223724365,-0.8584108352661133,-0.36522236466407776,-0.6691594123840332,0.17956244945526123,0.042178571224212646
1.0466125498398597,0.7115520298923713,2.9288159507241813,-0.9448179006576538,-1.588696002960205,3.081651449203491,0.32683584094047546,-0.865732729434967,-0.3790583610534668,-0.7094653844833374,0.11567157506942749,-0.024506032466888428
1.0581056710292838,0.645713677434818,2.986597974879109,-0.8599479794502258,-1.5441519021987915,2.8261685371398926,0.29518187046051025,-0.8714278340339661,-0.3917669653892517,-0.7765357494354248,0.035871684551239014,-0.10093927383422852
1.066964253826431,0.583012621542367,3.041099371264833,-0.7524867057800293,-1.4738777875900269,2.5348076820373535,0.2657932639122009,-0.8757389187812805,-0.40303292870521545,-0.852753221988678,-0.05310946702957153,-0.17323046922683716
1.0735139801843288,0.5253342029052046,3.0907719352496352,-0.6492820382118225,-1.3422662019729614,2.213111400604248,0.2392360270023346,-0.8788822293281555,-0.4127132296562195,-0.9266141057014465,-0.12838101387023926,-0.22652313113212585
1.0779576512614255,0.47439394756892955,3.1344379389628143,-0.5662155747413635,-1.160818099975586,1.857740044593811,0.2161250114440918,-0.8809933662414551,-0.4208811819553375,-1.0077663660049438,-0.19324076175689697,-0.2711201310157776
1.0804865186710741,0.4313609303832062,-3.111985541361824,-0.5012219548225403,-0.9725438356399536,1.4932843446731567,0.19688652455806732,-0.882187008857727,-0.42776381969451904,-1.070726990699768,-0.250762939453125,-0.3021097779273987
1.0814453144590557,0.3962359207226895,-3.08227419670079,-0.450471967458725,-0.8148226737976074,1.152922511100769,0.18141645193099976,-0.8826380968093872,-0.4336337447166443,-1.104512333869934,-0.28754329681396484,-0.32124900817871094
1.0812161217090215,0.3687938875115149,-3.0595112821566093,-0.391742080450058,-0.6558330059051514,0.8195238709449768,0.1695227324962616,-0.8825303316116333,-0.4386368691921234,-1.1204200983047485,-0.3045119643211365,-0.3278120458126068
1.0801494074370748,0.34949227923928683,-3.044076650264784,-0.32033002376556396,-0.4795685410499573,0.4627993106842041,0.16134755313396454,-0.8820282220840454,-0.4427112638950348,-1.1625683307647705,-0.31323862075805664,-0.3471599221229553
1.0783865719891628,0.3394007804286043,-3.0369029445101035,-0.23796378076076508,-0.2726326882839203,0.050106823444366455,0.15738919377326965,-0.8811962008476257,-0.4457824230194092,-1.2249553203582764,-0.33703505992889404,-0.37192073464393616
1.076040720061565,0.33967310571407405,-3.0390989361913903,-0.13257454335689545,-0.06601021438837051,-0.4068686068058014,0.15819889307022095,-0.880084753036499,-0.4476873576641083,-1.2866170406341553,-0.36283522844314575,-0.3874718248844147
1.073281385300766,0.3504488931084383,-3.051207731874405,0.0034203180111944675,0.08465199917554855,-0.863014817237854,0.16384689509868622,-0.8787712454795837,-0.44823580980300903,-1.3201886415481567,-0.36216509342193604,-0.3974214494228363
1.070211177993875,0.3706774456043574,-3.0726331871671744,0.1442670375108719,0.19986064732074738,-1.2729536294937134,0.17385651171207428,-0.8773018717765808,-0.44734275341033936,-1.3121775388717651,-0.33207935094833374,-0.39459139108657837
1.066668535776187,0.3992605514969315,-3.102292133185958,0.26927289366722107,0.32110345363616943,-1.6418571472167969,0.18777723610401154,-0.8755961060523987,-0.4450521767139435,-1.2681607007980347,-0.28774935007095337,-0.37176603078842163
1.0622755103266859,0.4351213653387963,-3.1389565620972073,0.3649768829345703,0.4370521605014801,-1.9684607982635498,0.2052324265241623,-0.8734656572341919,-0.4415174424648285,-1.2022112607955933,-0.24514102935791016,-0.3369096517562866
1.0566264341348748,0.47697490330368425,3.101872262674459,0.4468075633049011,0.5518088340759277,-2.2564609050750732,0.22578807175159454,-0.870701253414154,-0.4369201958179474,-1.1288186311721802,-0.1881367564201355,-0.2933196425437927
1.049443174290418,0.5237648155773656,3.0550917664974313,0.5144514441490173,0.6789937019348145,-2.5048224925994873,0.24909868836402893,-0.8671460151672363,-0.4312862157821655,-1.062544822692871,-0.13064157962799072,-0.2546420693397522
1.0404543519939426,0.5743003157518438,3.0051819958506045,0.5650219917297363,0.8011739253997803,-2.7204034328460693,0.27479010820388794,-0.8626341223716736,-0.42467984557151794,-0.9910073280334473,-0.07965725660324097,-0.21705901622772217
1.0292935072454574,0.6274621991920651,2.9532920563979066,0.5901384353637695,0.9056200981140137,-2.9248032569885254,0.30260178446769714,-0.8569350838661194,-0.4172465205192566,-0.9189502000808716,-0.03170645236968994,-0.17581677436828613
1.0156345176874035,0.6820045663839424,2.900388188626112,0.6053964495658875,0.9791068434715271,-3.1272268295288086,0.33224576711654663,-0.8498151898384094,-0.40917864441871643,-0.8725137710571289,0.014258980751037598,-0.12904459238052368
0.9992572942474106,0.7372794520102092,2.847168095882222,0.6157241463661194,1.0816967487335205,-3.3313076496124268,0.36365264654159546,-0.8410694599151611,-0.40044859051704407,-0.8418631553649902,0.05261719226837158,-0.08494865894317627
0.9799854235394934,0.7926563909955828,2.794456217418027,0.6138026714324951,1.182988166809082,-3.5239081382751465,0.3967316448688507,-0.8304892778396606,-0.39101389050483704,-0.7998536229133606,0.08318978548049927,-0.048378169536590576
0.9578267040535696,0.8472450890523968,2.7430892796409316,0.6207187175750732,1.2677966356277466,-3.6942543983459473,0.43116340041160583,-0.8179432153701782,-0.3808770775794983,-0.7508503198623657,0.13039714097976685,-0.01580566167831421
0.933026618581238,0.9004256735126509,2.6935951732139576,0.6423372030258179,1.344659447669983,-3.835862636566162,0.46655455231666565,-0.803425669670105,-0.3699113726615906,-0.713197648525238,0.1801648736000061,0.006233423948287964
0.905858539087248,0.9515353127545972,2.646551946508722,0.6521294713020325,1.3936095237731934,-3.9471969604492188,0.5024362206459045,-0.7869551777839661,-0.3581335246562958,-0.6615549921989441,0.21313297748565674,0.030115365982055664
0.8764194309946876,1.0000613107951304,2.602358710777643,0.6520730257034302,1.441138744354248,-4.057384014129639,0.5384842753410339,-0.7684525847434998,-0.3457101285457611,-0.5982987880706787,0.25059962272644043,0.07674354314804077
0.844773380133157,1.0460267858899928,2.561049433470709,0.6517587900161743,1.4893487691879272,-4.161170482635498,0.5745660662651062,-0.7478206753730774,-0.3326233923435211,-0.550304651260376,0.28386175632476807,0.112301766872406
0.811158680042443,1.0891911243882264,2.522904313931034,0.6259378790855408,1.527329921722412,-4.228302001953125,0.6103256940841675,-0.7250856161117554,-0.31898847222328186,-0.49145984649658203,0.31061094999313354,0.14107105135917664
0.7757913638430792,1.1293162133410288,2.4882064520007026,0.5837638974189758,1.5506304502487183,-4.285860061645508,0.6454217433929443,-0.7002812027931213,-0.3050198256969452,-0.4237421751022339,0.3540439009666443,0.19340184330940247
0.7389239825528904,1.166158049396526,2.456946892329379,0.5342426896095276,1.520568609237671,-4.314399242401123,0.6795002222061157,-0.6734929084777832,-0.2910104990005493,-0.3597828149795532,0.3853304982185364,0.2293497920036316
0.7009701775551154,1.1994727141879586,2.429041540758855,0.4812037944793701,1.466637134552002,-4.311823844909668,0.712134063243866,-0.6449593901634216,-0.2772955298423767,-0.30150479078292847,0.4163978099822998,0.2559332847595215
0.6622598039154421,1.229559789482414,2.404181827682999,0.44080841541290283,1.4228603839874268,-4.305499076843262,0.7431350946426392,-0.614900529384613,-0.26390865445137024,-0.26765602827072144,0.44601601362228394,0.2672656178474426
0.6228217209882425,1.256944046775848,2.381874519520464,0.4060572385787964,1.3849564790725708,-4.328595161437988,0.7725591063499451,-0.5833293795585632,-0.25075748562812805,-0.23264217376708984,0.4543009400367737,0.2544806897640228
0.582570497472499,1.2820848986866829,2.361758103728299,0.3715147078037262,1.3686072826385498,-4.356211185455322,0.8004897832870483,-0.5501722693443298,-0.2377534806728363,-0.19903415441513062,0.4560101628303528,0.24063743650913239
0.5416430188856294,1.3052461045621784,2.3436136310799522,0.3466700315475464,1.3294439315795898,-4.364714622497559,0.8268282413482666,-0.5155445337295532,-0.2248752862215042,-0.13757354021072388,0.46468687057495117,0.2329472452402115
0.5005636798424459,1.3263977956240944,2.3272341991015004,0.33247724175453186,1.2713558673858643,-4.3073906898498535,0.8512412905693054,-0.4799201488494873,-0.21228569746017456,-0.06407088041305542,0.4890752136707306,0.22618651390075684
0.4600245133427214,1.3455030274090491,2.312510116960787,0.32159870862960815,1.189246654510498,-4.196871280670166,0.8733975291252136,-0.44397008419036865,-0.20016878843307495,0.022888481616973877,0.530197262763977,0.22490334510803223
0.4204134127757732,1.3625615625248755,2.2993235569471784,0.30466315150260925,1.1048649549484253,-4.067073822021484,0.8931989073753357,-0.40813788771629333,-0.1887308806180954,0.1060991883277893,0.5603441596031189,0.22413136065006256
0.38185104835918526,1.3777892224830228,2.287604760147614,0.2713770568370819,1.0294086933135986,-3.9335672855377197,0.9107456803321838,-0.3726388216018677,-0.17799611389636993,0.1815394163131714,0.5679206848144531,0.2216057926416397
0.34438200780213596,1.3913621217835512,2.2773520841450967,0.22509531676769257,0.9597771167755127,-3.7972447872161865,0.9261718392372131,-0.337615042924881,-0.16799373924732208,0.2535003423690796,0.5651692152023315,0.22231508791446686
0.3080871373713795,1.4034113167525875,2.268515837032944,0.17269083857536316,0.885421633720398,-3.6491317749023438,0.9395974278450012,-0.3032363951206207,-0.15875999629497528,0.33806681632995605,0.5613234043121338,0.22577667236328125
0.2733174590254383,1.4140528843736953,2.260996623435773,0.12978731095790863,0.8166587948799133,-3.4526376724243164,0.9510768055915833,-0.2699272334575653,-0.1503080129623413,0.4421727657318115,0.5748281478881836,0.22944015264511108
0.24062381368431476,1.423452804373653,2.254593359762663,0.10884690284729004,0.7363694906234741,-3.200796365737915,0.9606664180755615,-0.23830851912498474,-0.1425812840461731,0.5786098837852478,0.6022151708602905,0.22896133363246918
0.2107390732292733,1.4315035393720432,2.2490636951405647,0.10777232050895691,0.6247375011444092,-2.8682973384857178,0.9684053659439087,-0.20918267965316772,-0.13577112555503845,0.7310575246810913,0.6329953670501709,0.2225937396287918
0.18450680629148436,1.4380520377439125,2.2442914318888127,0.10928243398666382,0.49984630942344666,-2.4561116695404053,0.9743787050247192,-0.1834617406129837,-0.1301083266735077,0.8860187530517578,0.6619771718978882,0.22106599807739258
0.16258252810452367,1.4431286101465028,2.2403498503382253,0.08941604942083359,0.3852717876434326,-1.996407151222229,0.978781521320343,-0.16186721622943878,-0.12564216554164886,1.0229122638702393,0.6865557432174683,0.22064346075057983
0.14523616093543423,1.4469531799039768,2.2373982410981803,0.05262817442417145,0.29397737979888916,-1.5212093591690063,0.9818936586380005,-0.14472611248493195,-0.12222631275653839,1.119104266166687,0.6909447908401489,0.21635782718658447
0.13269767801512933,1.4496570839991114,2.2355797824964276,-0.0017967154271900654,0.19768491387367249,-1.0135152339935303,0.9839446544647217,-0.13230858743190765,-0.11978080123662949,1.1904022693634033,0.6768946051597595,0.19906552135944366
0.12519037860502724,1.451312504043772,2.2349392545966507,-0.05024145543575287,0.1193348690867424,-0.4983423948287964,0.9851000308990479,-0.1248636245727539,-0.11826686561107635,1.2490918636322021,0.6667183041572571,0.17808139324188232
0.12264706211535359,1.4521093612007916,2.2352530562142787,-0.06652934849262238,0.04735201597213745,-0.0044999332167208195,0.9855061769485474,-0.12233980745077133,-0.1175190731883049,1.2672710418701172,0.662897527217865,0.14548850059509277
0.12482144950244857,1.452040448542446,2.2361432807062207,-0.05563177913427353,-0.043202996253967285,0.45648932456970215,0.9852316379547119,-0.12449757754802704,-0.11755519360303879,1.2497689723968506,0.6481180191040039,0.10955966264009476
0.13153076860523263,1.4508531926140138,2.2373650264361404,-0.023318316787481308,-0.16532598435878754,0.9048241972923279,0.9842398762702942,-0.13115184009075165,-0.11862220615148544,1.220884084701538,0.627535343170166,0.0875554159283638
0.14264506610237326,1.4484647405680724,2.238686945830639,0.03280068561434746,-0.27505311369895935,1.333875060081482,0.9824462532997131,-0.14216181635856628,-0.12078733742237091,1.1689667701721191,0.6213486194610596,0.07252383232116699
0.15793709672621836,1.445069837444803,2.239996085591391,0.08710360527038574,-0.3641584813594818,1.7333524227142334,0.9797590970993042,-0.1572813093662262,-0.12383485585451126,1.0914080142974854,0.617135226726532,0.062250420451164246
0.17705283030974364,1.4408300219400876,2.2414376823454556,0.11587507277727127,-0.4355067312717438,2.0945396423339844,0.9760653376579285,-0.17612925171852112,-0.12757471203804016,1.0056090354919434,0.6098296642303467,0.06281650066375732
0.19952071191637766,1.4358336280673514,2.243222784482985,0.1291019320487976,-0.5006529688835144,2.409696578979492,0.9712486267089844,-0.1981995701789856,-0.13188406825065613,0.909824550151825,0.6033965349197388,0.0762963742017746
0.22499615738140222,1.4299662412606609,2.2455115360446674,0.12398835271596909,-0.5791633725166321,2.704559564590454,0.9651444554328918,-0.2231026142835617,-0.13682714104652405,0.8108108043670654,0.5957373380661011,0.10148787498474121
0.2532516023566499,1.4230470154266275,2.24861267281629,0.09053798764944077,-0.6566701531410217,2.98248291015625,0.9575552940368652,-0.250553160905838,-0.14251668751239777,0.7232765555381775,0.5930823087692261,0.13944973051548004
0.28406662219741324,1.4150590534819283,2.2528005606073944,0.0429479219019413,-0.7225284576416016,3.24015212059021,0.9483062624931335,-0.2802616059780121,-0.1488923281431198,0.6349610090255737,0.6005128622055054,0.17278766632080078
0.31713654725596196,1.4059331304432225,2.258239391851242,-0.013427202589809895,-0.7824527621269226,3.4622440338134766,0.9372494220733643,-0.31184718012809753,-0.15593324601650238,0.541922390460968,0.6050751209259033,0.19452279806137085
0.352022888392117,1.3955747972626606,2.2650659538755527,-0.07583370059728622,-0.8441300392150879,3.638017416000366,0.924304187297821,-0.3447973430156708,-0.16363611817359924,0.44013679027557373,0.5983676910400391,0.2168741226196289
0.38817974846373426,1.3838878724644348,2.2732490435761425,-0.12436821311712265,-0.9027960300445557,3.7573890686035156,0.9094789624214172,-0.37850421667099,-0.17199687659740448,0.33667588233947754,0.5899298191070557,0.23246753215789795
0.42516264475426124,1.3708665264003357,2.2826923452993393,-0.15794184803962708,-0.9583746790885925,3.8456945419311523,0.8928256630897522,-0.41246894001960754,-0.18091948330402374,0.2442287802696228,0.5817803144454956,0.23702609539031982
0.4627863451284805,1.3563596298874134,2.2934236365188636,-0.19187743961811066,-1.0269923210144043,3.9315507411956787,0.8743177652359009,-0.4464430809020996,-0.19041340053081512,0.17203843593597412,0.5763867497444153,0.2449636459350586
0.5010027406748065,1.3400605698375962,2.3056086329222985,-0.22905118763446808,-1.1063742637634277,4.013514995574951,0.8538568615913391,-0.4803052842617035,-0.2005877047777176,0.12420099973678589,0.5831340551376343,0.25533628463745117
0.5397866858027516,1.321739991218441,2.319504717521206,-0.27238133549690247,-1.1793406009674072,4.108048915863037,0.8313508629798889,-0.5139530301094055,-0.21144326031208038,0.08432906866073608,0.5950685739517212,0.26576459407806396
0.5790920019832801,1.301205385583188,2.3354335514600453,-0.32431280612945557,-1.2336219549179077,4.195119857788086,0.8067290782928467,-0.5472642183303833,-0.22291359305381775,0.04852616786956787,0.6071699857711792,0.2710093557834625
0.6186062431683546,1.2785683296638088,2.3537195583500665,-0.3879692852497101,-1.2280727624893188,4.244932174682617,0.7801485061645508,-0.5799002647399902,-0.2347005158662796,-0.011914193630218506,0.6210529804229736,0.2713979184627533
0.657882316230785,1.2541009122546,2.3745370647053847,-0.4489484429359436,-1.1883805990219116,4.263062000274658,0.7519381046295166,-0.611442506313324,-0.24642959237098694,-0.09404003620147705,0.6345440745353699,0.2657777965068817
0.6966286548584104,1.2276884653224605,2.3979665644258605,-0.4961170256137848,-1.1630245447158813,4.267638683319092,0.7223037481307983,-0.6416354775428772,-0.25803396105766296,-0.16160422563552856,0.6392090916633606,0.25228145718574524
0.7347218790882556,1.1990220229845494,2.424038033221415,-0.5220296382904053,-1.151570439338684,4.257089138031006,0.6913259029388428,-0.6703808307647705,-0.26955199241638184,-0.22582608461380005,0.6380014419555664,0.2327478528022766
0.7719744022074888,1.168102550372791,2.4525262591611505,-0.5113780498504639,-1.1371595859527588,4.220836639404297,0.6592183113098145,-0.6975513100624084,-0.2808086574077606,-0.288490891456604,0.6300920844078064,0.1998760998249054
0.8081720491060518,1.1350751219333404,2.483174752983986,-0.4840700626373291,-1.1155441999435425,4.157805442810059,0.6262751221656799,-0.7230256199836731,-0.2915710508823395,-0.35392099618911743,0.6015806794166565,0.15468454360961914
0.8429786292579632,1.1000494899987137,2.515910535537398,-0.46009254455566406,-1.0800379514694214,4.0530476570129395,0.5928835868835449,-0.746627926826477,-0.30172187089920044,-0.4289737343788147,0.5579070448875427,0.12116467952728271
0.8759869808667746,1.0631843380664556,2.55053862404362,-0.43102598190307617,-1.0514777898788452,3.9119083881378174,0.5595099925994873,-0.7681757807731628,-0.31121498346328735,-0.4999855160713196,0.4960503578186035,0.09029829502105713
0.9069904349987615,1.0244378385896453,2.586883478891826,-0.40106940269470215,-1.0529124736785889,3.7632808685302734,0.526425838470459,-0.7876530885696411,-0.32012271881103516,-0.550244927406311,0.4127597212791443,0.05193433165550232
0.9358796298845641,0.983537160910516,2.62488755458307,-0.37587404251098633,-1.0820026397705078,3.5938804149627686,0.4937423765659332,-0.805121123790741,-0.3286316394805908,-0.5915970206260681,0.3328002691268921,0.018664628267288208
0.962325002740115,0.9407304652664726,2.6640363343213793,-0.34123244881629944,-1.1156806945800781,3.3564255237579346,0.46185770630836487,-0.8205227851867676,-0.33679383993148804,-0.658085823059082,0.24505263566970825,-0.013517379760742188
0.9858027749159184,0.897395477602784,2.7029661524683335,-0.29028692841529846,-1.1072872877120972,3.0336649417877197,0.43165308237075806,-0.8337156176567078,-0.34437480568885803,-0.7525302171707153,0.1362972855567932,-0.0631568431854248
1.005934455616948,0.8555180240571041,2.7400293920899763,-0.23166491091251373,-1.0449751615524292,2.6465678215026855,0.4041031301021576,-0.8446625471115112,-0.35106396675109863,-0.853398323059082,0.02846980094909668,-0.1179148256778717
1.0227811683984007,0.8170490314401212,2.7736971561342565,-0.14818459749221802,-0.929830014705658,2.2494282722473145,0.37987220287323,-0.8535602688789368,-0.35655584931373596,-0.9334917068481445,-0.05838137865066528,-0.17167288064956665
1.0368336452639686,0.7833775628306886,2.8028371015990152,-0.04781166464090347,-0.8098788261413574,1.8706916570663452,0.3591530919075012,-0.8607970476150513,-0.36060744524002075,-0.9686655402183533,-0.11553674936294556,-0.22250711917877197
1.0486445701759672,0.7552236906972242,2.826953760908101,0.05365791544318199,-0.6506794691085815,1.5306118726730347,0.3418666422367096,-0.866748034954071,-0.36314648389816284,-0.9619228839874268,-0.14210224151611328,-0.2575199604034424
1.0587580773409997,0.7331160677648748,2.846088243258771,0.1521834284067154,-0.4384615123271942,1.243902564048767,0.3278724253177643,-0.8717476725578308,-0.3640822768211365,-0.931555986404419,-0.14497613906860352,-0.28095245361328125
1.0676646646359707,0.7172411235751903,2.8608327222853562,0.22735796868801117,-0.15096724033355713,1.0194504261016846,0.31693530082702637,-0.876076877117157,-0.36337515711784363,-0.8983105421066284,-0.13423824310302734,-0.2881750464439392
1.0755203177990937,0.7075669233551085,2.8719749444257308,0.2625023424625397,0.171425461769104,0.8237459063529968,0.3089222311973572,-0.8798375725746155,-0.36118292808532715,-0.8498006463050842,-0.12094080448150635,-0.2840196490287781
1.082349812999806,0.7034988913200544,2.8802010687149795,0.27119016647338867,0.46060317754745483,0.6634728312492371,0.3035562038421631,-0.8830628991127014,-0.3578460216522217,-0.8259104490280151,-0.10663753747940063,-0.26404112577438354
1.0882446311438956,0.7040440896971409,2.8863949487250498,0.2507573366165161,0.7498038411140442,0.5463494062423706,0.30037638545036316,-0.8858137130737305,-0.353706419467926,-0.8137127161026001,-0.09055054187774658,-0.2313002347946167
1.0931004145407162,0.7087201344349885,2.891332707813211,0.18942566215991974,1.06784188747406,0.4319302439689636,0.2992238998413086,-0.8880565762519836,-0.34902822971343994,-0.7969046831130981,-0.08510333299636841,-0.2064373791217804
1.096660131090904,0.7174318841344848,2.895498496531987,0.09803130477666855,1.4256151914596558,0.3250216543674469,0.3001728355884552,-0.8896874189376831,-0.34402406215667725,-0.7895071506500244,-0.08466261625289917,-0.1794743835926056
1.0988228253861783,0.7302216199991896,2.8994399070944716,-0.014446564018726349,1.85299551486969,0.23285411298274994,0.3032640218734741,-0.8906728029251099,-0.3387226164340973,-0.7674517631530762,-0.07697868347167969,-0.16626694798469543
1.0995369136603586,0.7473189885043774,2.9037120473407505,-0.1419275552034378,2.331904888153076,0.15196219086647034,0.3085784316062927,-0.8909972310066223,-0.3330218493938446,-0.7300873398780823,-0.07175624370574951,-0.1683056354522705
1.0988824146633585,0.7684234106947847,2.908758578504363,-0.2648787200450897,2.7990291118621826,0.09830079227685928,0.315942645072937,-0.8906998634338379,-0.32685503363609314,-0.7031345367431641,-0.05323946475982666,-0.17033731937408447
1.0973292848876786,0.7930082386026739,2.915294391655023,-0.3740275800228119,3.2977633476257324,0.11623318493366241,0.32486724853515625,-0.8899927735328674,-0.31995999813079834,-0.6727372407913208,-0.012839436531066895,-0.16394191980361938
1.095512178611942,0.8204700270417212,2.924469139341721,-0.4847904145717621,3.846116304397583,0.2104126513004303,0.3347128629684448,-0.8891627192497253,-0.3120213747024536,-0.6109886169433594,0.041185855865478516,-0.1717737317085266
1.0938301593155768,0.8541856844313462,2.939384430806854,-0.6250450015068054,4.531869888305664,0.3894425630569458,0.34616777300834656,-0.8883917927742004,-0.3015429675579071,-0.539359450340271,0.09305781126022339,-0.178330659866333
1.0930179000585174,0.8861401780725869,2.95795635825719,-0.7941685914993286,5.171366214752197,0.5916242599487305,0.35618385672569275,-0.8880186080932617,-0.29078546166419983,-0.4561290442943573,0.12906157970428467,-0.1655896008014679
1.0929656570249016,0.9188639272813992,2.982788791152546,-1.0132421255111694,5.804349422454834,0.822083592414856,0.36554408073425293,-0.8879945874214172,-0.27900445461273193,-0.3991440534591675,0.1551758050918579,-0.1405969262123108
1.0938353170953166,0.9515993648155645,3.0146882363003873,-1.247304916381836,6.422840118408203,1.0613744258880615,0.3738507032394409,-0.8883941769599915,-0.2664424180984497,-0.36294078826904297,0.1780974268913269,-0.1163090169429779
1.0957479319086718,0.9837944902444418,3.053557141224798,-1.4723503589630127,6.935052871704102,1.2749743461608887,0.3808182179927826,-0.8892706036567688,-0.25332868099212646,-0.34392258524894714,0.20074814558029175,-0.11025771498680115
1.0988771702022189,1.0155180329655085,3.0983110294771397,-1.6147440671920776,7.395745277404785,1.4575910568237305,0.3862951397895813,-0.8906974792480469,-0.23965412378311157,-0.33147042989730835,0.2266654372215271,-0.10385172069072723
1.1035391340927083,1.0483439589139598,-3.1367577476426045,-1.6347172260284424,7.755465507507324,1.5735101699829102,0.39034971594810486,-0.892807126045227,-0.22477224469184875,-0.3032679259777069,0.22961431741714478,-0.14389535784721375
1.1097893662991152,1.0835571767329488,-3.0884384278080805,-1.543836236000061,7.927441120147705,1.610507845878601,0.39308252930641174,-0.8956050276756287,-0.20827361941337585,-0.2738504707813263,0.2206934094429016,-0.20200471580028534
1.11750045295025,1.1210921432837038,-3.042260354108595,-1.3974579572677612,7.868204116821289,1.6169253587722778,0.3943901062011719,-0.8990086317062378,-0.19036826491355896,-0.2571069002151489,0.21541482210159302,-0.22189369797706604
1.126945164646848,1.1597177343167113,-2.9990571445726206,-1.227033257484436,7.660506725311279,1.6837983131408691,0.3936461806297302,-0.9031046032905579,-0.17159594595432281,-0.22850030660629272,0.23119884729385376,-0.19598831236362457
1.1387202104381586,1.198125239829516,-2.958000068164188,-1.1106581687927246,7.490634441375732,1.8400981426239014,0.3900130093097687,-0.9080983400344849,-0.1524713933467865,-0.17887717485427856,0.2580432891845703,-0.1502019762992859
1.153158542179454,1.2343802124718626,-2.916505773503481,-1.1182620525360107,7.347743511199951,2.0727412700653076,0.3828665018081665,-0.9140496253967285,-0.13389210402965546,-0.13048610091209412,0.2961447238922119,-0.09340287744998932
1.1704341718739502,1.2658097063119338,-2.8714085734420656,-1.21245276927948,7.244670391082764,2.342332124710083,0.37176570296287537,-0.9209198951721191,-0.11703501641750336,-0.08746397495269775,0.3676818609237671,-0.020034730434417725
1.1902160432457682,1.2907252144694796,-2.820845948372494,-1.340585708618164,7.098564624786377,2.553117036819458,0.35698628425598145,-0.9284492135047913,-0.10268042981624603,-0.0028755366802215576,0.40075433254241943,0.021946117281913757
1.2117005560551408,1.3075163470113162,-2.7640318777832307,-1.4688472747802734,6.874495029449463,2.686702251434326,0.33931881189346313,-0.9362149834632874,-0.09145887941122055,0.026495426893234253,0.33788710832595825,0.03805308789014816
1.2341082651506587,1.3153068283814082,-2.70041511376726,-1.5761688947677612,6.678060054779053,2.756265640258789,0.3196398615837097,-0.9438539743423462,-0.08348916471004486,0.0006268620491027832,0.24635934829711914,0.05474156141281128
1.256734859080507,1.314035650216149,-2.6294328724941,-1.6759977340698242,6.553130149841309,2.773036479949951,0.2987971007823944,-0.9510867595672607,-0.07845095545053482,-0.01724192500114441,0.1855379343032837,0.052053213119506836
1.27894047925896,1.302170796311198,-2.548830898804675,-1.833658218383789,6.492422103881836,2.7710788249969482,0.2774117887020111,-0.9577115178108215,-0.076365627348423,-0.04442530870437622,0.1723719835281372,0.05451499670743942
1.3002236621435082,1.2750584817599955,-2.453310605292337,-2.090155601501465,6.458131790161133,2.80173921585083,0.2556803226470947,-0.9636179804801941,-0.07789872586727142,-0.06041356921195984,0.19233191013336182,0.08925122022628784
1.3200147826462336,1.226107137974539,-2.33652041811326,-2.3842549324035645,6.330694198608398,2.848367214202881,0.23356488347053528,-0.9687187671661377,-0.08385484665632248,-0.02987527847290039,0.22184675931930542,0.1290818452835083
1.3373532139860713,1.1506194349638246,-2.1946418994047296,-2.6346943378448486,6.136936187744141,2.9139010906219482,0.2112075388431549,-0.9728756546974182,-0.09436430037021637,0.023136988282203674,0.23328208923339844,0.1421852707862854
1.3515509542974986,1.0469905197738567,-2.0268106208571917,-2.7724449634552,5.8625407218933105,3.0418570041656494,0.18833309412002563,-0.9760618805885315,-0.10878615826368332,0.06069043278694153,0.2270229458808899,0.11853645741939545
1.362217697594066,0.9183285950872108,-1.8367805834922062,-2.7468485832214355,5.569726943969727,3.208735466003418,0.1645352989435196,-0.9783262014389038,-0.12572234869003296,0.10180690884590149,0.1924375295639038,0.05304469168186188
1.3688998988364294,0.771137258403627,-1.631022339178033,-2.6388044357299805,5.304475784301758,3.3509645462036133,0.1397584080696106,-0.9796880483627319,-0.14380252361297607,0.12225033342838287,0.13844043016433716,-0.0176965594291687
1.3707486312031512,0.6127123180377883,-1.4165675187519826,-2.5504019260406494,5.064274787902832,3.480084180831909,0.11427952349185944,-0.9800571203231812,-0.16256815195083618,0.09285861253738403,0.11637908220291138,-0.0344381183385849
1.366747443677557,0.4500446324539628,-1.1999249035537467,-2.5606210231781006,4.881708145141602,3.6051952838897705,0.08814802020788193,-0.9792541861534119,-0.18245947360992432,0.06987208127975464,0.11208182573318481,-0.009007871150970459
1.3552628659499748,0.29498300005985767,-0.9921486406155509,-2.7458267211914062,4.7805891036987305,3.6000726222991943,0.06217692419886589,-0.9768624305725098,-0.20463190972805023,0.06819425523281097,0.09861218929290771,0.05643850564956665
1.3350238620886972,0.16317256442495123,-0.8083491376896844,-3.0636868476867676,4.70196008682251,3.49239182472229,0.037947364151477814,-0.9723342061042786,-0.23049204051494598,0.011735334992408752,0.09994333982467651,0.1304706335067749
1.3069615010013431,0.06056376690032037,-0.6548565157464736,-3.3408727645874023,4.537659168243408,3.4403793811798096,0.015784457325935364,-0.9653970003128052,-0.260306715965271,-0.0389777347445488,0.1100960373878479,0.14984828233718872
1.2736738997979256,-0.017260356613436546,-0.527746652152377,-3.442976474761963,4.334881782531738,3.465118408203125,-0.005053067114204168,-0.9561828970909119,-0.2927265763282776,-0.01795707643032074,0.08009952306747437,0.09990128874778748
1.23776321914138,-0.07725988968622566,-0.42071999407202637,-3.4050679206848145,4.031371116638184,3.5024962425231934,-0.025232015177607536,-0.9450551271438599,-0.32593613862991333,-0.00212688185274601,0.016573011875152588,0.004067182540893555
1.2010881608607356,-0.12383746119653498,-0.3296445247463491,-3.2593369483947754,3.779088258743286,3.4713706970214844,-0.04463359713554382,-0.9324328303337097,-0.3585764765739441,-0.051374610513448715,-0.01831185817718506,-0.06245929002761841
1.1649172878578746,-0.1588450513560773,-0.25207854162107696,-3.085479974746704,3.6031224727630615,3.3556387424468994,-0.06245288997888565,-0.9187557101249695,-0.3898562788963318,-0.1446850746870041,-0.05667775869369507,-0.09735691547393799
1.1296517331186033,-0.18291919038571317,-0.18675471789420559,-2.971168041229248,3.5218088626861572,3.1284468173980713,-0.07766707241535187,-0.9042635560035706,-0.41985154151916504,-0.24957279860973358,-0.12048619985580444,-0.09725353121757507
1.0949565485106252,-0.19518848302975025,-0.13372040305498917,-2.989694356918335,3.5586516857147217,2.7856767177581787,-0.08884631842374802,-0.888908326625824,-0.4493868350982666,-0.35111021995544434,-0.1680527925491333,-0.06536847352981567
1.0598314918534486,-0.19576726448009685,-0.0925073845961816,-3.1703670024871826,3.5922255516052246,2.4216420650482178,-0.09512362629175186,-0.8722730875015259,-0.47967830300331116,-0.4103693962097168,-0.1802935004234314,-0.01893317699432373
1.023022316953255,-0.18730629167536988,-0.06102027122784314,-3.471466064453125,3.5296332836151123,2.116398572921753,-0.09697756916284561,-0.8536859154701233,-0.5116795301437378,-0.37284040451049805,-0.17017889022827148,0.05495345592498779
0.9837518047384327,-0.17392908531222323,-0.03624283304383946,-3.768479347229004,3.331634759902954,1.9411381483078003,-0.09585482627153397,-0.8325813412666321,-0.5455458760261536,-0.2649543881416321,-0.1351158618927002,0.11607193946838379
0.9432276588675022,-0.1605077190467297,-0.013572871470923065,-3.7776288986206055,3.058420181274414,1.990936040878296,-0.0938425213098526,-0.809457540512085,-0.5796310305595398,-0.12060438096523285,-0.06996756792068481,0.0988418459892273
0.9036415333830772,-0.15129355528803587,0.010917362075638282,-3.573768138885498,2.7094311714172363,2.171231508255005,-0.09325667470693588,-0.785585343837738,-0.6116852760314941,0.037714824080467224,-0.0036908388137817383,-0.12432235479354858
0.8667381686808674,-0.1465784426666767,0.03818509318256421,-3.213501214981079,2.4832019805908203,2.338853597640991,-0.0945432111620903,-0.7622215747833252,-0.6403748393058777,0.05195607990026474,-0.031845808029174805,-0.22278434038162231
0.8334121202245285,-0.14403780970526112,0.06726496337514958,-2.843130350112915,2.4191737174987793,2.4263510704040527,-0.09650987386703491,-0.7402298450469971,-0.6653913855552673,-0.015397951006889343,-0.0629165768623352,-0.29801803827285767
0.8032125089545787,-0.1414975523779587,0.0971640350696213,-2.5833935737609863,2.47174072265625,2.4886362552642822,-0.09792817384004593,-0.7195905447006226,-0.6874588131904602,-0.07921095937490463,-0.06304806470870972,-0.3403274416923523
0.7746414126167205,-0.13789150962040625,0.12755732437946168,-2.5135200023651123,2.5718302726745605,2.5563862323760986,-0.09823518991470337,-0.6994598507881165,-0.7078883051872253,-0.12085036188364029,-0.06651616096496582,-0.29118096828460693
0.745829193283986,-0.1328936292942296,0.15812841766330973,-2.625666856765747,2.642988681793213,2.6200807094573975,-0.09732669591903687,-0.6785811185836792,-0.7280489802360535,-0.1201719269156456,-0.025886714458465576,-0.1915220022201538
0.7154119896868923,-0.1269724551709085,0.18865143529647785,-2.831402540206909,2.6068248748779297,2.6851797103881836,-0.09558442234992981,-0.6559284329414368,-0.7487466335296631,-0.10873060673475266,0.03643685579299927,-0.08542078733444214
0.6830255103544699,-0.121361699064739,0.21906482767172814,-3.0223026275634766,2.4211513996124268,2.7415924072265625,-0.09390532225370407,-0.6311426758766174,-0.7699615359306335,-0.0800752341747284,0.08219248056411743,-0.03110969066619873
0.6493388302806236,-0.11729323792858629,0.2492044815816694,-3.0927207469940186,2.1144373416900635,2.768876075744629,-0.09320809692144394,-0.604659914970398,-0.7910111546516418,-0.04787451773881912,0.09786975383758545,-0.03615248203277588
0.6160068444076561,-0.1146112229670815,0.2785948546622715,-2.96852970123291,1.93492591381073,2.700728416442871,-0.09334012120962143,-0.5777806043624878,-0.8108373880386353,-0.05601275712251663,0.07227212190628052,-0.09323060512542725
0.5849220945089032,-0.1101058196032259,0.3059412683258646,-2.7025439739227295,2.148770809173584,2.4662599563598633,-0.09161591529846191,-0.5521344542503357,-0.8287063241004944,-0.10206374526023865,-0.004551947116851807,-0.21993869543075562
0.5568664761787734,-0.09806443813414276,0.32973982855126044,-2.483125925064087,2.8635878562927246,2.1081082820892334,-0.08311504870653152,-0.5285286903381348,-0.8448368310928345,-0.14164674282073975,-0.08249425888061523,-0.37751418352127075
0.5310523367334166,-0.07642054194171938,0.3496691524231839,-2.379934787750244,3.5172502994537354,1.745102047920227,-0.06583137065172195,-0.5064409971237183,-0.8597579598426819,-0.175852432847023,-0.10030949115753174,-0.4491867423057556
0.5067317536293635,-0.048494556331474314,0.366023682035403,-2.2974419593811035,3.6097958087921143,1.4147003889083862,-0.042383886873722076,-0.4853222966194153,-0.873307466506958,-0.3016101121902466,-0.07224917411804199,-0.3586413860321045
0.4839244030978071,-0.020876876522059287,0.37984891409980626,-2.1821067333221436,3.1932854652404785,1.1901248693466187,-0.01847836561501026,-0.46525654196739197,-0.8849830031394958,-0.44506821036338806,-0.05425947904586792,-0.2664756774902344
0.46275821698046077,0.002584006842772607,0.3921942497234215,-2.031102418899536,2.655355930328369,1.0591249465942383,0.0023122301790863276,-0.4464179277420044,-0.8948215842247009,-0.4938892126083374,-0.03424924612045288,-0.2159571647644043
0.4435630465551881,0.022724215985564056,0.4037021903946478,-1.8385603427886963,2.433812141418457,0.9678690433502197,0.02052338793873787,-0.4291604161262512,-0.9029951095581055,-0.42102065682411194,-0.04293128848075867,-0.21451282501220703
0.4264415172036384,0.04252794798500159,0.4144944585317914,-1.6554629802703857,2.458902597427368,0.8762539029121399,0.03870762139558792,-0.41363364458084106,-0.9096202254295349,-0.2347981482744217,-0.08427596092224121,-0.2545643448829651
0.41128648351378216,0.06331308803683436,0.42428023785581565,-1.4665762186050415,2.4870591163635254,0.7448652982711792,0.05799447372555733,-0.39978885650634766,-0.9147707223892212,-0.0705675408244133,-0.13326174020767212,-0.25165683031082153
0.39828999039184293,0.08419651103691228,0.43249209336499667,-1.233790397644043,2.3208532333374023,0.5704469084739685,0.0775144174695015,-0.38784274458885193,-0.9184604287147522,-0.020965173840522766,-0.16058868169784546,-0.2372555136680603
0.3878336369335429,0.10340879377660435,0.4388287687522996,-0.9579200744628906,1.9987766742706299,0.40507635474205017,0.09555815905332565,-0.37818384170532227,-0.9207853674888611,-0.07985668629407883,-0.16257244348526,-0.21953445672988892
0.38012599654532675,0.11953720898932067,0.44344086907467506,-0.6700108051300049,1.5668611526489258,0.27883321046829224,0.11074022203683853,-0.37103748321533203,-0.921991229057312,-0.1458200067281723,-0.15775591135025024,-0.2147122621536255
0.37520118302793964,0.13148783841787404,0.44661631266453833,-0.38581717014312744,1.0538891553878784,0.18698222935199738,0.12198852747678757,-0.3664597272872925,-0.9224023222923279,-0.19457441568374634,-0.1636306643486023,-0.19402217864990234
0.3728131604044927,0.13863713260917768,0.44848910231649125,-0.14286339282989502,0.5137168169021606,0.0950578972697258,0.12870045006275177,-0.3642367720603943,-0.9223707318305969,-0.22789764404296875,-0.1849270761013031,-0.1810685396194458
0.3725321889757642,0.14107261797276874,0.4490469901175617,0.06792924553155899,0.031251125037670135,-0.00025937147438526154,0.1309608668088913,-0.3639751076698303,-0.9221558570861816,-0.25560975074768066,-0.20114943385124207,-0.15581649541854858
0.3740273589216408,0.14018295314207493,0.44826384163909455,0.24020139873027802,-0.2334873229265213,-0.10373543202877045,0.1300642192363739,-0.3653672933578491,-0.9217321276664734,-0.24302485585212708,-0.19958940148353577,-0.1516168713569641
0.376710313702479,0.1381314507298472,0.4461642689102596,0.33503609895706177,-0.3185133635997772,-0.208981454372406,0.12803757190704346,-0.3678634464740753,-0.9210227131843567,-0.15831084549427032,-0.18746498227119446,-0.15423357486724854
0.3797620421947054,0.13595542496747848,0.44294206010337644,0.34257179498672485,-0.35851749777793884,-0.29828765988349915,0.12588036060333252,-0.3706994652748108,-0.9201825857162476,-0.0743359923362732,-0.1638769805431366,-0.11573654413223267
0.382445320457293,0.13329666798707618,0.4389919345410869,0.28281235694885254,-0.48790353536605835,-0.35106360912323,0.12330073863267899,-0.3731902539730072,-0.9195248484611511,-0.03763771057128906,-0.13669750094413757,-0.0590670108795166
0.38439748910631577,0.12868823956121309,0.4349513382261505,0.20680013298988342,-0.75384122133255,-0.3312233090400696,0.11896815896034241,-0.37500065565109253,-0.9193590879440308,-0.01647469401359558,-0.10819944739341736,0.0020922422409057617
0.3858844892474537,0.12085127247965861,0.43160505090547163,0.1732770949602127,-1.0606778860092163,-0.24216628074645996,0.11169224232435226,-0.37637874484062195,-0.9197086095809937,0.012102484703063965,-0.08851084113121033,0.016876578330993652
0.387491721763142,0.11013964457872284,0.42928081361664905,0.2037612348794937,-1.229118824005127,-0.15645989775657654,0.10176782310009003,-0.37786728143692017,-0.9202497601509094,0.0419701412320137,-0.08134600520133972,-0.005012631416320801
0.38967816923204074,0.09848575176216023,0.42745178201293776,0.26578909158706665,-1.2357491254806519,-0.14851249754428864,0.0909552052617073,-0.3798907399177551,-0.9205488562583923,0.03607438504695892,-0.08342719078063965,-0.04640054702758789
0.39234896592458424,0.08698073142989939,0.4251693549694641,0.2966409921646118,-1.2566423416137695,-0.23075757920742035,0.08027005940675735,-0.38235995173454285,-0.9205203056335449,-0.0026331767439842224,-0.08619174361228943,-0.07262849807739258
0.3949005627633899,0.07528747185235851,0.42175689279414724,0.2568351626396179,-1.3528872728347778,-0.3602656126022339,0.06942732632160187,-0.3847164213657379,-0.9204201102256775,-0.049255043268203735,-0.07442057132720947,-0.058843135833740234
0.3968909182220477,0.06321901017061811,0.4169358455231861,0.20622046291828156,-1.4286105632781982,-0.5035266280174255,0.05826599523425102,-0.3865528106689453,-0.9204249382019043,-0.08199324458837509,-0.062116652727127075,-0.0404820442199707
0.39857409132440325,0.051340556587285,0.41061379932079084,0.21385540068149567,-1.3944076299667358,-0.6360894441604614,0.0472954623401165,-0.3881045877933502,-0.9204009771347046,-0.08911962807178497,-0.07281768321990967,-0.07337343692779541
0.402511650193569,0.047724843328190096,0.40303788941547736,0.7265951633453369,0.2208259105682373,-0.7164766788482666,0.04389400780200958,-0.39173048734664917,-0.9190323948860168,-0.09647562354803085,-0.08553391695022583,-0.13841688632965088
0.4133219599893456,0.0609067579208177,0.39426480167567934,1.5106761455535889,1.637818455696106,-0.772944986820221,0.055743418633937836,-0.4016537666320801,-0.9140934944152832,-0.1419401466846466,-0.022845804691314697,-0.21720832586288452
0.42996185514406415,0.08395565928780502,0.3847857429553164,1.85428786277771,2.06485652923584,-0.6889113783836365,0.07622453570365906,-0.416836142539978,-0.9057800769805908,-0.15454772114753723,0.04909926652908325,-0.3148314952850342
0.44575453235627593,0.10551535984369113,0.37675766226088053,1.3237087726593018,1.374350905418396,-0.43824711441993713,0.09502843022346497,-0.431138813495636,-0.8972675204277039,-0.11083637177944183,0.06283736228942871,-0.21935540437698364
0.45332110402371895,0.11126504718184282,0.37311730308477736,0.23540692031383514,-0.6031671166419983,-0.044740285724401474,0.09982074797153473,-0.4379536211490631,-0.8934385776519775,-0.0484442412853241,0.06330451369285583,0.10726004838943481
0.45107410845135937,0.09630837404643981,0.3747610135666024,-0.6491172909736633,-2.0560407638549805,0.26883068680763245,0.08654162287712097,-0.435932457447052,-0.8958088159561157,0.11925382167100906,-0.00025531649589538574,0.2776448130607605
0.44270777693857216,0.07359569233971607,0.37908341367188125,-1.0352405309677124,-1.961804986000061,0.3392198979854584,0.06644068658351898,-0.42838776111602783,-0.9011490345001221,0.20626455545425415,-0.07715120911598206,0.17650920152664185
0.43199879141078495,0.05609408724126984,0.3831386696805073,-1.1306194067001343,-1.1862620115280151,0.24609613418579102,0.05091405287384987,-0.41868680715560913,-0.9067023396492004,0.11937420070171356,-0.10255348682403564,-0.017140984535217285
0.42102776152388405,0.04641702560872522,0.3856851083633379,-1.0697320699691772,-0.5878883600234985,0.1033957228064537,0.042348187416791916,-0.4086986780166626,-0.911686360836029,-0.012608632445335388,-0.05930370092391968,-0.14632749557495117
0.4114207603393659,0.0418431657505534,0.3864547802653006,-0.8351172804832458,-0.292152464389801,-0.04978012293577194,0.03834031522274017,-0.39991194009780884,-0.9157513380050659,-0.13308195769786835,0.0067691802978515625,-0.22276794910430908
0.4049440524904458,0.04049210386714603,0.38536320798807966,-0.43747296929359436,-0.06076691672205925,-0.20142477750778198,0.03720711171627045,-0.39396733045578003,-0.9183710813522339,-0.21330863237380981,0.04881349205970764,-0.3198949098587036
0.4028004589870767,0.04236808396908279,0.3826695668304551,0.032195985317230225,0.2268204241991043,-0.30226650834083557,0.03896557167172432,-0.39199620485305786,-0.9191412925720215,-0.2356054186820984,0.06397795677185059,-0.4036736488342285
0.40527540259770034,0.047304666215790034,0.37913028761492845,0.48557305335998535,0.4707542657852173,-0.31209439039230347,0.043456487357616425,-0.3942718803882599,-0.917965829372406,-0.2028343677520752,0.07759091258049011,-0.4233580231666565
0.4118392550134607,0.05393818428173565,0.37578821068165763,0.8435712456703186,0.5715901255607605,-0.22395801544189453,0.049404241144657135,-0.4002954661846161,-0.9150534272193909,-0.1411398947238922,0.0923120379447937,-0.38873380422592163
0.4214107619503882,0.06044878495243996,0.3735262319156869,1.0771511793136597,0.538006603717804,-0.07431046664714813,0.05512670427560806,-0.4090481996536255,-0.9108461141586304,-0.06773029267787933,0.1074887216091156,-0.31988197565078735
0.43275527129373353,0.06580911310243495,0.37289126520307564,1.1813284158706665,0.4885895550251007,0.10215724259614944,0.05969930440187454,-0.41937366127967834,-0.9058486223220825,0.00566951185464859,0.11895859241485596,-0.2413070797920227
0.4446232452722212,0.070251255350548,0.37399997796768947,1.1646077632904053,0.5072053074836731,0.2568639814853668,0.0633687674999237,-0.43011778593063354,-0.9005460143089294,0.055192187428474426,0.12265315651893616,-0.16457843780517578
0.45593254383750337,0.07447554869665303,0.3765798093309183,1.051019310951233,0.5644020438194275,0.3658880293369293,0.0668061375617981,-0.44029977917671204,-0.8953619599342346,0.07836616039276123,0.10677316784858704,-0.0944298505783081
0.4658903253005235,0.07865410908703048,0.3802540003898327,0.8814228773117065,0.5988814830780029,0.4367763102054596,0.07019887864589691,-0.44921842217445374,-0.8906598091125488,0.08225184679031372,0.07653769850730896,-0.035655438899993896
0.4740644752294523,0.08267860901281204,0.38458294069068427,0.6883556246757507,0.596602201461792,0.4593546390533447,0.07347705215215683,-0.45650628209114075,-0.8866809606552124,0.0798129215836525,0.04549551010131836,0.010643422603607178
0.48039330850539275,0.08631106893583734,0.38909016083579273,0.5122008323669434,0.5417999029159546,0.44278261065483093,0.07644680142402649,-0.46212801337242126,-0.8835120797157288,0.06922904402017593,0.01385524868965149,0.049268364906311035
0.48524699554597994,0.08918388429307474,0.39345793626273295,0.3978627026081085,0.43469125032424927,0.4118803143501282,0.07878394424915314,-0.4664268493652344,-0.881044328212738,0.054181329905986786,-0.0028877854347229004,0.08230781555175781
0.4893455979919362,0.09088667832682551,0.39748637677174176,0.3657678961753845,0.2825230062007904,0.3709408640861511,0.08010987937450409,-0.4700483977794647,-0.8789976835250854,0.03860367834568024,-0.009321779012680054,0.09127801656723022
0.49342664368232414,0.09117337205272663,0.4010655876312094,0.3972318768501282,0.1110781580209732,0.33470064401626587,0.08018656075000763,-0.4736465513706207,-0.8770570755004883,0.022978290915489197,-0.009462028741836548,0.07995319366455078
0.49803650443201575,0.08993387725295589,0.4042250751243328,0.4744507670402527,-0.05679260566830635,0.30297574400901794,0.07890244573354721,-0.47770148515701294,-0.874971866607666,0.014084778726100922,-0.014806509017944336,0.06563043594360352
0.5034319530812255,0.08730358152752572,0.40695439521568105,0.5587844252586365,-0.20100070536136627,0.27076369524002075,0.07637489587068558,-0.48243454098701477,-0.872596025466919,0.018672272562980652,-0.019778072834014893,0.04630213975906372
0.5095393339299054,0.08374065404272313,0.40919240967641674,0.6210326552391052,-0.28598853945732117,0.22377914190292358,0.07301761209964752,-0.48777514696121216,-0.8699102401733398,0.021419189870357513,-0.03045913577079773,0.02388674020767212
0.5159730241314847,0.07985395561910712,0.41087564538222904,0.6318464875221252,-0.3218007981777191,0.17383258044719696,0.06938421726226807,-0.49338144063949585,-0.867041289806366,0.014493502676486969,-0.047817349433898926,0.007651090621948242
0.5222150343358828,0.07608732759840611,0.41202935274289,0.5948594808578491,-0.3098661005496979,0.12537743151187897,0.06588252633810043,-0.49880117177963257,-0.8642088770866394,0.00710044801235199,-0.05965530872344971,0.011074721813201904
0.5278891873570164,0.07291656892188604,0.4127413492828825,0.5255752801895142,-0.24645885825157166,0.08403637260198593,0.06293480098247528,-0.5037109851837158,-0.8615767359733582,-0.0018689557909965515,-0.058712780475616455,0.02550196647644043
0.532697962038706,0.0706940167736816,0.41316039466183857,0.42446357011795044,-0.15533533692359924,0.058007169514894485,0.060847945511341095,-0.5078592896461487,-0.8592883348464966,-0.009303588420152664,-0.047362327575683594,0.030415713787078857
