attitudeX,attitudeY,attitudeZ,gyroX,gyroY,gyroZ,gravityX,gravityY,gravityZ,accX,accY,accZ
0.9708706006869118,0.021085926613012354,-0.3701735515895354,0.22812169790267944,-0.5984941720962524,0.3693428635597229,0.011903833597898483,-0.8253775238990784,-0.5644556283950806,0.21276655793190002,0.02020186185836792,0.024874329566955566
0.9731406570313127,0.008571129320851583,-0.3628796846022725,0.2115665227174759,-0.6959317922592163,0.455035001039505,0.004822967574000359,-0.8266570568084717,-0.5626854300498962,0.2431475818157196,0.02753901481628418,0.022920966148376465
0.9752256213444007,-0.006061003510354665,-0.35411477659295476,0.20599119365215302,-0.768730878829956,0.5231647491455078,-0.0034000896848738194,-0.8278284668922424,-0.5609711408615112,0.2688572108745575,0.022347450256347656,0.01954340934753418
0.9772999889421599,-0.0222207173709625,-0.3441471545143775,0.2230902463197708,-0.8039131164550781,0.585612952709198,-0.01242620125412941,-0.8289903998374939,-0.5591248869895935,0.2909143269062042,0.033732831478118896,-0.0020476579666137695
0.979455900573502,-0.039819297452450775,-0.3327604111122996,0.2491822987794876,-0.8183144330978394,0.6703579425811768,-0.022192375734448433,-0.8301941752433777,-0.557032585144043,0.3308013379573822,0.05596315860748291,-0.030690312385559082
0.9818748205585237,-0.05887974075845947,-0.3195524220725916,0.31088143587112427,-0.7864412069320679,0.7737366557121277,-0.03268671780824661,-0.8315402269363403,-0.554502010345459,0.384401798248291,0.08004492521286011,-0.06686639785766602
0.9850200140710196,-0.07952193756054529,-0.3040431221674857,0.4398737847805023,-0.7599155902862549,0.897285521030426,-0.043917104601860046,-0.8332831263542175,-0.5510993599891663,0.43121567368507385,0.1038367748260498,-0.12474292516708374
0.9893442567312395,-0.10253542621334567,-0.2855767771632318,0.6059600710868835,-0.7549455761909485,1.0457662343978882,-0.05621771141886711,-0.8356660008430481,-0.5463532209396362,0.47661256790161133,0.13789689540863037,-0.18242186307907104
0.9949445268929311,-0.12838251743032147,-0.26355679754017675,0.7734353542327881,-0.7194565534591675,1.2117211818695068,-0.06971872597932816,-0.8387287855148315,-0.5400678515434265,0.5200513601303101,0.17309468984603882,-0.2078264355659485
1.0014039578202143,-0.15698208371716357,-0.23762768111000154,0.8911100625991821,-0.6312013268470764,1.3769761323928833,-0.08428505808115005,-0.8422287106513977,-0.5324910879135132,0.5533859729766846,0.19511884450912476,-0.20415747165679932
1.007994017831628,-0.18784237675556448,-0.20785223459109947,0.9368096590042114,-0.503186047077179,1.532135009765625,-0.099636510014534,-0.8457632660865784,-0.5241727828979492,0.5753139853477478,0.19801247119903564,-0.19811731576919556
1.0137379193491933,-0.21994318379517433,-0.17489553619561105,0.8778865933418274,-0.3210892081260681,1.650270938873291,-0.11534684896469116,-0.8488139510154724,-0.5159553289413452,0.5763453841209412,0.18949705362319946,-0.17694628238677979
1.0175766000501105,-0.25167459163499123,-0.1399425192026983,0.7137469053268433,-0.0808827355504036,1.7334955930709839,-0.13084568083286285,-0.8508371710777283,-0.5088767409324646,0.5485244989395142,0.18180036544799805,-0.14262783527374268
1.0186835015873008,-0.28117138451820867,-0.10485455714348842,0.4567563235759735,0.15361365675926208,1.7407543659210205,-0.14553534984588623,-0.8514182567596436,-0.5038911700248718,0.49116218090057373,0.1623619794845581,-0.11790448427200317
1.0165737551438916,-0.3063518465533686,-0.07168914667707346,0.14265193045139313,0.46779289841651917,1.7082103490829468,-0.15871745347976685,-0.8503098487854004,-0.5017786622047424,0.40870219469070435,0.12489187717437744,-0.10390371084213257
1.0111324983540355,-0.3257870490921767,-0.04106735088077954,-0.1656055599451065,0.8356364369392395,1.6982873678207397,-0.16991735994815826,-0.8474336266517639,-0.5029754042625427,0.32805943489074707,0.09180319309234619,-0.11273205280303955
1.0028248357314071,-0.33981670941050074,-0.012781694372221148,-0.4002838134765625,1.117323637008667,1.6920963525772095,-0.17929749190807343,-0.8429939150810242,-0.5071624517440796,0.24483394622802734,0.06569594144821167,-0.13167732954025269
0.9926946418592865,-0.34985107793648146,0.013674283039921277,-0.521744430065155,1.313271164894104,1.686205506324768,-0.18729500472545624,-0.8375014662742615,-0.5133342146873474,0.17324164509773254,0.046836793422698975,-0.15158283710479736
0.9816680317806362,-0.35714030584923234,0.03915908753170848,-0.5609821081161499,1.459141731262207,1.7088186740875244,-0.1942484974861145,-0.8314253687858582,-0.520576000213623,0.0985911637544632,0.04820704460144043,-0.14836931228637695
0.9704747404977532,-0.3637829389186856,0.06484373150075927,-0.4953274726867676,1.4354380369186401,1.7672646045684814,-0.2010010927915573,-0.8251540064811707,-0.5279389023780823,-0.0008116662502288818,0.060917556285858154,-0.1414947509765625
0.9601634115840372,-0.3721553383248343,0.09163372745599944,-0.32203584909439087,1.2760190963745117,1.799136996269226,-0.20849700272083282,-0.8192852735519409,-0.5341354608535767,-0.13209444284439087,0.0630139708518982,-0.15601962804794312
0.9514697770663139,-0.3828558210845797,0.11894648176310606,-0.1267595738172531,1.0227599143981934,1.7472670078277588,-0.21685311198234558,-0.8142695426940918,-0.5384605526924133,-0.2959185242652893,0.020965218544006348,-0.15683668851852417
0.9449039681182367,-0.3956049528209713,0.14540948351719662,0.07982581853866577,0.7211031913757324,1.577118992805481,-0.2257556915283203,-0.8104406595230103,-0.5405740737915039,-0.4708538353443146,-0.04884272813796997,-0.14660555124282837
0.9407172461519127,-0.40881644285221047,0.16904403908434018,0.22451595962047577,0.46984028816223145,1.2870192527770996,-0.2342243492603302,-0.8079808950424194,-0.5406531691551208,-0.6426982879638672,-0.11398559808731079,-0.11365902423858643
0.9385019308082917,-0.4205337509241776,0.18827369226069288,0.27080410718917847,0.3027391731739044,0.9662539958953857,-0.24127326905727386,-0.8066736459732056,-0.5395042896270752,-0.7970263361930847,-0.15302789211273193,-0.07685929536819458
0.9372420069995769,-0.42985695965795256,0.2029392875276781,0.19912149012088776,0.20248933136463165,0.7280427813529968,-0.2467159926891327,-0.8059284090995789,-0.5381549000740051,-0.9156374931335449,-0.15630602836608887,-0.05245184898376465
0.9357802063245235,-0.43680154255847414,0.21368737094593268,0.06351253390312195,0.1446382850408554,0.5471342206001282,-0.25094538927078247,-0.8050621151924133,-0.5374955534934998,-0.994705855846405,-0.1600257158279419,-0.01995384693145752
0.934005133763704,-0.4407897093706804,0.22035670421194356,-0.037020519375801086,0.13472676277160645,0.3013792335987091,-0.2536962926387787,-0.804007887840271,-0.5377820134162903,-1.036937952041626,-0.18071800470352173,-0.018172025680541992
0.9330527727810896,-0.4412021494531615,0.22242292033193156,-0.011297312565147877,0.11072155833244324,0.005942815914750099,-0.25424492359161377,-0.8034412264823914,-0.5383694171905518,-1.0637634992599487,-0.1892649531364441,-0.09094882011413574
0.9339990435616845,-0.43926257794274265,0.2209104526669141,0.11356624960899353,0.028685826808214188,-0.23924113810062408,-0.25287681818008423,-0.8040043115615845,-0.538173258304596,-1.0864787101745605,-0.16474568843841553,-0.16511964797973633
0.937232922138776,-0.436509512189623,0.21709782560834767,0.2823059856891632,-0.0973179042339325,-0.4366314709186554,-0.25029370188713074,-0.8059230446815491,-0.5365083813667297,-1.0839805603027344,-0.11714208126068115,-0.19586777687072754
0.9428033842309635,-0.43369103360002065,0.21156891077951492,0.44814592599868774,-0.23694266378879547,-0.6217730641365051,-0.24689018726348877,-0.809208333492279,-0.5331296324729919,-1.0767639875411987,-0.06653928756713867,-0.19401276111602783
0.9505795640583833,-0.4308687168722789,0.2041014317504232,0.594567060470581,-0.40951070189476013,-0.8209836483001709,-0.24274899065494537,-0.8137524724006653,-0.5280907154083252,-1.0742828845977783,-0.02120840549468994,-0.1698462963104248
0.9604305003586917,-0.42801531837174045,0.1944062102615525,0.7249383926391602,-0.6018771529197693,-1.0071384906768799,-0.23790226876735687,-0.8194383978843689,-0.5214626789093018,-1.054669737815857,0.02146470546722412,-0.14816933870315552
0.9720169677285696,-0.42546965815561444,0.18265167045791814,0.8205975294113159,-0.8245052099227905,-1.155166506767273,-0.23263941705226898,-0.8260242342948914,-0.5133837461471558,-1.0183523893356323,0.06566357612609863,-0.12498295307159424
0.9849368988951577,-0.42383162309906514,0.1691262432700775,0.9028257131576538,-1.092980146408081,-1.2743855714797974,-0.22738993167877197,-0.8332372307777405,-0.5039936304092407,-0.972591757774353,0.10583549737930298,-0.09947627782821655
0.9989405753011256,-0.42355231873318183,0.15398643766927536,0.9628195762634277,-1.3777740001678467,-1.3797193765640259,-0.22243130207061768,-0.8408980965614319,-0.49337074160575867,-0.9313009977340698,0.14396822452545166,-0.07785731554031372
1.0137740587073392,-0.42440780758379004,0.13693959974819297,0.9789152145385742,-1.6683560609817505,-1.494584321975708,-0.21769261360168457,-0.8488330841064453,-0.48175954818725586,-0.9071700572967529,0.17573750019073486,-0.05379343032836914
1.0289829927068186,-0.4257151058186939,0.1171678632911502,0.9298941493034363,-1.945839285850525,-1.6385111808776855,-0.21296581625938416,-0.8567749857902527,-0.4696618318557739,-0.9173900485038757,0.20359200239181519,-0.03882211446762085
1.0443266343399487,-0.4255418801612283,0.09307915205104565,0.8470914363861084,-2.147698402404785,-1.8609514236450195,-0.20743276178836823,-0.864586353302002,-0.4576703608036041,-0.965968132019043,0.22383928298950195,-0.04217708110809326
1.0599992810364347,-0.42174345982594724,0.06302725289791973,0.7831665277481079,-2.292682409286499,-2.1318910121917725,-0.20012088119983673,-0.8723551034927368,-0.4460359811782837,-1.0072307586669922,0.23856616020202637,-0.0750974714756012
1.0762482863638485,-0.4132680441611548,0.026439267959241387,0.7547469139099121,-2.404566526412964,-2.389444589614868,-0.19061505794525146,-0.8801833391189575,-0.43467602133750916,-1.0239845514297485,0.26990807056427,-0.13455313444137573
1.0931761094707495,-0.3995945174516265,-0.016768090268238837,0.7547772526741028,-2.4776511192321777,-2.6375930309295654,-0.1788310706615448,-0.8880913257598877,-0.4234538674354553,-1.0185260772705078,0.31550538539886475,-0.20407912135124207
1.1106174275019072,-0.3796893270839205,-0.06701418318836484,0.7343807816505432,-2.4821410179138184,-2.8690452575683594,-0.1646006852388382,-0.8959730863571167,-0.4124787449836731,-1.0212665796279907,0.35704803466796875,-0.2675902247428894
1.1278312590526005,-0.3520503843250462,-0.12511507407788058,0.6538715958595276,-2.4234724044799805,-3.0789098739624023,-0.14779816567897797,-0.9034847617149353,-0.4023318886756897,-1.022230625152588,0.4110531806945801,-0.2923245429992676
1.144011064932962,-0.3150818287364838,-0.1920903221822013,0.5495866537094116,-2.31304931640625,-3.292908191680908,-0.1282796710729599,-0.9103012084960938,-0.39356839656829834,-1.013474464416504,0.4539108872413635,-0.31201329827308655
1.158575660760807,-0.26774755024293767,-0.26897313276311435,0.4346911609172821,-2.2647864818573,-3.525491237640381,-0.10599453747272491,-0.9162333607673645,-0.3863694667816162,-1.0024954080581665,0.49371767044067383,-0.3250410556793213
1.1707858350904865,-0.21000898278732688,-0.3567423349476435,0.2918848395347595,-2.3094005584716797,-3.7612392902374268,-0.081183522939682,-0.9210569262504578,-0.38087180256843567,-0.9767693877220154,0.5390226244926453,-0.3183774948120117
1.1797529336296937,-0.1433064782510089,-0.454603058477577,0.14678359031677246,-2.4024617671966553,-3.9392940998077393,-0.05443495512008667,-0.9245118498802185,-0.37724605202674866,-0.9239891767501831,0.5970735549926758,-0.30967414379119873
1.1849322408184233,-0.07085078118696038,-0.5597410104714547,0.0445130318403244,-2.5594844818115234,-4.0589447021484375,-0.026643071323633194,-0.9264735579490662,-0.3754154145717621,-0.8523547649383545,0.6644192337989807,-0.3209652006626129
1.1867562790778714,0.003923805498224453,-0.6692937787156729,0.055773407220840454,-2.7853128910064697,-4.143043041229248,0.0014701256295666099,-0.927158534526825,-0.37466639280319214,-0.7895866632461548,0.7379496097564697,-0.39159953594207764
1.1860198156471888,0.07814423402419293,-0.7809569250295169,0.15113815665245056,-3.055424451828003,-4.199608325958252,0.02930174022912979,-0.9268823266029358,-0.37420639395713806,-0.7454120516777039,0.8305384516716003,-0.48056045174598694
1.1833281478074555,0.15010628605326942,-0.8930709130308103,0.27394744753837585,-3.298260450363159,-4.220390796661377,0.056504249572753906,-0.9258686900138855,-0.37359678745269775,-0.6979380249977112,0.9248005747795105,-0.5511621236801147
1.1787219566714076,0.2185626027924442,-1.0038115774923537,0.35717061161994934,-3.4650232791900635,-4.187638759613037,0.08285084366798401,-0.9241183996200562,-0.3730160892009735,-0.6449388861656189,0.9958805441856384,-0.5910952687263489
1.1719087564454471,0.2822136746063006,-1.1109712486724201,0.360451340675354,-3.550168037414551,-4.121456146240234,0.10816069692373276,-0.921493649482727,-0.3730289340019226,-0.5795963406562805,1.036529779434204,-0.6001003980636597
1.1625493019978836,0.3400885580836113,-1.2126141560016424,0.2926287055015564,-3.5346524715423584,-4.026340484619141,0.13242776691913605,-0.9178181886672974,-0.37426260113716125,-0.5129973292350769,1.0474722385406494,-0.5909931659698486
1.1505342572595136,0.3915444305558503,-1.3070635180774846,0.17456623911857605,-3.44035267829895,-3.910679340362549,0.15569928288459778,-0.9129820466041565,-0.3771223723888397,-0.43403494358062744,1.0389587879180908,-0.5791611671447754
1.1359158737214834,0.43633546180734356,-1.3935670267906322,0.035542942583560944,-3.323103189468384,-3.820963144302368,0.17805109918117523,-0.9069204330444336,-0.3818286955356598,-0.3481866717338562,1.025557518005371,-0.5531536340713501
1.1189440167898788,0.475126911916264,-1.4729746832791761,-0.08175705373287201,-3.2545554637908936,-3.7782912254333496,0.19973811507225037,-0.8996398448944092,-0.38826876878738403,-0.26672425866127014,0.9932526350021362,-0.5379550457000732
1.1000868856575219,0.5083113586021504,-1.5465741583868802,-0.13781115412712097,-3.2738335132598877,-3.7780063152313232,0.22072887420654297,-0.8912467956542969,-0.39617934823036194,-0.17965225875377655,0.9520835280418396,-0.5376280546188354
1.0802438185014192,0.5360279128349456,-1.6159840444018438,-0.09307031333446503,-3.4598422050476074,-3.8434808254241943,0.24060937762260437,-0.8820726871490479,-0.40503692626953125,-0.08144502341747284,0.9193804264068604,-0.561592161655426
1.0598024091002938,0.5597707592615595,-1.6848137280078854,0.0569486990571022,-3.8368895053863525,-3.9338319301605225,0.25967875123023987,-0.8722588419914246,-0.41440507769584656,0.021510183811187744,0.9066215753555298,-0.5903252363204956
1.0398603447925097,0.5792806798629967,-1.7536741438062915,0.2873307764530182,-4.146808624267578,-3.973912000656128,0.277182012796402,-0.8623335361480713,-0.4237344563007355,0.17234182357788086,0.8861678242683411,-0.6614553928375244
1.0212291953348025,0.596055189064289,-1.822388500565396,0.5242710709571838,-4.232609748840332,-3.9485692977905273,0.29322007298469543,-0.8527507185935974,-0.43224769830703735,0.3519061803817749,0.8441295623779297,-0.7736849188804626
1.0040540656677124,0.6108783886817577,-1.8896363257407736,0.6641858220100403,-4.152430057525635,-3.8407742977142334,0.3079511821269989,-0.8436545133590698,-0.4397875666618347,0.5515610575675964,0.8032034635543823,-0.849534273147583
0.987451755413792,0.6246603878394046,-1.9534122416402269,0.6149201989173889,-3.7053775787353516,-3.7222514152526855,0.32213065028190613,-0.8346250653266907,-0.44680288434028625,0.7235236167907715,0.7541959881782532,-0.8617451190948486
0.9700241212998277,0.64047289425956,-2.0121753607017863,0.4436933100223541,-2.822660446166992,-3.605950355529785,0.33779674768447876,-0.8248993754386902,-0.45324864983558655,0.9044058918952942,0.7027680277824402,-0.8425430059432983
0.9514024166471897,0.660375063155392,-2.064959263311642,0.24473723769187927,-1.8495055437088013,-3.438023328781128,0.35611188411712646,-0.8142304420471191,-0.45848989486694336,1.128415584564209,0.6446900963783264,-0.8041443824768066
0.9317551820930527,0.68300819067826,-2.1109259774562172,0.05001089721918106,-1.0740876197814941,-3.223555564880371,0.37642189860343933,-0.802668035030365,-0.4626343250274658,1.3435640335083008,0.57857745885849,-0.6985747814178467
0.9117409357203986,0.7055815550389984,-2.150166366696251,-0.08812747150659561,-0.7142047882080078,-2.974519729614258,0.3971078097820282,-0.7905710339546204,-0.4661574065685272,1.5295430421829224,0.5260752439498901,-0.5459580421447754
0.8917113824209868,0.7248924004763776,-2.1835471864720475,-0.21970999240875244,-0.671975314617157,-2.773980140686035,0.4164522588253021,-0.7781477570533752,-0.47016316652297974,1.6632137298583984,0.5007888078689575,-0.4021359980106354
0.8719622265188843,0.7393840653393894,-2.2121083571323283,-0.27492988109588623,-0.849414050579071,-2.5737767219543457,0.4334939122200012,-0.7655927538871765,-0.4753427505493164,1.793556809425354,0.4429304003715515,-0.3014364242553711
0.8533852933626076,0.7486245240340619,-2.2373563663535068,-0.2211713194847107,-1.107118844985962,-2.3742992877960205,0.4474717974662781,-0.7535103559494019,-0.481654554605484,1.8988873958587646,0.38314902782440186,-0.348057359457016
0.8366296324877042,0.7544574499686587,-2.2610025954079918,-0.07434141635894775,-1.2294338941574097,-2.2002389430999756,0.4588572084903717,-0.7423893213272095,-0.4881681799888611,1.9771015644073486,0.3401981592178345,-0.46372082829475403
0.8222942887240289,0.7592715423932735,-2.2839756545403382,0.11955215036869049,-1.159180760383606,-2.0109646320343018,0.4684804677963257,-0.7327091097831726,-0.49362269043922424,2.0251107215881348,0.3281834125518799,-0.6037131547927856
0.8106284811731556,0.7654849508882103,-2.3064460690953528,0.31906723976135254,-0.8351501822471619,-1.8115307092666626,0.4774288237094879,-0.7247203588485718,-0.4968320429325104,2.05726957321167,0.3436931371688843,-0.7212618589401245
0.8017357205249729,0.7754112416150851,-2.3280667483445954,0.4685877561569214,-0.27332356572151184,-1.5516937971115112,0.48682913184165955,-0.7185642719268799,-0.49665138125419617,2.0808587074279785,0.37789660692214966,-0.817389726638794
0.7955131787467667,0.7895911047063607,-2.3469493237937455,0.48421964049339294,0.4150172770023346,-1.1703369617462158,0.4969877600669861,-0.7142229080200195,-0.49283745884895325,2.076467990875244,0.43887805938720703,-0.8328003883361816
0.7919086336841473,0.807412125640636,-2.360880482774088,0.3978879451751709,1.1587499380111694,-0.6890023350715637,0.507547914981842,-0.7116953730583191,-0.4856795370578766,2.093297243118286,0.5022990107536316,-0.791877806186676
0.7911140708542029,0.8276216379231557,-2.368210073925457,0.23513470590114594,1.8112385272979736,-0.12102752923965454,0.5176753401756287,-0.7111369371414185,-0.4757063388824463,2.083292007446289,0.544251561164856,-0.7388474941253662
0.7935801618856186,0.8480601669962777,-2.367913441370783,0.06748151779174805,2.282999277114868,0.518364429473877,0.525972306728363,-0.7128685712814331,-0.463865727186203,2.037748336791992,0.5914696455001831,-0.6855330467224121
0.8000796196715655,0.8669645566626936,-2.3601431504858645,-0.025867845863103867,2.567575454711914,1.1695034503936768,0.5311033725738525,-0.7174115777015686,-0.450832337141037,1.939630150794983,0.6516920328140259,-0.6636085510253906
0.8113741478207033,0.8834151191905987,-2.346286345198427,0.02585100755095482,2.6913387775421143,1.7828776836395264,0.5321505665779114,-0.7252339720726013,-0.4368652403354645,1.7662501335144043,0.6982870101928711,-0.6857238411903381
0.8283612027899261,0.8977549465933787,-2.3286704238607028,0.26087144017219543,2.7219157218933105,2.3550069332122803,0.5286501049995422,-0.7368243932723999,-0.42144861817359924,1.5532132387161255,0.7428516149520874,-0.7577658891677856
0.8516771990165878,0.9106303188563349,-2.3094564830871662,0.6083207726478577,2.6967365741729736,2.8777122497558594,0.5203183889389038,-0.7523862719535828,-0.40396007895469666,1.3264375925064087,0.791662335395813,-0.8288890719413757
0.8813239440674118,0.922757770927028,-2.289765174810728,0.9653438925743103,2.721367120742798,3.355117082595825,0.5071669816970825,-0.771581768989563,-0.38398322463035583,1.100743055343628,0.8439847230911255,-0.8622936010360718
0.916661388439177,0.9347444758340835,-2.2696478765661148,1.2359806299209595,2.8165132999420166,3.7769508361816406,0.4894843101501465,-0.7935745716094971,-0.36144745349884033,0.8773826360702515,0.8936723470687866,-0.8456753492355347
0.9563834511509798,0.9463403834143391,-2.2480213670617104,1.3456496000289917,2.9775288105010986,4.115629196166992,0.4676864743232727,-0.8171120285987854,-0.3370417654514313,0.68378746509552,0.9000283479690552,-0.7889500856399536
0.9988406993584392,0.9569933315997007,-2.223401812379451,1.318358302116394,3.2271363735198975,4.361060619354248,0.4424746036529541,-0.8408440351486206,-0.31176525354385376,0.4843441843986511,0.8827904462814331,-0.7173942923545837
1.0427459539768198,0.9659678867623525,-2.194317696496507,1.1992148160934448,3.5020859241485596,4.546383380889893,0.41446706652641296,-0.8637910485267639,-0.28649982810020447,0.28633853793144226,0.8748078942298889,-0.6655570864677429
1.0873570772251275,0.971423234382027,-2.1592823135180574,1.050655484199524,3.676687240600586,4.689834117889404,0.38380277156829834,-0.8854014873504639,-0.2622205317020416,0.14254909753799438,0.8870341777801514,-0.6361407041549683
1.1321397059876985,0.9713592911476326,-2.1175045709137943,0.931961715221405,3.768610715866089,4.761430263519287,0.35067468881607056,-0.9053230285644531,-0.23961976170539856,0.01886257529258728,0.9090156555175781,-0.6324963569641113
1.1766878393773859,0.9647636057858152,-2.068506214470095,0.8525470495223999,3.848160982131958,4.790055751800537,0.31560274958610535,-0.9233392477035522,-0.2187221497297287,-0.10173562169075012,0.9463953375816345,-0.6363193392753601
1.2206597031829223,0.9498003071051178,-2.0109969219296073,0.7865446209907532,3.831169366836548,4.7705607414245605,0.2789827287197113,-0.9393258690834045,-0.19958807528018951,-0.19072598218917847,1.0058847665786743,-0.6292999386787415
1.2633453321529111,0.9227735868741183,-1.94263119551232,0.70616215467453,3.6765859127044678,4.682263374328613,0.2412804216146469,-0.9531080722808838,-0.18267078697681427,-0.2711114287376404,1.0499250888824463,-0.6059035062789917
1.3037163744137759,0.8787633814078053,-1.8588074182759593,0.5645790100097656,3.596754550933838,4.558832168579102,0.2032020092010498,-0.9645456671714783,-0.16840560734272003,-0.34835895895957947,1.062415599822998,-0.5697230696678162
1.3403487525844957,0.8110833532974631,-1.751747549528312,0.33850857615470886,3.6150670051574707,4.374985218048096,0.16560712456703186,-0.9735642671585083,-0.1573110818862915,-0.443835973739624,1.0975420475006104,-0.538993239402771
1.3712109897433054,0.7124546262911592,-1.6128574535866746,0.02170371077954769,3.802339792251587,4.136568069458008,0.12960316240787506,-0.9801488518714905,-0.15003739297389984,-0.5591228604316711,1.1402441263198853,-0.5219597220420837
1.3944408333790483,0.575635595913978,-1.433111607923078,-0.34021639823913574,4.144155979156494,4.009755611419678,0.0955054983496666,-0.9844896197319031,-0.14716963469982147,-0.6182563900947571,1.1522905826568604,-0.4778761863708496
1.4091899461749187,0.39488626503182844,-1.20594333556973,-0.5998576283454895,4.439904689788818,4.104493141174316,0.06190010532736778,-0.986970067024231,-0.14852045476436615,-0.5769453048706055,1.1902172565460205,-0.4659968614578247
1.4146578469150226,0.17396304730275716,-0.9371988769158294,-0.7178311347961426,4.373931884765625,4.33212423324585,0.026915721595287323,-0.9878351092338562,-0.15315698087215424,-0.5530235767364502,1.2389644384384155,-0.4802964925765991
1.4097490513231032,-0.06718799041011353,-0.6505132714682303,-0.7132465243339539,3.9610166549682617,4.620855331420898,-0.01076561864465475,-0.9870598912239075,-0.1599901169538498,-0.5876230597496033,1.2366021871566772,-0.3814833164215088
1.3945593173433952,-0.2963599854101531,-0.3808106960047383,-0.5834685564041138,3.3284759521484375,4.793479919433594,-0.05120238661766052,-0.9845104217529297,-0.1676829308271408,-0.7053436636924744,1.1681652069091797,-0.2630269527435303
1.3719507954379428,-0.48982984810230773,-0.15406406547843915,-0.3189035952091217,2.5048017501831055,4.6605634689331055,-0.09293680638074875,-0.9802953004837036,-0.17431001365184784,-0.9721419811248779,0.9953557252883911,-0.17575716972351074
1.3466830276680941,-0.6413957597072315,0.02248335353586431,0.04424664005637169,1.7160223722457886,4.236105918884277,-0.13297061622142792,-0.9749915599822998,-0.1780739724636078,-1.2142126560211182,0.7473151683807373,-0.0969962477684021
1.3227235986585857,-0.759040676810511,0.15833296001943042,0.38206061720848083,1.1997514963150024,3.6774656772613525,-0.1689845323562622,-0.969387412071228,-0.17813587188720703,-1.4067449569702148,0.5327419638633728,-0.060389578342437744
1.3013972540263417,-0.8517759257198403,0.26538863009034785,0.5980184674263,0.9799134135246277,3.1854379177093506,-0.20026683807373047,-0.9639310240745544,-0.17530082166194916,-1.5326128005981445,0.37755095958709717,-0.010276630520820618
1.2823846320325498,-0.9263572765116372,0.3528912690802144,0.7380831241607666,0.9330055713653564,2.7975034713745117,-0.22738370299339294,-0.9586968421936035,-0.17087125778198242,-1.5663632154464722,0.2493768334388733,0.05772729218006134
1.2651602915815223,-0.9877903342415628,0.4269769499078234,0.8097514510154724,0.9450697302818298,2.510005235671997,-0.25119468569755554,-0.9536557793617249,-0.165656179189682,-1.5864213705062866,0.12665987014770508,0.12377075850963593
1.2490836944709167,-1.038659063634341,0.49035976779093693,0.791443407535553,0.9145874381065369,2.276588201522827,-0.2724704146385193,-0.9486953020095825,-0.16042828559875488,-1.582525372505188,0.01784813404083252,0.2200900912284851
1.2340351994873506,-1.0810750001715612,0.5436028411312255,0.736752986907959,0.6332372426986694,2.0133273601531982,-0.29159459471702576,-0.9438298344612122,-0.15542873740196228,-1.573319435119629,-0.08867150545120239,0.3458889126777649
1.2207458868370211,-1.1192729605663956,0.5879114847508651,0.7243779301643372,0.0461043082177639,1.6872376203536987,-0.30857670307159424,-0.9393554329872131,-0.14963972568511963,-1.5855884552001953,-0.20223098993301392,0.45835548639297485
1.2104058943634044,-1.1568418642526757,0.6252490886483882,0.7635493278503418,-0.5316541194915771,1.2576795816421509,-0.3228549063205719,-0.9357591867446899,-0.14184333384037018,-1.6578885316848755,-0.3191693425178528,0.5116400718688965
1.2042543877018028,-1.1933480463064676,0.6566844305525017,0.8187817931175232,-0.8509501218795776,0.7300117015838623,-0.3331615924835205,-0.9335722327232361,-0.1320842206478119,-1.808058500289917,-0.41565561294555664,0.500019371509552
1.202934678574804,-1.2256330960770307,0.6820919584833326,0.7677755951881409,-0.818041205406189,0.17404410243034363,-0.33841046690940857,-0.9330984950065613,-0.12167780846357346,-1.960616111755371,-0.48697590827941895,0.4795879125595093
1.2058616385738572,-1.2475987587532626,0.6981859342547726,0.48007625341415405,-0.550994336605072,-0.3372468948364258,-0.3384101390838623,-0.93414705991745,-0.11334773898124695,-1.9983818531036377,-0.5303608775138855,0.5222679972648621
1.2120188698984022,-1.2534374155828496,0.7000934265024904,0.014996206387877464,-0.2625635862350464,-0.7763417363166809,-0.3335953652858734,-0.936326801776886,-0.10957301408052444,-1.9510879516601562,-0.5250073671340942,0.6198574304580688
1.2203626417614812,-1.2404937759384762,0.6845788375465883,-0.5002826452255249,-0.07893969863653183,-1.128942847251892,-0.32474732398986816,-0.9392238855361938,-0.11134383082389832,-1.8530175685882568,-0.4881593585014343,0.6958622336387634
1.2298597108009937,-1.2106650071253302,0.6521080978308491,-0.9046037793159485,-0.09629099816083908,-1.3849704265594482,-0.3129202723503113,-0.9424418807029724,-0.11783099919557571,-1.710532546043396,-0.4318866729736328,0.7276790142059326
1.2399402063140896,-1.1691474893199685,0.6059361481210693,-1.1467434167861938,-0.33912867307662964,-1.6086885929107666,-0.29900020360946655,-0.9457646012306213,-0.12699680030345917,-1.5965076684951782,-0.3758600950241089,0.6835916042327881
1.2506897224595888,-1.1205314132919033,0.5491646894269895,-1.2475062608718872,-0.69730144739151,-1.8386014699935913,-0.28330516815185547,-0.9492018818855286,-0.13694457709789276,-1.516362190246582,-0.3472762703895569,0.5944029688835144
1.2622987441425184,-1.0669547723933233,0.48360220066131626,-1.2764450311660767,-1.0449384450912476,-2.071186065673828,-0.26589667797088623,-0.9527907967567444,-0.14658913016319275,-1.4420653581619263,-0.3270704746246338,0.4926431179046631
1.2747448851278553,-1.0073732360176786,0.4086096111534297,-1.2987385988235474,-1.3417211771011353,-2.3331103324890137,-0.24665091931819916,-0.9564959406852722,-0.15581639111042023,-1.4018781185150146,-0.2843334674835205,0.40769314765930176
1.2879464881680467,-0.9381226928276192,0.3211697796231148,-1.3336559534072876,-1.5441035032272339,-2.6430866718292236,-0.22507447004318237,-0.9602639675140381,-0.16502858698368073,-1.3998796939849854,-0.21745502948760986,0.33617109060287476
1.301351690273594,-0.8551174646229212,0.21804652039832165,-1.3819705247879028,-1.6880815029144287,-2.9386250972747803,-0.2008844017982483,-0.9639188647270203,-0.17465925216674805,-1.3607306480407715,-0.12793898582458496,0.27431434392929077
1.3137908597146528,-0.7554120098530704,0.09638643430187233,-1.4555672407150269,-1.8624134063720703,-3.2142224311828613,-0.17426665127277374,-0.9671554565429688,-0.18504422903060913,-1.3061563968658447,-0.013923585414886475,0.21327294409275055
1.3237496065323133,-0.6374017226542245,-0.0456944137931522,-1.5517816543579102,-2.042250394821167,-3.4661214351654053,-0.14552894234657288,-0.9696388244628906,-0.1965245008468628,-1.2410067319869995,0.0928078293800354,0.15801125764846802
1.3296272087264982,-0.5027440459241255,-0.20642119324093974,-1.6409215927124023,-2.2055628299713135,-3.6730103492736816,-0.11507977545261383,-0.9710593819618225,-0.20928509533405304,-1.1435109376907349,0.19444811344146729,0.11376500129699707
1.3300247435783434,-0.3578208748574988,-0.37926295944945876,-1.7047029733657837,-2.366896867752075,-3.8216054439544678,-0.08351403474807739,-0.9711542725563049,-0.22334910929203033,-1.0454380512237549,0.2955409288406372,0.05119943618774414
1.324517987270035,-0.21280820480405205,-0.5539704421451541,-1.695641040802002,-2.5295908451080322,-3.9177396297454834,-0.051491137593984604,-0.9698264598846436,-0.23829664289951324,-0.9529186487197876,0.39685893058776855,-0.03256213665008545
1.3137850026606768,-0.07685526522585372,-0.721438194470551,-1.600541114807129,-2.7117276191711426,-3.9932398796081543,-0.019516734406352043,-0.9671539664268494,-0.2534412145614624,-0.8713677525520325,0.4968017339706421,-0.12334409356117249
1.299155593004462,0.045075002748259395,-0.8771178746647433,-1.4292407035827637,-2.9521656036376953,-4.063432693481445,0.01209008414298296,-0.963331937789917,-0.2680398225784302,-0.807393491268158,0.5853412747383118,-0.2133902907371521
1.2817279469190865,0.15160898909745354,-1.0202869791348472,-1.2455246448516846,-3.2417333126068115,-4.130588054656982,0.04305221140384674,-0.9585098624229431,-0.2817896604537964,-0.7470470070838928,0.6651138067245483,-0.2698308527469635
1.2620505189925442,0.24284277039347074,-1.1512610707153195,-1.095725178718567,-3.5221433639526367,-4.166079044342041,0.07306801527738571,-0.9527153968811035,-0.2949480414390564,-0.6839841604232788,0.7363458275794983,-0.2957350015640259
1.2404716411986534,0.3185198427605122,-1.2694121414217887,-0.9873235821723938,-3.7491209506988525,-4.123266220092773,0.10157391428947449,-0.9459370970726013,-0.3080354332923889,-0.6068229675292969,0.7998494505882263,-0.3071226477622986
1.2175395566533087,0.3786109581137965,-1.3741030846903382,-0.9136797189712524,-3.928495168685913,-4.004794120788574,0.1278754323720932,-0.9382510185241699,-0.3214541971683502,-0.5080634951591492,0.8521610498428345,-0.3135250508785248
1.194159679051709,0.4243321352153275,-1.4658573177790604,-0.8144719004631042,-4.038893222808838,-3.820934295654297,0.15142564475536346,-0.9299069046974182,-0.335176557302475,-0.40763604640960693,0.887884259223938,-0.3486308157444
1.1716581613792298,0.45766585086660894,-1.5460152524549629,-0.6558598875999451,-4.1055684089660645,-3.551802396774292,0.17171575129032135,-0.9213962554931641,-0.34862956404685974,-0.30033212900161743,0.9200382828712463,-0.42140522599220276
1.1511117349837698,0.48009986563973756,-1.6155710454360406,-0.5041313767433167,-4.136736869812012,-3.2226595878601074,0.18819835782051086,-0.9132174849510193,-0.3614071309566498,-0.20624956488609314,0.9445133209228516,-0.46709930896759033
1.132792030364613,0.4932854427807869,-1.675695097341617,-0.3976426422595978,-4.127830982208252,-2.8982954025268555,0.20083631575107574,-0.9055998921394348,-0.3735685348510742,-0.1244966983795166,0.9419922232627869,-0.47158530354499817
1.116545278324616,0.4993812944432294,-1.727866539080968,-0.3196045756340027,-4.028262138366699,-2.603525161743164,0.21012860536575317,-0.8985899090766907,-0.38520410656929016,-0.03437793254852295,0.8995969891548157,-0.4816629886627197
1.1021821358097155,0.5005196469549845,-1.7734118042836433,-0.26477038860321045,-3.8758695125579834,-2.3316986560821533,0.21673864126205444,-0.8921950459480286,-0.39624786376953125,0.04998493194580078,0.8450911641120911,-0.49825286865234375
1.0894211106073985,0.49744999871822576,-1.8132568686291681,-0.251054048538208,-3.8079795837402344,-2.103908061981201,0.22093652188777924,-0.8863590359687805,-0.40688419342041016,0.1267654299736023,0.8137272000312805,-0.48358821868896484
1.077977381703824,0.4901018745022645,-1.8483443312437313,-0.2505740225315094,-3.8255090713500977,-1.9249894618988037,0.22270096838474274,-0.88100266456604,-0.4174189865589142,0.1951761543750763,0.7811033725738525,-0.4721684455871582
1.0673850253272947,0.4791830397579948,-1.8799090430381582,-0.23140856623649597,-3.877484083175659,-1.7388689517974854,0.22242024540901184,-0.8759419918060303,-0.4280828535556793,0.2770456075668335,0.7362020015716553,-0.4939141869544983
1.0579035480782752,0.4644326603063095,-1.9080123910446785,-0.2209770530462265,-3.9598402976989746,-1.5651847124099731,0.2197921723127365,-0.8713286519050598,-0.4387229382991791,0.3650466501712799,0.6770079731941223,-0.5288368463516235
1.0493512533680622,0.44621695236368847,-1.9332153763215107,-0.2246604710817337,-4.031723976135254,-1.427768588066101,0.2149726003408432,-0.8671002388000488,-0.4493595361709595,0.44596177339553833,0.6044812202453613,-0.581264853477478
1.041441871896408,0.42557465640907177,-1.956118277523594,-0.24206487834453583,-4.012773036956787,-1.3222538232803345,0.20847660303115845,-0.8631332516670227,-0.459933340549469,0.5194133520126343,0.5280196070671082,-0.6566896438598633
1.0338941747122432,0.40423308889303083,-1.9772595828684527,-0.2752353549003601,-3.8507373332977295,-1.2507258653640747,0.20117075741291046,-0.8592972755432129,-0.47025370597839355,0.5883952379226685,0.4505143165588379,-0.7505257725715637
1.026569705613002,0.38435522367705216,-1.9972254853627822,-0.28901275992393494,-3.5004472732543945,-1.2026441097259521,0.194138765335083,-0.8555279970169067,-0.4799812138080597,0.6547686457633972,0.38093388080596924,-0.8563376665115356
1.0195454983490961,0.3678596728982035,-2.016192819548257,-0.2953987717628479,-3.0011813640594482,-1.145432710647583,0.18835169076919556,-0.851870059967041,-0.4887137711048126,0.7354763746261597,0.3175835609436035,-0.9587044715881348
1.0129578578637786,0.35560157996231584,-2.0338460797677063,-0.2771436274051666,-2.4308619499206543,-1.0551393032073975,0.18429680168628693,-0.8484013080596924,-0.49623584747314453,0.845869779586792,0.2506077289581299,-1.0307416915893555
1.0072575435039208,0.34761102912052994,-2.049688375225366,-0.22164921462535858,-1.8327713012695312,-0.9207690954208374,0.18197019398212433,-0.8453700542449951,-0.5022311806678772,0.9603790044784546,0.1929500699043274,-1.093624472618103
1.0026208910231882,0.34371900928568144,-2.0633298930556903,-0.16566893458366394,-1.2327039241790771,-0.7756920456886292,0.18133310973644257,-0.8428841829299927,-0.5066207051277161,1.0551170110702515,0.15340054035186768,-1.1289077997207642
0.998879466179417,0.3443464349259622,-2.0750747494743664,-0.11666837334632874,-0.6132689118385315,-0.6710801124572754,0.18271426856517792,-0.8408650159835815,-0.5094717144966125,1.1169224977493286,0.11283773183822632,-1.1290626525878906
0.995768325894344,0.3496028222036175,-2.0853061864732996,-0.09692411124706268,-0.06527530401945114,-0.581605851650238,0.1862848997116089,-0.8391770720481873,-0.5109596848487854,1.158823013305664,0.06679242849349976,-1.1081198453903198
0.993034539152098,0.35863267896938156,-2.0941205535892613,-0.07933153212070465,0.38353922963142395,-0.5079675316810608,0.19169561564922333,-0.8376871347427368,-0.51140296459198,1.1977086067199707,0.032160401344299316,-1.073161244392395
0.9908192321214279,0.37113913794382697,-2.101982902881655,-0.018638979643583298,0.7925041913986206,-0.45166119933128357,0.1987488716840744,-0.8364751935005188,-0.5106937885284424,1.2253385782241821,0.0210455060005188,-1.0538356304168701
0.9895868244807761,0.3870843473107232,-2.109357050221398,0.09637761861085892,1.1491429805755615,-0.381212055683136,0.20725537836551666,-0.8357992172241211,-0.5084141492843628,1.24986732006073,0.03959554433822632,-1.0564204454421997
0.9899284325319684,0.4056024319929882,-2.1159262406152473,0.24930192530155182,1.4393569231033325,-0.2454509437084198,0.2165214866399765,-0.8359867334365845,-0.504226803779602,1.2779853343963623,0.08314859867095947,-1.051543951034546
0.992281278391653,0.42547550268159723,-2.12065368584222,0.3806375563144684,1.7329996824264526,-0.026830725371837616,0.22568611800670624,-0.837275505065918,-0.4980316460132599,1.3054569959640503,0.13407421112060547,-1.02423095703125
0.9965888185795564,0.4455287804064711,-2.1220635485504507,0.4531056880950928,2.0267796516418457,0.257936030626297,0.23407082259655,-0.8396230340003967,-0.4901469051837921,1.299223780632019,0.18824058771133423,-0.9656941890716553
1.002718276180423,0.4645187402833666,-2.118798325563923,0.4813442528247833,2.300795793533325,0.601070761680603,0.24102577567100525,-0.8429365754127502,-0.4810035526752472,1.2565479278564453,0.24343407154083252,-0.8969870805740356
1.0106930783838703,0.48136677068536465,-2.11007981457641,0.5194564461708069,2.5203816890716553,0.9537278413772583,0.24597500264644623,-0.8472002744674683,-0.47090137004852295,1.18656587600708,0.29063594341278076,-0.852310299873352
1.0210748016864444,0.49570516544480925,-2.096226478031546,0.6367577910423279,2.670330047607422,1.3025481700897217,0.24850423634052277,-0.8526700735092163,-0.4595641791820526,1.0879062414169312,0.3260893225669861,-0.8541564345359802
1.0344875907573032,0.5073517105159908,-2.0781544661517177,0.8190538883209229,2.725736141204834,1.6110743284225464,0.24826042354106903,-0.8596006631851196,-0.44660234451293945,0.97430419921875,0.34794288873672485,-0.8813700675964355
1.0510438254808712,0.5164396943107462,-2.056894691526499,1.0098328590393066,2.7458536624908447,1.8617669343948364,0.24524705111980438,-0.8679421544075012,-0.43189162015914917,0.8575208187103271,0.35431599617004395,-0.8960807919502258
1.0702979050833068,0.5235525056676253,-2.033346669916787,1.1790237426757812,2.7711007595062256,2.0240700244903564,0.2399122416973114,-0.877343475818634,-0.41558459401130676,0.7247331142425537,0.36278659105300903,-0.8986396789550781
1.0915301213057271,0.5296499740326105,-2.0086053598916287,1.3072700500488281,2.796567916870117,2.104957103729248,0.23297637701034546,-0.8873335123062134,-0.39794620871543884,0.5787453651428223,0.36681050062179565,-0.8914520144462585
1.1140720946152571,0.5351926627017944,-1.9831257660537343,1.3996840715408325,2.851546049118042,2.150752067565918,0.22491827607154846,-0.8975019454956055,-0.37934407591819763,0.4555778503417969,0.36588579416275024,-0.881550669670105
1.1375597518460194,0.540579447510216,-1.956644957535314,1.4517675638198853,3.0022780895233154,2.2067184448242188,0.2160482257604599,-0.9076117873191833,-0.35994988679885864,0.35655298829078674,0.3690528869628906,-0.8927357196807861
1.161767588364805,0.5456937135557896,-1.9278314111915695,1.4632712602615356,3.269695281982422,2.3048946857452393,0.206420436501503,-0.917507529258728,-0.33995696902275085,0.2692265212535858,0.38978224992752075,-0.9131100177764893
1.1866503022868262,0.5501612036667753,-1.8954377159195726,1.473502278327942,3.578336238861084,2.4065427780151367,0.19593776762485504,-0.9271188378334045,-0.31946703791618347,0.17787200212478638,0.40935760736465454,-0.9347596764564514
1.2123308500175416,0.5541002591909416,-1.8594368723805845,1.5265394449234009,3.8944015502929688,2.495008707046509,0.18460328876972198,-0.9364362955093384,-0.2983434498310089,0.06916558742523193,0.4191633462905884,-0.959697961807251
1.2391018895856982,0.5578296149569915,-1.820409071578933,1.6201356649398804,4.156855583190918,2.5547800064086914,0.17237912118434906,-0.9454919099807739,-0.2762795388698578,-0.02879399061203003,0.4477655291557312,-0.9851340055465698
1.2670161818143433,0.5611945161131687,-1.7790483271869697,1.7271381616592407,4.342136383056641,2.580592393875122,0.15919582545757294,-0.9542125463485718,-0.2532486021518707,-0.1175241619348526,0.48769044876098633,-0.9920669794082642
1.2959583219638295,0.5637431848945959,-1.7353900007501222,1.8300038576126099,4.508150100708008,2.6000542640686035,0.14501889050006866,-0.9624691605567932,-0.2293962836265564,-0.17733708024024963,0.5269070863723755,-0.9754682183265686
1.3259722036057817,0.5638211889674257,-1.6878977266995019,1.9263836145401,4.65598726272583,2.6619274616241455,0.12953586876392365,-0.9701799750328064,-0.20486927032470703,-0.21316935122013092,0.5860399603843689,-0.9491072297096252
1.3570943276530008,0.5568608242019862,-1.6324852003118653,1.9864616394042969,4.698084354400635,2.7660410404205322,0.11208900809288025,-0.9772524833679199,-0.18003806471824646,-0.24279585480690002,0.6746860146522522,-0.9104923605918884
1.3888181821737586,0.5347568600285317,-1.5621256899274654,1.981426477432251,4.647238731384277,2.8734233379364014,0.09223087877035141,-0.983487606048584,-0.15570998191833496,-0.2931129038333893,0.7519813179969788,-0.826772928237915
1.4204134409828102,0.48635703835965316,-1.4659133516879903,1.9558851718902588,4.635323524475098,2.974332094192505,0.07002558559179306,-0.988713800907135,-0.13244415819644928,-0.33317869901657104,0.820073664188385,-0.7487051486968994
1.4508031076650172,0.3911232211196295,-1.3225353342044779,1.8648687601089478,4.7149248123168945,3.0799953937530518,0.04563504830002785,-0.9928094744682312,-0.1106656938791275,-0.36196503043174744,0.8879967927932739,-0.7087160348892212
1.477134921173314,0.2080509887785013,-1.0899943348704948,1.6571667194366455,4.902696132659912,3.1680843830108643,0.01931770332157612,-0.9956169724464417,-0.09150724112987518,-0.41951000690460205,0.9568444490432739,-0.6499783992767334
1.4944616621133813,-0.11435599395284861,-0.7157952977081543,1.450587511062622,5.162304878234863,3.29257869720459,-0.008701758459210396,-0.9970878958702087,-0.07576160132884979,-0.46929511427879333,1.0291619300842285,-0.5854170322418213
1.4964187200838595,-0.5530010109037973,-0.22306824357889618,1.31780207157135,5.324540615081787,3.5188982486724854,-0.03902962803840637,-0.9972352385520935,-0.06323230266571045,-0.4726434051990509,1.1199312210083008,-0.5599519610404968
1.480553641348614,-0.9387447953944592,0.216882727949993,1.2867225408554077,5.136706829071045,3.8509182929992676,-0.07271028310060501,-0.9959309101104736,-0.05324294790625572,-0.4812295734882355,1.2028248310089111,-0.49488329887390137
1.4513644524868405,-1.1885251562625871,0.5166034292926169,1.3783305883407593,4.444523334503174,4.210459232330322,-0.11054861545562744,-0.9928764700889587,-0.04444591701030731,-0.5254377722740173,1.2285178899765015,-0.36708366870880127
1.414649241376476,-1.3399526817771792,0.710121491628122,1.4984354972839355,3.5926601886749268,4.391512870788574,-0.1513877511024475,-0.9878337979316711,-0.035581182688474655,-0.6439766883850098,1.1412458419799805,-0.22528314590454102
1.3745057270723053,-1.4362049778062278,0.8411981399142113,1.5382492542266846,2.9880943298339844,4.269128799438477,-0.19326873123645782,-0.980796754360199,-0.026170514523983,-0.8390799760818481,0.9874649047851562,-0.09983664751052856
1.335235238576521,-1.4956652178578507,0.9310615784588608,1.4381167888641357,2.6910336017608643,3.8976526260375977,-0.23273032903671265,-0.9723835587501526,-0.017518261447548866,-1.0347561836242676,0.8440419435501099,-0.004118740558624268
1.2990636186265865,-1.5276933522124527,0.9917128231010307,1.1488434076309204,2.661557197570801,3.4896929264068604,-0.2681519091129303,-0.96330726146698,-0.011565308086574078,-1.1793121099472046,0.7063034176826477,0.09847933053970337
1.2659345983320072,-1.5369735774295037,1.0300514138583314,0.768426775932312,2.829998016357422,3.2185580730438232,-0.29998940229415894,-0.953888475894928,-0.010150337591767311,-1.2308028936386108,0.5784002542495728,0.20726335048675537
1.2344454857177711,-1.5290982531331507,1.052623258536033,0.428170382976532,3.0053935050964355,3.1329739093780518,-0.32975760102272034,-0.9439653158187866,-0.01375823188573122,-1.2286683320999146,0.4912218451499939,0.28333520889282227
1.2031452403201794,-1.5122065750037885,1.0670486056535153,0.28417521715164185,3.033142566680908,3.1534690856933594,-0.3588080108165741,-0.933174192905426,-0.021046560257673264,-1.220873475074768,0.42881011962890625,0.2894333600997925
1.1718902315906323,-1.4956397804875423,1.0811987402866876,0.37678292393684387,2.8628246784210205,3.1198177337646484,-0.3873138725757599,-0.9214864373207092,-0.029164105653762817,-1.25518798828125,0.3122794032096863,0.24924159049987793
1.1421025174107688,-1.484727022092577,1.098791451116509,0.552882969379425,2.498002052307129,2.8857686519622803,-0.41414445638656616,-0.9095094799995422,-0.035733405500650406,-1.3892918825149536,0.1288241147994995,0.25860321521759033
1.1159031416284264,-1.480693191645497,1.1192298386985995,0.7214033007621765,1.9796124696731567,2.45865535736084,-0.43758419156074524,-0.8983079791069031,-0.03953475505113602,-1.5388257503509521,-0.060493290424346924,0.36038124561309814
1.0944247518323973,-1.4830428359707462,1.141026240488714,0.8270350098609924,1.4353134632110596,1.9822875261306763,-0.45679301023483276,-0.8886646032333374,-0.040188394486904144,-1.618051290512085,-0.22321265935897827,0.4699826240539551
1.0777274275635418,-1.4897777606053217,1.161845813065637,0.8054887056350708,0.8974459767341614,1.5057623386383057,-0.4717790484428406,-0.8808844089508057,-0.03830671310424805,-1.6638258695602417,-0.35576415061950684,0.5818399786949158
1.0656262478749294,-1.498693268846328,1.1795629836996244,0.6928457617759705,0.4311257004737854,1.0475380420684814,-0.48269912600517273,-0.8750921487808228,-0.03486452251672745,-1.6786473989486694,-0.4738612174987793,0.6959667205810547
1.0576929069589964,-1.5081323032559233,1.1931686626811053,0.513333797454834,0.0732642263174057,0.6349086165428162,-0.48992010951042175,-0.8712252974510193,-0.030740613117814064,-1.6970305442810059,-0.573797345161438,0.7717531323432922
1.0529556410727865,-1.5159650445322665,1.2021397293875922,0.29344114661216736,-0.0745593011379242,0.35998454689979553,-0.4942612946033478,-0.8688900470733643,-0.027128173038363457,-1.663682460784912,-0.6215274333953857,0.7970865964889526
1.0512059384071686,-1.519751343308182,1.2046825444728153,-0.07914946228265762,-0.25047335028648376,-0.018059441819787025,-0.4958779513835907,-0.868022620677948,-0.025334089994430542,-1.6716482639312744,-0.6289713382720947,0.8214765787124634
1.0539009315433852,-1.5174593814965909,1.1980718371523928,-0.5517287850379944,-0.42779937386512756,-0.5778017044067383,-0.49348047375679016,-0.8693575859069824,-0.02634572796523571,-1.7986794710159302,-0.5976222157478333,0.8843931555747986
1.0625654503456912,-1.5074894636942322,1.1809380863054417,-1.0126066207885742,-0.5608503818511963,-1.2530776262283325,-0.48565778136253357,-0.87360680103302,-0.030786611139774323,-1.8609914779663086,-0.5874375104904175,0.8792515397071838
1.0776378548092538,-1.4892710639650535,1.1531229790061794,-1.4165247678756714,-0.6617170572280884,-1.925313115119934,-0.47183799743652344,-0.8808420300483704,-0.038552165031433105,-1.827859878540039,-0.5618459582328796,0.8044213056564331
1.0981677079749026,-1.4622617979194092,1.1147668159720308,-1.7153055667877197,-0.7347154021263123,-2.462435245513916,-0.45254969596862793,-0.8903747200965881,-0.04931104555726051,-1.6927292346954346,-0.4831908941268921,0.6780645847320557
1.1223374419935686,-1.42730622832934,1.0665919535753772,-1.8988540172576904,-0.9223297834396362,-2.8345787525177,-0.4291214048862457,-0.9011163711547852,-0.06200077757239342,-1.5255295038223267,-0.34158986806869507,0.5381360054016113
1.1484920218275585,-1.3863022199454789,1.0095177263149502,-1.9714972972869873,-1.2330141067504883,-3.086111545562744,-0.4029076397418976,-0.9121469259262085,-0.07518912851810455,-1.4011695384979248,-0.190254807472229,0.4272245764732361
1.1758319491444198,-1.3407185060228135,0.9444293816354132,-1.9388253688812256,-1.5880135297775269,-3.306792974472046,-0.3746357560157776,-0.9230102896690369,-0.08774922788143158,-1.3227823972702026,-0.054482877254486084,0.305766761302948
1.2041164930078356,-1.291485656767518,0.8723219067283371,-1.8028560876846313,-1.9383620023727417,-3.4919893741607666,-0.3446234464645386,-0.9335228204727173,-0.09884081035852432,-1.270412564277649,0.06287175416946411,0.17621804773807526
1.2332663998796418,-1.2381863589514601,0.7929418398720751,-1.6532377004623413,-2.2888495922088623,-3.7001993656158447,-0.3130076825618744,-0.9435755014419556,-0.10812651365995407,-1.2339740991592407,0.15313977003097534,0.06642419844865799
1.2636579571853226,-1.1770413876374286,0.702535920572582,-1.5377728939056396,-2.610994577407837,-3.997389078140259,-0.27919620275497437,-0.9532026052474976,-0.11599236726760864,-1.2492462396621704,0.21972793340682983,0.009806402027606964
1.2952869339111135,-1.1005029823068273,0.5940181775875306,-1.4768081903457642,-2.8453521728515625,-4.317878723144531,-0.24250315129756927,-0.9622867703437805,-0.1232728362083435,-1.253209114074707,0.29527944326400757,-0.02022085338830948
1.3267190340078145,-0.9975918214174119,0.4570647639663756,-1.491768479347229,-3.0281059741973877,-4.588395118713379,-0.20303550362586975,-0.9703606963157654,-0.1310591995716095,-1.2240732908248901,0.39539438486099243,-0.0361924022436142
1.3553017113269368,-0.8562002836985715,0.2797089592560452,-1.5346742868423462,-3.217593193054199,-4.768838882446289,-0.16151843965053558,-0.9768707752227783,-0.14012564718723297,-1.1710010766983032,0.5023072361946106,-0.043422386050224304
1.3776264449277653,-0.6678300935809885,0.053547001164592434,-1.5678141117095947,-3.378403425216675,-4.888347148895264,-0.11888450384140015,-0.9814006686210632,-0.15072934329509735,-1.1223112344741821,0.599915623664856,-0.07366646826267242
1.3902113924653452,-0.43432087489178967,-0.21903561816624517,-1.583864688873291,-3.4678938388824463,-4.989960193634033,-0.07557680457830429,-0.9837387800216675,-0.16292980313301086,-1.1042938232421875,0.6878861784934998,-0.1307256668806076
1.3902429500435045,-0.1782076020216802,-0.5148226264346389,-1.5912257432937622,-3.4835400581359863,-5.071141242980957,-0.031832389533519745,-0.9837444424629211,-0.17673037946224213,-1.0860265493392944,0.7823437452316284,-0.18897706270217896
1.3770687069130207,0.06240308177580408,-0.7948970218134689,-1.6065763235092163,-3.4092729091644287,-5.108275890350342,0.012005941942334175,-0.9812934398651123,-0.19214361906051636,-1.0519688129425049,0.8713386058807373,-0.2510784864425659
1.35281674135743,0.25823555688949856,-1.029133023697588,-1.614961862564087,-3.2683162689208984,-5.047526836395264,0.05522666499018669,-0.9763363599777222,-0.20908649265766144,-0.997182309627533,0.9563474655151367,-0.30101487040519714
1.3212598616543572,0.40298979943194735,-1.210878382117068,-1.5859650373458862,-3.139052152633667,-4.914371490478516,0.09684832394123077,-0.9690269827842712,-0.22717180848121643,-0.9248971343040466,1.0307183265686035,-0.32809555530548096
1.2857981940371004,0.5072428730407219,-1.351254844843986,-1.4941160678863525,-3.080671787261963,-4.83174467086792,0.1365767866373062,-0.9596621990203857,-0.2457546442747116,-0.8725387454032898,1.0576388835906982,-0.363528847694397
1.2485147055821453,0.5848066379474796,-1.464646034871283,-1.3329789638519287,-3.0260567665100098,-4.80247688293457,0.1748480200767517,-0.9485152363777161,-0.2640969157218933,-0.834561824798584,1.0615980625152588,-0.41295090317726135
1.2105889471280176,0.6450205730761338,-1.5603543540673797,-1.1588199138641357,-2.9596495628356934,-4.768103122711182,0.21190938353538513,-0.9358237385749817,-0.2816532254219055,-0.78211510181427,1.082124948501587,-0.43683740496635437
1.1725847798868176,0.6918673325870252,-1.642739938441191,-1.022827386856079,-2.9722180366516113,-4.690450668334961,0.24738837778568268,-0.9217559695243835,-0.2986050248146057,-0.7130103707313538,1.1036560535430908,-0.4166659712791443
1.1349369566456462,0.7267517903319857,-1.7140030497004697,-0.9252192974090576,-3.069406270980835,-4.554196357727051,0.2805221676826477,-0.9065075516700745,-0.3155178725719452,-0.6084336042404175,1.1116161346435547,-0.3752628266811371
1.098189392202683,0.7508155232028374,-1.7756413868511378,-0.8589885234832764,-3.168145179748535,-4.362268924713135,0.3105597198009491,-0.8903846144676208,-0.33281829953193665,-0.4872260093688965,1.1083259582519531,-0.33669161796569824
1.062967501625426,0.7659491561999553,-1.8292373607606969,-0.7753458619117737,-3.244304895401001,-4.112996578216553,0.3371005952358246,-0.8738023638725281,-0.3504749536514282,-0.37173810601234436,1.0977556705474854,-0.3143504858016968
1.0302538249279711,0.7732705943425453,-1.8760359696110092,-0.6559284329414368,-3.3822484016418457,-3.7775521278381348,0.35943838953971863,-0.8574296236038208,-0.3682640790939331,-0.2545952796936035,1.0806046724319458,-0.3135443925857544
1.0010421746812395,0.77342711281043,-1.9171187092258364,-0.5130354762077332,-3.537745952606201,-3.405200481414795,0.376837819814682,-0.8420336246490479,-0.385969877243042,-0.14668956398963928,1.0423357486724854,-0.346177339553833
0.9751960847165483,0.7675060755088644,-1.9533073044672384,-0.45676547288894653,-3.662635564804077,-3.073239803314209,0.389530211687088,-0.8278118968009949,-0.40372470021247864,-0.07408535480499268,0.9874188899993896,-0.36664578318595886
0.9511919336213672,0.7558971201868384,-1.9849470068463173,-0.5342077612876892,-3.8392043113708496,-2.8638103008270264,0.39833542704582214,-0.8141082525253296,-0.4225597381591797,-0.03972345590591431,0.9287475347518921,-0.3289966583251953
0.9276290614083451,0.7390835818547379,-2.0132172540349935,-0.647309422492981,-4.058008193969727,-2.7889516353607178,0.4039866626262665,-0.8002002835273743,-0.44325435161590576,-0.035349637269973755,0.8718402981758118,-0.34184086322784424
0.9040596304338278,0.7186482950622972,-2.0400031894162614,-0.6764859557151794,-4.247927665710449,-2.77053165435791,0.4071510136127472,-0.7858439683914185,-0.465486079454422,-0.018662303686141968,0.8290264010429382,-0.4692215621471405
0.8813240119595018,0.6964652970004719,-2.06697593746335,-0.5626981258392334,-4.3424296379089355,-2.743086338043213,0.4080839455127716,-0.7715818285942078,-0.48798465728759766,0.05630198121070862,0.817236065864563,-0.6816625595092773
0.8604018034736134,0.674738641085845,-2.094957561909507,-0.3951682448387146,-4.224917411804199,-2.678264617919922,0.407382994890213,-0.758104681968689,-0.5092311501502991,0.1686820089817047,0.8150199055671692,-0.9057773947715759
0.8413810975268251,0.6550000099831039,-2.1230286077489295,-0.333161324262619,-3.8931832313537598,-2.5636184215545654,0.40596428513526917,-0.7455642223358154,-0.5285139083862305,0.30991700291633606,0.8141372203826904,-1.0334672927856445
0.8233322546039459,0.6378594082995018,-2.149196787251132,-0.45145466923713684,-3.3574559688568115,-2.402860164642334,0.4047940969467163,-0.7334151268005371,-0.5461173057556152,0.4849305748939514,0.8067182898521423,-1.0604958534240723
0.8049242701814167,0.6238789210122704,-2.1713251071598294,-0.7452263832092285,-2.6193552017211914,-2.2056357860565186,0.40493902564048767,-0.7207781672477722,-0.5625863075256348,0.6882311105728149,0.7769609689712524,-1.0575003623962402
0.7852385142468841,0.6136244802266824,-2.188096067696994,-1.0915350914001465,-1.8127232789993286,-1.9749218225479126,0.40724143385887146,-0.7069938778877258,-0.5781989097595215,0.9243625402450562,0.7380608320236206,-1.0554986000061035
0.7646691659374565,0.6071725707239976,-2.1996531327309587,-1.2954928874969482,-1.1135913133621216,-1.7180554866790771,0.41171377897262573,-0.6922982931137085,-0.5926339030265808,1.183790922164917,0.680350661277771,-1.0757468938827515
0.7453234705649079,0.6039428671003553,-2.207673256446248,-1.1730279922485352,-0.6556158065795898,-1.4316010475158691,0.4173262119293213,-0.6782095432281494,-0.604872465133667,1.4156510829925537,0.6104757785797119,-1.1790173053741455
0.7298968323848354,0.6030407883974207,-2.214163013914343,-0.796438455581665,-0.4082893431186676,-1.1042498350143433,0.4226643443107605,-0.6667927503585815,-0.6137933731079102,1.5861551761627197,0.5700825452804565,-1.3264684677124023
0.7199755047932003,0.603832995480666,-2.2200703094845693,-0.3355172276496887,-0.21436329185962677,-0.7445464730262756,0.42688584327697754,-0.659366250038147,-0.6188737154006958,1.7043397426605225,0.5586124658584595,-1.3747938871383667
0.7157021188656592,0.6060283347399028,-2.2250868507597494,0.046386681497097015,0.0015918919816613197,-0.3572319746017456,0.42984452843666077,-0.6561474204063416,-0.6202453374862671,1.788295030593872,0.5300487279891968,-1.3156830072402954
0.7162607883042024,0.6093988627225119,-2.2279630703158855,0.26815900206565857,0.30460450053215027,0.07116732001304626,0.4317227303981781,-0.6565688848495483,-0.6184922456741333,1.836129903793335,0.4812912344932556,-1.1932599544525146
0.7205687000608891,0.6137133399952743,-2.227061982503305,0.3443441390991211,0.6783203482627869,0.5369651913642883,0.4327542185783386,-0.6598120927810669,-0.614305853843689,1.8438265323638916,0.44689100980758667,-1.0510687828063965
0.7279786828739164,0.6186287583503981,-2.2212861316309636,0.3625503182411194,1.0634821653366089,1.020647406578064,0.43292129039764404,-0.6653620600700378,-0.6081714034080505,1.7904977798461914,0.43216198682785034,-0.9490642547607422
0.7383666095665279,0.6238743729871046,-2.2105351099758064,0.3966876268386841,1.4106323719024658,1.4773236513137817,0.4320443868637085,-0.6730808019638062,-0.6002498269081116,1.6767659187316895,0.42294347286224365,-0.8948978781700134
0.751821258757082,0.629112374004164,-2.195342096157006,0.4781990051269531,1.6776611804962158,1.8939423561096191,0.42981448769569397,-0.6829702258110046,-0.5906023383140564,1.5233409404754639,0.42112940549850464,-0.877201497554779
0.768435358000858,0.6339744925720642,-2.176493327843655,0.592968225479126,1.8734632730484009,2.248359441757202,0.42590025067329407,-0.6950111389160156,-0.5792828798294067,1.3500853776931763,0.41888803243637085,-0.8807390928268433
0.7880068128518586,0.6384830085999559,-2.1550541303900803,0.746436595916748,2.0236146450042725,2.5100231170654297,0.4203192889690399,-0.7089489698410034,-0.5663241147994995,1.1575157642364502,0.4217327833175659,-0.8889676332473755
0.8105607024157868,0.6430710852589144,-2.132236269750891,0.972603440284729,2.1519174575805664,2.722598075866699,0.4132182002067566,-0.7246736884117126,-0.5514515042304993,0.9729511737823486,0.44713157415390015,-0.9195109605789185
0.8365460608150938,0.648199492001906,-2.108736785758913,1.252598762512207,2.3126273155212402,2.9428799152374268,0.4045325219631195,-0.7423332929611206,-0.5341299176216125,0.8224266767501831,0.4878014326095581,-0.968357264995575
0.8663217066480217,0.6541278977586715,-2.084490779001643,1.5376161336898804,2.5054068565368652,3.1935338973999023,0.39406388998031616,-0.7619519233703613,-0.5139482617378235,0.7035770416259766,0.5402112007141113,-0.9834119081497192
0.9000123878413425,0.6606018762880964,-2.059007654308451,1.80611252784729,2.7126760482788086,3.465226650238037,0.38140904903411865,-0.7833346128463745,-0.49082985520362854,0.5936121940612793,0.6059207320213318,-0.9683071374893188
0.9374906641168552,0.6669929509111505,-2.031612785999883,2.02871036529541,2.8981831073760986,3.7499420642852783,0.36611080169677734,-0.8060755729675293,-0.46497857570648193,0.4816522002220154,0.6643671989440918,-0.9327875375747681
0.9782051452319772,0.6722342755715558,-2.001407378057899,2.17268443107605,3.075554847717285,4.0001044273376465,0.3478054702281952,-0.8294962644577026,-0.4369979500770569,0.37759724259376526,0.7099437117576599,-0.8768142461776733
1.0212599021009559,0.6753060874603322,-1.9674010925287762,2.2414369583129883,3.2332918643951416,4.21274995803833,0.3265036344528198,-0.852766752243042,-0.40765702724456787,0.2698708176612854,0.7465198040008545,-0.7947355508804321
1.0659099426786964,0.674763599150897,-1.9286929928469354,2.2807743549346924,3.3164405822753906,4.3741254806518555,0.3021785318851471,-0.8752294182777405,-0.3777056038379669,0.16568636894226074,0.7859350442886353,-0.7266950607299805
1.1116830989621405,0.6692001483041462,-1.8847762103776802,2.338789939880371,3.3278110027313232,4.4802961349487305,0.2749141454696655,-0.8964458107948303,-0.34757325053215027,0.07501563429832458,0.8342357873916626,-0.6947546601295471
1.1584848805543866,0.6570802741332312,-1.8347551618623903,2.4251015186309814,3.291351795196533,4.582248210906982,0.24476788938045502,-0.9161970019340515,-0.31728819012641907,-6.273388862609863e-05,0.8959638476371765,-0.6759827136993408
1.2064750139659708,0.6354731956045684,-1.776151125598271,2.5499134063720703,3.2098803520202637,4.71602201461792,0.21149393916130066,-0.9343658089637756,-0.28675931692123413,-0.046607524156570435,0.9794707894325256,-0.6637870073318481
1.2558303998946327,0.5989018504238716,-1.7036844990770545,2.686800003051758,3.1240808963775635,4.908692836761475,0.1746363341808319,-0.9508069157600403,-0.25586768984794617,-0.07109023630619049,1.070985198020935,-0.6509621143341064
1.3061979713764769,0.5371834364571667,-1.6068589988724271,2.79754900932312,3.079965591430664,5.138463497161865,0.13382543623447418,-0.9651976227760315,-0.22468729317188263,-0.09428997337818146,1.1687498092651367,-0.6396315693855286
1.3559954443090212,0.43175188657720787,-1.4665223630604636,2.866936683654785,3.0920350551605225,5.3439178466796875,0.08919655531644821,-0.9770188331604004,-0.19359281659126282,-0.13955062627792358,1.2565903663635254,-0.6108810901641846
1.4015232914116482,0.24829155976819514,-1.2479525636664435,2.862423896789551,3.119030237197876,5.47888708114624,0.041400231420993805,-0.9857075214385986,-0.1632997840642929,-0.20227369666099548,1.3155567646026611,-0.5514982342720032
1.435351890232414,-0.06066607907956667,-0.9040165679500514,2.7738006114959717,3.067051649093628,5.426059722900391,-0.008186718448996544,-0.9908413887023926,-0.134781613945961,-0.287360817193985,1.3407714366912842,-0.4625541865825653
1.4474966685014827,-0.4829888202847458,-0.44797596090827924,2.616837978363037,2.904109477996826,5.113214015960693,-0.05711844190955162,-0.9924082159996033,-0.10891826450824738,-0.43279555439949036,1.315253734588623,-0.3509206771850586
1.4363062800140234,-0.8716380620659351,-0.027800515985285264,2.3770251274108887,2.70757794380188,4.566643238067627,-0.10262691229581833,-0.9909698367118835,-0.08629389107227325,-0.5755957961082458,1.2364990711212158,-0.23037177324295044
1.4124748256302022,-1.1278499392586165,0.2576526673644902,2.0319406986236572,2.5352413654327393,3.8620951175689697,-0.14244608581066132,-0.9874933362007141,-0.06757427752017975,-0.6900734901428223,1.1385247707366943,-0.13619166612625122
1.3865113001576732,-1.2706681280274126,0.42852880870337884,1.520716905593872,2.5878350734710693,3.1504485607147217,-0.175052672624588,-0.983067512512207,-0.05417472869157791,-0.7715415954589844,1.040410041809082,-0.05326247215270996
1.3618566774295657,-1.3379967233805588,0.5253176213912994,0.8077653646469116,2.9519519805908203,2.632338523864746,-0.20182672142982483,-0.9782513976097107,-0.04785279184579849,-0.8158735036849976,1.001017689704895,0.042771585285663605
1.337921605044599,-1.3465184644687649,0.5675550935757268,-0.1081138625741005,3.5912082195281982,2.4845094680786133,-0.2249954789876938,-0.9730070233345032,-0.05132496356964111,-0.7985793352127075,1.0570831298828125,0.1487370729446411
1.3114699818563547,-1.3072800594253022,0.5676434233502355,-1.1643871068954468,4.2349772453308105,2.6624748706817627,-0.2475777566432953,-0.9665629267692566,-0.06679405272006989,-0.6654776930809021,1.1029002666473389,0.2586427927017212
1.2794836490005037,-1.235126399161161,0.5392615107956625,-2.1627917289733887,4.666828632354736,2.9806206226348877,-0.2711803913116455,-0.9578676819801331,-0.09460736066102982,-0.5345447063446045,1.0195438861846924,0.38067907094955444
1.241178764595631,-1.1503812427491555,0.4996729679130147,-2.847334861755371,4.650479316711426,3.193049907684326,-0.29549461603164673,-0.9461662173271179,-0.1321069300174713,-0.542899489402771,0.8396294713020325,0.4087945222854614
1.199193735233177,-1.0708317494918855,0.4625857112192653,-3.078848361968994,4.217587947845459,3.1444625854492188,-0.31866443157196045,-0.9317466020584106,-0.1740725189447403,-0.750076413154602,0.6031028628349304,0.3137514591217041
1.1580890589917179,-1.0064935211126345,0.43532786838729765,-2.8145532608032227,3.5828397274017334,2.8226187229156494,-0.33890649676322937,-0.9160383343696594,-0.21451421082019806,-1.0331486463546753,0.3371502757072449,0.18430176377296448
1.123021966320925,-0.9567123946396383,0.41719872180549344,-2.3200812339782715,3.091707944869995,2.1005425453186035,-0.3538593351840973,-0.9014129638671875,-0.24947620928287506,-1.4100261926651,-0.000762939453125,0.011149168014526367
1.0973330683322426,-0.9111883471582204,0.39992579871192285,-1.9982458353042603,2.951599597930908,1.095765471458435,-0.36032330989837646,-0.8899945020675659,-0.27942243218421936,-1.735395073890686,-0.3623095750808716,-0.03541219234466553
1.0795759898402224,-0.8580768586669205,0.3743981530469777,-2.1335983276367188,3.161302328109741,0.17727716267108917,-0.356883704662323,-0.8817578554153442,-0.3084432780742645,-1.8224223852157593,-0.6117571592330933,0.13926905393600464
1.0642525154736475,-0.7900845423098795,0.33513275375637164,-2.7328085899353027,3.5249013900756836,-0.43329915404319763,-0.34466245770454407,-0.874426543712616,-0.34144705533981323,-1.7684204578399658,-0.721215546131134,0.36438101530075073
1.045503628263111,-0.7085174184638736,0.28363224038060025,-3.4341046810150146,3.7677509784698486,-0.687493085861206,-0.3263084888458252,-0.8651772141456604,-0.38077712059020996,-1.6078345775604248,-0.7180289030075073,0.5266663432121277
1.0208930682727475,-0.6244500172387031,0.228918298341154,-3.8257076740264893,3.5513601303100586,-0.6340624690055847,-0.305541455745697,-0.8525750637054443,-0.423981249332428,-1.4474186897277832,-0.6700536012649536,0.454956591129303
0.9918437781213607,-0.5511265144649654,0.18106083465828804,-3.766427993774414,2.9736695289611816,-0.3624512553215027,-0.2865123450756073,-0.8370361924171448,-0.466134250164032,-1.3936787843704224,-0.653762698173523,0.1717768907546997
0.9626353719898403,-0.49579195721467684,0.14652434742497122,-3.125692367553711,2.3607521057128906,-0.08739586174488068,-0.2718117833137512,-0.8207001686096191,-0.5025630593299866,-1.384972333908081,-0.7547697424888611,-0.22087138891220093
0.9402349998517101,-0.4563796513256543,0.12435655673458433,-1.9821851253509521,1.917419672012329,-0.21882100403308868,-0.25983667373657227,-0.8076967000961304,-0.5292551517486572,-1.5893149375915527,-0.9093442559242249,-0.6370046138763428
0.9299310461211044,-0.4237946975060349,0.10609286500324379,-0.8362772464752197,1.6664222478866577,-0.9047684669494629,-0.24586544930934906,-0.80157870054245,-0.544996976852417,-1.9456170797348022,-0.9905659556388855,-0.8146984577178955
0.9309517595206671,-0.3898983019274242,0.08288042135912525,-0.1278386265039444,1.3646008968353271,-1.6968133449554443,-0.22694317996501923,-0.8021885752677917,-0.5522591471672058,-2.0828864574432373,-0.9538232684135437,-0.6289847493171692
0.9385631677714855,-0.35341332416251625,0.05206337394519033,0.17335264384746552,0.9760332107543945,-2.2113406658172607,-0.20452828705310822,-0.8067098259925842,-0.5544252395629883,-1.9038702249526978,-0.883292555809021,-0.3733549118041992
0.9479591652694817,-0.31520972362892247,0.015031142152447122,0.13973850011825562,0.6766230463981628,-2.4792401790618896,-0.1808452606201172,-0.8122267127037048,-0.5546014904975891,-1.6157398223876953,-0.8201432228088379,-0.1750432848930359
0.9559093802371796,-0.2746979368933191,-0.02754401439497801,-0.06680168956518173,0.4994581341743469,-2.6929714679718018,-0.15647849440574646,-0.8168386816978455,-0.5552377104759216,-1.3709872961044312,-0.7272438406944275,0.01211637258529663
0.9611460668585546,-0.2304847136078194,-0.07601716164577736,-0.30967479944229126,0.4103604555130005,-2.953907012939453,-0.13080576062202454,-0.8198482990264893,-0.5574393272399902,-1.2326586246490479,-0.6148134469985962,0.09592193365097046
0.9636067049646441,-0.18136848243929554,-0.13113001800232774,-0.4799586832523346,0.36795690655708313,-3.304744243621826,-0.10291549563407898,-0.8212547302246094,-0.561203122138977,-1.1820271015167236,-0.47032541036605835,0.09852612018585205
0.9638867009877315,-0.1267095891841926,-0.19326485425282192,-0.5320586562156677,0.35404402017593384,-3.6795239448547363,-0.07207327336072922,-0.8214144706726074,-0.5657593607902527,-1.121103048324585,-0.3072170615196228,0.054696738719940186
0.962496388927113,-0.06764957323948657,-0.2612238500023557,-0.483436644077301,0.28509873151779175,-3.978794813156128,-0.03863044083118439,-0.8206207156181335,-0.5701660513877869,-1.0183305740356445,-0.13361811637878418,-0.01561892032623291
0.9597242509154563,-0.006719246350480136,-0.33311147545340547,-0.3619096875190735,0.09605289995670319,-4.194412708282471,-0.0038551113102585077,-0.8190333843231201,-0.5737329721450806,-0.8998314142227173,0.04272723197937012,-0.07269042730331421
0.9559712178022804,0.053690007531759336,-0.40752281521783296,-0.17582151293754578,-0.1962498277425766,-4.351126194000244,0.03095436468720436,-0.8168743252754211,-0.575984537601471,-0.7918643951416016,0.19854247570037842,-0.11681032180786133
0.9517442976366046,0.1122121946750614,-0.48370189280013764,0.07200505584478378,-0.5285830497741699,-4.472545146942139,0.06497607380151749,-0.8144288659095764,-0.5766140222549438,-0.6967662572860718,0.3287569284439087,-0.16302525997161865
0.9477114598423557,0.1683333652369719,-0.5613364457667894,0.4062214493751526,-0.8730980753898621,-4.554433345794678,0.09776652604341507,-0.8120821714401245,-0.5752949714660645,-0.6177555918693542,0.4441622495651245,-0.22167164087295532
0.9447803428756899,0.22185260540771012,-0.6404565020329589,0.8197781443595886,-1.2614316940307617,-4.605041980743408,0.12892436981201172,-0.8103682398796082,-0.5715607404708862,-0.5569334626197815,0.5478256344795227,-0.28375542163848877
0.9435429058841692,0.27254329822368245,-0.7212523820474949,1.2576531171798706,-1.6778377294540405,-4.606121063232422,0.15798898041248322,-0.8096426129341125,-0.5652594566345215,-0.4958949089050293,0.6522482633590698,-0.3176445960998535
0.9443560562351636,0.3202792015707146,-0.80337542114239,1.7003812789916992,-2.057335615158081,-4.5226030349731445,0.1845746636390686,-0.8101195693016052,-0.5564517378807068,-0.4184156358242035,0.7490997314453125,-0.336340069770813
0.9473942021184727,0.3651875084556364,-0.8863142253817716,2.113095760345459,-2.391573667526245,-4.380658149719238,0.2084895223379135,-0.8118969798088074,-0.5453030467033386,-0.3335506021976471,0.8073346614837646,-0.35040318965911865
0.9523503954782948,0.40776600636144894,-0.9698772922186684,2.4500303268432617,-2.6569018363952637,-4.230591773986816,0.2299131453037262,-0.8147804141044617,-0.532233715057373,-0.2625364363193512,0.822486162185669,-0.34229326248168945
0.9586542895460131,0.4490535002625719,-1.054337281130063,2.722259998321533,-2.8521058559417725,-4.089709281921387,0.24945087730884552,-0.8184190392494202,-0.5176529288291931,-0.2087252140045166,0.8098436594009399,-0.3353286385536194
0.9655512215917084,0.4896609944000465,-1.1394823611944382,2.875256061553955,-2.971752166748047,-3.938682794570923,0.2675987780094147,-0.8223626613616943,-0.5021060109138489,-0.15498900413513184,0.7824915051460266,-0.3151394724845886
0.9719933087925,0.5291706864483333,-1.2239177847384084,2.8791072368621826,-3.013624668121338,-3.7504570484161377,0.28454259037971497,-0.8260108828544617,-0.48656100034713745,-0.09692054986953735,0.7532417178153992,-0.2645224332809448
0.9773145851603919,0.5669314003465312,-1.3057782389204442,2.790357828140259,-2.947500467300415,-3.5091917514801025,0.30034345388412476,-0.8289985656738281,-0.4717576503753662,-0.02913382649421692,0.7216529846191406,-0.21705463528633118
0.9813700643637845,0.602502291468505,-1.3833368484377415,2.632061004638672,-2.7901451587677,-3.2295398712158203,0.3150227963924408,-0.8312597274780273,-0.45800405740737915,0.03293853998184204,0.6845008134841919,-0.18307870626449585
0.9840136641232871,0.6351820583197103,-1.4550674364067187,2.385802745819092,-2.5869579315185547,-2.9318387508392334,0.3285144865512848,-0.8327263593673706,-0.4456961154937744,0.06931260228157043,0.6492547392845154,-0.15043431520462036
0.9848729162899628,0.6641834587982529,-1.5196955979377482,2.0570757389068604,-2.3665785789489746,-2.646482467651367,0.34085914492607117,-0.8332018256187439,-0.4354190528392792,0.09665602445602417,0.6164507269859314,-0.10262113809585571
0.9838060498915809,0.688856184901723,-1.576608024847966,1.7039108276367188,-2.17549729347229,-2.38801908493042,0.3520621955394745,-0.8326113820075989,-0.42756351828575134,0.12771987915039062,0.5607607364654541,-0.06083989143371582
0.9807750698430338,0.7083728450399562,-1.6257332278340975,1.3318334817886353,-2.0916576385498047,-2.172978162765503,0.3619793951511383,-0.8309288620948792,-0.42252597212791443,0.1434527039527893,0.49390798807144165,-0.03293365240097046
0.9756559864341321,0.722343129607098,-1.6676209435576388,0.9600068926811218,-2.048224687576294,-2.029218912124634,0.3706541061401367,-0.828069806098938,-0.42061376571655273,0.1419495940208435,0.4325162172317505,-0.02640777826309204
0.9683282142168654,0.7318445216499826,-1.7034628160457428,0.6368411183357239,-1.9533864259719849,-1.9598948955535889,0.37867850065231323,-0.8239395022392273,-0.42157605290412903,0.12568548321723938,0.3838302493095398,-0.03586721420288086
0.9591026057482488,0.738844032435665,-1.734944285558597,0.40706679224967957,-1.8020639419555664,-1.9336302280426025,0.3867226541042328,-0.8186765909194946,-0.424516499042511,0.09157925844192505,0.35412275791168213,-0.08393692970275879
0.9482793805237969,0.7447777294911109,-1.763343740831803,0.22006011009216309,-1.6310251951217651,-1.9473625421524048,0.3952177166938782,-0.8124134540557861,-0.4287042021751404,0.05902111530303955,0.33411145210266113,-0.13855654001235962
0.9360302938203471,0.7507631707628531,-1.7898843161211377,0.11734943836927414,-1.4537800550460815,-1.9959899187088013,0.4045353829860687,-0.8052104711532593,-0.43357494473457336,0.0358942449092865,0.3173259496688843,-0.16382193565368652
0.9230307815254551,0.7576228862233243,-1.8159145781007626,0.12444223463535309,-1.350489616394043,-2.0367085933685303,0.4146585464477539,-0.7974340915679932,-0.438357412815094,0.04580584168434143,0.30936646461486816,-0.18851947784423828
0.9102522190633973,0.7647281011389218,-1.841815867032385,0.20366914570331573,-1.332493543624878,-1.9818559885025024,0.4247833490371704,-0.7896584868431091,-0.44271719455718994,0.10252982378005981,0.3060617446899414,-0.22064346075057983
0.8988562862007943,0.7710123688281595,-1.8669049024052944,0.31134727597236633,-1.351576805114746,-1.8062379360198975,0.4338001012802124,-0.7826154828071594,-0.44646430015563965,0.17851972579956055,0.3173292875289917,-0.23317742347717285
0.8898369756395582,0.7751645170254278,-1.8902286014615797,0.4360197186470032,-1.4584635496139526,-1.5233763456344604,0.4405723810195923,-0.7769691348075867,-0.4496832489967346,0.26192694902420044,0.34200209379196167,-0.21807193756103516
0.8838970814365549,0.7757740655536473,-1.9111393195583086,0.5612109303474426,-1.6548618078231812,-1.1917780637741089,0.4440704584121704,-0.7732160687446594,-0.4527013301849365,0.3347838521003723,0.32848334312438965,-0.19488167762756348
0.8810319674341411,0.772592206588864,-1.9296799601873604,0.6635317206382751,-1.8261557817459106,-0.8999369740486145,0.44417211413383484,-0.7713959813117981,-0.4556964337825775,0.3634602725505829,0.29321610927581787,-0.16976132988929749
0.8803295003094294,0.7660735375220107,-1.9465599760285726,0.7243813276290894,-2.0755138397216797,-0.7579329609870911,0.4415678381919861,-0.7709487676620483,-0.45897260308265686,0.31098031997680664,0.25495755672454834,-0.12305867671966553
0.8806470448818607,0.7576549743605077,-1.9634901972737924,0.8096120357513428,-2.182107925415039,-0.7739028334617615,0.4375200867652893,-0.7711510062217712,-0.4624958038330078,0.1921643316745758,0.19668811559677124,-0.1567516326904297
0.8810802389863583,0.7499277076947468,-1.9823200596662631,0.8818739056587219,-2.2544987201690674,-0.9245051741600037,0.43370550870895386,-0.7714266777038574,-0.4656183123588562,0.08950304985046387,0.14181852340698242,-0.1768072247505188
0.8807493605828915,0.7441442961302733,-2.0038982413778927,0.9156097173690796,-2.1927285194396973,-1.1316351890563965,0.43117818236351013,-0.771216094493866,-0.4683064818382263,0.031727612018585205,0.10532259941101074,-0.1959848701953888
0.8789929873977594,0.7413059482294081,-2.02753971062678,0.842686653137207,-1.9906426668167114,-1.316998839378357,0.43076130747795105,-0.7700968980789185,-0.47052687406539917,0.015451371669769287,0.08070474863052368,-0.19367295503616333
0.8753325823540691,0.7418461548956525,-2.051808693894106,0.7066345810890198,-1.5957087278366089,-1.4486993551254272,0.4329170286655426,-0.7677566409111023,-0.4723690152168274,0.021993160247802734,0.07592320442199707,-0.19080844521522522
0.8701097443990904,0.746389800982442,-2.0752869871585187,0.5691032409667969,-1.0893882513046265,-1.4498718976974487,0.43777570128440857,-0.7643997073173523,-0.4733346402645111,0.06542858481407166,0.09672081470489502,-0.22881382703781128
0.8642652334877745,0.7533241997731174,-2.0961339384415054,0.40344738960266113,-0.7244622707366943,-1.2969425916671753,0.4440959692001343,-0.7606184482574463,-0.47353821992874146,0.14980658888816833,0.1280806064605713,-0.22908324003219604
0.858402223870397,0.7595044827965451,-2.1124730934667033,0.20324191451072693,-0.526878833770752,-1.0420759916305542,0.45007702708244324,-0.7567991614341736,-0.4740104079246521,0.2483329474925995,0.1435178518295288,-0.1519051194190979
0.8529446864730342,0.7631819402608774,-2.1236717987715954,0.024700401350855827,-0.44515177607536316,-0.7725923657417297,0.45466527342796326,-0.7532206177711487,-0.4753296375274658,0.32019123435020447,0.1430826187133789,-0.08144831657409668
0.8480259764855893,0.7634867991755606,-2.1303129408959762,-0.12883858382701874,-0.5018752813339233,-0.5441420078277588,0.45736628770828247,-0.7499760985374451,-0.4778617024421692,0.33935603499412537,0.13320064544677734,-0.0476510226726532
0.8433246190427348,0.7601181227261372,-2.133246371401016,-0.2793799042701721,-0.6033927798271179,-0.3995933532714844,0.4581783711910248,-0.7468580603599548,-0.48194989562034607,0.32940396666526794,0.11667007207870483,-0.015837550163269043
0.8382426723668287,0.7544570457333248,-2.1341027908509425,-0.3695679008960724,-0.6441681981086731,-0.40024346113204956,0.4580362141132355,-0.7434689998626709,-0.4872951805591583,0.27276813983917236,0.0861814022064209,-0.016870498657226562
0.8323248175199979,0.7488749848047229,-2.13522197093116,-0.381171315908432,-0.6268256902694702,-0.528057336807251,0.45829641819000244,-0.7394983172416687,-0.49305838346481323,0.19371157884597778,0.0605127215385437,-0.05872994661331177
0.8255113012594606,0.7451949837856223,-2.1381436203055495,-0.3461313843727112,-0.5254538059234619,-0.6815653443336487,0.4598849415779114,-0.7348946332931519,-0.4984331429004669,0.15316736698150635,0.05317777395248413,-0.11165902018547058
0.8181473909468467,0.7443387983700397,-2.1429477223409377,-0.28915756940841675,-0.3386085331439972,-0.7853817343711853,0.46311190724372864,-0.729880690574646,-0.5027936697006226,0.1534651815891266,0.0682443380355835,-0.15463119745254517
0.8107395633610437,0.7465459229772896,-2.1492004044677144,-0.2178078144788742,-0.12941646575927734,-0.8357698917388916,0.4678795635700226,-0.7247968912124634,-0.5057253241539001,0.17512574791908264,0.10004103183746338,-0.16450172662734985
0.8036720859355683,0.7513562370825849,-2.156233923029596,-0.14982956647872925,0.07031900435686111,-0.8223563432693481,0.47379177808761597,-0.7199096083641052,-0.5071995258331299,0.21822473406791687,0.1232452392578125,-0.15513867139816284
0.7975020299366302,0.7579958678085964,-2.1633505070734667,-0.07324185222387314,0.22599120438098907,-0.7338984608650208,0.48019349575042725,-0.7156134843826294,-0.5072587132453918,0.2596898674964905,0.1398078203201294,-0.14313185214996338
0.7925560883605587,0.7654908510432031,-2.1697521552131867,-0.030062690377235413,0.36096951365470886,-0.5900864005088806,0.48642846941947937,-0.7121500372886658,-0.5061914920806885,0.29367712140083313,0.161979079246521,-0.1210363507270813
0.7888738071674284,0.7732117474696284,-2.1746162677311545,-0.028009986504912376,0.4831276535987854,-0.4112589657306671,0.4921502470970154,-0.7095601558685303,-0.5042939186096191,0.32004448771476746,0.17939352989196777,-0.07901901006698608
0.7863155950321289,0.7801810167804005,-2.177448303016451,-0.06428836286067963,0.4913075864315033,-0.2338743358850479,0.49692806601524353,-0.7077552080154419,-0.5021404027938843,0.3401843011379242,0.1833106279373169,-0.028941750526428223
0.7845483751437397,0.7852214160657269,-2.178076538108278,-0.1255481243133545,0.42279982566833496,-0.08355116099119186,0.500336229801178,-0.7065056562423706,-0.5005131363868713,0.35162293910980225,0.18207627534866333,0.015955030918121338
0.7832178031328046,0.7881262026150218,-2.176912443002692,-0.17713569104671478,0.3185133635997772,-0.002733543049544096,0.5024540424346924,-0.7055633664131165,-0.49972009658813477,0.33095037937164307,0.17376405000686646,0.04387909173965454
0.7817855506004033,0.7893630452790358,-2.175136510423923,-0.19813042879104614,0.17415758967399597,-0.036664195358753204,0.5037887096405029,-0.704547643661499,-0.49980953335762024,0.2660323977470398,0.15565848350524902,0.04431939125061035
0.7798009986964949,0.7896492905982402,-2.174116584887082,-0.17598730325698853,0.02646399661898613,-0.1457211673259735,0.5049235224723816,-0.7031379342079163,-0.5006486773490906,0.20164978504180908,0.13232195377349854,0.02309441566467285
0.7774131375640758,0.7896536811506647,-2.174622855808168,-0.1021132618188858,-0.09271860867738724,-0.2405027598142624,0.5061166882514954,-0.7014380097389221,-0.5018272995948792,0.17621052265167236,0.11962038278579712,0.00014889240264892578
0.7751295489097473,0.7897882436159711,-2.1768951638398883,0.016035744920372963,-0.19647163152694702,-0.31015855073928833,0.5073205232620239,-0.6998085975646973,-0.5028855800628662,0.18753421306610107,0.12092065811157227,-0.02493119239807129
0.773375701589629,0.7902869831459252,-2.1810663802737422,0.16155047714710236,-0.2775489091873169,-0.3535994589328766,0.5084425210952759,-0.6985546946525574,-0.5034952759742737,0.19614726305007935,0.12281006574630737,-0.05750936269760132
0.7724110067317412,0.7915582110416015,-2.1868998582661767,0.2898554503917694,-0.2680555284023285,-0.3626006841659546,0.50956130027771,-0.6978641152381897,-0.5033218264579773,0.1965848207473755,0.13408243656158447,-0.0729873776435852
0.772165841982279,0.7937750392901322,-2.19343111306579,0.3227265477180481,-0.19047686457633972,-0.3176596462726593,0.5107978582382202,-0.6976884603500366,-0.5023109912872314,0.2025046944618225,0.14849412441253662,-0.051522016525268555
0.772253949458802,0.7963927606170504,-2.199103307259517,0.25954732298851013,-0.07176859676837921,-0.2309122383594513,0.5120671391487122,-0.6977515816688538,-0.5009291768074036,0.22223150730133057,0.15264660120010376,-0.0022293925285339355
0.7723981496994793,0.7989378133765351,-2.2029415319979733,0.14929510653018951,0.04220857471227646,-0.130854070186615,0.5132681727409363,-0.6978548765182495,-0.4995540976524353,0.23409193754196167,0.145410418510437,0.03550383448600769
0.7724408479063457,0.8009950585788548,-2.204749001555747,0.042589448392391205,0.10382799804210663,-0.049262549728155136,0.514273464679718,-0.6978854537010193,-0.49847641587257385,0.2292720079421997,0.1328677535057068,0.058534979820251465
0.7721125305199869,0.8021953185323718,-2.2049335431717814,-0.07063513249158859,0.1075066477060318,-0.022652439773082733,0.5150359869003296,-0.6976503133773804,-0.49801796674728394,0.20549917221069336,0.11577165126800537,0.07368633151054382
0.7710416747035028,0.8026827008497738,-2.2038689595237746,-0.18769995868206024,0.14007976651191711,-0.02547166310250759,0.5158156752586365,-0.6968826651573181,-0.4982856512069702,0.17249292135238647,0.09367227554321289,0.0825752317905426
0.7691490305418279,0.8029229052215255,-2.2017298860925134,-0.2893560230731964,0.20676164329051971,-0.03478803485631943,0.5168832540512085,-0.6955240368843079,-0.4990769922733307,0.14534807205200195,0.08024394512176514,0.07624068856239319
0.7665950730969865,0.8033649815038586,-2.1989591122274774,-0.34301313757896423,0.25530919432640076,-0.06048887223005295,0.5183807015419006,-0.6936867833137512,-0.5000802278518677,0.1263641119003296,0.06610798835754395,0.054447293281555176
0.7636037275278775,0.8041216287532942,-2.1962662152728893,-0.345702201128006,0.26864391565322876,-0.09772486239671707,0.5202509760856628,-0.6915290951728821,-0.5011250376701355,0.11092871427536011,0.05571061372756958,0.018840551376342773
0.7605264873520932,0.805409383155622,-2.193968225755872,-0.31529557704925537,0.3072482943534851,-0.10979323834180832,0.522428035736084,-0.6893029808998108,-0.5019267201423645,0.10426568984985352,0.055330753326416016,-0.019359350204467773
0.7577335801961026,0.8074647067507238,-2.1920471252077984,-0.27406632900238037,0.37107357382774353,-0.09918487071990967,0.5248474478721619,-0.6872768998146057,-0.502180814743042,0.10277700424194336,0.06197172403335571,-0.04843258857727051
0.7553300229208307,0.8103823839522426,-2.190316484710631,-0.24076084792613983,0.4467174708843231,-0.07571523636579514,0.5275057554244995,-0.6855289936065674,-0.5017844438552856,0.09654808044433594,0.06657153367996216,-0.059571146965026855
0.7532876428040782,0.8139979161466024,-2.18861873033468,-0.21848876774311066,0.4961142838001251,-0.04837900400161743,0.5303334593772888,-0.6840406060218811,-0.5008342862129211,0.0920267105102539,0.0651288628578186,-0.05714911222457886
0.7517067653948285,0.8175444819958719,-2.186652375395277,-0.21056853234767914,0.47266462445259094,0.022559616714715958,0.532894492149353,-0.6828866004943848,-0.4996892809867859,0.1019168496131897,0.06037372350692749,-0.04547679424285889
0.7507649675956786,0.8200360591224632,-2.183699468786471,-0.24074040353298187,0.42764416337013245,0.13810452818870544,0.5346078872680664,-0.6821982860565186,-0.49879851937294006,0.13111776113510132,0.06464457511901855,-0.015926241874694824
0.7504552721822153,0.8210449862352466,-2.179183719442831,-0.2793370485305786,0.38629671931266785,0.2678065896034241,0.5352655053138733,-0.6819717884063721,-0.498402863740921,0.1543096899986267,0.07345128059387207,0.014744997024536133
0.7508847464427005,0.8206714363459117,-2.173312742420744,-0.2820760905742645,0.3356654942035675,0.37232983112335205,0.5348649621009827,-0.6822858452796936,-0.49840307235717773,0.14419692754745483,0.0678296685218811,0.0012412071228027344
0.7519632469576341,0.8193985363002283,-2.16690171857269,-0.24959403276443481,0.28501349687576294,0.4126812517642975,0.5336920619010925,-0.6830739378929138,-0.49858084321022034,0.1073906421661377,0.05482375621795654,-0.02848827838897705
0.7535931494902712,0.818033092702126,-2.1609957164266995,-0.15028174221515656,0.2478022277355194,0.40955960750579834,0.5321974754333496,-0.6842634081840515,-0.4985472559928894,0.06579440832138062,0.042539775371551514,-0.06607377529144287
0.7558346148161545,0.8172176984386048,-2.156341334050584,-0.039676398038864136,0.2333548367023468,0.3756714165210724,0.5306710004806519,-0.6858962774276733,-0.4979303181171417,0.03330904245376587,0.03494107723236084,-0.10305237770080566
0.758399473152547,0.8173454002722945,-2.1529870432748552,0.02357052080333233,0.2551434636116028,0.3317604660987854,0.5294497609138489,-0.6877604722976685,-0.4966573119163513,0.006927192211151123,0.025864720344543457,-0.09367477893829346
0.7609092897172359,0.8182008360915571,-2.1502983690781794,0.027449147775769234,0.28447526693344116,0.3035605251789093,0.5286127924919128,-0.6895802617073059,-0.4950227439403534,-0.0003841519355773926,0.017232239246368408,-0.061022788286209106
0.7632246578094026,0.8194010685195735,-2.147521492857785,-0.008107691071927547,0.3450624644756317,0.31003236770629883,0.5280384421348572,-0.6912552118301392,-0.49329668283462524,0.013679027557373047,0.015474021434783936,-0.030079811811447144
0.7653394465369283,0.8209612705919179,-2.1440910426885442,-0.06479653716087341,0.44469398260116577,0.3366197347640991,0.527736485004425,-0.6927818059921265,-0.4914748966693878,0.025501370429992676,0.020265936851501465,-0.01279759407043457
0.7672742796457171,0.8229828714767538,-2.1397839370938065,-0.12248949706554413,0.5591803193092346,0.3692477345466614,0.527745246887207,-0.6941758394241333,-0.48949456214904785,0.025309503078460693,0.0262986421585083,-0.0034406185150146484
0.7692755663610499,0.8255075708818925,-2.134638872337023,-0.1455378234386444,0.6480609178543091,0.4278772473335266,0.5279573798179626,-0.6956149935722351,-0.4872174561023712,0.014843463897705078,0.03248322010040283,-0.005214214324951172
0.7716889295050557,0.8279257937089879,-2.128668260706305,-0.15678808093070984,0.6428531408309937,0.5070987939834595,0.5278960466384888,-0.6973467469215393,-0.4848024249076843,0.02013862133026123,0.05243396759033203,0.0019685029983520508
0.7746582983756855,0.8289247612684068,-2.121813056181636,-0.16141267120838165,0.49779877066612244,0.5901417136192322,0.526851236820221,-0.6994718909263611,-0.4828735589981079,0.04001271724700928,0.053414762020111084,0.02036440372467041
0.7782206707718925,0.8278004129277455,-2.11433233964285,-0.13878247141838074,0.3293282091617584,0.6506820917129517,0.5244695544242859,-0.702013373374939,-0.4817768633365631,0.038976430892944336,0.02467566728591919,0.021648049354553223
0.7821683236376763,0.8249436614331425,-2.10667836766812,-0.12850160896778107,0.18003778159618378,0.653432309627533,0.5210515260696411,-0.7048192620277405,-0.4813888370990753,-0.007456004619598389,0.009201526641845703,0.02048182487487793
0.7859351257178094,0.8209286375956827,-2.099226216668618,-0.12997795641422272,0.07803578674793243,0.6123152375221252,0.5171679854393005,-0.7074863910675049,-0.4816640615463257,-0.05877882242202759,0.0015537738800048828,0.023717254400253296
0.7892237572169624,0.8164560206473745,-2.0917766006065865,-0.21151302754878998,0.10855747759342194,0.5867904424667358,0.5133101940155029,-0.7098066806793213,-0.4823763370513916,-0.07875525951385498,-0.0066239237785339355,0.03125026822090149
0.791515063417779,0.8102712318946121,-2.0829411032145915,-0.3721756339073181,-0.1104336529970169,0.6026579141616821,0.5091374516487122,-0.7114188075065613,-0.4844195246696472,-0.061368346214294434,-0.01296168565750122,0.11558407545089722
0.7932171691923495,0.8014657185980515,-2.0728015584553745,-0.399158775806427,-0.15497049689292908,0.6280522346496582,0.5039815902709961,-0.7126139998435974,-0.48804083466529846,-0.04226595163345337,-0.007036328315734863,0.037708163261413574
0.7950539128095337,0.7932305372838384,-2.0626327690352917,-0.35723671317100525,-0.04576144739985466,0.6212887763977051,0.4990118741989136,-0.7139013409614563,-0.49125558137893677,-0.08522409200668335,-0.011562526226043701,-0.06073117256164551
0.7971475197170779,0.7867505003399401,-2.0533865253280625,-0.25965237617492676,0.0864490494132042,0.5823994278907776,0.494758665561676,-0.7153658270835876,-0.4934222996234894,-0.1331253945827484,-0.008129656314849854,-0.12222409248352051
0.799578400991049,0.7828934114330617,-2.045431929780969,-0.1886644810438156,0.2648320496082306,0.5493399500846863,0.49162381887435913,-0.7170622944831848,-0.49409282207489014,-0.1534585952758789,-0.01862502098083496,-0.14271754026412964
0.80221490493445,0.7804319060027706,-2.0379097328425053,-0.17881397902965546,0.3072660565376282,0.5648856163024902,0.4890742301940918,-0.7188974618911743,-0.4939562678337097,-0.14312702417373657,-0.021733641624450684,-0.10562264919281006
0.8049109719651842,0.7780303810630083,-2.0302911024261374,-0.18073448538780212,0.303404301404953,0.5557262897491455,0.48652443289756775,-0.720768928527832,-0.4937469959259033,-0.12563887238502502,-0.04462718963623047,-0.07841181755065918
0.8074639939963798,0.775541354399347,-2.0228858244251455,-0.16981472074985504,0.2608448565006256,0.5309721827507019,0.48400411009788513,-0.7225362658500671,-0.49364086985588074,-0.1325179934501648,-0.07935887575149536,-0.06809619069099426
0.8099520755577789,0.7727880955588106,-2.0159332468892233,-0.14156149327754974,0.19234642386436462,0.5000877380371094,0.48138660192489624,-0.7242541313171387,-0.49368295073509216,-0.1379723846912384,-0.09399843215942383,-0.06788626313209534
0.8124992508032848,0.7697988571777463,-2.009602295422889,-0.09493008255958557,0.12394820898771286,0.4759693443775177,0.4786232113838196,-0.7260081171989441,-0.49379345774650574,-0.13447654247283936,-0.09961444139480591,-0.07067489624023438
0.8152610633342966,0.7665471628279672,-2.0039611248068163,-0.04309065267443657,0.04827258363366127,0.46441972255706787,0.47562238574028015,-0.7279046177864075,-0.4939010441303253,-0.12337329983711243,-0.09597843885421753,-0.07148289680480957
0.8183429540140099,0.7631325877691346,-1.9989174226123456,0.009037528187036514,0.007390932179987431,0.46343809366226196,0.4723803997039795,-0.7300143837928772,-0.4938987195491791,-0.10786324739456177,-0.09539461135864258,-0.07221764326095581
0.8218174257680209,0.7597352707325862,-1.9942117989434345,0.04953146353363991,0.0032318634912371635,0.47730758786201477,0.4689498841762543,-0.7323845028877258,-0.4936586320400238,-0.09773412346839905,-0.09331434965133667,-0.06868880987167358
0.8256048958105434,0.7564077404174716,-1.9896224379840999,0.06609126180410385,0.006441238336265087,0.4931938946247101,0.46539756655693054,-0.7349581122398376,-0.49319538474082947,-0.0967453122138977,-0.08932167291641235,-0.05543440580368042
0.8294944841131341,0.7531768561411745,-1.9849565058976826,0.06715434789657593,0.033205509185791016,0.4943356215953827,0.46184301376342773,-0.7375901341438293,-0.49260732531547546,-0.09479287266731262,-0.08971095085144043,-0.0315932035446167
0.8333275868051185,0.7502029209680874,-1.9804153151548924,0.07723920792341232,0.03938137739896774,0.47118744254112244,0.4584449529647827,-0.7401729822158813,-0.49190664291381836,-0.09423297643661499,-0.09724462032318115,-0.01668405532836914
0.8370780039261714,0.7474271766677335,-1.9763149063917707,0.09622792899608612,0.010123351588845253,0.44113627076148987,0.45518767833709717,-0.7426896095275879,-0.49113786220550537,-0.09562960267066956,-0.09977865219116211,-0.008495926856994629
0.8407163206134833,0.7445415380970635,-1.9726626705961021,0.10603075474500656,-0.04993173107504845,0.41018182039260864,0.45193442702293396,-0.7451210618019104,-0.4904588758945465,-0.09324610233306885,-0.0979575514793396,-0.001026749610900879
0.8441346597927588,0.7412834408333441,-1.969375231091114,0.10005293786525726,-0.10737631469964981,0.373529851436615,0.4486114978790283,-0.7473964691162109,-0.49004703760147095,-0.08623060584068298,-0.09290498495101929,0.012233346700668335
0.8472650021202386,0.7377175495463384,-1.9662986415738708,0.09111270308494568,-0.13728788495063782,0.3495597839355469,0.4452853798866272,-0.7494725584983826,-0.4899098575115204,-0.07782331109046936,-0.08107852935791016,0.02135828137397766
0.8501857642519031,0.7340531308597424,-1.9634767485733413,0.09244910627603531,-0.1672450453042984,0.3169060945510864,0.44201892614364624,-0.7514029741287231,-0.4899109899997711,-0.0738854706287384,-0.06791770458221436,0.01772773265838623
0.8529358149972933,0.730606595888099,-1.9609961577453505,0.10017627477645874,-0.13904668390750885,0.29570600390434265,0.43894726037979126,-0.7532147765159607,-0.4898907244205475,-0.06835708022117615,-0.06177240610122681,-0.0038532018661499023
0.8557398807155476,0.7280959732809205,-1.9588097031256126,0.12690266966819763,-0.030983611941337585,0.2908930778503418,0.43630871176719666,-0.7550562620162964,-0.48941272497177124,-0.06989949941635132,-0.04726612567901611,-0.035062432289123535
0.8587086360472371,0.7270894778449866,-1.957028017855717,0.1609538346529007,0.09519216418266296,0.2748089134693146,0.4343240559101105,-0.7569993734359741,-0.48817479610443115,-0.07392677664756775,-0.02493727207183838,-0.03941309452056885
0.8618098054600027,0.7275299462786311,-1.9557564824994556,0.190496027469635,0.17984284460544586,0.26236698031425476,0.4329756498336792,-0.7590221166610718,-0.48622775077819824,-0.06972497701644897,-0.014735758304595947,-0.03545495867729187
0.8649918385740253,0.7288273545871706,-1.9547379976680073,0.18858760595321655,0.2277323454618454,0.2574036419391632,0.4319954812526703,-0.7610899806022644,-0.4838615953922272,-0.052921444177627563,-0.015994369983673096,-0.019342780113220215
0.8678907015540852,0.730289119257721,-1.9535847362530319,0.1343388706445694,0.2355588674545288,0.23157934844493866,0.4312286972999573,-0.7629671096801758,-0.4815838932991028,-0.04194650053977966,-0.02243328094482422,0.020509064197540283
0.8699398360275513,0.7315952639357324,-1.9523093825199735,0.061080366373062134,0.21652285754680634,0.15740738809108734,0.4308120012283325,-0.7642901539802551,-0.4798559248447418,-0.06185448169708252,-0.030067265033721924,0.06461840867996216
0.8709564388006994,0.7328101845831491,-1.9513789110944242,0.0145413838326931,0.15701532363891602,0.06737691909074783,0.43087467551231384,-0.7649453282356262,-0.4787543714046478,-0.06885996460914612,-0.02872532606124878,0.07862311601638794
0.8711379313788945,0.7336039167140995,-1.951136268019046,-0.0031467992812395096,0.0286853164434433,-0.01930791139602661,0.4311615824699402,-0.7650622129440308,-0.47830909490585327,-0.05539870262145996,-0.02810490131378174,0.07030433416366577
0.8708080912185835,0.7336276693103481,-1.9517174926230332,0.0103897824883461,-0.10854391008615494,-0.07478075474500656,0.4313417673110962,-0.7648497819900513,-0.47848615050315857,-0.028967589139938354,-0.023464977741241455,0.05348309874534607
0.8705284882095536,0.7331165409351041,-1.953110374825682,0.07263877242803574,-0.19941389560699463,-0.09166199713945389,0.4312402904033661,-0.7646695971488953,-0.47886550426483154,-0.011593133211135864,-0.0033357739448547363,0.026137232780456543
0.8708097463511145,0.7323707285433733,-1.9553771900783254,0.1667526662349701,-0.295097291469574,-0.08099225163459778,0.43073928356170654,-0.7648508548736572,-0.4790271520614624,-0.0033254027366638184,0.024677515029907227,0.003120720386505127
0.8719635549125713,0.7311849483608431,-1.9582910372719602,0.2514396011829376,-0.3823491036891937,-0.03718724474310875,0.42958131432533264,-0.7655935883522034,-0.47888025641441345,0.017821580171585083,0.04125887155532837,-0.008256614208221436
0.8740511772383283,0.729433098070042,-1.9613184823927838,0.3137889504432678,-0.41859176754951477,0.029803823679685593,0.42767569422721863,-0.7669349908828735,-0.47843948006629944,0.045148372650146484,0.03913646936416626,-0.00944507122039795
0.8770495201473365,0.7273797854377398,-1.964073652585617,0.36814939975738525,-0.4092608392238617,0.10228627920150757,0.4251614511013031,-0.768855631351471,-0.47759684920310974,0.05466639995574951,0.03860050439834595,-0.005633711814880371
0.8807555327354047,0.725367757111971,-1.9666320049821342,0.39957234263420105,-0.3841584622859955,0.14277639985084534,0.4223063588142395,-0.7712200284004211,-0.4763159155845642,0.041926950216293335,0.04175841808319092,-0.006548434495925903
0.8847384357752133,0.7235631829695216,-1.9690977827186795,0.3937557339668274,-0.3600222170352936,0.14330530166625977,0.41940924525260925,-0.7737492918968201,-0.4747714698314667,0.02768847346305847,0.02913564443588257,0.002923905849456787
0.8883655120127383,0.7218301561986323,-1.971378329984758,0.33143046498298645,-0.32946348190307617,0.11606457084417343,0.4167287349700928,-0.7760419249534607,-0.47338801622390747,0.012485742568969727,0.004114925861358643,0.030135393142700195
0.8911019111035361,0.7202643413452751,-1.9732424065639738,0.23189426958560944,-0.27244308590888977,0.06382825970649719,0.4145846366882324,-0.7777648568153381,-0.4724419116973877,-0.002261728048324585,-0.015493810176849365,0.05937126278877258
0.8926729652200796,0.7190776467443567,-1.9749232172446534,0.1480356901884079,-0.23128122091293335,-0.01597253791987896,0.4132184386253357,-0.7787513732910156,-0.4720137119293213,-0.02224251627922058,-0.03014761209487915,0.06637406349182129
0.8932913739726516,0.718451552156375,-1.9768153805737902,0.10774952918291092,-0.18622586131095886,-0.07547926902770996,0.4126056432723999,-0.7791391611099243,-0.4719095528125763,-0.024162739515304565,-0.03784686326980591,0.049485236406326294
0.8935129464816668,0.7185193324229823,-1.979092134637809,0.11770656704902649,-0.1547875851392746,-0.10413245856761932,0.41252395510673523,-0.779278039932251,-0.4717516303062439,-0.005236446857452393,-0.03253525495529175,0.02189198136329651
0.8938692259254744,0.7191911035502049,-1.981783885474673,0.15732507407665253,-0.1316377818584442,-0.09829746931791306,0.4126579165458679,-0.7795012593269348,-0.4712655246257782,0.016022443771362305,-0.013925254344940186,0.0059944987297058105
0.8946361230485514,0.7202220146408582,-1.9846290069302936,0.19357682764530182,-0.10943498462438583,-0.06428377330303192,0.41274917125701904,-0.7799814343452454,-0.4703904390335083,0.03987222909927368,0.001600027084350586,0.0024338960647583008
0.8960110963013886,0.7214401696916428,-1.9874366717070118,0.24537023901939392,-0.08791477978229523,-0.015599856153130531,0.4126130938529968,-0.7808411717414856,-0.4690815210342407,0.05839511752128601,0.007418930530548096,0.0024982988834381104
0.8981613991070517,0.7226650771008611,-1.9901905311427448,0.3011099696159363,-0.1072666347026825,0.0412166453897953,0.412075936794281,-0.7821826934814453,-0.4673153758049011,0.06454753875732422,0.014863908290863037,0.003020942211151123
0.9010806791917979,0.723419936377463,-1.9928600222085837,0.3561527132987976,-0.1622060388326645,0.08657293766736984,0.410915344953537,-0.7839981913566589,-0.4652906656265259,0.06488418579101562,0.021012961864471436,0.007877945899963379
0.9046272480879788,0.7238349282855834,-1.9958567673669938,0.42153745889663696,-0.22156363725662231,0.09980597347021103,0.4092644453048706,-0.7861948609352112,-0.46303388476371765,0.047293782234191895,0.006134927272796631,0.005544781684875488
