attitudeX,attitudeY,attitudeZ,gyroX,gyroY,gyroZ,gravityX,gravityY,gravityZ,accX,accY,accZ
1.309953218149137,-0.323360794007904,-0.7376092590937398,0.05235294997692108,-0.43202105164527893,-0.18035459518432617,-0.08194736391305923,-0.9661728739738464,-0.2445288896560669,-0.04299163073301315,-0.008985698223114014,-0.1551598757505417
1.312155479800262,-0.32318494228609407,-0.7415623542122562,0.301585853099823,-0.2904253602027893,-0.15154077112674713,-0.0812285840511322,-0.9667385220527649,-0.2425256073474884,-0.03200692683458328,-0.022778689861297607,-0.1346869319677353
1.3165664068115353,-0.32514561659976265,-0.7416843144248914,0.5229965448379517,-0.11501757055521011,-0.13643185794353485,-0.08034103363752365,-0.9678572416305542,-0.23832297325134277,-0.053081877529621124,-0.010948359966278076,-0.12636211514472961
1.3228027691188462,-0.32837731130551373,-0.7386709548854624,0.6957334280014038,0.05099648982286453,-0.1201709732413292,-0.07916255295276642,-0.9694068431854248,-0.23234392702579498,-0.07321177423000336,0.00485306978225708,-0.10406661033630371
1.330223616062061,-0.33328438536803456,-0.7323864597708807,0.7885594964027405,0.1823345273733139,-0.06901191920042038,-0.07794605195522308,-0.9712016582489014,-0.2251482754945755,-0.0848805233836174,0.006968319416046143,-0.063654825091362
1.337777698931925,-0.3409698297064283,-0.7223433597678687,0.7688685655593872,0.2209789752960205,0.01142294704914093,-0.07721845805644989,-0.9729737639427185,-0.21762196719646454,-0.0839296504855156,-0.011401176452636719,-0.016142651438713074
1.3442562258341295,-0.35084165382723775,-0.710321681360658,0.6178606748580933,0.12291658669710159,0.05152216553688049,-0.07719477266073227,-0.9744493365287781,-0.21092471480369568,-0.09638925641775131,-0.021903693675994873,0.04127749800682068
1.349083807729591,-0.3619539192094563,-0.6989238416913692,0.4652400314807892,-0.12250291556119919,0.09916813671588898,-0.07786718010902405,-0.9755222797393799,-0.20565222203731537,-0.11958160251379013,0.011792540550231934,0.07467076182365417
1.352102792938615,-0.37698206686313207,-0.6857155002934707,0.2906796932220459,-0.2875419557094574,0.22629040479660034,-0.07986432313919067,-0.9761817455291748,-0.20171958208084106,-0.0791323259472847,-0.05413740873336792,0.04411150515079498
1.3525329754896331,-0.396132973834043,-0.6696506033304266,0.04015533626079559,-0.3958290219306946,0.3810935914516449,-0.08355062454938889,-0.9762749671936035,-0.19976603984832764,-0.009207621216773987,-0.09185552597045898,0.10743504762649536
1.3498146457582025,-0.41722915429726337,-0.6527050822146141,-0.24520184099674225,-0.5347319841384888,0.5024495720863342,-0.08882108330726624,-0.9756827354431152,-0.20038452744483948,0.00018274039030075073,-0.06952899694442749,0.16313780844211578
1.344144086858204,-0.4393972239123599,-0.636810337020996,-0.4795021712779999,-0.7863704562187195,0.6128186583518982,-0.09559298306703568,-0.9744241237640381,-0.2033701241016388,0.0247768834233284,-0.05858051776885986,0.1468820720911026
1.336121871898868,-0.4660527068410649,-0.6185397860809965,-0.5742878317832947,-0.9454101920127869,0.852601170539856,-0.1044887974858284,-0.9725900888442993,-0.2077270746231079,0.12177696079015732,-0.08405047655105591,0.0875488668680191
1.3268695111670288,-0.49993606813820946,-0.5933792732056917,-0.4902699887752533,-0.9033705592155457,1.0601224899291992,-0.11577503383159637,-0.9703970551490784,-0.21195697784423828,0.1544865220785141,-0.21952903270721436,0.03817462921142578
1.3172061718919028,-0.5409395061813842,-0.5602133211221872,-0.37767207622528076,-0.9021995663642883,1.3155415058135986,-0.1291888952255249,-0.9680179357528687,-0.2150612473487854,0.06453734636306763,-0.3476099967956543,0.006961837410926819
1.3067009313280395,-0.5905888844974565,-0.5199591504154135,-0.2906276285648346,-1.275301456451416,1.5254969596862793,-0.1453579217195511,-0.9653290510177612,-0.21681980788707733,0.039232999086380005,-0.285555899143219,0.043632522225379944
1.2958196144392748,-0.646704128742938,-0.47643963468074974,-0.13434907793998718,-1.5541980266571045,1.5961148738861084,-0.16360977292060852,-0.9624315500259399,-0.2166968584060669,-0.05973316729068756,-0.22792184352874756,0.022360920906066895
1.2853142489818357,-0.7062303909798096,-0.43287542189336664,0.0004171906039118767,-1.9652780294418335,1.5811134576797485,-0.18276333808898926,-0.959526002407074,-0.21426066756248474,-0.2173374444246292,-0.1723252534866333,-0.11783167719841003
1.2752707835409172,-0.7673885244895938,-0.3911045314547991,0.1146731898188591,-2.219527244567871,1.5253708362579346,-0.20219750702381134,-0.9566491842269897,-0.20961490273475647,-0.30770552158355713,-0.10881096124649048,-0.13360100984573364
1.2657722925604038,-0.8267752204193177,-0.35250852662509874,0.19059741497039795,-2.239778518676758,1.4074642658233643,-0.22095778584480286,-0.9538397192955017,-0.203389510512352,-0.37718677520751953,-0.07301563024520874,-0.16201268136501312
1.2574724477635104,-0.8807263971055126,-0.31868170722013855,0.2715955972671509,-2.071671724319458,1.173454761505127,-0.23770177364349365,-0.9513143301010132,-0.1962118148803711,-0.4382321536540985,-0.08062237501144409,-0.1976785957813263
1.2515194056714098,-0.9270657165221016,-0.2901282274322858,0.39364761114120483,-1.7389070987701416,0.8495635390281677,-0.2510608732700348,-0.9494626522064209,-0.18838569521903992,-0.4974285662174225,-0.1096956729888916,-0.23249751329421997
1.2488136418806828,-0.965870836800872,-0.2651544123602013,0.5681560039520264,-1.2619448900222778,0.5083354115486145,-0.2602926790714264,-0.9486098885536194,-0.1799643188714981,-0.546622633934021,-0.13848727941513062,-0.2593209743499756
1.2494584431508728,-0.9984646638151043,-0.24166199804094446,0.730502188205719,-0.8052976131439209,0.21597743034362793,-0.2655046284198761,-0.9488137364387512,-0.17105484008789062,-0.5611097812652588,-0.1508108377456665,-0.2728996276855469
1.2525873054940904,-1.0270633151649016,-0.2185385337209884,0.8218470215797424,-0.5542960166931152,0.03971477970480919,-0.2677454650402069,-0.9497972726821899,-0.1618562489748001,-0.5254980325698853,-0.15431338548660278,-0.26581716537475586
1.256898199179109,-1.05509343496671,-0.1944837855069741,0.9008594155311584,-0.4933857321739197,-0.013082627207040787,-0.26861199736595154,-0.9511371850967407,-0.15226808190345764,-0.45367807149887085,-0.174976646900177,-0.25511109828948975
1.2616215207189017,-1.0869652193928148,-0.16667929629107184,1.0589733123779297,-0.6087852716445923,0.0082274554297328,-0.2693480849266052,-0.952584981918335,-0.14153975248336792,-0.38819897174835205,-0.22385239601135254,-0.2596138119697571
1.2666019254056209,-1.129122001909692,-0.13047837503013654,1.3561168909072876,-0.9431373476982117,0.08538760989904404,-0.2707812488079071,-0.954088568687439,-0.1280328333377838,-0.3390362858772278,-0.27053600549697876,-0.2771948575973511
1.2715393151672856,-1.1893679614850705,-0.0797276478429788,1.8082129955291748,-1.414955735206604,0.22274334728717804,-0.2736232578754425,-0.95555579662323,-0.10974205285310745,-0.2941562831401825,-0.27591997385025024,-0.29370033740997314
1.2754164030621575,-1.2721702906437282,-0.010026855410486953,2.273681163787842,-1.7359826564788818,0.4111874997615814,-0.2782194912433624,-0.9566916227340698,-0.08564470708370209,-0.24514174461364746,-0.2461281418800354,-0.2849912643432617
1.276300086645215,-1.3702657535277378,0.07412626378517975,2.4521899223327637,-1.8066312074661255,0.6159323453903198,-0.284441202878952,-0.956948459148407,-0.05781622231006622,-0.17176607251167297,-0.19620388746261597,-0.16455012559890747
1.2731020513323819,-1.4698362054247347,0.15839295631422765,2.246103286743164,-1.9298187494277954,0.7441937327384949,-0.29182302951812744,-0.9560153484344482,-0.029563002288341522,-0.16417065262794495,-0.17827725410461426,0.0019140839576721191
1.2667777751350495,-1.5549357103279038,0.22770166264558095,1.7437689304351807,-1.8379652500152588,0.7360191345214844,-0.2993188798427582,-0.9541411995887756,-0.004747780039906502,-0.2294592261314392,-0.21272873878479004,0.14232099056243896
1.2599187535662422,-1.617729553110567,0.27491455570957923,1.119429588317871,-1.6976205110549927,0.5757316946983337,-0.30555739998817444,-0.9520654678344727,0.014351333491504192,-0.28187549114227295,-0.27616018056869507,0.2300792932510376
1.2546029509844598,-1.6580960240205471,0.3006481696562045,0.5462542176246643,-1.4558368921279907,0.3751828670501709,-0.30976712703704834,-0.9504259824752808,0.027111485600471497,-0.28817909955978394,-0.32942020893096924,0.23224210739135742
1.2513701017951124,-1.6804724307527261,0.3102591780608421,0.13773144781589508,-1.1996347904205322,0.2238835096359253,-0.3121349513530731,-0.9494157433509827,0.03437167406082153,-0.24758800864219666,-0.35009896755218506,0.1653352975845337
1.2492338877157534,-1.6923105681703794,0.31079013441329484,-0.023927215486764908,-1.0807030200958252,0.2145664393901825,-0.3137188255786896,-0.9487427473068237,0.03831004723906517,-0.1643238365650177,-0.3116636872291565,0.04628467559814453
1.2466437190916269,-1.702186221680793,0.3096084092052909,0.03635646030306816,-1.1318883895874023,0.3185848593711853,-0.31576037406921387,-0.9479209780693054,0.04172812029719353,-0.08115130662918091,-0.22847062349319458,-0.08343029022216797
1.2425527765333597,-1.716429368228489,0.31180699191669325,0.22350850701332092,-1.2966861724853516,0.4750855267047882,-0.31896841526031494,-0.9466100335121155,0.04678355157375336,-0.03454729914665222,-0.1623835563659668,-0.17115795612335205
1.2364521399686128,-1.7373611247967526,0.319146930201028,0.4349965453147888,-1.5031932592391968,0.6498540043830872,-0.3236079812049866,-0.944625735282898,0.05440577119588852,-0.011764973402023315,-0.1334991455078125,-0.203438401222229
1.2283242314514198,-1.764427244744275,0.3304983326502936,0.5834589600563049,-1.7575080394744873,0.8071096539497375,-0.3295409679412842,-0.9419273734092712,0.06461893022060394,0.006588637828826904,-0.13586187362670898,-0.19239604473114014
1.2183802924178002,-1.795146791495935,0.3431636455849665,0.6637839674949646,-1.9787852764129639,0.9544952511787415,-0.33651646971702576,-0.9385415315628052,0.07679033279418945,0.02949431538581848,-0.15108871459960938,-0.16762590408325195
1.2067876651948417,-1.8273865000393414,0.3557264791973702,0.742813229560852,-2.0864036083221436,1.0793213844299316,-0.34436720609664917,-0.9344771504402161,0.09035290032625198,0.051306843757629395,-0.15161287784576416,-0.1688288450241089
1.193803461146072,-1.8606229442809168,0.3687019833368348,0.8645942211151123,-2.1222708225250244,1.152343988418579,-0.35277312994003296,-0.9297758340835571,0.10520540922880173,0.050374388694763184,-0.11674827337265015,-0.20067964494228363
1.179851540781178,-1.895448343205302,0.38339397937689385,1.0179656744003296,-2.1063480377197266,1.1547586917877197,-0.3611559271812439,-0.9245494604110718,0.12155074626207352,0.02941453456878662,-0.05599552392959595,-0.2350151538848877
1.1655777393541715,-1.931805873009107,0.39993417440840306,1.1351852416992188,-2.105335235595703,1.0884830951690674,-0.3688085377216339,-0.9190162420272827,0.13924582302570343,0.0046880245208740234,0.0028175711631774902,-0.2364901453256607
1.1514925508052445,-1.9691163625452348,0.41755370713159806,1.2103245258331299,-2.113332986831665,0.9947810769081116,-0.37525203824043274,-0.9133726358413696,0.15791144967079163,0.010628044605255127,0.07828980684280396,-0.21267536282539368
1.1377693832797637,-2.0068939068485676,0.43565986405775764,1.2584534883499146,-2.127453088760376,0.9039487838745117,-0.3803468942642212,-0.9076997637748718,0.1772499978542328,0.058371156454086304,0.16230791807174683,-0.19313430786132812
1.1243915073875619,-2.044165207299687,0.4536088033804583,1.2772111892700195,-2.048025608062744,0.8252225518226624,-0.38425201177597046,-0.9020050764083862,0.19681823253631592,0.14262902736663818,0.23251044750213623,-0.17858397960662842
1.1113165994811418,-2.0793684593575317,0.47097404531423304,1.2867125272750854,-1.8393770456314087,0.7615110874176025,-0.38735541701316833,-0.8962833285331726,0.2159450501203537,0.2584490478038788,0.29362213611602783,-0.16548427939414978
1.0983932643627425,-2.1112250030285917,0.4875948490318092,1.2887048721313477,-1.5422899723052979,0.7204752564430237,-0.3901807367801666,-0.8904774188995361,0.23411330580711365,0.3803234398365021,0.34962958097457886,-0.15638503432273865
1.0856274402249628,-2.138702082062481,0.5029578905284707,1.24359130859375,-1.2253789901733398,0.7055537700653076,-0.39315301179885864,-0.8845962285995483,0.25083866715431213,0.5066479444503784,0.4041733741760254,-0.14976456761360168
1.072936766314046,-2.161361220915247,0.5160441915553078,1.1686595678329468,-1.0318851470947266,0.7401040196418762,-0.39666202664375305,-0.8786067366600037,0.26591193675994873,0.6195013523101807,0.4380398988723755,-0.16341868042945862
1.0603648336269142,-2.1805609331160256,0.5265968665335286,1.0827112197875977,-0.9582538604736328,0.7405499815940857,-0.4005078673362732,-0.8725337982177734,0.27978217601776123,0.6487836241722107,0.4795438051223755,-0.19469919800758362
1.0487960621141248,-2.197650838529675,0.5352664598635997,0.9407650232315063,-0.956891655921936,0.6402236223220825,-0.40381649136543274,-0.8668235540390015,0.29248756170272827,0.6599658131599426,0.4977898597717285,-0.20433762669563293
1.0389569491286708,-2.212999933279523,0.5419150110619132,0.7570888996124268,-0.9364426136016846,0.5521005392074585,-0.40609022974967957,-0.8618757724761963,0.30374518036842346,0.7255634069442749,0.45101749897003174,-0.2018316686153412
1.0305429971874256,-2.225262680061759,0.5462082809836424,0.616314709186554,-0.7593448162078857,0.5321643948554993,-0.40807411074638367,-0.8575783967971802,0.3131054639816284,0.850044846534729,0.4011269211769104,-0.21880611777305603
1.0225583455057643,-2.233912863451002,0.5486514410855265,0.5752445459365845,-0.5447548627853394,0.5789272785186768,-0.4107338488101959,-0.8534441590309143,0.3208286464214325,0.9781318306922913,0.39160633087158203,-0.25750455260276794
1.0139886384575034,-2.239777505928652,0.550615574235097,0.6565932035446167,-0.2864854335784912,0.6359847187995911,-0.414567232131958,-0.8489465117454529,0.32775571942329407,1.0547192096710205,0.41140079498291016,-0.3004882335662842
1.0043102601085256,-2.2438035100760905,0.5537623702380807,0.8121505975723267,0.02048119343817234,0.661048412322998,-0.41964980959892273,-0.8437920212745667,0.33452826738357544,1.087572693824768,0.44265371561050415,-0.3312171697616577
0.9935764460857347,-2.246407005493833,0.5590518156797248,0.9679202437400818,0.34894561767578125,0.652906596660614,-0.4258207380771637,-0.8379830121994019,0.34126439690589905,1.1014034748077393,0.4818732738494873,-0.3331925570964813
0.9819393032010607,-2.2474413161005864,0.5662726125595888,1.0982648134231567,0.6332688331604004,0.6632723212242126,-0.4330417811870575,-0.8315760493278503,0.3477877378463745,1.1047335863113403,0.5201288461685181,-0.3092592656612396
0.9695655710065132,-2.2471781712903676,0.5746758064602634,1.1639082431793213,0.7951567769050598,0.6689467430114746,-0.44112399220466614,-0.8246400356292725,0.35408785939216614,1.0844955444335938,0.5497226119041443,-0.26287081837654114
0.9571743620277937,-2.245432506516434,0.58318239656416,1.1235296726226807,0.9488222599029541,0.6587731838226318,-0.4496874213218689,-0.817567765712738,0.3596726655960083,1.0622971057891846,0.539140522480011,-0.1958390176296234
0.9452198242817433,-2.241051679837579,0.5904700334443653,1.0148426294326782,1.1103485822677612,0.6850934624671936,-0.4588852524757385,-0.8106256723403931,0.3637445271015167,1.0603561401367188,0.4995906352996826,-0.14313307404518127
0.9336953275228126,-2.2330792857946524,0.5955343877797333,0.8678733110427856,1.2943861484527588,0.7576725482940674,-0.46910685300827026,-0.8038236498832703,0.36579522490501404,1.05324387550354,0.4661009907722473,-0.11123278737068176
0.9226246256516686,-2.221131998476096,0.5978520526192355,0.6935587525367737,1.4602172374725342,0.8223136067390442,-0.4804967939853668,-0.797188937664032,0.3655303418636322,1.0263036489486694,0.44580966234207153,-0.08946838974952698
0.9122114127363905,-2.204985333971488,0.5971804997764822,0.4818139374256134,1.6590946912765503,0.8871971964836121,-0.4929969608783722,-0.790859043598175,0.36262407898902893,0.97215336561203,0.447856605052948,-0.0853261649608612
0.9025512327307995,-2.1843883845518306,0.5934341157257418,0.27286496758461,1.8570352792739868,0.9441949725151062,-0.506583571434021,-0.7849102020263672,0.3567761778831482,0.9049904346466064,0.4448985457420349,-0.09354683756828308
0.8934705337595371,-2.1598629877000293,0.5870740216741964,0.10661475360393524,2.03900408744812,0.9924948215484619,-0.5210851430892944,-0.7792514562606812,0.3481915593147278,0.8275884985923767,0.4051212668418884,-0.1112377941608429
0.8847870421142205,-2.1321767622393764,0.5789230544550996,-0.018330112099647522,2.222525119781494,1.0134928226470947,-0.5362322926521301,-0.773780107498169,0.3372226655483246,0.7388995289802551,0.3475717306137085,-0.12865033745765686
0.8764120276765927,-2.1019267567767135,0.5697897724978794,-0.09950695931911469,2.394714832305908,1.014805555343628,-0.5517547726631165,-0.7684478163719177,0.3241209089756012,0.6436432600021362,0.29670727252960205,-0.13866561651229858
0.8681066426878601,-2.069933761780175,0.5601464177655554,-0.16016338765621185,2.5071423053741455,1.0430891513824463,-0.5674242973327637,-0.7631067037582397,0.3093501031398773,0.555781900882721,0.24450641870498657,-0.1375056803226471
0.8593329188063124,-2.03641263240278,0.5497199683912407,-0.22604869306087494,2.589810609817505,1.1478354930877686,-0.5834336876869202,-0.7574071884155273,0.2931540310382843,0.48872238397598267,0.1783515214920044,-0.13383713364601135
0.8493710224153951,-2.0015584707918763,0.5379928796307543,-0.29721954464912415,2.5789144039154053,1.310243010520935,-0.6001214385032654,-0.7508651614189148,0.27578210830688477,0.4133995771408081,0.12591099739074707,-0.14414453506469727
0.8379871403792977,-1.9665918029862979,0.5248836076054102,-0.3859952390193939,2.427525758743286,1.4607874155044556,-0.6172429919242859,-0.7432981133460999,0.25791245698928833,0.29500794410705566,0.11184370517730713,-0.16336897015571594
0.82546658727994,-1.9327320410385367,0.5106363513398327,-0.46490204334259033,2.215364456176758,1.5585662126541138,-0.6342750787734985,-0.7348642945289612,0.24014568328857422,0.1317877173423767,0.11354166269302368,-0.20067116618156433
0.8122369808965115,-1.9013064636894499,0.4962614397127131,-0.46645238995552063,1.954485297203064,1.5742812156677246,-0.6506466269493103,-0.7258277535438538,0.22323358058929443,-0.04610025882720947,0.09922558069229126,-0.25504812598228455
0.7988532837491897,-1.8735629589142553,0.4836179355960682,-0.34982404112815857,1.7818591594696045,1.4937999248504639,-0.6658018231391907,-0.7165566682815552,0.20797666907310486,-0.18563860654830933,0.0817912220954895,-0.31190431118011475
0.7860244831206561,-1.8486737695847055,0.4741519480882409,-0.1893216222524643,1.8696824312210083,1.326676845550537,-0.679556131362915,-0.707549512386322,0.19384858012199402,-0.29406148195266724,0.0847620964050293,-0.3567819595336914
0.7746571455609886,-1.8244816636061603,0.46816701585897574,-0.03715978190302849,2.124091863632202,1.072623610496521,-0.6917874217033386,-0.699471116065979,0.17936059832572937,-0.3891451358795166,0.08599162101745605,-0.3629084825515747
0.7658666547316028,-1.7996299473261723,0.4651579398146868,0.02392689324915409,2.4155030250549316,0.7187524437904358,-0.7019923329353333,-0.6931619048118591,0.16350339353084564,-0.4905431270599365,0.0688486099243164,-0.31999754905700684
0.7610510082068629,-1.7729337348568395,0.4637407815162266,-0.03012222610414028,2.7050764560699463,0.24787598848342896,-0.7093684673309326,-0.6896829009056091,0.1453753113746643,-0.5969212055206299,0.06515592336654663,-0.25525379180908203
0.7614007343367617,-1.7437772745433742,0.4625436691163143,-0.15337248146533966,2.9274704456329346,-0.2854093313217163,-0.7130672335624695,-0.6899360418319702,0.12459223717451096,-0.6943118572235107,0.07850122451782227,-0.19261598587036133
0.7669065341322359,-1.7126089089130214,0.46088412129964895,-0.2512577772140503,3.038041591644287,-0.7438254356384277,-0.7128322720527649,-0.693911075592041,0.10177174210548401,-0.7207919955253601,0.10553228855133057,-0.14602220058441162
0.7763763850169613,-1.6802126751860929,0.4582257755519424,-0.3687135577201843,3.046855926513672,-1.0662890672683716,-0.7091907858848572,-0.700698733329773,0.0779082179069519,-0.6573405861854553,0.13253778219223022,-0.11077570915222168
0.7885185063463321,-1.646438510544059,0.4535212973803506,-0.5227182507514954,3.0216076374053955,-1.2677934169769287,-0.7028813362121582,-0.7093097567558289,0.05326911434531212,-0.5725856423377991,0.14185070991516113,-0.0677802562713623
0.8019788013293676,-1.6110598203887643,0.4460008412290971,-0.6761245727539062,2.958181381225586,-1.3387922048568726,-0.6947223544120789,-0.7187333106994629,0.027987074106931686,-0.4947308301925659,0.14095932245254517,-0.046297669410705566
0.8155035076113833,-1.574498066581562,0.4357200526552595,-0.7948381900787354,2.837695360183716,-1.3180158138275146,-0.6854972243309021,-0.728070855140686,0.0025375441182404757,-0.4268379807472229,0.16225969791412354,-0.04599452018737793
0.8283070770524708,-1.537723289896416,0.42294709803440295,-0.8946704864501953,2.616356611251831,-1.2556397914886475,-0.675754189491272,-0.7367877960205078,-0.0223573949187994,-0.374843955039978,0.18802082538604736,-0.048641741275787354
0.839935937324654,-1.5019035670351084,0.4080901125057045,-0.9729533195495605,2.3270328044891357,-1.1544733047485352,-0.6659272313117981,-0.7446003556251526,-0.04595028609037399,-0.33767396211624146,0.1880055069923401,-0.053064052015542984
0.8497002985240679,-1.467749259989752,0.39164223608950466,-1.0217857360839844,2.0243046283721924,-0.9579024314880371,-0.6567060351371765,-0.7510825991630554,-0.06791218370199203,-0.30171382427215576,0.1963036060333252,-0.07156842947006226
0.8566621516793983,-1.4363844705726514,0.3746883320260087,-1.0147517919540405,1.6753686666488647,-0.678773045539856,-0.6490556001663208,-0.7556605935096741,-0.08776997774839401,-0.2641370892524719,0.2135312557220459,-0.10485702008008957
0.8605310108846531,-1.4089847368642248,0.3582250301114124,-0.9935875535011292,1.306618094444275,-0.4072273075580597,-0.6435173153877258,-0.7581889033317566,-0.10504698008298874,-0.27115553617477417,0.21731078624725342,-0.13494329154491425
0.861921041552339,-1.3857962810382503,0.34255590368329486,-0.9617771506309509,0.9424444437026978,-0.23594076931476593,-0.6398721933364868,-0.7590945363044739,-0.11974561214447021,-0.3507741689682007,0.21189916133880615,-0.15410387516021729
0.8620982508769074,-1.3668880805907524,0.3278169533261316,-0.9081851243972778,0.6083192825317383,-0.1817084401845932,-0.6373621821403503,-0.7592098712921143,-0.13179510831832886,-0.45689141750335693,0.21364706754684448,-0.16822321712970734
0.862275208393571,-1.3510911455111674,0.3138054904407718,-0.8679519295692444,0.45346689224243164,-0.25085583329200745,-0.6350696086883545,-0.7593250274658203,-0.14181731641292572,-0.541703462600708,0.2228718400001526,-0.17056065797805786
0.863702024463734,-1.335365932242804,0.29965611462795133,-0.8592689037322998,0.5644004344940186,-0.45451974868774414,-0.6317070126533508,-0.7602527141571045,-0.15153314173221588,-0.6122963428497314,0.21156179904937744,-0.145479217171669
0.8672606097643463,-1.316757548671371,0.28421184949693057,-0.9171162247657776,0.8106600046157837,-0.7192531228065491,-0.6261551976203918,-0.7625596523284912,-0.16258025169372559,-0.6667067408561707,0.17062556743621826,-0.09836028516292572
0.8727978913516151,-1.2932772690942802,0.26579962796384615,-1.0879089832305908,1.0647205114364624,-0.9646428227424622,-0.6180950999259949,-0.7661300897598267,-0.17607684433460236,-0.6773913502693176,0.1285111904144287,-0.038461729884147644
0.879584980552887,-1.263975563569455,0.2428102421722528,-1.3377315998077393,1.2360970973968506,-1.1720207929611206,-0.6077002286911011,-0.770474374294281,-0.19253498315811157,-0.6663018465042114,0.08739948272705078,0.012893259525299072
0.8867852292853278,-1.2296091672383842,0.21469792167435867,-1.5699877738952637,1.269073486328125,-1.3166331052780151,-0.5954826474189758,-0.775044322013855,-0.21143990755081177,-0.663916826248169,0.05368506908416748,0.027525663375854492
0.8935688381105222,-1.1921619865316553,0.18240675588300076,-1.735008716583252,1.176255464553833,-1.3645886182785034,-0.5822505354881287,-0.7793130874633789,-0.23163676261901855,-0.6468908190727234,0.04637235403060913,0.002663344144821167
0.8989889008190026,-1.1536967534013058,0.14717200174150266,-1.884512186050415,1.0010125637054443,-1.3266321420669556,-0.5690417289733887,-0.7826979756355286,-0.2521413564682007,-0.6224560737609863,0.037413060665130615,-0.03916415572166443
0.902412886046412,-1.1154146259408109,0.10985754321747566,-2.006382942199707,0.7977076768875122,-1.248687505722046,-0.5565645098686218,-0.7848244905471802,-0.2725551426410675,-0.6173093914985657,-0.004756629467010498,-0.092694491147995
0.9036135843450824,-1.0786482464009632,0.07167156269708391,-2.0666050910949707,0.5460795760154724,-1.1252251863479614,-0.5453389286994934,-0.7855680584907532,-0.29238376021385193,-0.6213023066520691,-0.04734814167022705,-0.16641750931739807
0.9027327901762342,-1.0451388079949737,0.03402151887529068,-2.0658130645751953,0.23631583154201508,-0.9878170490264893,-0.535835325717926,-0.7850227355957031,-0.3108372986316681,-0.627159059047699,-0.07575607299804688,-0.2482447624206543
0.9002867075503344,-1.0160954295758844,-0.0019603853324968515,-1.9967339038848877,-0.06337235122919083,-0.8927701711654663,-0.5282136797904968,-0.7835050821304321,-0.32727691531181335,-0.660323977470398,-0.1088441014289856,-0.32418185472488403
0.897235633992731,-0.9909336935813011,-0.036157535047969896,-1.9103217124938965,-0.23357124626636505,-0.8886673450469971,-0.5218097567558289,-0.7816055417060852,-0.34177085757255554,-0.7156475186347961,-0.14338213205337524,-0.38555458188056946
0.8944812324513159,-0.9675171708240904,-0.0695268204407965,-1.840272068977356,-0.27544495463371277,-0.9821392297744751,-0.5154351592063904,-0.7798844575881958,-0.35511502623558044,-0.7657384872436523,-0.17719244956970215,-0.42170992493629456
0.8924922541651953,-0.9444365784583317,-0.10268849694374971,-1.770325779914856,-0.2705918550491333,-1.088257908821106,-0.5083581209182739,-0.7786380052566528,-0.36782458424568176,-0.7927893400192261,-0.2229641079902649,-0.4449958801269531
0.8912611081221625,-0.9215336477927707,-0.13571618130640906,-1.6946054697036743,-0.2999756336212158,-1.173158049583435,-0.5005645155906677,-0.7778648734092712,-0.37994927167892456,-0.7890626192092896,-0.24792242050170898,-0.47187262773513794
0.8907278861088899,-0.9003605860386095,-0.16786600105618668,-1.5386173725128174,-0.48958975076675415,-1.2077986001968384,-0.49273309111595154,-0.7775296568870544,-0.3907194435596466,-0.7756537795066833,-0.2517671585083008,-0.5154542922973633
0.8911100949084002,-0.8838154112799532,-0.19759664245943398,-1.3026657104492188,-0.8263797163963318,-1.182678461074829,-0.485971599817276,-0.7777699828147888,-0.39862942695617676,-0.7554835081100464,-0.2545328140258789,-0.5687625408172607
0.8925980223843999,-0.873514018855905,-0.22342200164809298,-0.9849737882614136,-1.1174224615097046,-1.1042730808258057,-0.48095181584358215,-0.7787043452262878,-0.4028708338737488,-0.7178549766540527,-0.2544834613800049,-0.6217721700668335
0.8956383107631399,-0.8699147296913929,-0.24399300848082325,-0.5828041434288025,-1.3557571172714233,-1.0150460004806519,-0.47768697142601013,-0.7806081771850586,-0.4030706286430359,-0.670613169670105,-0.24923789501190186,-0.6645410060882568
0.9008027937708173,-0.8726936753569694,-0.2589864061834806,-0.18537898361682892,-1.5281283855438232,-0.9797408580780029,-0.47571057081222534,-0.783825695514679,-0.3991450071334839,-0.6613897085189819,-0.26951897144317627,-0.6612645387649536
0.9083001396729818,-0.8801615321564901,-0.2697832019535498,0.10333166271448135,-1.652490496635437,-1.0305283069610596,-0.4741346538066864,-0.788459300994873,-0.39182671904563904,-0.683976948261261,-0.2808308005332947,-0.6081885099411011
0.917974012928939,-0.8904981782704748,-0.27852493338049233,0.28641146421432495,-1.7906140089035034,-1.142192006111145,-0.47220781445503235,-0.7943726181983948,-0.38208913803100586,-0.6987365484237671,-0.2593841552734375,-0.5394044518470764
0.9297203638223751,-0.9032094059190459,-0.2863165774418951,0.4420856535434723,-1.9935228824615479,-1.2720314264297485,-0.4696658253669739,-0.8014527559280396,-0.3702535331249237,-0.6879575848579407,-0.23365777730941772,-0.4819040596485138
0.9434117057938856,-0.9186735791712975,-0.29346476772146596,0.5584591031074524,-2.230353355407715,-1.4029247760772705,-0.46656933426856995,-0.8095656037330627,-0.35625338554382324,-0.6432633996009827,-0.1990707516670227,-0.42890289425849915
0.958763900895053,-0.9361144649625909,-0.30046371763783136,0.6213008761405945,-2.3701133728027344,-1.530287265777588,-0.462647944688797,-0.8184820413589478,-0.34065237641334534,-0.5762619972229004,-0.16668641567230225,-0.38111889362335205
0.9753904369464408,-0.9542754044094233,-0.3077821728501586,0.6444791555404663,-2.4508423805236816,-1.637813925743103,-0.4575904905796051,-0.8279209136962891,-0.3242805302143097,-0.5083214044570923,-0.14385026693344116,-0.3353416919708252
0.9929035900181516,-0.9726371361549729,-0.3157350909032735,0.621094286441803,-2.532609462738037,-1.7238597869873047,-0.45141488313674927,-0.8376156091690063,-0.3076111674308777,-0.442643404006958,-0.11595183610916138,-0.2946684956550598
1.0107332513389782,-0.9910081658542825,-0.32476424359502576,0.542197048664093,-2.655687093734741,-1.7646915912628174,-0.44442370533943176,-0.8472216129302979,-0.2910378575325012,-0.3806953430175781,-0.07450073957443237,-0.2636343538761139
1.0284045505936288,-1.0097980628832348,-0.33504758398095097,0.4595201015472412,-2.8449110984802246,-1.773803472518921,-0.43706706166267395,-0.8564765453338623,-0.2746271789073944,-0.30734819173812866,-0.028700947761535645,-0.2495427429676056
1.0456456674476418,-1.0301866948012304,-0.3458975330856569,0.41062554717063904,-3.0840842723846436,-1.7264844179153442,-0.4298493266105652,-0.865248441696167,-0.2580207586288452,-0.2264159619808197,0.003981411457061768,-0.2570701539516449
1.0623168516971961,-1.0535053278930322,-0.3560035147024204,0.41485998034477234,-3.3102853298187256,-1.6411632299423218,-0.4231511354446411,-0.873485803604126,-0.2407604306936264,-0.14761915802955627,0.030056357383728027,-0.2777180075645447
1.0783993892356392,-1.08048356264052,-0.3641392665644394,0.4541243016719818,-3.4827024936676025,-1.5441184043884277,-0.4170437157154083,-0.8812022805213928,-0.22261375188827515,-0.08170503377914429,0.06723755598068237,-0.30001506209373474
1.093969666792385,-1.1109430143573809,-0.36989995886021415,0.48733383417129517,-3.598691463470459,-1.4643913507461548,-0.4112839996814728,-0.8884558081626892,-0.20369501411914825,-0.03013753890991211,0.10734319686889648,-0.30871039628982544
1.1090554183292838,-1.1441955629135676,-0.3735085977166143,0.5031346082687378,-3.662281036376953,-1.3939677476882935,-0.40557998418807983,-0.89527827501297,-0.1843414604663849,0.01608407497406006,0.13371211290359497,-0.3052977919578552
1.123610614367134,-1.1792864970220793,-0.3753646824349819,0.501315712928772,-3.6576616764068604,-1.3382765054702759,-0.39970970153808594,-0.9016676545143127,-0.165008544921875,0.054845720529556274,0.1527509093284607,-0.298187255859375
1.1377671180533486,-1.2154506288783744,-0.3757805120498465,0.49426257610321045,-3.624763011932373,-1.3075449466705322,-0.39340680837631226,-0.9076988101005554,-0.14599263668060303,0.08571329712867737,0.1589500904083252,-0.2859379053115845
1.1517400547456806,-1.2519991599552918,-0.3754280759903088,0.44754815101623535,-3.5990726947784424,-1.3160429000854492,-0.3863959014415741,-0.91347336769104,-0.12753190100193024,0.10450506210327148,0.1692260503768921,-0.2675333619117737
1.1655712954246076,-1.2877783914959902,-0.37567012762743907,0.34552162885665894,-3.578723192214966,-1.3234446048736572,-0.37854206562042236,-0.9190136790275574,-0.11008936166763306,0.13342484831809998,0.18863660097122192,-0.25172704458236694
1.1791231877603061,-1.3221961274253482,-0.3773967180658861,0.2380596250295639,-3.612138509750366,-1.3162057399749756,-0.36999964714050293,-0.9242716431617737,-0.09392492473125458,0.16994163393974304,0.194291353225708,-0.24341635406017303
1.1924437858319077,-1.355450673515826,-0.38087459038894855,0.11796943098306656,-3.654188871383667,-1.3327099084854126,-0.36085790395736694,-0.9292744398117065,-0.07893311232328415,0.20315828919410706,0.1967611312866211,-0.24578917026519775
1.2058215751344679,-1.386770532688983,-0.38653167719540016,0.012922125868499279,-3.6310088634490967,-1.3609992265701294,-0.35089898109436035,-0.9341327548027039,-0.065313421189785,0.22721117734909058,0.19453930854797363,-0.260553240776062
1.219387779487363,-1.4161368792494808,-0.3936536663381289,-0.04280585050582886,-3.5490596294403076,-1.3887312412261963,-0.3401120901107788,-0.9388887882232666,-0.053025003522634506,0.25330477952957153,0.1679995059967041,-0.2818443775177002
1.2332659161386188,-1.4441031042452506,-0.4011392981685548,-0.06855974346399307,-3.4228909015655518,-1.4206231832504272,-0.32850340008735657,-0.943575382232666,-0.041843269020318985,0.2812316417694092,0.14673101902008057,-0.3041497468948364
1.2474231479858386,-1.4707679634189619,-0.40845438623421637,-0.08325693011283875,-3.2663097381591797,-1.4367419481277466,-0.31617847084999084,-0.948168933391571,-0.031732723116874695,0.30354413390159607,0.14070433378219604,-0.3211572766304016
1.2617355131798313,-1.4959216076280726,-0.4155702150921097,-0.10913775116205215,-3.098484754562378,-1.443174123764038,-0.3033124506473541,-0.9526196718215942,-0.022752970457077026,0.32148557901382446,0.11842155456542969,-0.3266274929046631
1.2760728930611869,-1.5192108586261848,-0.42314986999324256,-0.16418875753879547,-3.0015110969543457,-1.4343675374984741,-0.29008910059928894,-0.9568825364112854,-0.014977670274674892,0.34238091111183167,0.0982246994972229,-0.31931185722351074
1.2900964272913569,-1.5405079124475802,-0.43220893045667835,-0.2295445203781128,-2.9830100536346436,-1.3689948320388794,-0.2769015431404114,-0.9608618021011353,-0.008389473892748356,0.3767092227935791,0.0851750373840332,-0.31648534536361694
1.30326933982222,-1.5606824313750443,-0.4424510103467283,-0.26767057180404663,-3.007472038269043,-1.2645714282989502,-0.26433345675468445,-0.9644275903701782,-0.0026735318824648857,0.41086357831954956,0.049571692943573,-0.32598549127578735
1.3153802547313977,-1.5802756904132425,-0.4534961850112011,-0.30282309651374817,-3.016266107559204,-1.1528304815292358,-0.25263696908950806,-0.9675582647323608,0.002394909504801035,0.4312715530395508,0.017088234424591064,-0.3408348560333252
1.3264979768867786,-1.598442251091098,-0.4658296623035553,-0.34622010588645935,-2.9857637882232666,-1.0513794422149658,-0.24178296327590942,-0.9703072905540466,0.006686016917228699,0.4403455853462219,-0.017073631286621094,-0.3548610210418701
1.336715359589132,-1.6144540522744382,-0.47986640624681187,-0.38352158665657043,-2.9243061542510986,-0.9618916511535645,-0.23172806203365326,-0.97272789478302,0.010123152285814285,0.4427723288536072,-0.0636642575263977,-0.3695286512374878
1.3462268216685545,-1.6287548231189677,-0.49483157196526617,-0.38491177558898926,-2.826571464538574,-0.8976228833198547,-0.22231246531009674,-0.9748900532722473,0.01289934292435646,0.43434858322143555,-0.08733516931533813,-0.3891199827194214
1.3551598868885055,-1.6422706355211396,-0.5093101652892942,-0.3553513288497925,-2.681993007659912,-0.8389619588851929,-0.21342234313488007,-0.9768404364585876,0.015280243940651417,0.42588573694229126,-0.0942043662071228,-0.41036081314086914
1.3634890158280184,-1.6562616421026453,-0.5217634793481797,-0.29007405042648315,-2.53279709815979,-0.7783742547035217,-0.20507459342479706,-0.9785887002944946,0.017569564282894135,0.41965892910957336,-0.10196244716644287,-0.41969966888427734
1.3712721688845118,-1.6724883695212793,-0.530649455215806,-0.20951996743679047,-2.4489550590515137,-0.7332342267036438,-0.197178915143013,-0.9801610112190247,0.020120933651924133,0.4039049744606018,-0.09794867038726807,-0.41538453102111816
1.3785694071701344,-1.6921031262170358,-0.5355540100178935,-0.14682142436504364,-2.429678201675415,-0.6909536123275757,-0.189641535282135,-0.9815812110900879,0.023118317127227783,0.3882651627063751,-0.08470296859741211,-0.403245210647583
1.3854393020972653,-1.714415638010543,-0.5377608391712958,-0.1166219413280487,-2.4522273540496826,-0.653622567653656,-0.18239928781986237,-0.9828705191612244,0.026377670466899872,0.37340882420539856,-0.07740151882171631,-0.39266490936279297
1.3919289994171562,-1.739432164076554,-0.5373385233116148,-0.06353555619716644,-2.4431021213531494,-0.627615749835968,-0.17539097368717194,-0.9840458631515503,0.029860803857445717,0.35170626640319824,-0.06955820322036743,-0.3959496021270752
1.3980877799264948,-1.7690818345430934,-0.5316687978106378,0.03117881342768669,-2.3388986587524414,-0.6189343929290771,-0.16848357021808624,-0.9851229190826416,0.03385268151760101,0.33639127016067505,-0.05429047346115112,-0.40340518951416016
1.4040089081887608,-1.8036745130054277,-0.519197198648507,0.12391940504312515,-2.0916740894317627,-0.6253212094306946,-0.16153399646282196,-0.9861232042312622,0.03831285983324051,0.3310133218765259,-0.03906905651092529,-0.39706218242645264
1.4097734736549736,-1.8424024481817425,-0.49963964033757835,0.20479312539100647,-1.7791250944137573,-0.6476730704307556,-0.15445053577423096,-0.9870638251304626,0.043012626469135284,0.32783612608909607,-0.035244524478912354,-0.3702983856201172
1.415423927573717,-1.8854077208391475,-0.4726142256000664,0.2814825475215912,-1.4801700115203857,-0.6751986742019653,-0.14715266227722168,-0.9879539608955383,0.04788636416196823,0.3216063678264618,-0.032767415046691895,-0.32310914993286133
1.420903216333,-1.9327963630316278,-0.43862557832948573,0.3203902244567871,-1.2855134010314941,-0.697396457195282,-0.1396537721157074,-0.988787055015564,0.05288520082831383,0.31863933801651,-0.026654720306396484,-0.26168644428253174
1.4263001194771803,-1.9828680154432257,-0.40050278946985957,0.29668620228767395,-1.1935017108917236,-0.720564603805542,-0.13193964958190918,-0.9895785450935364,0.05767035111784935,0.3136565387248993,-0.019683361053466797,-0.20066046714782715
1.4319399747842425,-2.0332632244878717,-0.36165831606385357,0.2132968008518219,-1.1964199542999268,-0.7621442675590515,-0.12387119978666306,-0.9903749227523804,0.061752889305353165,0.30305513739585876,-0.016323626041412354,-0.1554875373840332
1.4383107166843374,-2.0839112618071893,-0.3229934924734315,0.11477900296449661,-1.2670921087265015,-0.8559637069702148,-0.11508718132972717,-0.9912366271018982,0.06484649330377579,0.2881065607070923,-0.019566595554351807,-0.13442647457122803
1.4459371513955785,-2.139422032117783,-0.28016772480542407,0.04731392860412598,-1.324279546737671,-1.0207982063293457,-0.10493845492601395,-0.9922152161598206,0.06705896556377411,0.27185434103012085,-0.020556390285491943,-0.14333760738372803
1.4551536523291,-2.2082808832820455,-0.22407786743388147,0.023793689906597137,-1.2860075235366821,-1.2558192014694214,-0.09272384643554688,-0.9933208227157593,0.06867510825395584,0.2606010138988495,-0.017360389232635498,-0.17898082733154297
1.4656382734132214,-2.302980769297795,-0.140937478597959,0.0760698914527893,-1.098722219467163,-1.5177175998687744,-0.07806416600942612,-0.9944759607315063,0.07016869634389877,0.2712861895561218,-0.022858023643493652,-0.2250148057937622
1.4763023250700564,-2.43936647340928,-0.013241370808084527,0.17149227857589722,-0.7381193041801453,-1.7769429683685303,-0.06094491481781006,-0.9955387711524963,0.07203029841184616,0.30792364478111267,-0.023824632167816162,-0.26352810859680176
1.4852372268784062,-2.631298075263547,0.17434711571410696,0.2883588373661041,-0.27360209822654724,-1.9861855506896973,-0.04173807427287102,-0.9963420629501343,0.07456616312265396,0.3715873062610626,-0.013957440853118896,-0.2918055057525635
1.4895823071301617,-2.877770515882759,0.4211554572066416,0.46799835562705994,0.16383782029151917,-2.1091511249542236,-0.0211549773812294,-0.9967039823532104,0.07831744104623795,0.4583803117275238,-0.015686094760894775,-0.31458449363708496
1.4864995220560528,-3.1382679218057143,0.6860053044223344,0.7232282161712646,0.5134886503219604,-2.1071977615356445,-0.0002799313224386424,-0.9964491128921509,0.08419635146856308,0.5511527061462402,-0.013743698596954346,-0.3326246738433838
1.475687140752966,2.9334844191887837,0.9046922184567743,1.0074436664581299,0.7440071105957031,-1.9738208055496216,0.019620489329099655,-0.9954805374145508,0.09291520714759827,0.6403220891952515,0.017666935920715332,-0.3376203775405884
1.4595921181593199,2.797675589290065,1.0493009069452153,1.2560222148895264,0.8456233143806458,-1.7400994300842285,0.03741785138845444,-0.9938231706619263,0.10447529703378677,0.7225918769836426,0.061190903186798096,-0.3158247470855713
1.4410949892766098,2.7247337089906813,1.1314888898145852,1.421272873878479,0.8738466501235962,-1.4512990713119507,0.052367426455020905,-0.9916005730628967,0.11826152354478836,0.7749335169792175,0.10271519422531128,-0.273290753364563
1.422356999347951,2.693099471625621,1.1721120708290622,1.488959789276123,0.8297547698020935,-1.1314456462860107,0.06412871927022934,-0.9890031218528748,0.13326887786388397,0.7962075471878052,0.1364791989326477,-0.2223496288061142
1.40467128663056,2.6867532948282045,1.1865510409488071,1.4792327880859375,0.7459501624107361,-0.8153592944145203,0.07264669984579086,-0.9862329363822937,0.14855030179023743,0.7987979650497437,0.14822018146514893,-0.17151473462581635
1.3886129761061652,2.6953693800015954,1.185049544096174,1.4181627035140991,0.6880989670753479,-0.5360217094421387,0.07818927615880966,-0.9834504723548889,0.16343723237514496,0.7800412774085999,0.15785843133926392,-0.13472020626068115
1.3744272679615797,2.7131790600874783,1.1740993707190697,1.3171151876449585,0.7347711324691772,-0.2958727180957794,0.08105394244194031,-0.9807814955711365,0.17747652530670166,0.7434546947479248,0.17739099264144897,-0.11779940128326416
1.362064922142668,2.7372556928649625,1.1576372467245732,1.208728551864624,0.8556854724884033,-0.10329975187778473,0.08152186870574951,-0.9782945513725281,0.19050955772399902,0.698675274848938,0.19919610023498535,-0.11476492881774902
1.3511421841367741,2.7657576190369095,1.1379062522083765,1.1242547035217285,0.9840860366821289,0.04478585720062256,0.0799771174788475,-0.9759728908538818,0.20268341898918152,0.6507052183151245,0.21812987327575684,-0.1180582046508789
1.3412490264177528,2.7975206346847252,1.1162338985538478,1.0581743717193604,1.1432530879974365,0.15349560976028442,0.07675328105688095,-0.97376948595047,0.21420015394687653,0.6046736836433411,0.2399287223815918,-0.12682822346687317
1.3321387693683955,2.831585383402279,1.0941337601732108,0.9842582941055298,1.3680206537246704,0.22620069980621338,0.07211703807115555,-0.9716562032699585,0.22512969374656677,0.5649526119232178,0.27004188299179077,-0.1434645801782608
1.3238328390426273,2.8672914717971767,1.0729025989633292,0.8905861973762512,1.6475682258605957,0.2645109295845032,0.06621797382831573,-0.9696592092514038,0.23532094061374664,0.5287832021713257,0.29920345544815063,-0.15774528682231903
1.3163990361076687,2.9038485365885904,1.0537313688918675,0.7837180495262146,1.9402223825454712,0.27360960841178894,0.059269148856401443,-0.9678151607513428,0.24458330869674683,0.4948079586029053,0.3191487789154053,-0.16874706745147705
1.3098112472470362,2.940584808992498,1.0372857295779463,0.6790565848350525,2.2062087059020996,0.2567253112792969,0.051517847925424576,-0.9661362767219543,0.25283655524253845,0.46493107080459595,0.33681821823120117,-0.17722934484481812
1.3041251571879076,2.977093568391135,1.0236051840838898,0.5640344023704529,2.435201406478882,0.23978814482688904,0.04315388202667236,-0.9646534323692322,0.25996455550193787,0.44773659110069275,0.3442310690879822,-0.1853032112121582
1.2994756752694794,3.0137435639243573,1.0119796202629645,0.4428754448890686,2.634223461151123,0.23764854669570923,0.03417087346315384,-0.9634177684783936,0.26581722497940063,0.432595431804657,0.3468253016471863,-0.19019457697868347
1.2959368739919934,3.050933065100947,1.0017322968813718,0.3181625306606293,2.8089988231658936,0.2323906421661377,0.02457241341471672,-0.96246337890625,0.27029743790626526,0.4196566939353943,0.36489856243133545,-0.19363722205162048
1.2935491650384088,3.088766793375223,0.9924939178993911,0.19234393537044525,2.9572665691375732,0.23216301202774048,0.014452224597334862,-0.9618125557899475,0.27332785725593567,0.4045235514640808,0.3950704336166382,-0.2013368010520935
1.2923473850934144,3.1270357692366697,0.9843012033009053,0.06206263229250908,3.101961135864258,0.20618121325969696,0.004001034423708916,-0.9614829421043396,0.2748357057571411,0.38612037897109985,0.4258078932762146,-0.2068883180618286
1.2924140509508897,-3.1179435153768353,0.9777634226597014,-0.0790921002626419,3.2618587017059326,0.146768718957901,-0.006498205475509167,-0.9615012407302856,0.2747243344783783,0.36346226930618286,0.4533987045288086,-0.21129342913627625
1.2939780436982478,-3.0806353307674854,0.973839700424508,-0.24199128150939941,3.4291324615478516,0.05053486302495003,-0.01664910651743412,-0.9619298577308655,0.2727888822555542,0.3429582715034485,0.47067320346832275,-0.2216261625289917
1.2971987748129636,-3.044523674768969,0.9730443269344923,-0.39987051486968994,3.6196229457855225,-0.06230437755584717,-0.02618655003607273,-0.9628050923347473,0.2689247727394104,0.3197655975818634,0.4754394292831421,-0.236118346452713
1.302098697719275,-3.010110873388687,0.975930043121621,-0.5503489971160889,3.7882416248321533,-0.20541518926620483,-0.034804780036211014,-0.9641174674034119,0.26318466663360596,0.29714909195899963,0.48219919204711914,-0.25039780139923096
1.3088075038209654,-2.97862485825947,0.9833593381281,-0.716227650642395,3.917056083679199,-0.3750186264514923,-0.04202243313193321,-0.9658767580986023,0.2555704712867737,0.28283658623695374,0.49239659309387207,-0.2736215591430664
1.317491506368807,-2.9502849787857888,0.9955381555649576,-0.8738886117935181,4.091296195983887,-0.5371323823928833,-0.047650713473558426,-0.9680895209312439,0.24603286385536194,0.27641043066978455,0.4927935004234314,-0.30775463581085205
1.3280560060705449,-2.9247505908018394,1.0125286664654147,-1.0179635286331177,4.281732082366943,-0.7018076181411743,-0.051713500171899796,-0.9706829190254211,0.23473498225212097,0.2840437591075897,0.48514819145202637,-0.34845873713493347
1.3404679171901193,-2.901885748948804,1.0342161740913924,-1.1614887714385986,4.483588695526123,-0.8418086767196655,-0.054201699793338776,-0.9735914468765259,0.2217690348625183,0.3056054711341858,0.471089243888855,-0.3908364176750183
1.3545710795801307,-2.8802359641961552,1.0595552411481952,-1.2754786014556885,4.767637252807617,-0.9288482069969177,-0.05543627217411995,-0.9767142534255981,0.2072579562664032,0.32740887999534607,0.4584343433380127,-0.4356057941913605
1.3696542614908627,-2.85866587280757,1.0878158248907732,-1.3022772073745728,5.035233020782471,-0.9875016808509827,-0.055774200707674026,-0.979839026927948,0.19184468686580658,0.34747642278671265,0.4629782438278198,-0.47549036145210266
1.3851780614949611,-2.8376218445799735,1.1187043268158012,-1.3217625617980957,5.189476013183594,-1.034826397895813,-0.055239204317331314,-0.9828223586082458,0.17609354853630066,0.36358875036239624,0.48302072286605835,-0.4929879903793335
1.4012765881856464,-2.817408196128541,1.151535463224349,-1.3804935216903687,5.276712894439697,-1.0480839014053345,-0.05373964458703995,-0.9856659173965454,0.15992043912410736,0.37100034952163696,0.50174880027771,-0.49208903312683105
1.4183592892953931,-2.79577834808427,1.183574751553917,-1.515375018119812,5.333634853363037,-1.0355720520019531,-0.0514705665409565,-0.9884039759635925,0.14285781979560852,0.3766658306121826,0.5120551586151123,-0.47346997261047363
1.4372483579130084,-2.7688719876049555,1.2105440524543658,-1.751785397529602,5.346663475036621,-1.0037175416946411,-0.04848736897110939,-0.9910957217216492,0.12400975078344345,0.3800302743911743,0.5148689150810242,-0.44160616397857666
1.4587032520834962,-2.72888118508072,1.2242340225056727,-2.080447196960449,5.324714183807373,-0.9419172406196594,-0.044865742325782776,-0.9937241673469543,0.10246625542640686,0.3771563470363617,0.4893602132797241,-0.4024845361709595
1.4831840229826347,-2.6573069260139537,1.205518137578855,-2.4892373085021973,5.216231822967529,-0.8351420760154724,-0.04073698818683624,-0.9961645007133484,0.07743638753890991,0.37952783703804016,0.4362891912460327,-0.3627452850341797
1.5101185699747952,-2.4952003882939127,1.0943231521161578,-2.915675163269043,4.976775646209717,-0.6383665800094604,-0.036525361239910126,-0.998159646987915,0.04840827360749245,0.39054447412490845,0.38646531105041504,-0.34830451011657715
1.5340568113192554,-2.0116530702662705,0.6588258931266661,-3.2649426460266113,4.697592258453369,-0.3197785019874573,-0.033221013844013214,-0.999325156211853,0.015674589201807976,0.40016430616378784,0.3668636083602905,-0.3829536437988281
1.5333580129891335,-1.0140166991881516,-0.29341833663853006,-3.49257493019104,4.468267917633057,0.04936135932803154,-0.031778719276189804,-0.9992992877960205,-0.01978137530386448,0.3902228772640228,0.37288010120391846,-0.45652174949645996
1.505402121915854,-0.5184802220228865,-0.7457582952728072,-3.59587025642395,4.244937419891357,0.3926374912261963,-0.032383862882852554,-0.9978625774383545,-0.056759465485811234,0.33885657787323,0.376875638961792,-0.5363649129867554
1.4702527965913348,-0.35072655218578297,-0.8722731225438973,-3.6245498657226562,4.073108673095703,0.645123302936554,-0.03448691964149475,-0.9949497580528259,-0.09426465630531311,0.252962201833725,0.3418276906013489,-0.5947612524032593
1.4332549957990361,-0.27311184253587484,-0.9091626874417937,-3.67100191116333,4.133203029632568,0.7684993147850037,-0.036982033401727676,-0.9905561208724976,-0.13202624022960663,0.1600593626499176,0.30244576930999756,-0.6348042488098145
1.3952016079016716,-0.21908728047558043,-0.9204558914530759,-3.7774295806884766,4.435757160186768,0.719100296497345,-0.037967633455991745,-0.9846228361129761,-0.1705174744129181,0.07139958441257477,0.24774545431137085,-0.6718287467956543
1.356176225722758,-0.16729750032903912,-0.9256725333260138,-3.897125005722046,4.878146648406982,0.5731899738311768,-0.035464413464069366,-0.9770573973655701,-0.21000270545482635,-0.010022103786468506,0.17966359853744507,-0.7162058353424072
1.3159600322666134,-0.11410771569437902,-0.9276681279244701,-4.059234619140625,5.330039024353027,0.4766733646392822,-0.028702715411782265,-0.9677045941352844,-0.2504478394985199,-0.023558706045150757,0.10930615663528442,-0.7712196707725525
1.2740775535939977,-0.06305651696609907,-0.9233964525249534,-4.230108261108398,5.634653091430664,0.510977029800415,-0.01842450350522995,-0.9563010334968567,-0.2918029725551605,0.007270278409123421,0.06849890947341919,-0.8355164527893066
1.2309788772294568,-0.018811015540166363,-0.9100722654114676,-4.314281940460205,5.679315567016602,0.6866112351417542,-0.006269627250730991,-0.9428155422210693,-0.33325621485710144,0.03585636615753174,0.059514760971069336,-0.916438639163971
1.1874089730624848,0.015573381688154943,-0.8866531593448826,-4.375059604644775,5.519351005554199,1.0023274421691895,0.005825209431350231,-0.9274028539657593,-0.3740188777446747,0.04455924034118652,0.03558766841888428,-1.0106704235076904
1.1435278656746966,0.03746355778649862,-0.8521049342245262,-4.445641994476318,5.1365485191345215,1.5058314800262451,0.015520759858191013,-0.910101056098938,-0.4140956699848175,0.06457257270812988,-0.01972377300262451,-1.0989048480987549
1.099857616227415,0.043661445648015954,-0.8051517146290835,-4.398830413818359,4.497090816497803,2.2288050651550293,0.019803909584879875,-0.8911427855491638,-0.4532906115055084,0.1132068932056427,-0.06442362070083618,-1.1899741888046265
1.0578443098121144,0.032395171115041234,-0.7455761025888822,-4.1744794845581055,3.7202868461608887,3.044471502304077,0.01589519903063774,-0.8712996244430542,-0.4904940128326416,0.10867750644683838,-0.1091386079788208,-1.296264410018921
1.0179994688413891,0.006825401729367345,-0.6770737270437593,-3.9000191688537598,2.954237222671509,3.702867031097412,0.0035837835166603327,-0.8510593175888062,-0.5250574350357056,-0.038526445627212524,-0.16076624393463135,-1.3804144859313965
0.9801585190255555,-0.02746419212273579,-0.6048927980050458,-3.5391271114349365,2.3256242275238037,4.126296043395996,-0.015292632393538952,-0.8305856585502625,-0.5566807389259338,-0.26897862553596497,-0.2098347544670105,-1.4574642181396484
0.9452869620203397,-0.06493725863159272,-0.5334162308907393,-3.013512134552002,1.9294459819793701,4.294961452484131,-0.03799472004175186,-0.8106650114059448,-0.5842762589454651,-0.5064999461174011,-0.24306118488311768,-1.5345745086669922
0.9145787747858664,-0.1006197624559486,-0.4656280233567402,-2.411513090133667,1.829177737236023,4.240718364715576,-0.061287038028240204,-0.7923056483268738,-0.6070384979248047,-0.7067793607711792,-0.26322102546691895,-1.5847949981689453
0.8885938101680924,-0.13064291496600852,-0.4030469418107858,-1.8488832712173462,1.9841636419296265,4.034512996673584,-0.08213678002357483,-0.776185929775238,-0.6251311302185059,-0.8483899831771851,-0.31033140420913696,-1.5928559303283691
0.8671096242869961,-0.15375552734195744,-0.3463257710034148,-1.3737419843673706,2.0702943801879883,3.714543342590332,-0.09909337759017944,-0.7624619603157043,-0.6393998861312866,-0.9611636400222778,-0.3855482339859009,-1.566227674484253
0.8500611356470682,-0.17219388639155753,-0.2955530006606893,-0.8931422829627991,1.8868695497512817,3.3717565536499023,-0.11307641863822937,-0.7513207793235779,-0.650177538394928,-1.0477511882781982,-0.43195247650146484,-1.5375971794128418
0.8384079755675953,-0.1893105836825471,-0.24932123783747195,-0.272821307182312,1.5853264331817627,3.075578451156616,-0.12582731246948242,-0.7435795664787292,-0.6567015647888184,-1.0614590644836426,-0.4238550662994385,-1.5244202613830566
0.8333932253326802,-0.20696334200830654,-0.20563776245074664,0.45117446780204773,1.3775337934494019,2.8569302558898926,-0.138164222240448,-0.7402171492576599,-0.6580192446708679,-0.9976543188095093,-0.3906727433204651,-1.4893501996994019
0.835423286765341,-0.22544440953319314,-0.16242704398226054,1.1810516119003296,1.3275593519210815,2.715806484222412,-0.1499645859003067,-0.7415805459022522,-0.6538875102996826,-0.8705432415008545,-0.34899550676345825,-1.3793156147003174
0.8438696216325711,-0.24535236967988844,-0.1180738509689859,1.8183330297470093,1.2792292833328247,2.644415855407715,-0.16142436861991882,-0.7472203373908997,-0.6446734666824341,-0.7359907627105713,-0.27524054050445557,-1.183787226676941
0.8572553882120783,-0.26803994228204164,-0.07122420035135568,2.3002514839172363,1.219008445739746,2.643660306930542,-0.1733429878950119,-0.7560490369796753,-0.6311435103416443,-0.5882384777069092,-0.1853877305984497,-0.920934796333313
0.8734309882384896,-0.2939132117893362,-0.021376239310247267,2.557865858078003,1.1938269138336182,2.6464157104492188,-0.1860453486442566,-0.7665368318557739,-0.6146612763404846,-0.4705403745174408,-0.10428225994110107,-0.6313714981079102
0.8902502064496508,-0.3222859915803334,0.03058552446795558,2.6068828105926514,1.1378813982009888,2.6115915775299072,-0.19929562509059906,-0.7772291898727417,-0.5968214869499207,-0.39627015590667725,-0.03646087646484375,-0.35491496324539185
0.9057258951612923,-0.35311918329402303,0.08361857923106339,2.47128963470459,0.9720221757888794,2.5786983966827393,-0.21341437101364136,-0.7868733406066895,-0.5790376663208008,-0.32931023836135864,0.02568870782852173,-0.13148784637451172
0.9187074729301031,-0.38654123729796186,0.13665138862949675,2.2779839038848877,0.7220991253852844,2.5185797214508057,-0.22877386212348938,-0.7948179244995117,-0.562073826789856,-0.2856152057647705,0.0819273591041565,0.020661473274230957
0.9290555501214194,-0.42238426418409214,0.18888854718450618,2.090923309326172,0.4420616030693054,2.4369308948516846,-0.2453841120004654,-0.8010549545288086,-0.545983076095581,-0.2547227144241333,0.13098055124282837,0.10147929191589355
0.9370858064406004,-0.4601250131358962,0.23982313663109298,1.9419432878494263,0.2087954580783844,2.34645414352417,-0.262945294380188,-0.8058359026908875,-0.5305547118186951,-0.2185153067111969,0.16875100135803223,0.1432713270187378
0.9430356578747442,-0.4984490989758095,0.28926051362957,1.7859529256820679,0.13835486769676208,2.268308401107788,-0.28078314661979675,-0.8093447685241699,-0.5158700346946716,-0.17206722497940063,0.19882535934448242,0.16514670848846436
0.9466565712391386,-0.5351706513041496,0.3368676781871175,1.585069179534912,0.24382048845291138,2.2064568996429443,-0.2980366051197052,-0.8114661574363708,-0.5026896595954895,-0.1278057098388672,0.22267532348632812,0.18472695350646973
0.947938007644148,-0.5689201138664186,0.3820153857634545,1.3953490257263184,0.3216540515422821,2.1282479763031006,-0.31426867842674255,-0.8122143745422363,-0.49147021770477295,-0.09593331813812256,0.2361188530921936,0.21144089102745056
0.947456789654027,-0.6002690498514547,0.42449478019533515,1.2568976879119873,0.29948827624320984,2.0455338954925537,-0.32973966002464294,-0.8119335174560547,-0.48170095682144165,-0.09002965688705444,0.2544078826904297,0.22043991088867188
0.9456155920494874,-0.6301641597650661,0.4646332350404702,1.1423532962799072,0.2311563640832901,1.9878425598144531,-0.34487098455429077,-0.810857355594635,-0.47283652424812317,-0.07611903548240662,0.2833763360977173,0.21677875518798828
0.942493319328771,-0.6590186988910232,0.5026854363787646,1.0333346128463745,0.171713188290596,1.9465099573135376,-0.3599175214767456,-0.8090261220932007,-0.4646892547607422,-0.049613118171691895,0.3077443838119507,0.2164592742919922
0.9381281423783311,-0.6863894483683112,0.538576725260635,0.9126095771789551,0.15443193912506104,1.8922988176345825,-0.3747345805168152,-0.8064526915550232,-0.45739272236824036,-0.029302924871444702,0.32390880584716797,0.21720409393310547
0.9325986976411849,-0.7118513227262601,0.5719148764551328,0.7840644717216492,0.10720794647932053,1.8415967226028442,-0.3891649842262268,-0.8031708002090454,-0.4510735273361206,-0.028773248195648193,0.3328034281730652,0.20853501558303833
0.9259710974463525,-0.736208283456367,0.6029801039896491,0.6836380362510681,-0.005223263055086136,1.8080755472183228,-0.4036007821559906,-0.7992048263549805,-0.4453965723514557,-0.03985017538070679,0.35428905487060547,0.2042924165725708
0.9185027378535704,-0.7598635342478991,0.6318918489535026,0.5929064154624939,-0.12125337868928909,1.7532035112380981,-0.41812267899513245,-0.794693648815155,-0.44004032015800476,-0.04633963108062744,0.3520209789276123,0.1890484094619751
0.9104930706129728,-0.782825734652215,0.6584560093600079,0.5134280920028687,-0.24612846970558167,1.6721162796020508,-0.43259137868881226,-0.7898062467575073,-0.4348227381706238,-0.07052141427993774,0.3426322340965271,0.164650559425354
0.9021420832082628,-0.8043215211879099,0.6824060216128165,0.4144073724746704,-0.27344420552253723,1.5787078142166138,-0.4465733766555786,-0.7846566438674927,-0.4299840033054352,-0.09499156475067139,0.3343850374221802,0.14339333772659302
0.8934504062050892,-0.8236395198951767,0.7033987758694641,0.28910031914711,-0.3034404516220093,1.4689794778823853,-0.4597819745540619,-0.7792388200759888,-0.42589592933654785,-0.11834299564361572,0.32046812772750854,0.13632982969284058
0.8844054425211956,-0.8403945409628173,0.721080994101427,0.1354093849658966,-0.2928065359592438,1.3582946062088013,-0.47208404541015625,-0.77353835105896,-0.42281797528266907,-0.13455960154533386,0.29737263917922974,0.13309934735298157
0.8749090552493599,-0.8540729121121775,0.7352477979353504,-0.035172734409570694,-0.26166194677352905,1.2501002550125122,-0.4833400249481201,-0.7674852013587952,-0.4211280643939972,-0.15946701169013977,0.27729666233062744,0.1165168285369873
0.8650072435891337,-0.8649883064701726,0.7461653580628966,-0.1830129325389862,-0.2561059892177582,1.1613447666168213,-0.4936678409576416,-0.7610999345779419,-0.4207362234592438,-0.1877286434173584,0.26451796293258667,0.09079539775848389
0.8548611720018979,-0.874504601088105,0.7547423631483398,-0.2611261010169983,-0.3660157322883606,1.109197974205017,-0.5035482048988342,-0.7544798254966736,-0.42095065116882324,-0.22374671697616577,0.26482534408569336,0.05092501640319824
0.8445431511013523,-0.8846831425417462,0.7620051242021312,-0.3094719648361206,-0.5882024168968201,1.0894911289215088,-0.5138027667999268,-0.7476677894592285,-0.42071327567100525,-0.268149197101593,0.2635064125061035,0.015912771224975586
0.8340512583658939,-0.8970528769913393,0.7686443529568182,-0.3111947774887085,-0.9050652980804443,1.0927308797836304,-0.5250690579414368,-0.7406594157218933,-0.4191969633102417,-0.32597464323043823,0.2508981227874756,-0.014732539653778076
0.8236573892612331,-0.9129903334413517,0.7751860304693462,-0.27412149310112,-1.3238054513931274,1.0800737142562866,-0.5377460718154907,-0.7336360812187195,-0.41546010971069336,-0.391407310962677,0.25371676683425903,-0.04350903630256653
0.8137503557854273,-0.9335436940472299,0.7816973260745317,-0.205772265791893,-1.832892894744873,1.023775577545166,-0.5519858002662659,-0.7268679141998291,-0.4086252748966217,-0.46810996532440186,0.2662661671638489,-0.059483885765075684
0.8047763579505746,-0.9584247659238813,0.7877833024725351,-0.16850051283836365,-2.2175207138061523,0.9086954593658447,-0.5672959685325623,-0.7206755876541138,-0.3984997570514679,-0.5335646867752075,0.25409233570098877,-0.06440621614456177
0.7969527341595835,-0.9848710286003854,0.7923525220895828,-0.19082792103290558,-2.373067855834961,0.7246859073638916,-0.5823153257369995,-0.7152296900749207,-0.3864653706550598,-0.593877911567688,0.21568751335144043,-0.06629347801208496
0.7908071407537794,-1.0101309136193646,0.7943133947005392,-0.24951663613319397,-2.3608853816986084,0.4428362250328064,-0.5956019163131714,-0.7109211683273315,-0.37396466732025146,-0.6594487428665161,0.19193923473358154,-0.07238548994064331
0.7871002995895489,-1.0320251422057478,0.7927349477254517,-0.3287390172481537,-2.2116036415100098,0.06312672793865204,-0.6059039831161499,-0.7083093523979187,-0.36218544840812683,-0.7294079661369324,0.17936348915100098,-0.08228784799575806
0.7864907661351087,-1.0493449479603496,0.7871923507595389,-0.40545469522476196,-2.0271143913269043,-0.3535856008529663,-0.6124599575996399,-0.7078789472579956,-0.35185250639915466,-0.7923098802566528,0.15947812795639038,-0.09382626414299011
0.7890726090957131,-1.0624119948378088,0.7779533815183234,-0.4703279733657837,-1.8833404779434204,-0.7233931422233582,-0.6154066324234009,-0.7097002267837524,-0.34292885661125183,-0.8145250082015991,0.14396542310714722,-0.10839563608169556
0.7942349482067147,-1.0718405860035356,0.7657504862205476,-0.5263575911521912,-1.7318878173828125,-0.9919006824493408,-0.6153873205184937,-0.7133276462554932,-0.33535367250442505,-0.7961117029190063,0.14159619808197021,-0.12378326058387756
0.8012689080402736,-1.078695328232761,0.7516151863169623,-0.5384009480476379,-1.6656757593154907,-1.1646672487258911,-0.6132342219352722,-0.7182395458221436,-0.3287486732006073,-0.7574322819709778,0.15120774507522583,-0.1380634903907776
0.809329348336884,-1.0846019393220276,0.7366250338468207,-0.5303469300270081,-1.67571222782135,-1.2096878290176392,-0.6100269556045532,-0.7238246202468872,-0.3224051594734192,-0.6972545385360718,0.1570216417312622,-0.15392851829528809
0.8172952370160871,-1.091385119731567,0.7219356781493134,-0.5112573504447937,-1.8287299871444702,-1.117201566696167,-0.6070646047592163,-0.729297935962677,-0.3155902326107025,-0.6303926706314087,0.1624491810798645,-0.16217780113220215
0.8240663263604411,-1.1014517163835422,0.7085025463709057,-0.49749961495399475,-2.1651883125305176,-0.9040853977203369,-0.6057925224304199,-0.7339138984680176,-0.3072226345539093,-0.5817837715148926,0.18287336826324463,-0.16113069653511047
0.8286326901982548,-1.1168909932588067,0.6966926397986223,-0.5301597714424133,-2.6618897914886475,-0.6179889440536499,-0.6074451804161072,-0.7370079159736633,-0.2963608503341675,-0.5464855432510376,0.2122277021408081,-0.1573440432548523
0.8304797286852412,-1.13861559939673,0.6861654740927925,-0.5976365804672241,-3.2207393646240234,-0.3299815058708191,-0.6125024557113647,-0.7382550239562988,-0.2825247645378113,-0.5566259622573853,0.2302594780921936,-0.155845046043396
0.8297204772763676,-1.1660783339551273,0.6760552233140166,-0.7100576758384705,-3.728148937225342,-0.09264513850212097,-0.6205444931983948,-0.7377427220344543,-0.2658199965953827,-0.5941771864891052,0.23946702480316162,-0.16119727492332458
0.8268306831093684,-1.1974379336119958,0.6653149147500598,-0.8469443917274475,-4.076531887054443,0.0665132999420166,-0.6305562853813171,-0.7357887625694275,-0.24700896441936493,-0.6394479274749756,0.24836212396621704,-0.18357881903648376
0.8225778081777488,-1.2303305720633864,0.6531975226793514,-0.9832004904747009,-4.233033180236816,0.13840587437152863,-0.6412824988365173,-0.7329020500183105,-0.22718138992786407,-0.6873307824134827,0.2661510109901428,-0.2268134355545044
0.8180359691227305,-1.2624803797370878,0.639111316487641,-1.1198904514312744,-4.212615966796875,0.09712456166744232,-0.6514188647270203,-0.729804515838623,-0.20745845139026642,-0.7340639233589172,0.29347944259643555,-0.2742462754249573
0.8141649874974642,-1.2923198492307895,0.6225744398485987,-1.2678583860397339,-4.142536640167236,-0.019485943019390106,-0.6600295901298523,-0.7271526455879211,-0.18870612978935242,-0.7683303952217102,0.3180187940597534,-0.30653321743011475
0.8115880742614362,-1.3196160467011187,0.6031540467011863,-1.441144585609436,-4.113830089569092,-0.18208853900432587,-0.6667469143867493,-0.7253812551498413,-0.17108695209026337,-0.7966015338897705,0.3423703908920288,-0.3297370672225952
0.8105109224656987,-1.344222423673497,0.5802146997193417,-1.6758830547332764,-4.1043219566345215,-0.3537311255931854,-0.6715153455734253,-0.724639356136322,-0.154805988073349,-0.8047267198562622,0.3709712028503418,-0.3485051989555359
0.8108920811026806,-1.3656533193805813,0.5530643177074381,-1.951765537261963,-4.096391677856445,-0.5212925672531128,-0.6744081377983093,-0.7249019742012024,-0.14032411575317383,-0.7968290448188782,0.3926113247871399,-0.37601810693740845
0.8128533346843158,-1.3839812244011185,0.5212778451064889,-2.2517306804656982,-4.154407024383545,-0.7150527238845825,-0.6754681468009949,-0.7262516021728516,-0.12767641246318817,-0.7963793873786926,0.40664106607437134,-0.4187561273574829
0.8167250873976017,-1.399352809965836,0.4848034941867723,-2.514702081680298,-4.198485374450684,-0.933243989944458,-0.6745752096176147,-0.7289077043533325,-0.11679814010858536,-0.8062597513198853,0.4226791262626648,-0.4808581471443176
0.822853123563261,-1.4120140263063654,0.44427240892248515,-2.7152762413024902,-4.224549293518066,-1.1791740655899048,-0.6715768575668335,-0.7330893278121948,-0.10753980278968811,-0.8075034022331238,0.4335440397262573,-0.5522502660751343
0.8315181523965296,-1.4220248540794809,0.40029729787770885,-2.8851029872894287,-4.2157063484191895,-1.435882806777954,-0.6663125157356262,-0.7389550805091858,-0.09986616671085358,-0.7885825634002686,0.4491906762123108,-0.6313197612762451
0.8427795189829597,-1.4287697455715807,0.3530223907162228,-3.0341711044311523,-4.120903968811035,-1.699053168296814,-0.658690869808197,-0.7464954853057861,-0.09418575465679169,-0.7445684671401978,0.47314953804016113,-0.7075720429420471
0.856624105406465,-1.4313729732241791,0.30240630341334124,-3.1729795932769775,-3.9742088317871094,-1.9694395065307617,-0.6486364006996155,-0.755635678768158,-0.09102563560009003,-0.6946406364440918,0.5001425743103027,-0.7714011669158936
0.8730098886903102,-1.429313982423473,0.24831874484169666,-3.299623966217041,-3.8258864879608154,-2.239227056503296,-0.636103093624115,-0.7662663459777832,-0.09060270339250565,-0.6339470148086548,0.5319980978965759,-0.8293496966362
0.8915625639388632,-1.4224200858198817,0.19051947834163374,-3.4105892181396484,-3.699970006942749,-2.473003625869751,-0.6212947368621826,-0.7780542969703674,-0.0928678885102272,-0.5617192387580872,0.5693141222000122,-0.8864259123802185
0.9118653577553203,-1.4108595683616239,0.1288473519888607,-3.500340700149536,-3.653912305831909,-2.693408250808716,-0.604457676410675,-0.7906472086906433,-0.09750782698392868,-0.49478548765182495,0.6086862683296204,-0.9439655542373657
0.933584581818955,-1.3954323372348074,0.0632499432155237,-3.5531492233276367,-3.7036292552948,-2.891862630844116,-0.5858317613601685,-0.8037577867507935,-0.10380002111196518,-0.44454848766326904,0.649918794631958,-1.0102136135101318
0.9565002183193037,-1.3767724222864655,-0.005947626021353472,-3.541943073272705,-3.755930185317993,-3.0840439796447754,-0.5655683279037476,-0.8171793818473816,-0.11113181710243225,-0.40446341037750244,0.7039898037910461,-1.097837209701538
0.9806198165332081,-1.3552693885820113,-0.07805716672514658,-3.440443754196167,-3.79980731010437,-3.2788503170013428,-0.5436322689056396,-0.8308424353599548,-0.11901597678661346,-0.36397576332092285,0.7530074119567871,-1.1892116069793701
1.006028833112479,-1.331648192776073,-0.15186998635936028,-3.23431396484375,-3.8107898235321045,-3.4619734287261963,-0.5199869871139526,-0.8447130918502808,-0.12678010761737823,-0.31041157245635986,0.7825641632080078,-1.2696431875228882
1.0327061095234273,-1.306458087289334,-0.2261148643684432,-2.9463984966278076,-3.7625107765197754,-3.611851930618286,-0.4946957528591156,-0.85868901014328,-0.13390038907527924,-0.2300509810447693,0.8093116283416748,-1.335597276687622
1.0604158560759636,-1.279810797453147,-0.2997890747878002,-2.6083481311798096,-3.6279470920562744,-3.7073092460632324,-0.467972993850708,-0.8725587129592896,-0.14015154540538788,-0.12988165020942688,0.8245394229888916,-1.3705905675888062
1.0887451305067852,-1.251492668229386,-0.37242700231771847,-2.277320623397827,-3.46431827545166,-3.743180751800537,-0.4401644766330719,-0.8860458731651306,-0.1455257683992386,-0.03447538614273071,0.8294816613197327,-1.3612948656082153
1.1171238133685741,-1.2215338045536865,-0.44428076270832495,-1.9765595197677612,-3.3619284629821777,-3.710397243499756,-0.41180914640426636,-0.8988436460494995,-0.14997799694538116,0.06168091297149658,0.827783465385437,-1.3185737133026123
1.144862385175749,-1.1905654346514036,-0.5157771919597692,-1.7315713167190552,-3.374066114425659,-3.6110329627990723,-0.38366231322288513,-0.9106532335281372,-0.1533423364162445,0.14551839232444763,0.808633029460907,-1.253334879875183
1.171256253178094,-1.158956866282357,-0.5877670708252413,-1.5575374364852905,-3.488542079925537,-3.455984354019165,-0.35646921396255493,-0.921239972114563,-0.15571284294128418,0.20739081501960754,0.793264627456665,-1.1707489490509033
1.1956870099482075,-1.1269386330458258,-0.6611841780985185,-1.4583903551101685,-3.6922085285186768,-3.2638323307037354,-0.33087319135665894,-0.9304676055908203,-0.15733081102371216,0.25261080265045166,0.7851276397705078,-1.0896480083465576
1.2176140150378465,-1.094438464710949,-0.7370721073213914,-1.4346685409545898,-3.968278646469116,-3.036121129989624,-0.30737850069999695,-0.9382767677307129,-0.15860432386398315,0.2809959948062897,0.7770066261291504,-1.027461290359497
1.2364914304126848,-1.0615940929916683,-0.8157829775241342,-1.443858027458191,-4.263506889343262,-2.7766802310943604,-0.28648608922958374,-0.9446386098861694,-0.15994855761528015,0.30229413509368896,0.7621893286705017,-0.98710036277771
1.2521476347182507,-1.0294172053539705,-0.8964291612445743,-1.4462201595306396,-4.542703151702881,-2.5069260597229004,-0.26848363876342773,-0.9496596455574036,-0.16144077479839325,0.31592318415641785,0.7407668232917786,-0.9699068665504456
1.2647655356828302,-0.9990009514210045,-0.9773402611861806,-1.429818868637085,-4.735972881317139,-2.2491371631622314,-0.25335246324539185,-0.9535369277000427,-0.16303344070911407,0.32093361020088196,0.7141265273094177,-0.9666052460670471
1.2748464527427705,-0.9706702603174096,-1.0575151613724612,-1.4040498733520508,-4.877095699310303,-2.0568788051605225,-0.2406870275735855,-0.9565255641937256,-0.16470740735530853,0.2881571054458618,0.6916025280952454,-0.9650685787200928
1.2830068567732873,-0.9436831523983641,-1.13722071241537,-1.3980357646942139,-4.948058128356934,-1.9122012853622437,-0.22982658445835114,-0.9588736295700073,-0.16655589640140533,0.25012075901031494,0.6718559265136719,-0.9529661536216736
1.2894051287428065,-0.916391539656839,-1.2171699959482176,-1.4300371408462524,-4.894257068634033,-1.7906453609466553,-0.2203236222267151,-0.9606700539588928,-0.16902746260166168,0.2341328263282776,0.6509625315666199,-0.9261873364448547
1.2941213524779285,-0.8866125802987929,-1.298435402498767,-1.492020845413208,-4.738706588745117,-1.7227022647857666,-0.21167993545532227,-0.9619690179824829,-0.1726471185684204,0.21657799184322357,0.6270387172698975,-0.8928435444831848
1.2973223854581275,-0.852288112542531,-1.382658801494763,-1.586177945137024,-4.58275842666626,-1.7119324207305908,-0.20331132411956787,-0.9628384709358215,-0.17778192460536957,0.18641984462738037,0.6072630286216736,-0.8547192811965942
1.298830744204852,-0.8123108955565429,-1.471125302678271,-1.7304861545562744,-4.431410789489746,-1.7059812545776367,-0.19498957693576813,-0.9632447361946106,-0.18476682901382446,0.16857655346393585,0.5822174549102783,-0.8169726133346558
1.2980519292423984,-0.7667001397921704,-1.5639382225781975,-1.9105160236358643,-4.305394649505615,-1.688122272491455,-0.18688273429870605,-0.9630352258682251,-0.19400541484355927,0.17028112709522247,0.5546947717666626,-0.7883095741271973
1.2946946033674325,-0.7173571802697223,-1.6597546878570775,-2.0764033794403076,-4.255386829376221,-1.6772016286849976,-0.17921049892902374,-0.9621254205703735,-0.20542171597480774,0.17719629406929016,0.5413338541984558,-0.7737194895744324
1.288670473987216,-0.666637654029847,-1.7568907663633235,-2.254244327545166,-4.250253200531006,-1.6649188995361328,-0.17214658856391907,-0.9604657888412476,-0.21879445016384125,0.17931818962097168,0.5315260291099548,-0.7641156911849976
1.279803285878365,-0.61592936619852,-1.8541330439026626,-2.4385368824005127,-4.239301681518555,-1.6723511219024658,-0.1657492071390152,-0.9579594135284424,-0.23418132960796356,0.17086085677146912,0.5033696293830872,-0.765528678894043
1.268213633047784,-0.5661953710956881,-1.9505306697616152,-2.608492374420166,-4.2225446701049805,-1.716957449913025,-0.15984761714935303,-0.9545700550079346,-0.2514854073524475,0.15000565350055695,0.47089684009552,-0.7729133367538452
1.254201422737875,-0.5171790036599163,-2.045995582508515,-2.7733347415924072,-4.116199970245361,-1.8189036846160889,-0.15393227338790894,-0.9503010511398315,-0.2706158757209778,0.12588660418987274,0.4546802043914795,-0.788893461227417
1.2379926326898647,-0.4677693741477432,-2.1406971291570756,-2.9137582778930664,-3.9228720664978027,-1.968186378479004,-0.14730525016784668,-0.9451301097869873,-0.2915995121002197,0.10587760806083679,0.4420630931854248,-0.820140540599823
1.2199232391222536,-0.4182074816433039,-2.2340014289447634,-3.0041251182556152,-3.7245025634765625,-2.125485420227051,-0.13959166407585144,-0.9390729665756226,-0.31409549713134766,0.10506100952625275,0.42799514532089233,-0.8508518934249878
1.200233225626709,-0.3698798826435181,-2.324837845705222,-3.0695912837982178,-3.5968422889709473,-2.2692630290985107,-0.13091491162776947,-0.932123601436615,-0.3376488983631134,0.11991332471370697,0.41216516494750977,-0.8755162954330444
1.1790954860423046,-0.3244554874398377,-2.412303734520827,-3.089707612991333,-3.5381715297698975,-2.394019603729248,-0.1217026561498642,-0.9242610931396484,-0.36184248328208923,0.1544022262096405,0.39938920736312866,-0.9015394449234009
1.1570078441237268,-0.28305230511186297,-2.4954485433469955,-3.0480008125305176,-3.445984363555908,-2.492215156555176,-0.11229626089334488,-0.9156041145324707,-0.3860809803009033,0.18640819191932678,0.3859105706214905,-0.9372831583023071
1.1345441153289202,-0.24547431828225963,-2.5737781940743267,-2.9463863372802734,-3.2811872959136963,-2.554605007171631,-0.10268551111221313,-0.9063416123390198,-0.40987852215766907,0.21212154626846313,0.34442150592803955,-0.9698821306228638
1.1123368870557202,-0.21149697168716813,-2.646900418140056,-2.7857987880706787,-3.0862200260162354,-2.5873541831970215,-0.09290533512830734,-0.8967353701591492,-0.43270567059516907,0.25901249051094055,0.28743672370910645,-0.9975615739822388
1.091053118702008,-0.18068733371603574,-2.7150946970429723,-2.56850004196167,-2.8992748260498047,-2.622676372528076,-0.08294342458248138,-0.8871134519577026,-0.4540374279022217,0.2972531318664551,0.2372264266014099,-1.0132323503494263
1.0712206242684874,-0.1524124430879192,-2.7792307788195454,-2.32352876663208,-2.752201557159424,-2.6548032760620117,-0.07273130118846893,-0.8777859210968018,-0.47349974513053894,0.31795528531074524,0.20121121406555176,-1.0088000297546387
1.05313333561054,-0.12684977596121322,-2.8396381239264827,-2.063600540161133,-2.6790382862091064,-2.64705228805542,-0.06260348111391068,-0.8689780235290527,-0.49087464809417725,0.3461575508117676,0.1661582589149475,-0.9767460823059082
1.036965666171681,-0.10495930838302914,-2.896093600880066,-1.7915229797363281,-2.6955997943878174,-2.587341785430908,-0.05330892279744148,-0.8608642220497131,-0.5060343742370605,0.3912147879600525,0.1353088617324829,-0.9265826940536499
1.0228038166525306,-0.08738993941180336,-2.9483759315673375,-1.5376534461975098,-2.7379448413848877,-2.486011505126953,-0.04547002539038658,-0.8535720705986023,-0.518986701965332,0.4390399754047394,0.11281895637512207,-0.868494987487793
1.01056735180232,-0.07400147056302125,-2.996721792964265,-1.3050117492675781,-2.789677619934082,-2.3741567134857178,-0.03928704187273979,-0.847133457660675,-0.5299259424209595,0.4755510985851288,0.07313132286071777,-0.7934687733650208
1.000138877749464,-0.06428274587131946,-3.0416473077050714,-1.1065810918807983,-2.8333351612091064,-2.273648977279663,-0.03470069542527199,-0.8415459990501404,-0.5390697717666626,0.5036338567733765,0.03090757131576538,-0.7087329030036926
0.9911830626348244,-0.05736931847057927,-3.083762114232115,-0.9612230658531189,-2.8235113620758057,-2.1799402236938477,-0.03140396624803543,-0.8366745114326477,-0.54679936170578,0.5278181433677673,-0.006953418254852295,-0.6217796802520752
0.9831048030813503,-0.05192762610287382,-3.123667619858922,-0.8967995643615723,-2.714569330215454,-2.112919330596924,-0.02877788245677948,-0.8322228193283081,-0.553693950176239,0.5465849041938782,-0.048499226570129395,-0.5390489101409912
0.9751393312522382,-0.04662559029765067,3.121268685304721,-0.9040290117263794,-2.558826208114624,-2.0569324493408203,-0.026149932295084,-0.8277800679206848,-0.5604428648948669,0.5792047381401062,-0.08719795942306519,-0.4697999358177185
0.9668393708164782,-0.04147699429686395,3.084718896253381,-0.9293090105056763,-2.436051845550537,-1.9775569438934326,-0.023548193275928497,-0.82309490442276,-0.5674154162406921,0.6239358186721802,-0.1251015067100525,-0.4139229655265808
0.9581272115640098,-0.03727957214725321,3.050094440610219,-0.9622927904129028,-2.403416395187378,-1.896459937095642,-0.021432770416140556,-0.8181160688400269,-0.5746535658836365,0.6597384214401245,-0.15902626514434814,-0.36862945556640625
0.9490351050048493,-0.03491791615467992,3.0174494768188262,-0.9840742945671082,-2.4391982555389404,-1.801634430885315,-0.020334426313638687,-0.8128538727760315,-0.5821126699447632,0.6917364597320557,-0.18140888214111328,-0.34426361322402954
0.9398083563451657,-0.03497705825633797,2.986935190014235,-0.9698365330696106,-2.5048532485961914,-1.7010478973388672,-0.020630253478884697,-0.8074450492858887,-0.5895819067955017,0.7228091955184937,-0.19577455520629883,-0.341036319732666
0.9310826318671612,-0.0373858060753056,2.9584582799290233,-0.8846825957298279,-2.530322313308716,-1.6043695211410522,-0.022312846034765244,-0.8022667169570923,-0.5965485572814941,0.7586410045623779,-0.21462476253509521,-0.3596128821372986
0.9235317516606399,-0.041005582176874084,2.9319362503359967,-0.7325186133384705,-2.3857975006103516,-1.501511573791504,-0.02471970207989216,-0.7977362871170044,-0.6024996042251587,0.8305058479309082,-0.2413109540939331,-0.3918851613998413
0.9179475469835077,-0.0436193146753823,2.9078223880802936,-0.49819421768188477,-1.9212870597839355,-1.3487873077392578,-0.026488229632377625,-0.7943565249443054,-0.6068739891052246,0.9703511595726013,-0.2812049984931946,-0.4431442618370056
0.914857017762315,-0.043345259554733145,2.8870042728820997,-0.22977876663208008,-1.2908129692077637,-1.1493698358535767,-0.026428166776895523,-0.7924754023551941,-0.6093310713768005,1.1535797119140625,-0.3233693838119507,-0.4667644500732422
0.914031786899987,-0.03908578180035847,2.869737768275986,-0.03830239176750183,-0.603154182434082,-0.9362814426422119,-0.023858046159148216,-0.7919718027114868,-0.6100913286209106,1.2862634658813477,-0.3633321523666382,-0.44189536571502686
0.9145243834768622,-0.033014871441105965,2.856653305931866,0.07402760535478592,-0.3030678629875183,-0.6404218077659607,-0.020140942186117172,-0.7922724485397339,-0.6098349690437317,1.4281762838363647,-0.4661351442337036,-0.37940752506256104
0.9159154366368046,-0.03021632117045919,2.849396353918662,0.17875483632087708,-0.3108444809913635,-0.2422143816947937,-0.018400896340608597,-0.7931205034255981,-0.6087867021560669,1.5216052532196045,-0.5067909955978394,-0.31417161226272583
0.9184728033542939,-0.03343518089420365,2.8487232045200503,0.33255186676979065,-0.43623703718185425,0.13521572947502136,-0.020292529836297035,-0.7946754693984985,-0.606695294380188,1.5153334140777588,-0.46493756771087646,-0.262414813041687
0.9225843100862791,-0.04214576881714828,2.853535632345301,0.5135539174079895,-0.5173882246017456,0.4073898494243622,-0.02543848380446434,-0.7971645593643188,-0.6032259464263916,1.472414255142212,-0.44587743282318115,-0.2248837947845459
0.9285263505692831,-0.05394470254887399,2.8625646775585394,0.7291716933250427,-0.3584054708480835,0.6127435564994812,-0.032297998666763306,-0.8007380962371826,-0.5981433391571045,1.4387006759643555,-0.46087390184402466,-0.2003796100616455
0.9364790300941682,-0.06540453158496061,2.8749413424137287,0.9408432841300964,0.0855112224817276,0.7488095760345459,-0.03873291611671448,-0.8054764866828918,-0.5913606882095337,1.4016175270080566,-0.46887660026550293,-0.18670016527175903
0.946230521943159,-0.07350984121728056,2.8896299810658213,1.1097254753112793,0.6692367196083069,0.8363655209541321,-0.04294582083821297,-0.8112170696258545,-0.5831659436225891,1.3520431518554688,-0.4545300006866455,-0.1688481569290161
0.9572653401784608,-0.07766541099566046,2.9066467346810323,1.2295845746994019,1.269153118133545,0.9656760096549988,-0.04467153921723366,-0.8176200985908508,-0.5740223526954651,1.3347563743591309,-0.4313117265701294,-0.13931065797805786
0.9692311035835995,-0.0785782069552728,2.9267006849618573,1.3173424005508423,1.8214077949523926,1.1223417520523071,-0.04442429915070534,-0.8244507908821106,-0.5641872882843018,1.3142759799957275,-0.3872191309928894,-0.10552090406417847
0.9815344567458087,-0.07727003843908789,2.9498629625610766,1.3181830644607544,2.248950958251953,1.2696677446365356,-0.04289991408586502,-0.831351101398468,-0.5540892481803894,1.2648848295211792,-0.322182834148407,-0.05881047248840332
0.9934730282177391,-0.07522152018079065,2.976325706595596,1.271720290184021,2.5454845428466797,1.452172040939331,-0.04101591184735298,-0.8379265666007996,-0.5442395210266113,1.2142337560653687,-0.24936896562576294,-0.013743758201599121
1.0047536770294454,-0.07447735591962763,3.006802839839819,1.2123841047286987,2.6942083835601807,1.6592450141906738,-0.039904993027448654,-0.8440299034118652,-0.5348093509674072,1.1569552421569824,-0.184320867061615,0.005070030689239502
1.0151745179819207,-0.07704197982862566,3.041820047419065,1.1401711702346802,2.6895077228546143,1.8897029161453247,-0.04059727117419243,-0.8495725989341736,-0.525907039642334,1.1023496389389038,-0.12232071161270142,0.0032935738563537598
1.0246392037940728,-0.08446418977696972,3.0818854155094004,1.0793169736862183,2.639915943145752,2.124108076095581,-0.043819162994623184,-0.8545268177986145,-0.5175555348396301,1.0535390377044678,-0.0732075572013855,-0.013373970985412598
1.033163513576682,-0.0970969717330205,3.127084362147847,1.034275770187378,2.5638673305511475,2.345026731491089,-0.04964565858244896,-0.8589233160018921,-0.5096919536590576,0.980279266834259,-0.016976892948150635,-0.04548370838165283
1.0407718307640492,-0.11480061902310564,-3.1061131748716084,1.0138707160949707,2.494450330734253,2.5292394161224365,-0.057910554111003876,-0.8627946972846985,-0.5022266507148743,0.8920475244522095,0.043931782245635986,-0.08474832773208618
1.0476567763434785,-0.13619987680378473,-3.0523142414695243,1.026382565498352,2.5218253135681152,2.638667345046997,-0.06783558428287506,-0.8662549257278442,-0.4949755370616913,0.7829844951629639,0.09252750873565674,-0.13538026809692383
1.0539478338894734,-0.1593397907090502,-2.9959065473843953,1.0388810634613037,2.6325604915618896,2.6994550228118896,-0.07840384542942047,-0.8693807721138,-0.487883061170578,0.680729329586029,0.11317044496536255,-0.18832537531852722
1.0596756696019922,-0.18293634933779565,-2.937618831762693,1.0578502416610718,2.7885639667510986,2.734339714050293,-0.08898597210645676,-0.8721968531608582,-0.4809929132461548,0.6045804619789124,0.12750691175460815,-0.24187690019607544
1.0649119854293088,-0.20621177539442284,-2.8778682477318753,1.0887559652328491,2.9727261066436768,2.7530465126037598,-0.0992196798324585,-0.8747462630271912,-0.47431477904319763,0.528586745262146,0.16525834798812866,-0.2943772077560425
1.0697914377102453,-0.22910900986254532,-2.816843366986533,1.1295387744903564,3.104538917541504,2.7706408500671387,-0.10908252745866776,-0.8771003484725952,-0.46775636076927185,0.45046740770339966,0.20913159847259521,-0.33540523052215576
1.074232602524215,-0.25267661214336523,-2.7543030597540965,1.1493148803710938,3.138427734375,2.809907913208008,-0.11910013109445572,-0.8792248368263245,-0.4612797796726227,0.3799186050891876,0.2165355682373047,-0.35802561044692993
1.07792757263116,-0.27753390300705105,-2.690454892167656,1.1413328647613525,3.100590705871582,2.826538562774658,-0.12963730096817017,-0.8809791207313538,-0.45504942536354065,0.30619674921035767,0.21342229843139648,-0.3692455291748047
1.0807841682906507,-0.30384750249867937,-2.6260536399960337,1.1406587362289429,2.9599688053131104,2.812401533126831,-0.1408115029335022,-0.882327139377594,-0.44907790422439575,0.2246280312538147,0.23176860809326172,-0.3875309228897095
1.0829613491266505,-0.3320022901573852,-2.561713356015136,1.1556075811386108,2.7504889965057373,2.7689828872680664,-0.1527712494134903,-0.8833497166633606,-0.4431188404560089,0.1491549015045166,0.2423279881477356,-0.4163476824760437
1.0847345761385798,-0.36130226318400144,-2.4983239968032906,1.1906797885894775,2.5841288566589355,2.6627509593963623,-0.16513322293758392,-0.8841794729232788,-0.43698713183403015,0.06729383766651154,0.2355588674545288,-0.4495331943035126
1.0868438748678748,-0.3900046607317316,-2.437036565268415,1.301673412322998,2.515456438064575,2.474447727203369,-0.1768966019153595,-0.8851628303527832,-0.4303421378135681,-0.02671670913696289,0.2287449836730957,-0.4871687889099121
1.0903238324997613,-0.41630941665143717,-2.3785792679286852,1.4570178985595703,2.591109275817871,2.2139322757720947,-0.1869073510169983,-0.8867766261100769,-0.4227207899093628,-0.11356869339942932,0.2288176417350769,-0.5110712647438049
1.0956343795064765,-0.43713713238876284,-2.3241915296452054,1.5578417778015137,2.9281299114227295,1.8763631582260132,-0.19367405772209167,-0.8892186284065247,-0.41446414589881897,-0.1696682572364807,0.22826892137527466,-0.5038250088691711
1.1023417485670908,-0.4473704527185855,-2.275857376222486,1.505614995956421,3.6629292964935303,1.5119473934173584,-0.19532054662704468,-0.892267107963562,-0.40707382559776306,-0.19058950245380402,0.2347354292869568,-0.46177682280540466
1.1092844086990257,-0.4429959083014765,-2.2349756346824,1.2987068891525269,4.49623966217041,1.1966959238052368,-0.19087791442871094,-0.8953802585601807,-0.4023177921772003,-0.16179847717285156,0.22539746761322021,-0.387614369392395
1.1148410237655892,-0.4237567135710261,-2.202145562222918,0.9005920886993408,5.154263496398926,0.9813975691795349,-0.18105429410934448,-0.8978407979011536,-0.4013741910457611,-0.10205726325511932,0.20141440629959106,-0.2795034348964691
1.116946391427411,-0.3931249518517117,-2.176581404844096,0.3638050854206085,5.466019630432129,0.9240961670875549,-0.16795195639133453,-0.8987658619880676,-0.4049839675426483,-0.0016800463199615479,0.17261534929275513,-0.1631007194519043
1.1142020268667483,-0.3581210196240419,-2.155336463371737,-0.17507901787757874,5.268021106719971,1.0256140232086182,-0.15453989803791046,-0.8975592255592346,-0.4129221439361572,0.11216622591018677,0.1664954423904419,-0.110881507396698
1.1068155572735263,-0.3269244196371198,-2.133879358731332,-0.5530909895896912,4.752969264984131,1.2667800188064575,-0.143710196018219,-0.8942781686782837,-0.4238087832927704,0.2218962013721466,0.1877504587173462,-0.14940279722213745
1.0961623992641678,-0.3054924089724428,-2.108533001513882,-0.7334274053573608,3.999204397201538,1.56480872631073,-0.13745246827602386,-0.8894600868225098,-0.43585267663002014,0.29120001196861267,0.22219324111938477,-0.24029475450515747
1.0841107798767753,-0.2970761952053685,-2.077863503813617,-0.6964550018310547,3.097381114959717,1.8425753116607666,-0.13690748810768127,-0.8838878870010376,-0.44721198081970215,0.3147791624069214,0.2532268762588501,-0.3460771441459656
1.0725746357543047,-0.3017396077624864,-2.0418424928742693,-0.4879758059978485,2.331883192062378,2.072404146194458,-0.14201247692108154,-0.8784337639808655,-0.45627471804618835,0.30456432700157166,0.270294725894928,-0.45256924629211426
1.062676762010826,-0.3164712093575929,-2.0014964376788424,-0.2021014541387558,1.8090485334396362,2.2132692337036133,-0.15141700208187103,-0.8736609220504761,-0.4623735547065735,0.27910250425338745,0.28265756368637085,-0.5352612733840942
1.055143975911916,-0.3374901808121543,-1.9581412644143408,0.13885009288787842,1.5835975408554077,2.269695520401001,-0.1632760465145111,-0.8699712157249451,-0.46528592705726624,0.23754054307937622,0.31519216299057007,-0.5862582325935364
1.0498564974743876,-0.3599651306517331,-1.9131969538891038,0.3550231158733368,1.763924241065979,2.2515921592712402,-0.17530909180641174,-0.8673518300056458,-0.4657978415489197,0.19418416917324066,0.34853774309158325,-0.6022868156433105
1.045112458117352,-0.3793425322718829,-1.8685787112998566,0.3585442006587982,2.0626087188720703,2.236722469329834,-0.18582315742969513,-0.8649809956550598,-0.46613040566444397,0.17166297137737274,0.3625243902206421,-0.5881602764129639
1.039975004019319,-0.3958056679375504,-1.8247080549685892,0.3682732582092285,2.1897757053375244,2.2261321544647217,-0.19518235325813293,-0.8623915910720825,-0.4671022593975067,0.15441083908081055,0.3874770998954773,-0.5913388729095459
1.0352828036286155,-0.4110521411335809,-1.7816195664558647,0.5049228072166443,2.1499860286712646,2.1475296020507812,-0.20389573276042938,-0.8600066900253296,-0.4677766263484955,0.0994950532913208,0.4416106939315796,-0.6446043252944946
1.0326759515864694,-0.42579236813747545,-1.7398682280073534,0.7634057998657227,2.0648818016052246,1.938070297241211,-0.21169377863407135,-0.8586735725402832,-0.46676069498062134,-0.02950194478034973,0.4635014533996582,-0.7199915647506714
1.03376529346703,-0.43949853679149137,-1.7001859012074623,1.1539404392242432,1.9908459186553955,1.6491678953170776,-0.21767306327819824,-0.8592313528060913,-0.4629686176776886,-0.15111666917800903,0.4295133352279663,-0.7658368945121765
1.039887135434082,-0.45334818441218905,-1.6612199688994225,1.6632263660430908,1.94162917137146,1.4019967317581177,-0.22175592184066772,-0.8623470664024353,-0.45517224073410034,-0.16325385868549347,0.3915982246398926,-0.7836124897003174
1.0512557753090528,-0.46886640513063915,-1.6206286067741353,2.160588264465332,1.9668183326721191,1.2301465272903442,-0.22434774041175842,-0.8680473566055298,-0.4429017901420593,-0.11088794469833374,0.3947349190711975,-0.7549741864204407
1.0669189473236658,-0.4870891052791071,-1.5770702622876047,2.550279140472412,1.963066577911377,1.1217265129089355,-0.22598882019519806,-0.875717043876648,-0.4266718327999115,-0.0804382860660553,0.4157711863517761,-0.6631106734275818
1.0852278788121967,-0.5096142224906131,-1.529634970352187,2.778813600540161,1.8559849262237549,1.0863550901412964,-0.22768065333366394,-0.8844097852706909,-0.4074075222015381,-0.06324347853660583,0.4241284132003784,-0.5257742404937744
1.1040797234397108,-0.5375387415908888,-1.4782819525908055,2.7870571613311768,1.6685775518417358,1.106261134147644,-0.23038820922374725,-0.893050491809845,-0.3864997327327728,-0.043888553977012634,0.40595948696136475,-0.3527427613735199
1.1209056941243853,-0.5697896432337783,-1.4246531077188487,2.517014741897583,1.5064780712127686,1.157104730606079,-0.23459118604660034,-0.9004946947097778,-0.36616435647010803,-0.025830626487731934,0.39164459705352783,-0.17845231294631958
1.1334325801467162,-0.6024341586954733,-1.3719811830832906,2.044752836227417,1.4830864667892456,1.2156904935836792,-0.24000610411167145,-0.9058713912963867,-0.3489900231361389,-0.017989546060562134,0.389712393283844,-0.05332311987876892
1.1410723342558937,-0.6318042401174987,-1.323101543964695,1.5825029611587524,1.5050410032272339,1.2335115671157837,-0.2460564374923706,-0.9090808033943176,-0.33619698882102966,-0.05020827054977417,0.36678338050842285,-0.01492297649383545
1.1452109905616044,-0.6566229087908015,-1.2791338545862492,1.2818264961242676,1.5263051986694336,1.1667263507843018,-0.25202497839927673,-0.9107972383499146,-0.3270045518875122,-0.13196253776550293,0.3175048828125,-0.049826472997665405
1.147890145854317,-0.6770833377169224,-1.2398201202062697,1.1496727466583252,1.5390733480453491,1.0307910442352295,-0.25713256001472473,-0.9119000434875488,-0.3198767900466919,-0.21459293365478516,0.27350282669067383,-0.11573106050491333
1.1505045751628151,-0.6939063666376792,-1.2040281364297494,1.108458161354065,1.6334166526794434,0.8978453874588013,-0.26095160841941833,-0.9129699468612671,-0.31367215514183044,-0.25050780177116394,0.2621062397956848,-0.17299166321754456
1.153603403953904,-0.7070077451098722,-1.1709219591218671,1.100123405456543,1.7845001220703125,0.7519199848175049,-0.2631995677947998,-0.9142299294471741,-0.30807387828826904,-0.2688134014606476,0.25765955448150635,-0.2073221504688263
1.1576215384832862,-0.716949737721851,-1.1397997255704806,1.1532459259033203,1.900406837463379,0.6248509287834167,-0.2638333737850189,-0.9158506989479065,-0.30267032980918884,-0.28378936648368835,0.24772942066192627,-0.22496330738067627
1.162788306731291,-0.7258536838893733,-1.1090470984415022,1.229310393333435,1.9349825382232666,0.5393142700195312,-0.2633735239505768,-0.917913019657135,-0.2967662215232849,-0.2733239233493805,0.242620050907135,-0.2293415665626526
1.1685559889936756,-0.7348067400517709,-1.0781954455496892,1.232924461364746,1.9303979873657227,0.5069829821586609,-0.2624659538269043,-0.9201862812042236,-0.29046332836151123,-0.24705559015274048,0.22946667671203613,-0.203280508518219
1.173957636748787,-0.7435711577579068,-1.0476909377055978,1.1466119289398193,1.911900281906128,0.5185335874557495,-0.26163285970687866,-0.9222874641418457,-0.28448882699012756,-0.21344956755638123,0.22518980503082275,-0.16939905285835266
1.178259953306516,-0.7519195454526021,-1.018371679428001,1.0039738416671753,1.8108232021331787,0.5438248515129089,-0.26128634810447693,-0.9239417910575867,-0.27939435839653015,-0.21201083064079285,0.21884828805923462,-0.15174278616905212
1.18137765840508,-0.7599453114016328,-0.9908457262206941,0.8908467888832092,1.6552062034606934,0.5451834201812744,-0.26153430342674255,-0.9251298904418945,-0.27519863843917847,-0.23770278692245483,0.20485413074493408,-0.15342071652412415
1.1839245779580243,-0.7680495274985218,-0.9651167836942477,0.8201074004173279,1.4823747873306274,0.4997815191745758,-0.2621184289455414,-0.9260938763618469,-0.27137473225593567,-0.2779664695262909,0.19594556093215942,-0.18011754751205444
1.1863813205587308,-0.775886587228379,-0.9411834644927888,0.7907843589782715,1.3857276439666748,0.44639021158218384,-0.26264283061027527,-0.9270179867744446,-0.26768723130226135,-0.3010474145412445,0.18579179048538208,-0.20614391565322876
1.1890113792568062,-0.7838077366560544,-0.9179821121601162,0.8036786317825317,1.3260339498519897,0.41905874013900757,-0.2630327343940735,-0.9280011057853699,-0.2638707160949707,-0.2841627597808838,0.20030945539474487,-0.2331538200378418
1.191995859544459,-0.7929025247989996,-0.8941492727236151,0.8715814352035522,1.2763996124267578,0.40428775548934937,-0.2634473443031311,-0.9291089177131653,-0.2595227062702179,-0.2570604979991913,0.20077645778656006,-0.25301995873451233
1.1955751681344269,-0.8039284414428699,-0.8686492013111963,0.9706954956054688,1.2537370920181274,0.3880206346511841,-0.2638963758945465,-0.9304265975952148,-0.2542930841445923,-0.24496904015541077,0.1913977861404419,-0.2617743909358978
1.1999024613617706,-0.8166399285572031,-0.8413112561066186,1.0584793090820312,1.2947800159454346,0.358126699924469,-0.2641706168651581,-0.9320037364959717,-0.24815931916236877,-0.2509051263332367,0.1883055567741394,-0.250803142786026
1.2046814224084534,-0.8302677226432315,-0.8125133589859753,1.0967518091201782,1.3425662517547607,0.35041818022727966,-0.2642371356487274,-0.9337252378463745,-0.24152842164039612,-0.24905329942703247,0.1853426694869995,-0.225832998752594
1.2093882541632655,-0.8443468712608553,-0.7829728752088925,1.0862929821014404,1.3433377742767334,0.35878077149391174,-0.26432302594184875,-0.9353998899459839,-0.2348625510931015,-0.23964431881904602,0.1741389036178589,-0.1950080394744873
1.2138489225854738,-0.8594563658993957,-0.7528764441815794,1.0894584655761719,1.2608603239059448,0.3588430881500244,-0.2646781802177429,-0.9369677901268005,-0.22811587154865265,-0.23811423778533936,0.1595172882080078,-0.17465507984161377
1.218217563847135,-0.8759793468096554,-0.7221592444709841,1.093209147453308,1.1920206546783447,0.35238945484161377,-0.2652640640735626,-0.938485324382782,-0.22108876705169678,-0.24399808049201965,0.15532803535461426,-0.16590464115142822
1.2222949939480943,-0.8932366720544513,-0.6913352398562139,1.0505748987197876,1.1394339799880981,0.35497725009918213,-0.2660560607910156,-0.9398855566978455,-0.21407753229141235,-0.24494552612304688,0.15279150009155273,-0.15002767741680145
1.2258276967854465,-0.9101606799169266,-0.6615047221513888,0.9724452495574951,1.0795376300811768,0.34110602736473083,-0.2670174837112427,-0.9410860538482666,-0.20750567317008972,-0.2444724142551422,0.14222747087478638,-0.1235947459936142
1.2291363217883138,-0.9262283410607066,-0.6332890842253943,0.9438828229904175,1.0175278186798096,0.2807694375514984,-0.2678266167640686,-0.9421997666358948,-0.20131678879261017,-0.25887632369995117,0.14363110065460205,-0.10987097024917603
1.2328163257289957,-0.9422257461015049,-0.6057053378574211,0.9725745916366577,0.982678234577179,0.22069914638996124,-0.2682063579559326,-0.9434263706207275,-0.1949666440486908,-0.26011401414871216,0.15851432085037231,-0.11936444044113159
1.2369803076518617,-0.9591705456339416,-0.5771780210620875,1.0385562181472778,1.0173687934875488,0.2010713815689087,-0.26825299859046936,-0.9447988867759705,-0.1881369799375534,-0.22968712449073792,0.15553796291351318,-0.12486657500267029
1.2413493916125893,-0.9777722138156731,-0.5462285126622332,1.1094952821731567,1.10628080368042,0.22404174506664276,-0.26828041672706604,-0.9462214112281799,-0.18080608546733856,-0.18611115217208862,0.13140201568603516,-0.11893756687641144
1.2455891630005018,-0.998686270763424,-0.5120450289886673,1.1827318668365479,1.169581413269043,0.2758423686027527,-0.2686273455619812,-0.9475845694541931,-0.17298246920108795,-0.15546023845672607,0.10952609777450562,-0.10149264335632324
1.2490322905772997,-1.0202586080711464,-0.4769216977527199,1.0293798446655273,1.1487551927566528,0.3230482339859009,-0.2695140838623047,-0.9486790299415588,-0.16543996334075928,-0.1307545304298401,0.09871876239776611,0.03944814205169678
1.2506830902479413,-1.0364987228289946,-0.44840808804020765,0.6431453227996826,1.0046364068984985,0.3150235712528229,-0.2708168029785156,-0.9491997957229614,-0.16024355590343475,-0.12551498413085938,0.0802423357963562,0.24650152027606964
1.250324903411011,-1.0420632165410875,-0.43220263485389715,0.21374930441379547,0.9569442868232727,0.24809354543685913,-0.2719980478286743,-0.9490870237350464,-0.1589057445526123,-0.19164028763771057,0.07698619365692139,0.2758338451385498
1.2488971219916538,-1.0370801923190784,-0.4276419558725242,-0.09478695690631866,0.906482458114624,0.14066536724567413,-0.2723691761493683,-0.9486362934112549,-0.16094835102558136,-0.2193301022052765,0.05242651700973511,0.28109610080718994
1.247180274163567,-1.024922802132026,-0.4307145791001302,-0.22282196581363678,0.9466384649276733,0.05821056291460991,-0.271783709526062,-0.9480917453765869,-0.1650928109884262,-0.21159952878952026,0.036806344985961914,0.1766895055770874
1.2458566413714636,-1.0108555113184337,-0.43533476037207613,-0.14429892599582672,0.980809211730957,0.014580794610083103,-0.2704976797103882,-0.9476699829101562,-0.1695660799741745,-0.1848093867301941,0.018043577671051025,0.05005925893783569
1.2456156032327923,-0.9991006614587574,-0.4370273156151443,0.033856142312288284,1.0586628913879395,-0.034109003841876984,-0.26867806911468506,-0.9475930333137512,-0.17285765707492828,-0.17297238111495972,0.00571364164352417,-0.0684906393289566
1.246890457740565,-0.9906181309656821,-0.43410020797916293,0.2710154056549072,1.1788949966430664,-0.07680906355381012,-0.2661912441253662,-0.9479995369911194,-0.17446790635585785,-0.17600849270820618,0.01538240909576416,-0.16795454919338226
1.2499605191414649,-0.9881468748289459,-0.424162330115362,0.6001805067062378,1.1886117458343506,-0.09009046852588654,-0.26332786679267883,-0.9489721655845642,-0.17352299392223358,-0.15235212445259094,0.044888973236083984,-0.2425384521484375
1.2549624885028228,-0.9926570873666917,-0.40679909290111416,0.8150613903999329,1.1910427808761597,-0.1609680950641632,-0.2601292133331299,-0.9505377411842346,-0.16973748803138733,-0.1893795132637024,0.04265505075454712,-0.23025643825531006
1.2612703277691084,-0.9997792937878509,-0.3875807754697624,0.8492456674575806,1.0086784362792969,-0.2465595155954361,-0.2562814950942993,-0.9524780511856079,-0.16463635861873627,-0.23938500881195068,-0.002126932144165039,-0.13782332837581635
1.267905395846559,-1.0090220912743442,-0.36842949317307017,0.8174040913581848,0.7891037464141846,-0.2421112358570099,-0.25243833661079407,-0.9544781446456909,-0.1588907241821289,-0.2022888958454132,-0.0006151795387268066,-0.0687093734741211
1.2738317368630148,-1.0191341964641745,-0.35073007595525557,0.6848540902137756,0.5748726725578308,-0.209151029586792,-0.2492101490497589,-0.9562290906906128,-0.15336254239082336,-0.15330149233341217,-0.008965492248535156,-0.0019261091947555542
1.2786637752191863,-1.0280139600952196,-0.3359558304293601,0.5483697652816772,0.4944145977497101,-0.17039377987384796,-0.24660302698612213,-0.9576318860054016,-0.14875540137290955,-0.13961225748062134,-0.02813166379928589,0.04003649950027466
1.2824667041937465,-1.0339604428681801,-0.3246661646436714,0.38565579056739807,0.4773115813732147,-0.1502918004989624,-0.24435214698314667,-0.9587202072143555,-0.14542293548583984,-0.1337454617023468,-0.03467285633087158,0.06232355535030365
1.2851499338629675,-1.035086717847223,-0.3183537160308341,0.18855765461921692,0.5103635191917419,-0.12960569560527802,-0.24230283498764038,-0.9594796895980835,-0.14383400976657867,-0.1282416731119156,-0.03450840711593628,0.08362279832363129
1.2867345698275339,-1.030233486435075,-0.3178890469131198,0.0054067643359303474,0.5446574687957764,-0.13458552956581116,-0.24029774963855743,-0.9599249958992004,-0.14422549307346344,-0.14141616225242615,-0.031545281410217285,0.08273255825042725
1.2877610504995602,-1.0203006796623209,-0.3224131535316172,-0.10363317281007767,0.5729756951332092,-0.1774381846189499,-0.238013356924057,-0.9602121710777283,-0.1460895985364914,-0.17524050176143646,-0.03801774978637695,0.05584913492202759
1.2889317263839462,-1.0066339997826468,-0.33052805539041574,-0.14799053966999054,0.5920838117599487,-0.2635332942008972,-0.23504455387592316,-0.9605384469032288,-0.14872753620147705,-0.20652958750724792,-0.025759100914001465,0.021560728549957275
1.290750425550513,-0.9899129441120775,-0.3414720886775815,-0.1610243171453476,0.6516706943511963,-0.3668588697910309,-0.23106396198272705,-0.9610427618026733,-0.1516777127981186,-0.22460928559303284,0.0035691261291503906,-0.010446891188621521
1.2932544504006827,-0.9701847404909024,-0.3549860634058273,-0.17538714408874512,0.6784942150115967,-0.4585101902484894,-0.22604086995124817,-0.9617318511009216,-0.15484590828418732,-0.2169828563928604,0.013352394104003906,-0.020752176642417908
1.2961680436933698,-0.9485842137137912,-0.3706471329192503,-0.18540704250335693,0.6165597438812256,-0.4980035424232483,-0.22036585211753845,-0.9625260829925537,-0.1580582559108734,-0.17999430000782013,0.014146625995635986,-0.01726524531841278
1.2991043026183418,-0.9271180779594681,-0.38708273554455597,-0.1739896982908249,0.5036183595657349,-0.4924147129058838,-0.21466119587421417,-0.9633182287216187,-0.1610553115606308,-0.13206437230110168,0.0234529972076416,-0.0225231796503067
1.3019922930735737,-0.9077418214984798,-0.40269898557969563,-0.13305611908435822,0.3531225919723511,-0.47055041790008545,-0.20930707454681396,-0.9640892148017883,-0.16347110271453857,-0.1025368869304657,0.02130955457687378,-0.02735532820224762
1.3049875803274176,-0.8912373063257791,-0.41697794521355663,-0.08789204061031342,0.19499264657497406,-0.46310338377952576,-0.20433342456817627,-0.9648803472518921,-0.16508758068084717,-0.0894746482372284,0.010244667530059814,-0.028271809220314026
1.3079439947386602,-0.8769667143978863,-0.4302375245430366,-0.07683645933866501,0.11522936075925827,-0.4273086488246918,-0.19976283609867096,-0.9656527638435364,-0.1661616861820221,-0.06207805871963501,0.013626396656036377,-0.020743191242218018
1.3104155881765864,-0.8639382084543404,-0.4425328363047666,-0.09357383847236633,0.11639092862606049,-0.3601994216442108,-0.19576513767242432,-0.9662920236587524,-0.16719914972782135,-0.02115383744239807,0.020033597946166992,-0.00708673894405365
1.312236994210771,-0.8515322659713456,-0.4542026843328355,-0.1209053322672844,0.10688477754592896,-0.3088848292827606,-0.19235193729400635,-0.9667593240737915,-0.16845542192459106,-0.011780187487602234,0.01950901746749878,0.009306192398071289
1.3135961005039145,-0.8391367952194555,-0.46601336156911666,-0.14940448105335236,0.0834457203745842,-0.297561377286911,-0.18927137553691864,-0.9671059846878052,-0.1699487715959549,-0.03925958275794983,0.016147613525390625,0.025295421481132507
1.3148276678853852,-0.8254881031681294,-0.47955755314735726,-0.1965448260307312,0.026735030114650726,-0.34756702184677124,-0.1860586255788803,-0.9674184918403625,-0.1717080920934677,-0.07869668304920197,0.009990513324737549,0.048081398010253906
1.3158839521940107,-0.8086167072240957,-0.4966864239546717,-0.2925390899181366,0.045869022607803345,-0.3936266601085663,-0.18239592015743256,-0.9676854014396667,-0.17411671578884125,-0.08893594145774841,0.015933752059936523,0.06713736057281494
1.3163805855613804,-0.7870182908260964,-0.5181391810449174,-0.4071953594684601,0.11723880469799042,-0.4309671223163605,-0.17825299501419067,-0.9678105115890503,-0.17767634987831116,-0.0783846378326416,0.019980311393737793,0.07596123218536377
1.3162799660623379,-0.761008893934251,-0.543618500281478,-0.4937000572681427,0.14097361266613007,-0.470117449760437,-0.173638716340065,-0.9677851796150208,-0.18232205510139465,-0.07259242236614227,0.014202535152435303,0.06630946695804596
1.3157409101897146,-0.7328387725740335,-0.5714638119538259,-0.5272630453109741,0.09766742587089539,-0.47874608635902405,-0.1687835305929184,-0.9676493406295776,-0.1875283271074295,-0.05129404366016388,0.023939073085784912,0.037625983357429504
1.3148557649617179,-0.7050447588667936,-0.5993202131388492,-0.5266402959823608,0.07798626273870468,-0.4607527554035187,-0.16406206786632538,-0.9674256443977356,-0.1927989423274994,-0.019714832305908203,0.035601913928985596,0.005436241626739502
1.3138257865339058,-0.6784950022222271,-0.6257953002574769,-0.479705810546875,0.11137085407972336,-0.43837395310401917,-0.15951107442378998,-0.9671643376350403,-0.19786153733730316,0.0023607462644577026,0.039552152156829834,-0.026473209261894226
1.3130459156086105,-0.6539861268495348,-0.6498546165857931,-0.39283767342567444,0.13795824348926544,-0.42694419622421265,-0.15507301688194275,-0.9669658541679382,-0.20230960845947266,0.013349339365959167,0.03740054368972778,-0.053626030683517456
1.3128851971627813,-0.6319065664561706,-0.6712920227781968,-0.2865109443664551,0.12710025906562805,-0.42828747630119324,-0.15066048502922058,-0.9669249057769775,-0.20580938458442688,0.011713907122612,0.029165565967559814,-0.07035939395427704
1.3134324896910516,-0.6122636240953953,-0.6903484740996594,-0.19222694635391235,0.11787713319063187,-0.4229249060153961,-0.14628474414348602,-0.9670643210411072,-0.20829571783542633,0.011992081999778748,0.020912766456604004,-0.07295426726341248
1.3145452749902202,-0.5943811121126816,-0.7075404870552179,-0.11889468878507614,0.13057668507099152,-0.4194801151752472,-0.14193446934223175,-0.9673469662666321,-0.20998722314834595,0.012158393859863281,0.02470475435256958,-0.07327693700790405
1.3162113741326689,-0.5782551052067344,-0.723008427940196,-0.034219544380903244,0.08837669342756271,-0.4166829288005829,-0.13764852285385132,-0.9677678942680359,-0.2108982503414154,0.003371119499206543,0.032861948013305664,-0.07682144641876221
1.3185069335670219,-0.5641153688638438,-0.7371918852676455,0.03307374194264412,-0.012952327728271484,-0.4317929148674011,-0.13346467912197113,-0.9683434963226318,-0.2109455168247223,-0.01894015073776245,0.03600102663040161,-0.07448534667491913
1.3213645261580251,-0.5512635873479867,-0.7511015772231451,0.08265971392393112,-0.1068195030093193,-0.4506188929080963,-0.12929272651672363,-0.9690528512001038,-0.210285022854805,-0.02717094123363495,0.03294152021408081,-0.06402221322059631
1.3245333282443208,-0.5393941705117845,-0.7647747812030699,0.109099842607975,-0.16710521280765533,-0.4470182955265045,-0.12520994246006012,-0.9698302149772644,-0.20916905999183655,-0.012363359332084656,0.029339611530303955,-0.05718836188316345
1.3278266699841454,-0.5289134684573389,-0.7776082998997919,0.14181703329086304,-0.22917386889457703,-0.42142483592033386,-0.12139881402254105,-0.9706277847290039,-0.20771165192127228,0.0026548579335212708,0.019013404846191406,-0.053869783878326416
1.3313273275689046,-0.5204761028453168,-0.7890416553025897,0.1862361580133438,-0.3001750707626343,-0.4018663167953491,-0.11795113235712051,-0.9714640378952026,-0.20577865839004517,0.004395186901092529,0.014829695224761963,-0.052995115518569946
1.335020675273909,-0.5135602944479739,-0.7995251470608423,0.20840910077095032,-0.3508567214012146,-0.3942108750343323,-0.11476193368434906,-0.9723334312438965,-0.2034633457660675,0.0016027018427848816,0.02181774377822876,-0.04855084419250488
1.3388595139132586,-0.5070508986005712,-0.8099574586961247,0.22093048691749573,-0.3741258382797241,-0.4014597535133362,-0.11162177473306656,-0.9732230305671692,-0.20094172656536102,-0.0014153942465782166,0.01785498857498169,-0.03929263353347778
1.342769401712688,-0.5002410396436953,-0.8208108299033449,0.22370310127735138,-0.3692778944969177,-0.40684452652931213,-0.10842481255531311,-0.9741142988204956,-0.19835664331912994,-0.002216719090938568,0.007225930690765381,-0.03604888916015625
1.3466696808210743,-0.4929624151162851,-0.8319106341251752,0.2243020385503769,-0.3306351602077484,-0.40053415298461914,-0.1051795557141304,-0.974988579750061,-0.19579239189624786,0.0001837611198425293,0.01150280237197876,-0.03922352194786072
1.3505995805645599,-0.48535084178236765,-0.8429113612882674,0.24275514483451843,-0.29688331484794617,-0.3929041028022766,-0.10189785063266754,-0.9758545160293579,-0.19319655001163483,-0.008118078112602234,0.01827394962310791,-0.04587817192077637
1.3546401685130953,-0.4783640052456439,-0.853105865515788,0.2703995406627655,-0.29826417565345764,-0.3709860146045685,-0.09872962534427643,-0.9767290949821472,-0.19040174782276154,-0.01679471880197525,0.008833587169647217,-0.05044299364089966
1.358824884338051,-0.47251847024983934,-0.8621467986825595,0.2949742376804352,-0.29555803537368774,-0.3495628833770752,-0.09575357288122177,-0.9776180386543274,-0.18733398616313934,-0.020381122827529907,0.004885613918304443,-0.04803280532360077
1.3631029253477538,-0.4679272259220733,-0.869912294951396,0.3176124393939972,-0.30770471692085266,-0.32226040959358215,-0.09300519526004791,-0.9785091280937195,-0.18403713405132294,-0.022183455526828766,0.01587808132171631,-0.04466162621974945
1.3674239534689583,-0.465138804736696,-0.8761221823464602,0.33773839473724365,-0.35026413202285767,-0.28930047154426575,-0.09059417992830276,-0.9793910384178162,-0.18051490187644958,-0.019055522978305817,0.027929365634918213,-0.03950159251689911
1.3717685175712042,-0.4648286630309676,-0.8804042750284959,0.3591344952583313,-0.42310452461242676,-0.25328361988067627,-0.08863025158643723,-0.9802592396736145,-0.17673835158348083,-0.016380779445171356,0.04315602779388428,-0.03082697093486786
1.376132938142876,-0.4668232660420272,-0.8829854525053776,0.37223318219184875,-0.47760435938835144,-0.2319006770849228,-0.08705636858940125,-0.9811128377914429,-0.1727391481399536,-0.018549762666225433,0.05368363857269287,-0.026098132133483887
1.3805829761667845,-0.4701344543051387,-0.8846874012819094,0.3891357183456421,-0.50726318359375,-0.2267911434173584,-0.08564909547567368,-0.9819639325141907,-0.16855576634407043,-0.021467655897140503,0.034469425678253174,-0.028496265411376953
1.3851171950345802,-0.47426542480653183,-0.8854699076952461,0.40250492095947266,-0.45835158228874207,-0.20745085179805756,-0.08431024849414825,-0.9828110933303833,-0.16423745453357697,-0.019464820623397827,0.0067980289459228516,-0.03530167043209076
1.3896359718458327,-0.47939517833885503,-0.8845876090527773,0.4109407365322113,-0.3932548761367798,-0.17826206982135773,-0.08310235291719437,-0.9836353063583374,-0.15986070036888123,-0.014813341200351715,0.004433155059814453,-0.03665719926357269
1.3939981600775733,-0.4855356728621053,-0.8821098198559025,0.39873600006103516,-0.34631192684173584,-0.15088330209255219,-0.0820789784193039,-0.984411895275116,-0.15555062890052795,-0.00826834887266159,0.020285487174987793,-0.025128692388534546
1.3980771231774483,-0.49158314494691463,-0.8792495028095636,0.36315563321113586,-0.2916124761104584,-0.14549893140792847,-0.08112247288227081,-0.9851210713386536,-0.15151087939739227,-0.009118057787418365,0.03050076961517334,-0.008538588881492615
1.4017807785290364,-0.49597330014628516,-0.8772446645622092,0.32005932927131653,-0.18290583789348602,-0.1411622166633606,-0.08005005866289139,-0.9857508540153503,-0.14794346690177917,-0.01353214681148529,0.020952880382537842,-0.0044307708740234375
1.4050256238231977,-0.49854962979735734,-0.8759131650920147,0.2701959013938904,-0.0798654705286026,-0.12571561336517334,-0.07890074700117111,-0.9862914681434631,-0.1449260413646698,-0.016909241676330566,0.01938796043395996,-0.0010547339916229248
1.4077769763571708,-0.5004360010482805,-0.8748778896421294,0.22767174243927002,-0.10912060737609863,-0.1074381098151207,-0.07787171751260757,-0.9867417216300964,-0.14239563047885895,-0.014413490891456604,0.02699458599090576,0.011429458856582642
1.4100562567389658,-0.5030610019284086,-0.8738338056906289,0.18585611879825592,-0.21017666161060333,-0.08073512464761734,-0.07716074585914612,-0.9871091246604919,-0.14021994173526764,-0.018817082047462463,0.036013662815093994,0.02089621126651764
1.411772202558824,-0.5067192951166923,-0.8726620919573306,0.12650687992572784,-0.2855510413646698,-0.04918611794710159,-0.07685105502605438,-0.9873822927474976,-0.13845553994178772,-0.014793284237384796,0.04382467269897461,0.026059284806251526
1.4127209158500194,-0.5108348304137401,-0.8715403491443802,0.058888692408800125,-0.3086300194263458,-0.010866690427064896,-0.07696250826120377,-0.9875320792198181,-0.13732141256332397,-0.008303672075271606,0.043653905391693115,0.024879395961761475
1.4129664207087143,-0.5153759826151817,-0.8700296325848482,0.014191263355314732,-0.29583537578582764,0.026125416159629822,-0.07746574282646179,-0.9875707030296326,-0.136759415268898,-0.004931777715682983,0.03772634267807007,0.014567017555236816
1.412829256077608,-0.5205781552039507,-0.867643554910448,0.0062443907372653484,-0.2702184319496155,0.047869324684143066,-0.07824324816465378,-0.9875491261482239,-0.13647162914276123,-0.009326986968517303,0.03289836645126343,0.0036896616220474243
1.412669491838875,-0.5257544885514368,-0.8648708796318166,0.011134283617138863,-0.21093007922172546,0.04136571288108826,-0.07902813702821732,-0.9875239729881287,-0.13620182871818542,-0.013211295008659363,0.027303695678710938,-0.004621565341949463
1.4126715821132882,-0.5298160837824113,-0.8624386526952059,0.026662908494472504,-0.11575695872306824,0.026863466948270798,-0.07957969605922699,-0.9875243306159973,-0.1358780562877655,-0.012903876602649689,0.020178139209747314,-0.0071272701025009155
1.41280880687621,-0.5325912856349647,-0.86004108337571,0.03216137737035751,0.04549656808376312,0.021276436746120453,-0.07988762855529785,-0.987545907497406,-0.13553987443447113,-0.012000858783721924,0.016797006130218506,-0.011448085308074951
1.4129707459339385,-0.5328915348956643,-0.858153266447645,0.02311408706009388,0.2686564326286316,0.009719649329781532,-0.07984677702188492,-0.9875713586807251,-0.13537761569023132,-0.005678780376911163,0.02071356773376465,-0.011289820075035095
1.4130795018076658,-0.5297339559313703,-0.8574644649128768,0.006326345261186361,0.49537158012390137,-0.003610589075833559,-0.07936464250087738,-0.9875884652137756,-0.13553638756275177,-0.003231234848499298,0.025521934032440186,-0.00247935950756073
1.413148992368782,-0.5229617705382102,-0.8581866388590503,-0.007809447590261698,0.7110927104949951,-0.020497161895036697,-0.0784105733036995,-0.9875993728637695,-0.13601110875606537,0.004054442048072815,0.017933964729309082,0.009012177586555481
1.4131175590363083,-0.5131230036895378,-0.8600280165803816,-0.026820698752999306,0.8703553676605225,-0.03222709894180298,-0.0770842507481575,-0.9875944256782532,-0.13680371642112732,0.017941132187843323,0.0010526776313781738,0.028741002082824707
1.413131638191616,-0.5006410111051517,-0.8637926297176606,-0.029504364356398582,0.8500985503196716,-0.08026014268398285,-0.07536429911851883,-0.9875966310501099,-0.1377434879541397,0.007493145763874054,-0.026517748832702637,0.053637027740478516
1.413374697718184,-0.48470746175348906,-0.8721949440294043,-0.05985008925199509,0.658659040927887,-0.17818959057331085,-0.07304824888706207,-0.9876347780227661,-0.13871441781520844,-0.030909933149814606,-0.04764366149902344,0.08390484750270844
1.413401754072651,-0.4644551639867212,-0.8870981997741112,-0.1562836915254593,0.453225702047348,-0.2316719889640808,-0.07021205872297287,-0.9876390099525452,-0.1401410698890686,-0.03769814968109131,-0.034669339656829834,0.1147657036781311
