attitudeX,attitudeY,attitudeZ,gyroX,gyroY,gyroZ,gravityX,gravityY,gravityZ,accX,accY,accZ
0.9182703020934158,-0.5818044500668236,1.429283287467447,0.18498729169368744,-0.031912751495838165,-0.05071238428354263,-0.33367353677749634,-0.7945525646209717,-0.5072950124740601,0.014749646186828613,0.00753474235534668,-0.06147640943527222
0.9198495814999559,-0.5828694414047019,1.4302602712524637,0.13707678020000458,-0.024675050750374794,-0.025217238813638687,-0.3335225284099579,-0.795510470867157,-0.5058910846710205,0.024898290634155273,0.0002529621124267578,-0.002592802047729492
0.9207685261249153,-0.5835709025930929,1.4308569274829048,0.053542736917734146,-0.021982595324516296,-0.01741604134440422,-0.333474338054657,-0.7960669994354248,-0.5050467252731323,0.00980493426322937,-0.008940935134887695,0.04191190004348755
0.920866836654753,-0.5838328298605462,1.4307869935491802,-0.039483778178691864,-0.04317645728588104,-0.001491454429924488,-0.33356350660324097,-0.7961264848709106,-0.5048940777778625,-0.0017178058624267578,-0.015046000480651855,0.06478476524353027
0.9202768020032708,-0.5837628364371852,1.4300904965775871,-0.09998813271522522,-0.0486399307847023,-0.00657249940559268,-0.3337869644165039,-0.7957692742347717,-0.5053092837333679,-0.008223474025726318,-0.019400954246520996,0.059432148933410645
0.9193896017625437,-0.5830155228217776,1.4287875941794916,-0.1288594901561737,-0.0027976911514997482,-0.027550704777240753,-0.3337979018688202,-0.7952316999435425,-0.5061478614807129,-0.025851726531982422,-0.02727818489074707,0.03355252742767334
0.9184691669099802,-0.5812086841458606,1.4270724633842087,-0.12447433173656464,0.09210698306560516,-0.04538509622216225,-0.33328452706336975,-0.7946732640266418,-0.5073617100715637,-0.03452855348587036,-0.028431594371795654,-0.0023887157440185547
0.9178084385466735,-0.5784409476631994,1.4253046563712555,-0.09281531721353531,0.171036958694458,-0.0650431364774704,-0.33216598629951477,-0.7942720055580139,-0.5087217092514038,-0.03956860303878784,-0.02198159694671631,-0.03247708082199097
0.9175791409316245,-0.575362797586213,1.4236865210337502,-0.0462089367210865,0.17767170071601868,-0.07241423428058624,-0.33069756627082825,-0.7941327095031738,-0.5098944902420044,-0.04726257920265198,-0.014613628387451172,-0.04766172170639038
0.9178008303929931,-0.5729003192548343,1.4225075337878503,0.0031606017146259546,0.1255112737417221,-0.06855432689189911,-0.3293454945087433,-0.7942674160003662,-0.5105592608451843,-0.045486629009246826,-0.005964517593383789,-0.050247013568878174
0.9184184062566195,-0.5714342248212346,1.4218624700737028,0.048261769115924835,0.06873774528503418,-0.06535027921199799,-0.32833123207092285,-0.794642448425293,-0.5106288194656372,-0.04563111066818237,-0.003819406032562256,-0.04251748323440552
0.9193845646277647,-0.5708338375302415,1.4216332949970305,0.08794435113668442,0.021819155663251877,-0.06249731034040451,-0.3276096284389496,-0.7952286005020142,-0.5101796984672546,-0.04957231879234314,-0.0057662129402160645,-0.028150439262390137
0.9205471773875555,-0.5706388172273967,1.4215921108216258,0.09406615793704987,0.014279745519161224,-0.06934989243745804,-0.32701054215431213,-0.7959330081939697,-0.5094652771949768,-0.05696156620979309,-0.012721776962280273,-0.009348869323730469
0.9217425821519849,-0.5702041456056528,1.4213519817571123,0.08379116654396057,0.0413697175681591,-0.08880064636468887,-0.32627516984939575,-0.7966561317443848,-0.5088059306144714,-0.06962928175926208,-0.02658599615097046,0.011384665966033936
0.9228251351141629,-0.569030860751475,1.4207243540481358,0.053177595138549805,0.0998130515217781,-0.0980982705950737,-0.32521310448646545,-0.7973099946975708,-0.508461594581604,-0.07662704586982727,-0.032020390033721924,0.02637547254562378
0.9235585494441447,-0.566924149621985,1.419692172635545,0.010560346767306328,0.15708643198013306,-0.09574980288743973,-0.3238270580768585,-0.7977524399757385,-0.5086521506309509,-0.0700632631778717,-0.0336073637008667,0.03385967016220093
0.9238324604648873,-0.5642149927289247,1.4183856622279096,-0.033744800835847855,0.17376047372817993,-0.08425027877092361,-0.3223310112953186,-0.7979175448417664,-0.5093429684638977,-0.06495225429534912,-0.030955135822296143,0.03290247917175293
0.9237265707705447,-0.561431366776841,1.4169154649840268,-0.05680844187736511,0.14626026153564453,-0.0706854909658432,-0.3209569752216339,-0.7978537082672119,-0.5103098154067993,-0.0633966326713562,-0.024320363998413086,0.018931031227111816
0.9234838108255914,-0.5592477884146617,1.415627847271328,-0.04788285493850708,0.08652689307928085,-0.051689159125089645,-0.31994467973709106,-0.7977073788642883,-0.511173665523529,-0.06459200382232666,-0.01985853910446167,-0.004390358924865723
0.9233891389382314,-0.5581219085693934,1.4147914817175322,-0.013486943207681179,0.011261417530477047,-0.041859518736600876,-0.3194088339805603,-0.7976502776145935,-0.5115973949432373,-0.07477137446403503,-0.02049541473388672,-0.024871110916137695
0.9236248312624274,-0.5580715852810026,1.4142941314559383,0.020150646567344666,-0.0711120218038559,-0.04992996156215668,-0.319283664226532,-0.797792375087738,-0.5114542245864868,-0.0928257405757904,-0.025114238262176514,-0.026585817337036133
0.9241390187610514,-0.5587606902132045,1.413786799934109,0.027660228312015533,-0.1318904161453247,-0.06909673660993576,-0.31941846013069153,-0.7981023192405701,-0.5108860731124878,-0.10201400518417358,-0.02927500009536743,-0.012795627117156982
0.9247600992106842,-0.5595894136466563,1.4129803146987208,0.014206470921635628,-0.14937300980091095,-0.09210218489170074,-0.3195785582065582,-0.7984763383865356,-0.5102010369300842,-0.10064846277236938,-0.025711894035339355,0.0011830329895019531
0.9253634142126763,-0.559959163910684,1.411674985994847,-0.006049781572073698,-0.11702488362789154,-0.11575967073440552,-0.31951120495796204,-0.7988394498825073,-0.5096745491027832,-0.0935288667678833,-0.022892117500305176,0.008377552032470703
0.9259006114627857,-0.5593297384420292,1.4097698309159623,-0.03407689183950424,-0.04915129393339157,-0.14683343470096588,-0.31896260380744934,-0.7991624474525452,-0.5095117688179016,-0.08568519353866577,-0.02093636989593506,0.008626699447631836
0.9263655879352329,-0.557390647507024,1.407230856679747,-0.05106305330991745,0.04198836907744408,-0.1722971349954605,-0.3177773952484131,-0.7994418740272522,-0.5098138451576233,-0.07454127073287964,-0.019634604454040527,-0.0008368492126464844
0.9268804843600292,-0.55427895700603,1.4042954737955646,-0.04686591029167175,0.11569907516241074,-0.19093580543994904,-0.31597280502319336,-0.7997511029243469,-0.5104501247406006,-0.06085821986198425,-0.020088374614715576,-0.015032052993774414
0.9275643070049332,-0.550552009221229,1.401263479616879,-0.022042809054255486,0.14604362845420837,-0.19991818070411682,-0.31378206610679626,-0.8001614212989807,-0.5111581087112427,-0.044814735651016235,-0.024423599243164062,-0.0277060866355896
0.9285072701830375,-0.5470456689903495,1.3985071748164244,0.012622494250535965,0.11605909466743469,-0.19267839193344116,-0.3115951716899872,-0.8007266521453857,-0.5116104483604431,-0.022495955228805542,-0.023400485515594482,-0.034165918827056885
0.9295978127843441,-0.5444680970139497,1.396243997609696,0.029229745268821716,0.04401043802499771,-0.16960830986499786,-0.3098229169845581,-0.8013794422149658,-0.511664628982544,-0.00023561716079711914,-0.01871931552886963,-0.02901536226272583
0.930603826842989,-0.54305304209708,1.3944350377193926,0.021400317549705505,-0.03547986224293709,-0.1371409147977829,-0.3086818754673004,-0.8019807934761047,-0.5114121437072754,0.018246114253997803,-0.008032023906707764,-0.013627588748931885
0.9313059419513781,-0.5426796403514311,1.3929756193604492,0.0019531347788870335,-0.10658543556928635,-0.10455217212438583,-0.30820003151893616,-0.8023999929428101,-0.5110450983047485,0.032946765422821045,0.0005048513412475586,-0.0029931068420410156
0.9317637868872637,-0.5431269739565556,1.3918074358678585,0.001851402223110199,-0.15318197011947632,-0.08130837231874466,-0.3082386255264282,-0.8026731610298157,-0.5105924606323242,0.037105292081832886,-0.0006867647171020508,-0.007534921169281006
0.9322361055273971,-0.5440015584184758,1.3908499774449015,0.020526424050331116,-0.158882737159729,-0.08329984545707703,-0.3084889054298401,-0.8029547333717346,-0.5099983811378479,0.025819897651672363,-0.008293986320495605,-0.016216278076171875
0.9329206549370622,-0.544576036589087,1.3897876841784218,0.03246431052684784,-0.11386146396398544,-0.10856498777866364,-0.3084969222545624,-0.8033626079559326,-0.5093507170677185,0.010416567325592041,-0.018643558025360107,-0.014987051486968994
0.933786605423297,-0.5441537440515611,1.3882817939436884,0.025464773178100586,-0.03867937624454498,-0.1392345130443573,-0.3079216182231903,-0.8038779497146606,-0.5088856816291809,0.008696824312210083,-0.017334818840026855,-0.004679441452026367
0.9346170419578193,-0.5424817669519276,1.3861564321731248,-0.010384304448962212,0.028232544660568237,-0.1653667837381363,-0.30672553181648254,-0.8043715953826904,-0.508827805519104,0.02193552255630493,-0.012293994426727295,0.009102404117584229
0.9352436549456986,-0.539670681003787,1.3833458141995543,-0.046405717730522156,0.07718896120786667,-0.1820315271615982,-0.30503490567207336,-0.804743766784668,-0.5092554688453674,0.04153093695640564,-0.008747994899749756,0.012154638767242432
0.9356962385065563,-0.536108581436644,1.3801224356119555,-0.06346885114908218,0.11198129504919052,-0.18986202776432037,-0.30303290486335754,-0.8050123453140259,-0.510025680065155,0.06380563974380493,-0.002879500389099121,-0.002898573875427246
0.9361530791292604,-0.5322286938165359,1.3768425118486305,-0.04920892417430878,0.12880082428455353,-0.18405650556087494,-0.30086514353752136,-0.80528324842453,-0.5108806490898132,0.08388519287109375,0.007584333419799805,-0.027022242546081543
0.9368500206113944,-0.5285846540803008,1.3739622410695755,0.003900631796568632,0.1268356740474701,-0.17266297340393066,-0.2987184226512909,-0.8056962490081787,-0.5114889144897461,0.09859943389892578,0.007966816425323486,-0.053315162658691406
0.9380562038970842,-0.5257216714831258,1.3719072978600206,0.08542446792125702,0.10704962909221649,-0.15291348099708557,-0.29676488041877747,-0.8064101338386536,-0.5115010738372803,0.10699135065078735,0.00770413875579834,-0.0724223256111145
0.9398455269995116,-0.5240956019595155,1.37097467491029,0.1687939316034317,0.06171943619847298,-0.12027325481176376,-0.29521018266677856,-0.807466983795166,-0.510732889175415,0.11541593074798584,0.005907535552978516,-0.07288539409637451
0.942074338407017,-0.5239468221593507,1.3711882074689898,0.221721813082695,0.0047954656183719635,-0.0833045095205307,-0.2942330539226532,-0.808779776096344,-0.5092172026634216,0.12359404563903809,-0.0019348859786987305,-0.04711824655532837
0.9444272214492042,-0.5248084189220619,1.372119932831173,0.22706224024295807,-0.021544527262449265,-0.053470443934202194,-0.29371732473373413,-0.810161292552948,-0.5073151588439941,0.1219644844532013,-0.0067789554595947266,-0.0033049583435058594
0.946491707347675,-0.5260318092232784,1.3733517992615976,0.19516882300376892,-0.02376933954656124,-0.020561140030622482,-0.29349738359451294,-0.811369776725769,-0.5055080056190491,0.12291941046714783,-0.012772619724273682,0.0418696403503418
0.9479451812480648,-0.5272363903338156,1.3746915783997156,0.13481919467449188,-0.011106807738542557,0.019731156527996063,-0.29351237416267395,-0.8122185468673706,-0.5041342973709106,0.12983140349388123,-0.02149111032485962,0.07290571928024292
0.9486839498715753,-0.5282730520680924,1.3760101612288445,0.08013759553432465,0.008936705999076366,0.0517241470515728,-0.2937324047088623,-0.8126492500305176,-0.5033115744590759,0.13143998384475708,-0.019732892513275146,0.08949315547943115
0.9487977940166465,-0.5289144728582049,1.3772610855489344,0.02370414510369301,0.055125776678323746,0.0787869244813919,-0.2940084636211395,-0.8127155900001526,-0.5030431151390076,0.12282013893127441,-0.020124316215515137,0.09099471569061279
0.9483057868205652,-0.5288869706710699,1.378387534785734,-0.025177394971251488,0.11950818449258804,0.0982387512922287,-0.29419630765914917,-0.8124288320541382,-0.5033963322639465,0.11209800839424133,-0.02887970209121704,0.09137850999832153
0.9474092678686276,-0.5282458869167412,1.3794205043248202,-0.05429080128669739,0.15634876489639282,0.11333328485488892,-0.2942405939102173,-0.8119058012962341,-0.504213809967041,0.10399407148361206,-0.02509981393814087,0.07799005508422852
0.9462992631553813,-0.5273995806113538,1.380545633747951,-0.059390775859355927,0.17714428901672363,0.1268899291753769,-0.29426705837249756,-0.8112573027610779,-0.5052409172058105,0.09823745489120483,-0.026480674743652344,0.05551862716674805
0.9452490981730219,-0.5266835312014889,1.382004738858962,-0.03160415217280388,0.18666402995586395,0.14430354535579681,-0.2943333089351654,-0.8106428384780884,-0.5061877965927124,0.08893480896949768,-0.03535020351409912,0.028511345386505127
0.9443972346831574,-0.526539827601295,1.3841256036556389,0.0005562445148825645,0.17358630895614624,0.1784898340702057,-0.294607549905777,-0.8101437091827393,-0.5068269968032837,0.08598941564559937,-0.04509615898132324,0.011068940162658691
0.9435515761736658,-0.5274081431900597,1.3871994335332214,0.018404483795166016,0.13529111444950104,0.23898433148860931,-0.2953922748565674,-0.8096476793289185,-0.507162868976593,0.09405258297920227,-0.05044448375701904,0.010901212692260742
0.9424110684299625,-0.5295813735436506,1.391269487765551,0.0039619747549295425,0.08107024431228638,0.3116031587123871,-0.2969600260257721,-0.8089777827262878,-0.5073162913322449,0.09307214617729187,-0.05445605516433716,0.024879097938537598
0.9406884216524822,-0.5330263448716124,1.3961693010485101,-0.03600062057375908,0.01562039740383625,0.38493356108665466,-0.29941362142562866,-0.8079639077186584,-0.5074897408485413,0.07805442810058594,-0.06216847896575928,0.038388729095458984
0.9382605964551054,-0.5375701949748133,1.4016639443589307,-0.08316987752914429,-0.04644022509455681,0.44927796721458435,-0.30272001028060913,-0.8065310120582581,-0.5078073740005493,0.052704811096191406,-0.06201446056365967,0.038767457008361816
0.9351916228176674,-0.5428519024472864,1.4074516372851191,-0.13133341073989868,-0.08923829346895218,0.49847909808158875,-0.3066750466823578,-0.8047128319740295,-0.5083183646202087,0.019092708826065063,-0.06516009569168091,0.02659839391708374
0.9314300234135661,-0.5486641699377854,1.4134516232908947,-0.16029231250286102,-0.12565092742443085,0.5357139706611633,-0.31120091676712036,-0.8024740219116211,-0.5091065168380737,-0.01565757393836975,-0.07388395071029663,-0.0034362077713012695
0.9273184051980708,-0.5552619116282428,1.4199044199516146,-0.12884438037872314,-0.16199429333209991,0.5477091073989868,-0.3162897825241089,-0.8000138998031616,-0.5098417401313782,-0.05719953775405884,-0.09233534336090088,-0.0499575138092041
0.9236252489737666,-0.5624066626997685,1.4266991024664215,-0.061814215034246445,-0.17560943961143494,0.5278105139732361,-0.3214976489543915,-0.7977926135063171,-0.510064959526062,-0.10759475827217102,-0.11552232503890991,-0.08998674154281616
0.9206839062505833,-0.5694110747563601,1.4334183290060203,-0.0032260045409202576,-0.15310759842395782,0.46476924419403076,-0.3263261616230011,-0.796015739440918,-0.5097746849060059,-0.16520515084266663,-0.12947559356689453,-0.11022043228149414
0.9184823392134751,-0.5755150297580981,1.439448378369463,0.02708226814866066,-0.10808610916137695,0.3865078389644623,-0.3303847014904022,-0.7946812510490417,-0.5092422962188721,-0.2040085792541504,-0.13366347551345825,-0.1130111813545227
0.9168825076190757,-0.5804291376261786,1.4446342539749049,0.047209110110998154,-0.044973984360694885,0.317046195268631,-0.3335798680782318,-0.7937090992927551,-0.5086749792098999,-0.2098008096218109,-0.1335979700088501,-0.11623352766036987
0.9157432791569485,-0.5841141090944624,1.449241059095015,0.07144270092248917,0.037341706454753876,0.2800820469856262,-0.33595049381256104,-0.7930155992507935,-0.5081962943077087,-0.1954062283039093,-0.12975960969924927,-0.12621837854385376
0.9148462604312064,-0.5869806697357319,1.4537852404595526,0.08706933259963989,0.10408984869718552,0.2819947302341461,-0.33779969811439514,-0.7924688458442688,-0.5078232288360596,-0.1703178882598877,-0.11906063556671143,-0.13605189323425293
0.9140086641396001,-0.589736432875968,1.45871475918814,0.1078166663646698,0.1165463775396347,0.3110290765762329,-0.3395669460296631,-0.791957676410675,-0.5074419379234314,-0.15349024534225464,-0.11044704914093018,-0.1418500542640686
0.913205264143305,-0.5934200419836996,1.4644054236631245,0.14931990206241608,0.03683556243777275,0.3520369529724121,-0.3417895436286926,-0.7914668917655945,-0.506714940071106,-0.1572948694229126,-0.10639077425003052,-0.14991652965545654
0.9125425036325361,-0.5991602431776009,1.471096318219063,0.19883513450622559,-0.13276425004005432,0.39662641286849976,-0.34498825669288635,-0.7910616397857666,-0.5051777362823486,-0.18151620030403137,-0.10174530744552612,-0.15491747856140137
0.9120480825995979,-0.6075674283816045,1.4787316601021805,0.24374347925186157,-0.3431510627269745,0.42126572132110596,-0.3494463562965393,-0.7907590866088867,-0.5025805830955505,-0.2111157476902008,-0.0914430022239685,-0.14845097064971924
0.9116796606949134,-0.6184411388202721,1.4867517662329852,0.2581864297389984,-0.5565516948699951,0.41704875230789185,-0.3550594449043274,-0.7905334830284119,-0.4989885687828064,-0.24979892373085022,-0.07814931869506836,-0.12880384922027588
0.9113831166860642,-0.6312046175159022,1.4946756469769618,0.25860002636909485,-0.7328467965126038,0.3974777162075043,-0.36153745651245117,-0.7903518676757812,-0.4946054518222809,-0.27919429540634155,-0.06620019674301147,-0.110237717628479
0.9112947323334153,-0.6450578625742698,1.5021675378102044,0.2762925326824188,-0.833550751209259,0.3510829210281372,-0.36839646100997925,-0.7902976870536804,-0.48960551619529724,-0.3007166385650635,-0.056427717208862305,-0.11101093888282776
0.9116449600227556,-0.6591854968519409,1.5093459030491607,0.3108244240283966,-0.8441213369369507,0.3014248311519623,-0.37510690093040466,-0.7905122637748718,-0.48413345217704773,-0.31245410442352295,-0.045226871967315674,-0.12045031785964966
0.9125893178884327,-0.6729021442843726,1.5162378642357697,0.3573280870914459,-0.7990047931671143,0.24042125046253204,-0.3812466263771057,-0.7910902500152588,-0.47835880517959595,-0.3128146231174469,-0.03543257713317871,-0.12157100439071655
0.9142902763085645,-0.6856086693599819,1.522687027086147,0.39864784479141235,-0.7127931714057922,0.15545175969600677,-0.3864414393901825,-0.7921295762062073,-0.47243380546569824,-0.32113906741142273,-0.02482593059539795,-0.11098605394363403
0.9168138962884226,-0.696776463985784,1.5283788810959833,0.42611169815063477,-0.6130411624908447,0.05759456008672714,-0.3904091417789459,-0.7936673760414124,-0.4665541350841522,-0.3247702717781067,-0.007800459861755371,-0.09181082248687744
0.920054986667686,-0.7062873081648645,1.5330855232717444,0.43004730343818665,-0.5432755947113037,-0.037154052406549454,-0.3931572437286377,-0.795634925365448,-0.46086061000823975,-0.3159491717815399,0.015361487865447998,-0.06601017713546753
0.9238515501274625,-0.7142610565061819,1.5365821085379063,0.4164818823337555,-0.48998674750328064,-0.13831539452075958,-0.39483797550201416,-0.797929048538208,-0.455425500869751,-0.2960647642612457,0.03430283069610596,-0.039874911308288574
0.928155982982919,-0.7206572722981881,1.5387169534020124,0.3996767997741699,-0.4427665174007416,-0.23208288848400116,-0.3954727351665497,-0.8005161881446838,-0.4503058195114136,-0.27789759635925293,0.05056196451187134,-0.0231286883354187
0.9328778432831963,-0.725662532441402,1.5397608489110173,0.3881634771823883,-0.38761404156684875,-0.29375818371772766,-0.3952086269855499,-0.8033370971679688,-0.44548797607421875,-0.2430664598941803,0.06754308938980103,-0.013511687517166138
0.9378031201870974,-0.7296119695672281,1.5400772934939555,0.36738282442092896,-0.35096389055252075,-0.32361486554145813,-0.39432278275489807,-0.8062604665756226,-0.44096893072128296,-0.19524624943733215,0.08749526739120483,-0.0022226274013519287
0.9427217111198962,-0.7330128392910945,1.5399538435924907,0.3528003394603729,-0.3536487817764282,-0.33709609508514404,-0.3931618630886078,-0.8091603517532349,-0.43667280673980713,-0.16047272086143494,0.10736298561096191,0.014416098594665527
0.9475242694188268,-0.7366002731456518,1.5396494373250154,0.33126628398895264,-0.4132987856864929,-0.3266144394874573,-0.3921108543872833,-0.8119729161262512,-0.43237602710723877,-0.1355533003807068,0.131400465965271,0.027850210666656494
0.9520990535189261,-0.7407077686555895,1.5391858350361232,0.30757009983062744,-0.472842276096344,-0.3321285545825958,-0.3913726806640625,-0.8146346807479858,-0.42801588773727417,-0.12480157613754272,0.1565690040588379,0.04143443703651428
0.9567099309258216,-0.7447760808029388,1.5382289523882098,0.2991478443145752,-0.49083539843559265,-0.3752025365829468,-0.39056065678596497,-0.8173002004623413,-0.4236539602279663,-0.14834916591644287,0.16942733526229858,0.04984411597251892
0.9616950018073624,-0.748489465303772,1.536621107877375,0.3043247163295746,-0.5110079050064087,-0.43534281849861145,-0.3893536329269409,-0.8201625347137451,-0.4192102253437042,-0.1795245110988617,0.17779803276062012,0.056844472885131836
0.9671725179845765,-0.7516233105891376,1.5341595428740769,0.29955101013183594,-0.5130374431610107,-0.5112112164497375,-0.3875919282436371,-0.8232840299606323,-0.414699524641037,-0.19520217180252075,0.19939804077148438,0.07412329316139221
0.9729342401090826,-0.7535937400324891,1.5304292501583352,0.2471938282251358,-0.48621469736099243,-0.5774151086807251,-0.3851562738418579,-0.8265408873558044,-0.4104692339897156,-0.19684448838233948,0.20924651622772217,0.10242468118667603
0.978517148010499,-0.7536501754350241,1.5250927312803089,0.15472061932086945,-0.3951103389263153,-0.613664984703064,-0.3820156455039978,-0.8296704888343811,-0.4070761501789093,-0.1740145981311798,0.2067762017250061,0.12260651588439941
0.9833866672425253,-0.7512544016263191,1.5181919708110714,0.029414648190140724,-0.2682102918624878,-0.6058309078216553,-0.37827709317207336,-0.8323790431022644,-0.4050326347351074,-0.13737836480140686,0.20478510856628418,0.11728236079216003
0.9871123708604138,-0.7464502722200842,1.5098750311023452,-0.10780099779367447,-0.16466659307479858,-0.569171667098999,-0.3742184638977051,-0.8344380855560303,-0.40456584095954895,-0.10017722845077515,0.19709378480911255,0.09481242299079895
0.9896088773444983,-0.7402668662614128,1.5006572692519513,-0.20373332500457764,-0.15566538274288177,-0.5075785517692566,-0.37030360102653503,-0.8358113169670105,-0.40533289313316345,-0.08524751663208008,0.17713522911071777,0.04368424415588379
0.9909648552568872,-0.734910657925689,1.4915150679770932,-0.2650994658470154,-0.3161996603012085,-0.41220247745513916,-0.3673669397830963,-0.836555004119873,-0.4064692258834839,-0.09425714612007141,0.15169483423233032,-0.0287419855594635
0.9912819651302179,-0.7321913632583406,1.4831013606851262,-0.3032091557979584,-0.5505257248878479,-0.3170929551124573,-0.36608293652534485,-0.8367286920547485,-0.4072694182395935,-0.12148112058639526,0.15115129947662354,-0.09788811206817627
0.990875161219333,-0.7323788897746027,1.4751111250680307,-0.33748748898506165,-0.8185629844665527,-0.2874695658683777,-0.36638689041137695,-0.8365058302879333,-0.40745386481285095,-0.18411964178085327,0.13873672485351562,-0.1660783290863037
0.990348327486126,-0.7349076258528633,1.4667670511493227,-0.34592103958129883,-1.072005271911621,-0.32905930280685425,-0.3677115738391876,-0.8362170457839966,-0.4068530201911926,-0.2525124251842499,0.1112871766090393,-0.23552685976028442
0.9904130896221564,-0.7388430226286105,1.4575988714324393,-0.3116794228553772,-1.2243287563323975,-0.42611420154571533,-0.36927327513694763,-0.8362525701522827,-0.40536263585090637,-0.285847544670105,0.09601819515228271,-0.3182244300842285
0.9915477484858547,-0.7432104166177618,1.4478587286391142,-0.2367328405380249,-1.2561094760894775,-0.5039998888969421,-0.37039774656295776,-0.8368741869926453,-0.40304702520370483,-0.26845720410346985,0.08012992143630981,-0.41602954268455505
0.9936303641313184,-0.7480451389672838,1.4387288515955559,-0.12902474403381348,-1.2271783351898193,-0.499070942401886,-0.37115585803985596,-0.8380123972892761,-0.3999732732772827,-0.19853103160858154,0.05001801252365112,-0.5047203898429871
0.9964323340559241,-0.7542413353277292,1.4316241854600311,0.01772115007042885,-1.2017922401428223,-0.4472258985042572,-0.3720177114009857,-0.839538037776947,-0.395952969789505,-0.1272498071193695,0.01911872625350952,-0.5755436420440674
1.0000084902879376,-0.7626419401941483,1.4271662936183502,0.16693539917469025,-1.223987340927124,-0.39460423588752747,-0.3732542097568512,-0.8414755463600159,-0.3906405568122864,-0.10474255681037903,0.01403731107711792,-0.6127927303314209
1.0043226658414746,-0.7734457783258243,1.4250711155183837,0.29055213928222656,-1.2847723960876465,-0.3709844648838043,-0.3749132752418518,-0.8437986373901367,-0.3839843273162842,-0.1188916265964508,0.033068716526031494,-0.6134217381477356
1.0093899191442428,-0.7862446926280489,1.4244956711177583,0.38180214166641235,-1.3600823879241943,-0.3870702385902405,-0.3767659664154053,-0.84650719165802,-0.376128613948822,-0.14552703499794006,0.04867100715637207,-0.592773973941803
1.0152997069145653,-0.8004695596279316,1.4249006683355314,0.47409945726394653,-1.406192660331726,-0.4261210858821869,-0.37848132848739624,-0.8496386408805847,-0.36724138259887695,-0.16631853580474854,0.05424368381500244,-0.5690532922744751
1.022148990908935,-0.8159289854709062,1.4263045810568709,0.5804535746574402,-1.435795783996582,-0.46078187227249146,-0.379865437746048,-0.8532307744026184,-0.357350617647171,-0.15910550951957703,0.048848509788513184,-0.5525767803192139
1.0299750132952887,-0.8328042943201002,1.429064070735957,0.6888192892074585,-1.4566015005111694,-0.48600098490715027,-0.3808895945549011,-0.8572860956192017,-0.3463864028453827,-0.1313326060771942,0.033647239208221436,-0.528720498085022
1.0385005830801126,-0.8513730779315303,1.4335939434358762,0.7832856178283691,-1.4725817441940308,-0.4720305800437927,-0.3817441165447235,-0.8616442084312439,-0.3344261646270752,-0.09043911099433899,0.013453841209411621,-0.48620685935020447
1.0472893948428015,-0.8720179772863949,1.4401652725916478,0.8522233963012695,-1.519122838973999,-0.42686212062835693,-0.3827534019947052,-0.866071343421936,-0.32159024477005005,-0.04636949300765991,0.004132866859436035,-0.4330637454986572
1.0559162201569268,-0.8948070943791196,1.4483699655798674,0.8572821021080017,-1.606845736503601,-0.3861445188522339,-0.38413935899734497,-0.8703517913818359,-0.3080986738204956,-0.02334660291671753,-0.015695571899414062,-0.37422865629196167
1.063909940217831,-0.9191429506363692,1.457282722588411,0.8032273650169373,-1.6929600238800049,-0.33262452483177185,-0.38597869873046875,-0.8742602467536926,-0.2944309413433075,-0.01457977294921875,-0.03047919273376465,-0.31152620911598206
1.0709023566848144,-0.9441285435526161,1.465959951564697,0.6993888020515442,-1.7722104787826538,-0.28769591450691223,-0.3882526159286499,-0.8776333928108215,-0.2811039984226227,-0.0016703903675079346,-0.02387106418609619,-0.2633906304836273
1.0767826223703563,-0.9690929922924115,1.473727271693757,0.5767994523048401,-1.838844895362854,-0.24190658330917358,-0.3908872604370117,-0.8804367780685425,-0.2683989405632019,0.010531514883041382,-0.010615289211273193,-0.23434767127037048
1.0813150198533616,-0.993596128844167,1.4802901260252939,0.4388524889945984,-1.888079285621643,-0.16238859295845032,-0.39399781823158264,-0.8825768232345581,-0.25656118988990784,0.037079572677612305,0.015252113342285156,-0.22055062651634216
1.0842231569574499,-1.017366022936811,1.4855376336859731,0.2873493731021881,-1.9318197965621948,-0.059807173907756805,-0.3977993428707123,-0.8839404582977295,-0.24577434360980988,0.06784331798553467,0.05226016044616699,-0.2151784896850586
1.085349218526974,-1.0407396384318515,1.4895445570247703,0.1525002121925354,-2.029289484024048,0.060247860848903656,-0.40257564187049866,-0.8844664096832275,-0.23590658605098724,0.07858583331108093,0.08415824174880981,-0.21627241373062134
1.084866419177034,-1.0646069863747523,1.4927541720137723,0.07025117427110672,-2.15437388420105,0.16081763803958893,-0.4084644317626953,-0.8842410445213318,-0.2264389544725418,0.06170845031738281,0.11420625448226929,-0.22503817081451416
1.0834318142449386,-1.0895513558608314,1.4960321545387818,0.06261402368545532,-2.2575345039367676,0.2467232048511505,-0.41510915756225586,-0.88357013463974,-0.21676762402057648,0.016580134630203247,0.14303058385849,-0.260084867477417
1.0810883001200555,-1.1166538076296242,1.5000685331905563,0.06949567049741745,-2.4355814456939697,0.3331758975982666,-0.42269065976142883,-0.8824702501296997,-0.206346794962883,-0.02756565809249878,0.1622248888015747,-0.2995126247406006
1.0783743915483162,-1.1459974806755524,1.5050091388814266,0.12974275648593903,-2.5276243686676025,0.3392215371131897,-0.43074336647987366,-0.8811904191970825,-0.19484280049800873,-0.10221567749977112,0.16442400217056274,-0.32963237166404724
1.0762413164897726,-1.1766227180219866,1.5111856121415077,0.24192924797534943,-2.4761319160461426,0.2775545120239258,-0.4382421672344208,-0.8801800012588501,-0.18228338658809662,-0.1841028332710266,0.20272016525268555,-0.35850340127944946
1.0750626566051205,-1.207540384656286,1.5189799469005814,0.3531268835067749,-2.311838388442993,0.21375955641269684,-0.44463688135147095,-0.8796199560165405,-0.16901744902133942,-0.22409480810165405,0.2568782567977905,-0.36049312353134155
1.074460748212879,-1.2379961743370584,1.5280789222016244,0.4119952619075775,-2.1797447204589844,0.2033732384443283,-0.45007771253585815,-0.87933349609375,-0.155572310090065,-0.23949745297431946,0.2833709716796875,-0.3237520456314087
1.0733859240469363,-1.2686242896816193,1.537942140971734,0.4030270576477051,-2.2210400104522705,0.3023567795753479,-0.45553261041641235,-0.8788211345672607,-0.1419975906610489,-0.23884907364845276,0.2797001004219055,-0.2621619701385498
1.0707889914656235,-1.3003046252050612,1.5474680316078406,0.31632933020591736,-2.4459547996520996,0.4484403133392334,-0.4619995653629303,-0.8775790333747864,-0.1281067281961441,-0.2640135884284973,0.2651218771934509,-0.1943572610616684
1.0665340290422052,-1.3332430864603624,1.5550472708460548,0.1638532280921936,-2.805591583251953,0.5428059697151184,-0.46959298849105835,-0.8755311369895935,-0.11370018124580383,-0.34994134306907654,0.23783576488494873,-0.12700732052326202
1.061508581390743,-1.3665508748902377,1.5587559780991145,-0.03752370923757553,-3.181091547012329,0.49133560061454773,-0.4774213135242462,-0.873091995716095,-0.09889008104801178,-0.4765886664390564,0.22000056505203247,-0.07673865556716919
1.0573870810595307,-1.3987939793614645,1.5575021600777037,-0.23363304138183594,-3.4451565742492676,0.27791544795036316,-0.4839024245738983,-0.8710750937461853,-0.08406299352645874,-0.6376795768737793,0.19460725784301758,-0.056378960609436035
1.055866328647388,-1.4288863654045298,1.5517388346551897,-0.3632199168205261,-3.532118558883667,-0.0869646817445755,-0.4875235855579376,-0.8703271746635437,-0.06965264678001404,-0.7711129188537598,0.17321407794952393,-0.06773752719163895
1.058480120079697,-1.4558877343556746,1.5427251624695406,-0.43594178557395935,-3.3793115615844727,-0.5463210344314575,-0.48696476221084595,-0.871611475944519,-0.05620402470231056,-0.857883870601654,0.15205276012420654,-0.09919154644012451
1.0657020948973124,-1.4785969145411333,1.5319813146654426,-0.4530615508556366,-3.0001142024993896,-0.985984206199646,-0.4818347692489624,-0.8751288652420044,-0.044551193714141846,-0.8554912805557251,0.1468116044998169,-0.13229823112487793
1.0770152115245135,-1.4963507688228292,1.5203161783944512,-0.4725486934185028,-2.5868632793426514,-1.3421167135238647,-0.4726460576057434,-0.880547046661377,-0.035251546651124954,-0.7869670391082764,0.13529253005981445,-0.14832699298858643
1.0915574640715093,-1.5093699542637375,1.5074894453517729,-0.5295941829681396,-2.2849438190460205,-1.6236730813980103,-0.4602341949939728,-0.8873461484909058,-0.028306126594543457,-0.7178205847740173,0.11766237020492554,-0.1469259262084961
1.1086607979082113,-1.5179014138437998,1.4924367600819557,-0.6411396265029907,-2.099841356277466,-1.854588270187378,-0.4452372193336487,-0.8951023817062378,-0.02357277274131775,-0.6534566283226013,0.11864364147186279,-0.14235138893127441
1.127925150397968,-1.5215828122003816,1.4739182989253221,-0.7732221484184265,-1.9577609300613403,-2.061516761779785,-0.42801669239997864,-0.9035249948501587,-0.02108122780919075,-0.5926437377929688,0.1494661569595337,-0.14949685335159302
1.1490987828936763,-1.5206166258822735,1.4516803927445014,-0.8668457865715027,-1.8957427740097046,-2.2468602657318115,-0.4087943136692047,-0.9123954176902771,-0.02053041011095047,-0.5239143967628479,0.20249563455581665,-0.1847919225692749
1.1719132368613954,-1.5164547128168293,1.4259762358732704,-0.9361876845359802,-1.9893594980239868,-2.392401933670044,-0.38781607151031494,-0.9214953780174255,-0.02109532058238983,-0.44203317165374756,0.24922364950180054,-0.23891448974609375
1.195680851725685,-1.5109997934689146,1.397312055611392,-0.9330012202262878,-2.233093500137329,-2.4540934562683105,-0.3657255470752716,-0.9304653406143188,-0.02189522236585617,-0.3338136672973633,0.2879176139831543,-0.319596529006958
1.219849109852664,-1.5077651148881677,1.3683321242398034,-0.8011056780815125,-2.5132176876068115,-2.4780638217926025,-0.34310486912727356,-0.9390475153923035,-0.021655002608895302,-0.21420714259147644,0.29434841871261597,-0.42080414295196533
1.244046011844209,-1.5102438242737573,1.3430926002731358,-0.5613101124763489,-2.7187275886535645,-2.4349782466888428,-0.32037848234176636,-0.9470903873443604,-0.019423464313149452,-0.09946706891059875,0.24643737077713013,-0.5022135376930237
1.2677267524311338,-1.5209734056132982,1.324895757322129,-0.3043772280216217,-2.861795425415039,-2.330751657485962,-0.29808053374290466,-0.9544248580932617,-0.014863543212413788,0.007568478584289551,0.15162962675094604,-0.5339951515197754
1.2899522032154591,-1.5413778771918452,1.3153235955607665,-0.07523299753665924,-3.040771007537842,-2.10158109664917,-0.2770472466945648,-0.960821807384491,-0.008152652531862259,0.12125495076179504,0.03638327121734619,-0.5172532796859741
1.309288220173441,-1.5720729443552333,1.3144400095217688,0.07340274751186371,-3.2418363094329834,-1.7442721128463745,-0.25853702425956726,-0.9660011529922485,0.00033005306613631546,0.25337958335876465,-0.016863107681274414,-0.4569951295852661
1.324753047553612,-1.609887056249338,1.3191003754177533,0.07938607037067413,-3.389436960220337,-1.3398010730743408,-0.2433818131685257,-0.9698837399482727,0.009518821723759174,0.348255455493927,-0.003809988498687744,-0.3575108051300049
1.3360270996097887,-1.6480312024326502,1.322823908847226,-0.04465449973940849,-3.498941659927368,-0.9126237034797668,-0.23192444443702698,-0.9725680351257324,0.01794835925102234,0.37781375646591187,0.03743332624435425,-0.23868203163146973
1.3432621307517163,-1.6801376811431237,1.3188563999516174,-0.2856397032737732,-3.677971839904785,-0.5164963006973267,-0.22422851622104645,-0.9742255806922913,0.02461562491953373,0.35173094272613525,0.09296959638595581,-0.12567460536956787
1.3473269409024449,-1.6998456499661565,1.3004258605521684,-0.6348760724067688,-3.8286476135253906,-0.20590008795261383,-0.2197713553905487,-0.9751344323158264,0.02851984091103077,0.24412435293197632,0.1367708444595337,-0.029359102249145508
1.3496054303585854,-1.7021162507138174,1.2628730763785794,-1.0660806894302368,-3.920036792755127,-0.05572018027305603,-0.21750304102897644,-0.9756368398666382,0.028727808967232704,0.09946101903915405,0.21144616603851318,0.02689039707183838
1.3519514243304263,-1.6837515010052102,1.2038287420770646,-1.5403693914413452,-3.8775031566619873,-0.11664681881666183,-0.21571865677833557,-0.9761489033699036,0.024470699951052666,-0.06521090865135193,0.32334738969802856,0.017460346221923828
1.355668112781439,-1.641829814240675,1.1225088065679378,-1.9917408227920532,-3.5722620487213135,-0.3048518896102905,-0.21293450891971588,-0.9769490361213684,0.015150971710681915,-0.2067584991455078,0.4173940420150757,-0.0782918930053711
1.3605639790824504,-1.5774912514906945,1.0215272175269343,-2.2598581314086914,-3.300792932510376,-0.49885451793670654,-0.20868244767189026,-0.9779824614524841,0.0013971341541036963,-0.23309004306793213,0.4726266860961914,-0.2577143907546997
1.3656649973514794,-1.5015865340820345,0.9107628943609651,-2.2175722122192383,-3.1948885917663574,-0.6582249999046326,-0.20320789515972137,-0.9790342450141907,-0.014086474664509296,-0.1610346883535385,0.47810351848602295,-0.46305590867996216
1.3710094433758044,-1.428691721610343,0.8035514010122877,-1.9243155717849731,-3.223784923553467,-0.8677632212638855,-0.1964600831270218,-0.980108916759491,-0.028107333928346634,-0.0782897025346756,0.43399685621261597,-0.6300042867660522
1.3779542445159911,-1.365288608033137,0.7054794516654779,-1.604447841644287,-3.3117074966430664,-1.1656696796417236,-0.18761661648750305,-0.9814634919166565,-0.03910878673195839,-0.04007512331008911,0.4552030563354492,-0.7122492790222168
1.3875589699213013,-1.304752519975674,0.6099640124894492,-1.4340429306030273,-3.290891647338867,-1.5305527448654175,-0.17580261826515198,-0.9832589626312256,-0.04790683835744858,-0.043817177414894104,0.5330942869186401,-0.7256680130958557
1.3998979192061345,-1.2312056545550416,0.5036145979669897,-1.4122380018234253,-2.8592376708984375,-1.9322315454483032,-0.1603548228740692,-0.9854323863983154,-0.056649573147296906,0.008392497897148132,0.5364121198654175,-0.734900176525116
1.414377888256711,-1.1269430615348626,0.37278771962856505,-1.4082822799682617,-2.0533828735351562,-2.353794813156128,-0.1406869888305664,-0.9877915382385254,-0.06689615547657013,0.09262177348136902,0.5636735558509827,-0.7743056416511536
1.4299063810718258,-0.9767493721589097,0.2049695641041341,-1.3526313304901123,-1.0930578708648682,-2.7730822563171387,-0.11636700481176376,-0.9900914430618286,-0.07859809696674347,0.19823035597801208,0.6452275514602661,-0.8105773329734802
1.4442945737159572,-0.7687783866463198,-0.011414943373966103,-1.2003302574157715,-0.22721454501152039,-3.0759294033050537,-0.08771704137325287,-0.9920093417167664,-0.0906822681427002,0.3521518111228943,0.7154743075370789,-0.8178870677947998
1.4545924245162434,-0.5069301637542428,-0.27469747020091434,-0.9253101348876953,0.25606292486190796,-3.205505847930908,-0.05628950148820877,-0.9932559132575989,-0.10136129707098007,0.5558469891548157,0.7562564611434937,-0.7762632369995117
1.4590342774273746,-0.21847374626573815,-0.5618305353237575,-0.5541421175003052,0.3380490839481354,-3.1498324871063232,-0.024172833189368248,-0.9937611222267151,-0.10887810587882996,0.7444181442260742,0.7674885988235474,-0.6662379503250122
1.457784650036288,0.05587834753673791,-0.8353268702261003,-0.19597521424293518,0.1252550631761551,-2.883122682571411,0.006298257503658533,-0.9936209917068481,-0.11259640008211136,0.936481237411499,0.7618856430053711,-0.5009289979934692
1.4526323646319503,0.28156660054960075,-1.0636067268460279,0.05058903247117996,-0.3617570400238037,-2.431337594985962,0.032756607979536057,-0.9930267333984375,-0.11324621737003326,1.1346322298049927,0.747818112373352,-0.2889755368232727
1.445982188169939,0.4421777256357672,-1.23200021952341,0.13230839371681213,-0.9525628089904785,-1.81955885887146,0.05327028036117554,-0.9922208189964294,-0.1125166192650795,1.2822246551513672,0.732943594455719,-0.05572681128978729
1.4401972010904494,0.5340781312846304,-1.3376808336071966,0.10173524916172028,-1.6345887184143066,-1.086218237876892,0.06629226356744766,-0.9914840459823608,-0.11209220439195633,1.3832926750183105,0.7180466055870056,0.17978012561798096
1.4368023878911895,0.5648579744017075,-1.3889161575751476,0.026523582637310028,-2.341794013977051,-0.4479767382144928,0.07151243090629578,-0.9910362362861633,-0.11284231394529343,1.3560998439788818,0.6734244227409363,0.39889878034591675
1.435212952201811,0.5534243983659807,-1.403891652598474,-0.08966998755931854,-2.852154493331909,-0.09731070697307587,0.07104513794183731,-0.9908226728439331,-0.11499200016260147,1.1775968074798584,0.6336907148361206,0.5919511914253235
1.4331944326799848,0.5183563780186078,-1.398184154594888,-0.35888388752937317,-2.9500279426574707,-0.0031309458427131176,0.06796042621135712,-0.990547776222229,-0.1191490888595581,0.9854452610015869,0.5946890711784363,0.7430504560470581
1.4277978553344188,0.47292979841347427,-1.3803917824334468,-0.8523558974266052,-2.5298068523406982,-0.09295777231454849,0.06491393595933914,-0.9897931218147278,-0.12686997652053833,0.8607757091522217,0.512253999710083,0.8282248973846436
1.4163214398746162,0.42924876710522725,-1.357912930534301,-1.5126930475234985,-1.7081013917922974,-0.31723615527153015,0.06403546780347824,-0.9880924820899963,-0.13990336656570435,0.7938594222068787,0.4123172163963318,0.8149369359016418
1.3975151990231145,0.3967234782764574,-1.3374553601163532,-2.1740353107452393,-0.7581771016120911,-0.5758116841316223,0.06662096083164215,-0.9850243330001831,-0.15902407467365265,0.7787159085273743,0.3362511992454529,0.7026336789131165
1.3728415919445949,0.3787408541189216,-1.322805437472935,-2.5323235988616943,0.0022840118035674095,-0.7750166654586792,0.07271689176559448,-0.9804708361625671,-0.1827271431684494,0.8281161785125732,0.29374903440475464,0.4993164539337158
1.3466442152239433,0.37296215088564544,-1.3147214489285948,-2.415841579437256,0.36144450306892395,-0.8204725980758667,0.08099323511123657,-0.9749829173088074,-0.2069983184337616,0.9380649328231812,0.27335333824157715,0.2275824099779129
1.3234044276489902,0.37288612234637714,-1.3112024716813053,-1.9513413906097412,0.25531113147735596,-0.703596293926239,0.08920960873365402,-0.9695543646812439,-0.2280483841896057,1.0866936445236206,0.2194628119468689,0.014242231845855713
1.3057433831723855,0.37159000093683825,-1.3089346683958147,-1.3899604082107544,-0.08419635146856308,-0.4652850031852722,0.09511715173721313,-0.9650786519050598,-0.24408195912837982,1.2173980474472046,0.19966727495193481,-0.05898815393447876
1.2933566639585055,0.36507529512597375,-1.3044452081991267,-1.0538383722305298,-0.32716184854507446,-0.208739772439003,0.09778565168380737,-0.9617598652839661,-0.255843847990036,1.2850115299224854,0.22654563188552856,0.026168525218963623
1.2831996932968086,0.3526965556866359,-1.2951405753538738,-1.0665334463119507,-0.3280234932899475,-0.030366364866495132,0.09798060357570648,-0.9589283466339111,-0.26618844270706177,1.2865256071090698,0.22249341011047363,0.2228991985321045
1.2723093477678773,0.33679079922375094,-1.280801321407169,-1.2789994478225708,-0.07675959169864655,0.06955224275588989,0.09717986732721329,-0.9557825326919556,-0.2775534987449646,1.2469820976257324,0.18313848972320557,0.3879355192184448
1.2591759583032147,0.31952255130608903,-1.2616811792367275,-1.5749614238739014,0.2687265872955322,0.17894262075424194,0.09630757570266724,-0.9518380165100098,-0.29108288884162903,1.225591778755188,0.14889001846313477,0.45816659927368164
1.2436484540165733,0.2998784816422116,-1.2368100740580155,-1.8442672491073608,0.49753206968307495,0.3745885491371155,0.09492611140012741,-0.9469627141952515,-0.307002454996109,1.2608782052993774,0.13290637731552124,0.4565233290195465
1.2263610096287556,0.27537436928443876,-1.2053351207925664,-2.0349724292755127,0.5153148770332336,0.6435957551002502,0.09181354939937592,-0.9412662982940674,-0.324942946434021,1.3023056983947754,0.13187921047210693,0.4106973707675934
1.208271130078362,0.24425311413214584,-1.1672628919715549,-2.11627459526062,0.3891074061393738,0.974539577960968,0.08576232194900513,-0.9350042939186096,-0.3441101908683777,1.3152233362197876,0.14795595407485962,0.3347718119621277
1.1899829864500435,0.20663184078207714,-1.1235815579499482,-2.1476378440856934,0.22137540578842163,1.2906662225723267,0.076254703104496,-0.9283626675605774,-0.3637693226337433,1.2940150499343872,0.1814296841621399,0.2461545467376709
1.171255510504025,0.1641773477301096,-1.0760179983789953,-2.1888468265533447,0.0907638669013977,1.56365966796875,0.06357773393392563,-0.9212397336959839,-0.38376474380493164,1.2433375120162964,0.2289026975631714,0.17604684829711914
1.1518009693279434,0.1190428827530525,-1.0261953606760141,-2.196174144744873,0.02815920114517212,1.8004697561264038,0.048317454755306244,-0.9134981036186218,-0.40396368503570557,1.1846078634262085,0.2706301212310791,0.10135132074356079
1.1321078483483564,0.07330512019330433,-0.975670971806321,-2.105133533477783,0.01781335100531578,1.9819210767745972,0.031108645722270012,-0.9053094983100891,-0.4236116409301758,1.1193124055862427,0.27504533529281616,0.015225380659103394
1.1126681227887114,0.029497820591526662,-0.9264185865059659,-1.9884729385375977,0.11804817616939545,2.0608232021331787,0.013044108636677265,-0.8968818783760071,-0.4420775771141052,1.0266897678375244,0.28210538625717163,-0.04353341460227966
1.0933434212436357,-0.00935924158491126,-0.8800590885448273,-1.911030650138855,0.39484062790870667,2.057905435562134,-0.004300681408494711,-0.888168215751648,-0.4594983458518982,0.9143500328063965,0.2662200331687927,-0.07103455066680908
1.0738033466703185,-0.04103859204524167,-0.8378762436985017,-1.8996467590332031,0.7199699282646179,1.9694799184799194,-0.019561074674129486,-0.8790202140808105,-0.4763830900192261,0.8233788013458252,0.19542646408081055,-0.06626522541046143
1.0534150378974685,-0.06488276016745051,-0.8005298616909041,-1.9752815961837769,1.0315814018249512,1.8629566431045532,-0.032068882137537,-0.8691173791885376,-0.4935651421546936,0.7875162363052368,0.15894287824630737,-0.0639757513999939
1.0318982451538752,-0.0824685956005262,-0.7669285551059358,-2.0441763401031494,1.220223307609558,1.8306491374969482,-0.04227413982152939,-0.8582746982574463,-0.5114462971687317,0.8051677942276001,0.15911704301834106,-0.11935204267501831
1.0098287498090623,-0.09716281718573624,-0.7353014598096669,-2.028771162033081,1.2099056243896484,1.848732352256775,-0.05160989239811897,-0.84674072265625,-0.5294966101646423,0.8388108015060425,0.14157110452651978,-0.19189321994781494
0.9881566023874795,-0.11134582759052307,-0.7044851616114522,-1.9189198017120361,1.1254563331604004,1.9191867113113403,-0.061139315366744995,-0.8350130915641785,-0.5468227863311768,0.8884555697441101,0.13024014234542847,-0.26351046562194824
0.967205046217053,-0.1264951588298413,-0.6727913578263253,-1.8193151950836182,1.1059650182724,2.100266218185425,-0.07160769402980804,-0.8233025074005127,-0.5630677938461304,0.982877790927887,0.1155540943145752,-0.31472456455230713
0.9461602582005795,-0.14245956219688502,-0.6389922418851551,-1.8356939554214478,1.235540747642517,2.3070690631866455,-0.08302914351224899,-0.8111760020256042,-0.5788779258728027,1.061590552330017,0.11871695518493652,-0.33437585830688477
0.9239191576787079,-0.157078181855797,-0.6039412239242198,-1.9312585592269897,1.4682711362838745,2.451106071472168,-0.09428177773952484,-0.7979698181152344,-0.5952773094177246,1.0335975885391235,0.11544424295425415,-0.3793015480041504
0.9005403464027283,-0.1694972807208406,-0.5687149890438045,-1.956623911857605,1.5878955125808716,2.5394070148468018,-0.10478600114583969,-0.7836626768112183,-0.6122847199440002,0.9471932053565979,0.10698127746582031,-0.47890180349349976
0.8772187975226247,-0.18051008431229232,-0.5339618405447284,-1.8416845798492432,1.591220736503601,2.5602681636810303,-0.11477304250001907,-0.7689638733863831,-0.6289052367210388,0.8600732684135437,0.11347681283950806,-0.600525975227356
0.8556099686346456,-0.1902431526109256,-0.4999218280608747,-1.568206548690796,1.6413733959197998,2.557501792907715,-0.12400233000516891,-0.7549710273742676,-0.6439270973205566,0.8000429272651672,0.10430580377578735,-0.7353605628013611
0.836897858605202,-0.19889412496143624,-0.46595652020413786,-1.2267581224441528,1.6967921257019043,2.574354648590088,-0.13233667612075806,-0.7425689697265625,-0.6565655469894409,0.7957124710083008,0.10101324319839478,-0.8339129686355591
0.8210065216081907,-0.2072989396849994,-0.4312329798423853,-0.9525434970855713,1.71817946434021,2.6632373332977295,-0.1402614712715149,-0.7318321466445923,-0.6668946146965027,0.8195369243621826,0.13603752851486206,-0.8407958745956421
0.8065605940192763,-0.21696384383208112,-0.3945037726754973,-0.8282047510147095,1.658867359161377,2.8778977394104004,-0.14896069467067719,-0.7219114303588867,-0.6757622361183167,0.8647047281265259,0.1610899567604065,-0.7724341750144958
0.7918194023570009,-0.22929777798501658,-0.354864976959921,-0.831899881362915,1.5421756505966187,3.156062602996826,-0.15968561172485352,-0.7116326689720154,-0.6841632723808289,0.8873314261436462,0.17043399810791016,-0.6771953701972961
0.7757963439292678,-0.24408324793126723,-0.31259887178185997,-0.8836727738380432,1.4589481353759766,3.389688014984131,-0.17251716554164886,-0.7002847790718079,-0.6927041411399841,0.8260053396224976,0.16850078105926514,-0.6274099349975586
0.7584760733736166,-0.2596668700065259,-0.2692599638853828,-0.9083355069160461,1.4263105392456055,3.480668544769287,-0.18637721240520477,-0.6878160238265991,-0.7015501260757446,0.6653200387954712,0.1688951849937439,-0.6483644843101501
0.7410157735257229,-0.2736777610628865,-0.22717528122731145,-0.8277807235717773,1.5054839849472046,3.3513243198394775,-0.19940373301506042,-0.675037682056427,-0.7103254795074463,0.4600848853588104,0.18404042720794678,-0.7213151454925537
0.7250874826541289,-0.28266527902763366,-0.1887959331690442,-0.687195360660553,1.812117099761963,3.0225658416748047,-0.20875239372253418,-0.6632009148597717,-0.7187398672103882,0.2835357189178467,0.1907888650894165,-0.8221384286880493
0.7113041772543058,-0.2843959299544114,-0.15474497501660925,-0.5298203825950623,2.2958548069000244,2.6935555934906006,-0.21254073083400726,-0.6528222560882568,-0.7270829081535339,0.22908124327659607,0.2078302502632141,-0.9241927266120911
0.699601943031053,-0.2799539759251948,-0.12318523576013155,-0.3823748826980591,2.6187243461608887,2.6039886474609375,-0.21140547096729279,-0.643913209438324,-0.7353118658065796,0.3465372920036316,0.23162078857421875,-0.9991546869277954
0.6891815968819284,-0.27447668688217636,-0.09069368324822573,-0.26648902893066406,2.565746784210205,2.778773784637451,-0.20918215811252594,-0.6359058022499084,-0.7428773045539856,0.5208886861801147,0.2709308862686157,-0.9977843165397644
0.6789569683563268,-0.2722736516446414,-0.055394566766077076,-0.24001574516296387,2.305854558944702,3.0243983268737793,-0.20928268134593964,-0.6279816627502441,-0.749559760093689,0.5660331845283508,0.28833627700805664,-0.9291970133781433
0.6680323193541173,-0.2739648674302347,-0.01778215239696677,-0.2819504141807556,2.0345346927642822,3.198352098464966,-0.21239355206489563,-0.6194424629211426,-0.7557644844055176,0.47720980644226074,0.28612953424453735,-0.8600344657897949
0.656506781588087,-0.27829288826298204,0.02093295890716455,-0.26456722617149353,1.865787386894226,3.271672248840332,-0.2176094502210617,-0.6103535294532776,-0.7616525888442993,0.3682136833667755,0.3068714737892151,-0.8414815664291382
0.6450231913616441,-0.2832651629904702,0.05988671633021068,-0.2204413264989853,1.8602184057235718,3.303314685821533,-0.22333821654319763,-0.6012169718742371,-0.767240583896637,0.3043776750564575,0.3228815197944641,-0.870393693447113
0.6338860856037288,-0.28775966327794283,0.09897301909968932,-0.1477040797472,1.8894057273864746,3.320793628692627,-0.22867053747177124,-0.592280387878418,-0.7726019620895386,0.28071826696395874,0.35419756174087524,-0.9096490740776062
0.6233167569810197,-0.2913193605983767,0.1377854771290905,-0.09065037220716476,1.9681519269943237,3.2738170623779297,-0.23320432007312775,-0.5837314128875732,-0.7777360677719116,0.22404904663562775,0.40996432304382324,-0.9419904947280884
0.6133824786305054,-0.292952353169086,0.17579564669277453,-0.026542220264673233,2.084027051925659,3.2117931842803955,-0.23613707721233368,-0.575636625289917,-0.7828676700592041,0.1250683218240738,0.41973763704299927,-0.9891355633735657
0.6042757656905657,-0.29342050186267743,0.2130072285240445,0.042836856096982956,2.0425755977630615,3.1414265632629395,-0.23800989985466003,-0.5681662559509277,-0.7877426147460938,0.03074975311756134,0.42278051376342773,-1.0365829467773438
0.5960479637784494,-0.29428922094827675,0.2496144655485735,0.1378638744354248,1.8908607959747314,3.1106932163238525,-0.24004200100898743,-0.5613763332366943,-0.7919826507568359,-0.023874014616012573,0.42056822776794434,-1.0711307525634766
0.5889122044462055,-0.29732240826894646,0.2866229964864753,0.28256383538246155,1.5979095697402954,3.1690621376037598,-0.24361048638820648,-0.555456817150116,-0.7950607538223267,-0.003658190369606018,0.38216280937194824,-1.1142104864120483
0.5823754469675809,-0.30460005211234153,0.3252365290542032,0.3630654215812683,1.2119501829147339,3.3722610473632812,-0.2504737675189972,-0.5500093698501587,-0.796713650226593,0.10850599408149719,0.38240689039230347,-1.1214077472686768
0.5752205181418066,-0.3168038761083781,0.3671766662276696,0.41833800077438354,0.9433725476264954,3.730854034423828,-0.261397123336792,-0.5440198183059692,-0.7973167300224304,0.2859943211078644,0.4077284336090088,-1.1326148509979248
0.5673144481212347,-0.33277864688142894,0.4127149657366313,0.5316618084907532,0.7980338335037231,3.9850618839263916,-0.27549663186073303,-0.5373691320419312,-0.7970796823501587,0.3191520571708679,0.4496159553527832,-1.1733335256576538
0.5597026321436691,-0.35013024914255086,0.46016623610627017,0.7294718027114868,0.8161385655403137,4.04070520401001,-0.2906797528266907,-0.53093421459198,-0.7959988117218018,0.18418866395950317,0.500645637512207,-1.2214877605438232
0.5535881376314769,-0.3671933480367156,0.5086023480860912,1.0142887830734253,0.8663074374198914,4.072366237640381,-0.3053787350654602,-0.5257428288459778,-0.7939384579658508,0.09730991721153259,0.5498365759849548,-1.2764198780059814
0.5491362892499975,-0.3851792445155311,0.5587509379143045,1.2753571271896362,0.7596156001091003,4.189908027648926,-0.3204844892024994,-0.5219507217407227,-0.7904790639877319,0.12094533443450928,0.6281213760375977,-1.2783992290496826
0.545015399087953,-0.4063029402478543,0.6115972943221587,1.417142629623413,0.48512330651283264,4.44331169128418,-0.3379567861557007,-0.5184312462806702,-0.785502552986145,0.15858975052833557,0.6867357492446899,-1.189335823059082
0.5395971946364859,-0.43235941336279915,0.6673946614729318,1.4621590375900269,0.054404933005571365,4.6852288246154785,-0.3594789206981659,-0.513790488243103,-0.7789700031280518,0.14198020100593567,0.7281612753868103,-1.0636050701141357
0.5320463406937651,-0.4627887325840133,0.7245610109597562,1.4139212369918823,-0.2759309709072113,4.782642364501953,-0.3847334682941437,-0.5072978734970093,-0.7711219787597656,0.025877267122268677,0.791691243648529,-0.9421806931495667
0.5222065491031538,-0.4947496876595717,0.7813254764251603,1.3575681447982788,-0.37203219532966614,4.799144268035889,-0.4115287959575653,-0.4987938106060028,-0.7627900838851929,-0.09483405947685242,0.7894432544708252,-0.8892942667007446
0.5105585665925565,-0.5258462950743659,0.837424173625499,1.3791669607162476,-0.2929892838001251,4.823306560516357,-0.43793290853500366,-0.4886646568775177,-0.7546002864837646,-0.15188029408454895,0.7514210939407349,-0.9420703053474426
0.49778531957924704,-0.555156551914498,0.8931902690423487,1.4518859386444092,-0.1916559934616089,4.827272891998291,-0.4631115198135376,-0.47748079895973206,-0.7466858625411987,-0.21091493964195251,0.7511624693870544,-1.0405913591384888
0.4846049757872268,-0.5831343521374481,0.9484037254919214,1.568459153175354,-0.20538316667079926,4.751255035400391,-0.4872414171695709,-0.4658588469028473,-0.7386279702186584,-0.3165305256843567,0.794609546661377,-1.1294903755187988
0.47196146963038865,-0.6101219724932251,1.002453281903547,1.7326399087905884,-0.20661993324756622,4.565902233123779,-0.5103296637535095,-0.4546341896057129,-0.72998046875,-0.451813280582428,0.8516526222229004,-1.2223968505859375
0.46116921743942324,-0.635681593633372,1.0550615395790062,2.0028185844421387,-0.17605699598789215,4.291543960571289,-0.5317012071609497,-0.4449954926967621,-0.7206058502197266,-0.5784062147140503,0.906955361366272,-1.340078353881836
0.4533842125842489,-0.6603843215662566,1.1067393576015232,2.343020439147949,-0.20545457303524017,4.015150547027588,-0.5514464974403381,-0.4380103349685669,-0.7099673748016357,-0.6579803228378296,0.9659949541091919,-1.4413540363311768
0.44884149292885034,-0.684809311320894,1.1580002267083442,2.6719658374786377,-0.20845966041088104,3.7427632808685303,-0.5698739886283875,-0.43392208218574524,-0.697821855545044,-0.71648770570755,1.0076220035552979,-1.481896162033081
0.44716058913004114,-0.7089630319373573,1.2088262505085992,2.9223477840423584,-0.23460125923156738,3.471179246902466,-0.5870351195335388,-0.43240705132484436,-0.6844077110290527,-0.7996835708618164,1.028400182723999,-1.4557442665100098
0.44813016036140635,-0.7335072782073866,1.2586351457158473,3.12691330909729,-0.3726341426372528,3.1101491451263428,-0.6033738851547241,-0.4332810938358307,-0.669482946395874,-0.9095960259437561,1.0512621402740479,-1.380321741104126
0.4522350196738482,-0.758826980570819,1.3065857598027717,3.3065788745880127,-0.49811217188835144,2.645005702972412,-0.6189008355140686,-0.43697696924209595,-0.6526966691017151,-1.0093950033187866,1.0398517847061157,-1.2876567840576172
0.4594553676389047,-0.7837444382942852,1.351966017930673,3.3687260150909424,-0.47768867015838623,2.185667037963867,-0.6327267289161682,-0.44346001744270325,-0.6348229050636292,-1.0063265562057495,1.0120635032653809,-1.1976814270019531
0.4685809076635917,-0.8076032204123291,1.3947489889373286,3.355380058288574,-0.4716914892196655,1.880064606666565,-0.6447399854660034,-0.45162060856819153,-0.6167244911193848,-0.8560839295387268,1.0116029977798462,-1.1517691612243652
0.47849585886003443,-0.8316275823810215,1.4366596126201912,3.4445555210113525,-0.5065306425094604,1.7684032917022705,-0.6560273170471191,-0.46044448018074036,-0.5980124473571777,-0.6411527991294861,1.0784865617752075,-1.2257790565490723
0.489101778204982,-0.8571471858640022,1.4800292050410282,3.7090373039245605,-0.566640317440033,1.7420116662979126,-0.6673436760902405,-0.4698331654071808,-0.5778487324714661,-0.5019372701644897,1.163024663925171,-1.3547379970550537
0.5013246301961403,-0.8853884213071025,1.5269013089742076,4.163294315338135,-0.6191208362579346,1.675243616104126,-0.6788979172706604,-0.48058760166168213,-0.5550975203514099,-0.4885825514793396,1.2133299112319946,-1.4161549806594849
0.5159859663880797,-0.9164583440243536,1.577766651170972,4.565897464752197,-0.6309950947761536,1.5262389183044434,-0.6901490688323975,-0.493392676115036,-0.5293940305709839,-0.5701505541801453,1.189574956893921,-1.3210394382476807
0.5320537294578181,-0.9492405262453433,1.6309597503849338,4.678642749786377,-0.5882425904273987,1.3685736656188965,-0.7005937695503235,-0.5073042511940002,-0.5018075108528137,-0.6208020448684692,1.135417103767395,-1.037194013595581
0.5478886674485164,-0.9819004661552869,1.6838615583420529,4.525248050689697,-0.4928845763206482,1.184267520904541,-0.7098367214202881,-0.5208861231803894,-0.4741409122943878,-0.6186391711235046,1.1085935831069946,-0.7084915637969971
0.5621687047285105,-1.0128045579222311,1.7341076543584066,4.147185325622559,-0.39747852087020874,1.0528250932693481,-0.7177647352218628,-0.533022403717041,-0.44799676537513733,-0.5870906114578247,1.050936222076416,-0.44172799587249756
0.5736358504541453,-1.0413263377583182,1.7800080287763418,3.624082326889038,-0.3815613389015198,0.9907198548316956,-0.7249254584312439,-0.5426895022392273,-0.4242301881313324,-0.5030560493469238,0.9796555042266846,-0.2512154281139374
0.5816211953268289,-1.0678925481128576,1.8206253282630143,3.0615456104278564,-0.5224205851554871,0.9784452319145203,-0.7321181297302246,-0.549379289150238,-0.40272271633148193,-0.4111161231994629,0.949342668056488,-0.16862744092941284
0.5861926781893682,-1.0944047774557697,1.8562905251764452,2.6348764896392822,-0.867017924785614,1.017154335975647,-0.7402970194816589,-0.5531933307647705,-0.38201767206192017,-0.3310072422027588,0.9484875798225403,-0.2069411277770996
0.5882177188549491,-1.1241227429664014,1.8897727547645278,2.5732688903808594,-1.3733633756637573,1.0951842069625854,-0.7503092885017395,-0.5548791885375977,-0.35936740040779114,-0.2549701929092407,0.9635858535766602,-0.37297821044921875
0.5893327145934723,-1.1601090151838291,1.9250944350340635,2.8786516189575195,-1.8782657384872437,1.1327635049819946,-0.7621854543685913,-0.5558063983917236,-0.33189257979393005,-0.21568924188613892,0.9751026630401611,-0.5698561668395996
0.590633131890615,-1.2029402236122801,1.9648651732732172,3.3181705474853516,-2.223968744277954,1.124838948249817,-0.7750223278999329,-0.5568870306015015,-0.2986926734447479,-0.20839142799377441,0.9703238606452942,-0.6720715761184692
0.5920552814261556,-1.250703848959466,2.009144737434181,3.654264450073242,-2.3568084239959717,1.072136640548706,-0.787647008895874,-0.5580676794052124,-0.261098712682724,-0.19855892658233643,0.9689716100692749,-0.6173039674758911
0.593172008186372,-1.300688992061864,2.0560732539198163,3.81488037109375,-2.3714075088500977,0.9645402431488037,-0.7991078495979309,-0.5589939951896667,-0.2212519347667694,-0.20151770114898682,0.9652134776115417,-0.44068968296051025
0.5937750391368491,-1.3507899216569053,2.103582178603574,3.8127028942108154,-2.310551643371582,0.8198136687278748,-0.8088563680648804,-0.559493899345398,-0.18088142573833466,-0.21773970127105713,0.932296633720398,-0.23060238361358643
0.5937475253883049,-1.3993315161649889,2.149824287095692,3.661146879196167,-2.2031867504119873,0.6794425845146179,-0.8166956305503845,-0.559471070766449,-0.14142324030399323,-0.21978819370269775,0.8855818510055542,-0.04674817621707916
0.5926686294830141,-1.4450903293434914,2.1930874310478403,3.3636772632598877,-2.100224018096924,0.6024913191795349,-0.8229082822799683,-0.5585765242576599,-0.10399284958839417,-0.1839125156402588,0.8604715466499329,0.09393726289272308
0.5901464601035561,-1.4874743291095844,2.231896351284741,2.9631614685058594,-2.0504989624023438,0.5711416006088257,-0.8279767036437988,-0.55648273229599,-0.06914877146482468,-0.1253160834312439,0.84090656042099,0.18952524662017822
0.5862322881584268,-1.526884991786288,2.2652984958639526,2.518125534057617,-2.130648612976074,0.5596796274185181,-0.8322280645370483,-0.5532263517379761,-0.036567751318216324,-0.08418428897857666,0.7891882061958313,0.24423980712890625
0.581284293182958,-1.5644585844735681,2.293117820528254,2.0930559635162354,-2.309736728668213,0.5420152544975281,-0.8357413411140442,-0.5490977764129639,-0.005296784453094006,-0.048093438148498535,0.7354685664176941,0.2478352189064026
0.5757296912472929,-1.601037196775822,2.315995467060078,1.7550935745239258,-2.476229429244995,0.5198037028312683,-0.8384117484092712,-0.5444470047950745,0.025362031534314156,-0.01008373498916626,0.6737804412841797,0.19912517070770264
0.5698721290522349,-1.6369199924918616,2.335357498530096,1.5588287115097046,-2.5845882892608643,0.4924631118774414,-0.8401299118995667,-0.5395243763923645,0.05563357472419739,0.0205041766166687,0.626240074634552,0.11062610149383545
0.5636902832339518,-1.6725274267958903,2.3528698258840786,1.4917945861816406,-2.624708652496338,0.4933566153049469,-0.8409188389778137,-0.5343092083930969,0.08584394305944443,0.06558924913406372,0.5982282161712646,0.020051956176757812
0.5569068397101163,-1.707568244001337,2.3696207824058395,1.4809207916259766,-2.583479404449463,0.5109025835990906,-0.840966522693634,-0.5285629630088806,0.11574321985244751,0.10086953639984131,0.5799087285995483,-0.042348504066467285
0.54957149028951,-1.7418855219040508,2.3857570565739055,1.4412332773208618,-2.5811305046081543,0.5101147890090942,-0.8402983546257019,-0.522321879863739,0.14518533647060394,0.08935219049453735,0.576932966709137,-0.06191812455654144
0.5421654027113957,-1.7759052666469304,2.4007360994076437,1.335315465927124,-2.6552233695983887,0.45748791098594666,-0.8386381268501282,-0.5159920454025269,0.17446564137935638,0.04669177532196045,0.5827187895774841,-0.04084445536136627
0.535378263397525,-1.809762198300327,2.4140076447495904,1.1734287738800049,-2.7339696884155273,0.3564164340496063,-0.8356353044509888,-0.5101664066314697,0.20357824862003326,-0.007626533508300781,0.58758944272995,-0.018367022275924683
0.5298700817457039,-1.843275796685088,2.4252386094859815,0.9651612043380737,-2.8143515586853027,0.21496331691741943,-0.8310384750366211,-0.5054212212562561,0.23221655189990997,-0.044526100158691406,0.5881391167640686,-0.014366865158081055
0.5261611768063158,-1.8765775092728716,2.4342556169262175,0.7357362508773804,-2.923328161239624,0.04810909554362297,-0.8246279358863831,-0.5022174715995789,0.260320246219635,-0.06399822235107422,0.5814715027809143,-0.027837365865707397
0.52465787331684,-1.9099530297494982,2.441322107840187,0.5237780809402466,-3.0197665691375732,-0.14790509641170502,-0.8161931037902832,-0.5009168982505798,0.28794339299201965,-0.08302271366119385,0.5540326833724976,-0.06389865279197693
0.5253135493185558,-1.9434556242292371,2.447150641031502,0.38164037466049194,-3.073533535003662,-0.31701502203941345,-0.8057839274406433,-0.5014842748641968,0.31500163674354553,-0.08461230993270874,0.521656334400177,-0.11357042193412781
0.5275375309335237,-1.977206892051965,2.452309289107226,0.27781686186790466,-3.140578269958496,-0.4206252694129944,-0.7936688661575317,-0.5034071803092957,0.34157153964042664,-0.03721803426742554,0.5191084146499634,-0.15738272666931152
0.5307457826426158,-2.0113834514323026,2.4567982130727484,0.1628982573747635,-3.2208995819091797,-0.4788006842136383,-0.7800689935684204,-0.5061766505241394,0.3678009510040283,0.022927939891815186,0.5378844141960144,-0.1829560101032257
0.5350362812887063,-2.0458985539963916,2.4604689882821207,0.02024402655661106,-3.2859625816345215,-0.5762013792991638,-0.7649737596511841,-0.5098722577095032,0.3935035467147827,0.05569958686828613,0.557693362236023,-0.19619232416152954
0.5409795300596567,-2.080419378117976,2.463375729540215,-0.14216193556785583,-3.293381929397583,-0.7062009572982788,-0.7482784390449524,-0.514975905418396,0.418185830116272,0.06598156690597534,0.5750191807746887,-0.21315354108810425
0.5487083954229257,-2.1145464314284053,2.4656834768832634,-0.2873713970184326,-3.277743101119995,-0.8234208822250366,-0.730146050453186,-0.5215856432914734,0.44140154123306274,0.08816295862197876,0.6077519655227661,-0.24071794748306274
0.5579247292256259,-2.1485750759191817,2.4675897784885077,-0.4104086458683014,-3.3146986961364746,-0.8997846245765686,-0.7106488943099976,-0.5294267535209656,0.4633418917655945,0.12269711494445801,0.6360398530960083,-0.2600032687187195
0.5681807155669684,-2.1832627641985423,2.469169165746881,-0.5115585923194885,-3.4452128410339355,-0.939233660697937,-0.6896729469299316,-0.5380995273590088,0.4845617711544037,0.14835214614868164,0.6282942295074463,-0.27025213837623596
0.579239183334784,-2.219528683538481,2.4705014182521463,-0.6062145233154297,-3.646390676498413,-0.9730004072189331,-0.6668674945831299,-0.5473873615264893,0.5056229829788208,0.15241748094558716,0.6293423771858215,-0.2800982594490051
0.5911355476407567,-2.257984781536588,2.4716434530677733,-0.7190223336219788,-3.8935842514038086,-1.0063307285308838,-0.6418554186820984,-0.5573042631149292,0.5267196297645569,0.15046143531799316,0.6508710980415344,-0.28833162784576416
0.604085083420106,-2.2986077449936624,2.472574539401652,-0.8407759070396423,-4.085653305053711,-1.0603406429290771,-0.6144946813583374,-0.5680093169212341,0.5475048422813416,0.14318126440048218,0.6535654067993164,-0.2917218804359436
0.6183280064221844,-2.3407718177976444,2.4739621820697137,-0.9193205833435059,-4.149202823638916,-1.1847772598266602,-0.5850026607513428,-0.5796735286712646,0.5672307014465332,0.11613059043884277,0.6377179622650146,-0.3074803352355957
0.6337646649960664,-2.3838837964413524,2.4770242314715976,-0.9121034145355225,-4.071000099182129,-1.3246115446090698,-0.553796112537384,-0.5921825170516968,0.5853462219238281,0.10390579700469971,0.6338694095611572,-0.3348120450973511
0.6495499567157728,-2.4270083050488793,2.482326296061527,-0.8494711518287659,-3.8928349018096924,-1.4072954654693604,-0.5218550562858582,-0.6048280596733093,0.601540207862854,0.14514601230621338,0.6493225693702698,-0.3471609950065613
0.6648909229728044,-2.4696672958707286,2.4894841379076627,-0.7854224443435669,-3.765460729598999,-1.4042123556137085,-0.4898928105831146,-0.6169732809066772,0.6159130930900574,0.20481282472610474,0.6826165914535522,-0.31754279136657715
0.6793528919906515,-2.5130467796924614,2.497280890582298,-0.7804773449897766,-3.9630320072174072,-1.300276756286621,-0.45742806792259216,-0.6282896995544434,0.6292948126792908,0.2569579780101776,0.715936005115509,-0.22960597276687622
0.6930462332480843,-2.5594755951157313,2.5041216491937286,-0.8751710653305054,-4.455005168914795,-1.1156952381134033,-0.42295804619789124,-0.6388835906982422,0.6425995826721191,0.29383817315101624,0.7292919158935547,-0.09366464614868164
0.7067363842730482,-2.6102785985179247,2.5086112789862804,-1.0923686027526855,-5.1194562911987305,-0.9102728962898254,-0.3853124976158142,-0.6493552923202515,0.6556462049484253,0.2971929907798767,0.7394126653671265,0.042550086975097656
0.7216262652142681,-2.6655414444220553,2.510717297088886,-1.3544915914535522,-5.585305213928223,-0.8381113409996033,-0.3440404534339905,-0.6606064438819885,0.6672596335411072,0.2299046516418457,0.7259902954101562,0.10532331466674805
0.7388511362433585,-2.7228937203681167,2.5128774512872365,-1.5930362939834595,-5.463612079620361,-0.9395233988761902,-0.30055543780326843,-0.673439085483551,0.6753858327865601,0.21248167753219604,0.7860031723976135,0.11974948644638062
0.7585267603764139,-2.777334607399547,2.5167738748890827,-1.8180712461471558,-4.848500728607178,-1.09041166305542,-0.2585884630680084,-0.6878528594970703,0.6782256364822388,0.1914345622062683,0.7609425187110901,0.13462507724761963
0.7804043024553968,-2.827334268674215,2.5236047977448988,-1.9563366174697876,-4.161211013793945,-1.2805190086364746,-0.21966341137886047,-0.7035667896270752,0.6758265495300293,0.23483064770698547,0.737532913684845,0.15712016820907593
0.8033987269355783,-2.8730174404920095,2.5341555761599617,-2.008418560028076,-3.449535608291626,-1.4430793523788452,-0.1842285543680191,-0.7197198867797852,0.6693747639656067,0.3032929301261902,0.7655421495437622,0.20100146532058716
0.8270172171242087,-2.91426734470306,2.5480244883399776,-2.106153726577759,-2.7766690254211426,-1.5448129177093506,-0.15259379148483276,-0.7359150648117065,0.6596545577049255,0.3628598749637604,0.7749775648117065,0.2701702117919922
0.8519336010129905,-2.951437281617214,2.5643036059117015,-2.319094657897949,-2.2389791011810303,-1.6051028966903687,-0.1244695782661438,-0.7525551319122314,0.6466591954231262,0.3919866383075714,0.7777626514434814,0.36037516593933105
0.8790777149415795,-2.9859948254729893,2.582711387792967,-2.602564573287964,-1.8892107009887695,-1.6703943014144897,-0.09884990006685257,-0.770150899887085,0.6301557421684265,0.3640018403530121,0.75986647605896,0.4210832118988037
0.9085110211515431,-3.020901290717369,2.6037615964952714,-2.8348805904388428,-1.838297963142395,-1.7454218864440918,-0.07403554022312164,-0.7885890007019043,0.6104472875595093,0.30931079387664795,0.7334285378456116,0.4290575385093689
0.9392001411875744,-3.0596483737707723,2.628206907444682,-2.9382433891296387,-2.01446270942688,-1.7942626476287842,-0.048328522592782974,-0.8070861101150513,0.5884522795677185,0.3032113015651703,0.7673370838165283,0.39088720083236694
0.9697654891268953,-3.103902288890365,2.656244675783243,-2.943769931793213,-2.2536590099334717,-1.7957223653793335,-0.021308591589331627,-0.8247531056404114,0.5650914311408997,0.3417888879776001,0.8322299122810364,0.32748663425445557
0.9994066261410041,3.129018818551137,2.6880206879867914,-2.9242169857025146,-2.480564832687378,-1.7865475416183472,0.006799769587814808,-0.8411502242088318,0.5407587289810181,0.3763941824436188,0.8697604537010193,0.2944767475128174
1.0280428839525415,3.0733360895262036,2.7237718655029686,-2.942298412322998,-2.549285888671875,-1.751519799232483,0.03522684797644615,-0.856289803981781,0.5152929425239563,0.40456193685531616,0.868863046169281,0.29609304666519165
1.055774591273973,3.013644771437754,2.76406355265893,-2.9595561027526855,-2.3913309574127197,-1.7579383850097656,0.06284943968057632,-0.870281994342804,0.4885278046131134,0.4266067147254944,0.8116118311882019,0.298093318939209
1.082068949876576,2.950287601611218,2.811036522710809,-2.93917179107666,-2.0172653198242188,-1.886763572692871,0.08927140384912491,-0.8829310536384583,0.46093764901161194,0.4020920991897583,0.7585107684135437,0.2790067791938782
1.1058064483206023,2.8825348551266035,2.867374807216877,-2.8736870288848877,-1.5321013927459717,-2.1343235969543457,0.11487015336751938,-0.8938261270523071,0.4334511458873749,0.37374675273895264,0.7406125068664551,0.258489191532135
1.1263276165372034,2.8080313974093083,2.9360666857136812,-2.8161542415618896,-1.022731900215149,-2.431149959564209,0.14077916741371155,-0.9028392434120178,0.4062787592411041,0.4061872959136963,0.7347790002822876,0.2626664340496063
1.143213103203009,2.7265268405848744,3.0171501950567334,-2.831679344177246,-0.5964287519454956,-2.6957716941833496,0.1672169715166092,-0.9099705815315247,0.3794630467891693,0.5043680667877197,0.7343723773956299,0.2993699312210083
1.1566682137909023,2.6369361084484337,3.110139508683186,-2.948496103286743,-0.36572784185409546,-2.892683506011963,0.19455939531326294,-0.9154675006866455,0.3522302508354187,0.6407830119132996,0.729279637336731,0.3660161793231964
1.1672212371569601,2.539284292023313,-3.069888505472881,-3.149075508117676,-0.24074815213680267,-2.935821771621704,0.22248752415180206,-0.9196628928184509,0.32360365986824036,0.8196419477462769,0.7267460823059082,0.41153427958488464
1.175550214310692,2.4353606703401427,-2.959635865206406,-3.371870756149292,-0.2549276053905487,-2.819178819656372,0.24987681210041046,-0.9229018092155457,0.29293951392173767,1.0317240953445435,0.7338302731513977,0.41746386885643005
1.1821169721289488,2.3260429744262643,-2.844877604115153,-3.5970137119293213,-0.39656075835227966,-2.598130464553833,0.2759265601634979,-0.9254103302955627,0.25976961851119995,1.2301311492919922,0.7526655793190002,0.3837697207927704
1.1870549522077718,2.212504672999414,-2.727336183776352,-3.789809226989746,-0.525240421295166,-2.319291353225708,0.29991644620895386,-0.9272704124450684,0.224098339676857,1.3899333477020264,0.7538235783576965,0.29386118054389954
1.1903152976288225,2.0966605882207374,-2.6085718014628023,-3.9243228435516357,-0.59292072057724,-2.0014827251434326,0.3211919665336609,-0.9284861087799072,0.1864117532968521,1.5076806545257568,0.7025644779205322,0.19269275665283203
1.1918883315254898,1.9813815666088632,-2.4908971239397495,-3.9574923515319824,-0.5879341959953308,-1.6316204071044922,0.33916252851486206,-0.9290691018104553,0.14764666557312012,1.6159614324569702,0.641486644744873,0.08846785128116608
1.1923143918437777,1.8706479826061155,-2.3776811550051997,-3.8844892978668213,-0.5102477073669434,-1.1834285259246826,0.35302308201789856,-0.9292266368865967,0.10914545506238937,1.7137951850891113,0.5781675577163696,0.0041511207818984985
1.1924992349872676,1.7665097619780523,-2.270769375330218,-3.757277250289917,-0.4487859904766083,-0.7158966660499573,0.3622877299785614,-0.9292949438095093,0.07182396948337555,1.7412736415863037,0.5196421146392822,-0.03715609759092331
1.1930678144764486,1.6681092890719142,-2.1694022054490723,-3.64064621925354,-0.38932475447654724,-0.2642589807510376,0.3670652508735657,-0.9295047521591187,0.035833392292261124,1.684463620185852,0.5176090002059937,-0.03069126605987549
1.1942670169021514,1.573408935523672,-2.0714378272697758,-3.5636823177337646,-0.331548273563385,0.13040044903755188,0.36769402027130127,-0.9299463629722595,0.0009606428211554885,1.5802733898162842,0.501189649105072,0.024231553077697754
1.195517642907524,1.4798007037286929,-1.9738479603168757,-3.5768494606018066,-0.21894143521785736,0.42077308893203735,0.3650153875350952,-0.9304054975509644,-0.0333067812025547,1.4453330039978027,0.5032204389572144,0.10462629795074463
1.1956112679948492,1.3854819318348068,-1.8736785474786481,-3.676745653152466,0.008431277237832546,0.5928024053573608,0.36017081141471863,-0.930439829826355,-0.06751951575279236,1.3036627769470215,0.5365188121795654,0.1638329029083252
1.1930984642372509,1.2906989339928818,-1.770329814349711,-3.8045005798339844,0.2518424391746521,0.6561728119850159,0.3544098436832428,-0.929516077041626,-0.10194945335388184,1.168707251548767,0.5579949617385864,0.17659543454647064
1.1871577355066745,1.1977215814384101,-1.6663337977664472,-3.854400634765625,0.45710769295692444,0.6964765191078186,0.34854936599731445,-0.9273088574409485,-0.13642387092113495,1.075538158416748,0.5516680479049683,0.13613392412662506
1.178200889727625,1.1099011960077838,-1.565782765584277,-3.790558099746704,0.5814364552497864,0.7481640577316284,0.3426663279533386,-0.9239192008972168,-0.17015580832958221,1.0398104190826416,0.4983516335487366,0.06606031954288483
1.167112116190186,1.0288480436254936,-1.4710466121705774,-3.6946070194244385,0.676199197769165,0.8403049111366272,0.3365214169025421,-0.9196200370788574,-0.20261316001415253,1.0501209497451782,0.474277138710022,0.023230820894241333
1.1546187946033055,0.9537962819615294,-1.3812173900039157,-3.651879072189331,0.7801704406738281,0.9945590496063232,0.3297274112701416,-0.9146409034729004,-0.23390524089336395,1.086486577987671,0.47317373752593994,0.026233091950416565
1.1409250720619195,0.8824251174798231,-1.2940058973017285,-3.686223268508911,0.8417448401451111,1.1719801425933838,0.3218514621257782,-0.909019410610199,-0.2647554874420166,1.1084463596343994,0.4419325590133667,0.07173171639442444
1.1254752947513709,0.8133006762684128,-1.2081260580981907,-3.808067798614502,0.8892501592636108,1.3130576610565186,0.31296348571777344,-0.9024724364280701,-0.29596832394599915,1.0836734771728516,0.42157649993896484,0.12563443183898926
1.1071921057586744,0.7465102128692209,-1.123334262351198,-4.008284568786621,0.9926818013191223,1.394092321395874,0.30366790294647217,-0.894446611404419,-0.32825446128845215,1.0294466018676758,0.4660561680793762,0.13794681429862976
1.0852771150348053,0.6840046940833232,-1.0412501935755583,-4.178983688354492,1.100132942199707,1.3710426092147827,0.29488810896873474,-0.8844327926635742,-0.3616899251937866,0.9683412313461304,0.5233182907104492,0.07874614000320435
1.06004788922849,0.6292330299402374,-0.9657276918750832,-4.165994644165039,1.2141841650009155,1.2558484077453613,0.28768882155418396,-0.8723788857460022,-0.3952091336250305,0.9007724523544312,0.5133548974990845,-0.05880093574523926
1.0333032634075296,0.585160073664494,-0.8998437789076045,-3.9454123973846436,1.3796253204345703,1.0917770862579346,0.28278571367263794,-0.8589949011802673,-0.4268021881580353,0.8718774318695068,0.39953744411468506,-0.23288112878799438
1.0062466304460511,0.5526817885823749,-0.8444668106054437,-3.731414556503296,1.5487192869186401,0.8772149682044983,0.28087836503982544,-0.8448296189308167,-0.45537909865379333,0.8901878595352173,0.2993280291557312,-0.31903496384620667
0.9785784632782264,0.5289249501462603,-0.796635320612473,-3.7067513465881348,1.6950112581253052,0.7798570394515991,0.2816721200942993,-0.8297047019004822,-0.48192429542541504,0.9999898672103882,0.3066943883895874,-0.30024129152297974
0.9498336218016473,0.5085235580280205,-0.7508260533344562,-3.881260871887207,1.71592116355896,0.9346104264259338,0.28328046202659607,-0.8133187294006348,-0.5081976056098938,1.2204731702804565,0.37034082412719727,-0.260357141494751
0.9195299114123429,0.4855897899255487,-0.7016494165638054,-4.215211391448975,1.5832315683364868,1.3267111778259277,0.2829289734363556,-0.795316755771637,-0.5361178517341614,1.4337152242660522,0.43202030658721924,-0.27700769901275635
0.8877413216868424,0.4570253034173487,-0.6472273146938883,-4.459523677825928,1.2333425283432007,1.7623881101608276,0.2785211205482483,-0.7756481170654297,-0.5663884282112122,1.531323790550232,0.43153196573257446,-0.42912548780441284
0.8554793772570344,0.42533492614575763,-0.5906000993329648,-4.416982650756836,1.1252628564834595,2.0376648902893066,0.27062344551086426,-0.7548854351043701,-0.5974202752113342,1.4649417400360107,0.3871333599090576,-0.721076488494873
0.8249726511704847,0.396823298398345,-0.5366665874021839,-3.977801561355591,1.210551142692566,2.0955817699432373,0.26226353645324707,-0.7345291972160339,-0.6258471608161926,1.305027723312378,0.3076341152191162,-1.1172101497650146
0.7991357418965337,0.37462036014296046,-0.4884503825641055,-3.26870059967041,1.323836088180542,2.1055331230163574,0.25516512989997864,-0.7167536616325378,-0.6489644050598145,1.2201918363571167,0.2835872769355774,-1.409705638885498
0.7795111794838241,0.3576316976396221,-0.4452246104463876,-2.610276699066162,1.3650636672973633,2.2004125118255615,0.24898038804531097,-0.702931821346283,-0.6662548780441284,1.2668124437332153,0.26564550399780273,-1.4917194843292236
0.76476710819028,0.34186068595201746,-0.40329640025074365,-2.2565479278564453,1.2930256128311157,2.4514517784118652,0.2418907731771469,-0.6923689842224121,-0.6797897219657898,1.376212239265442,0.2962203621864319,-1.356144666671753
0.7523254695342413,0.3230438759546585,-0.35853140648673787,-2.2377121448516846,1.0733153820037842,2.8906803131103516,0.23177406191825867,-0.683338463306427,-0.6923362016677856,1.4934608936309814,0.368854820728302,-1.115983009338379
0.7401123668266267,0.29747032423784886,-0.3072260129667429,-2.3848752975463867,0.7555949687957764,3.5351104736328125,0.2164248377084732,-0.6743708848953247,-0.7059633731842041,1.595647931098938,0.3846675753593445,-0.9450986981391907
0.7272888808362227,0.26351738512243994,-0.24787470830598143,-2.4889042377471924,0.4034516215324402,4.182774543762207,0.194571852684021,-0.6648469567298889,-0.7211937308311462,1.5945364236831665,0.3969789147377014,-0.923444390296936
0.7140909696624145,0.2234812432668923,-0.18271363976318103,-2.391798734664917,0.2111787647008896,4.624293804168701,0.16748003661632538,-0.6549307703971863,-0.736896276473999,1.3929295539855957,0.47750163078308105,-1.0316736698150635
0.7014458137794498,0.18142596159741553,-0.1155562367758857,-2.1057803630828857,0.10764358192682266,4.797226428985596,0.13783404231071472,-0.645322859287262,-0.751372218132019,1.104933261871338,0.5422650575637817,-1.1874096393585205
0.6901706904984894,0.1401470325793937,-0.0497313558456806,-1.721889853477478,0.09277375042438507,4.766845703125,0.10771917551755905,-0.6366688013076782,-0.7635766863822937,0.8466570377349854,0.6082570552825928,-1.2655065059661865
0.6805932629201285,0.10174919149370026,0.013284182663672683,-1.350119709968567,0.21578702330589294,4.652476787567139,0.07894304394721985,-0.6292542219161987,-0.7731798887252808,0.708181619644165,0.6772584319114685,-1.2755110263824463
0.6726259525184721,0.06729644058614176,0.07353712114296836,-1.022079348564148,0.44420358538627625,4.561361789703369,0.05259876698255539,-0.623042106628418,-0.780417799949646,0.677046000957489,0.7134504914283752,-1.2360007762908936
0.6661796155525384,0.03619598137913836,0.1328479718000761,-0.7519136667251587,0.6744570136070251,4.6580634117126465,0.02845064550638199,-0.6179869771003723,-0.7856733798980713,0.7414315938949585,0.7128051519393921,-1.1829240322113037
0.6604150799684905,0.005958021313620447,0.1936384089338288,-0.6161597967147827,0.737443208694458,4.872475624084473,0.0047052460722625256,-0.6134446859359741,-0.7897236347198486,0.8258153796195984,0.7379717230796814,-1.0987651348114014
0.6539262183660736,-0.025438235344587227,0.256849925873379,-0.5922664403915405,0.6911010146141052,5.119542121887207,-0.020188190042972565,-0.6083073616027832,-0.7934447526931763,0.8091896772384644,0.8232731819152832,-1.0086182355880737
0.6457733118712387,-0.05891368776872474,0.3223889816211152,-0.5885226130485535,0.5294204354286194,5.332765579223633,-0.04702329635620117,-0.6018162369728088,-0.7972490787506104,0.7354083061218262,0.8757420778274536,-0.9635389447212219
0.6361331974528186,-0.09444344442843144,0.3889390245065292,-0.49679824709892273,0.3241163194179535,5.3956379890441895,-0.07585732638835907,-0.5940894484519958,-0.8008142113685608,0.5939390063285828,0.9269599914550781,-0.9662909507751465
0.6260066164392973,-0.13072695044516874,0.45457587248570835,-0.31306013464927673,0.17061130702495575,5.31674861907959,-0.10563620924949646,-0.5859133005142212,-0.8034591674804688,0.44024622440338135,0.967810332775116,-1.0015335083007812
0.616261285206143,-0.16652918357727112,0.5183351079480703,-0.06809884309768677,0.0936073288321495,5.195920944213867,-0.13526809215545654,-0.5779882669448853,-0.8047559857368469,0.35771074891090393,0.9895788431167603,-1.0454943180084229
0.6075284956655157,-0.2015285008592572,0.5805965207190023,0.2138499766588211,0.06602660566568375,5.124587535858154,-0.1643494963645935,-0.5708399415016174,-0.8044445514678955,0.3608521819114685,1.0019160509109497,-1.073347806930542
0.5996725315555335,-0.23601837106411105,0.642545832707844,0.4514225721359253,0.057619012892246246,5.157496452331543,-0.1930341273546219,-0.564372181892395,-0.8026342988014221,0.41665172576904297,1.016352891921997,-1.0573358535766602
0.5915124407740969,-0.27106973068445006,0.7054569616331754,0.5585054159164429,-0.019080165773630142,5.316580772399902,-0.2222689837217331,-0.5576171278953552,-0.7997872233390808,0.4888705611228943,1.040008544921875,-0.984026312828064
0.5812746527413766,-0.3077924222232262,0.7701172738160543,0.5322719216346741,-0.18211676180362701,5.558667182922363,-0.25319916009902954,-0.5490896701812744,-0.7964864373207092,0.5227457284927368,1.082140326499939,-0.9018473029136658
0.5676757428520415,-0.34660177821285776,0.8361249902491638,0.4540330171585083,-0.4055336117744446,5.766650199890137,-0.28642213344573975,-0.5376737713813782,-0.793012797832489,0.46049442887306213,1.118301272392273,-0.8603533506393433
0.550808671635808,-0.387239039098178,0.9025041326596766,0.4428277611732483,-0.6938865780830383,5.897024154663086,-0.3217819631099701,-0.52337646484375,-0.7890079021453857,0.3134506940841675,1.1232147216796875,-0.907861053943634
0.5317614776885466,-0.4300479725995086,0.9682622226555301,0.549737274646759,-1.0895333290100098,5.906385898590088,-0.3593448996543884,-0.5070523619651794,-0.7834342122077942,0.14860579371452332,1.1454648971557617,-1.011167287826538
0.5120341711316647,-0.4747577794106915,1.0324167563686024,0.769031822681427,-1.4252554178237915,5.767548561096191,-0.3984968662261963,-0.48995155096054077,-0.7753372192382812,-0.007585257291793823,1.2046427726745605,-1.1273269653320312
0.4929285782732787,-0.5195916851586057,1.0944553023177215,1.0570073127746582,-1.5218546390533447,5.576615810394287,-0.4374147653579712,-0.47320786118507385,-0.7646846771240234,-0.10212069749832153,1.2330498695373535,-1.230813980102539
0.4749787619560919,-0.5625567403946318,1.1549259431036092,1.3707635402679443,-1.4125795364379883,5.415098190307617,-0.4743100702762604,-0.45731955766677856,-0.7522558569908142,-0.10918602347373962,1.2335647344589233,-1.313799500465393
0.4583777650757007,-0.6022350386914952,1.2143614961863554,1.684168815612793,-1.1537429094314575,5.2354512214660645,-0.5080082416534424,-0.44249391555786133,-0.7390038967132568,-0.12623852491378784,1.2572674751281738,-1.3700506687164307
0.44355331980068113,-0.637603604086369,1.2726457407380072,1.979515790939331,-0.8295608758926392,4.98761510848999,-0.5376686453819275,-0.42915165424346924,-0.7257695198059082,-0.23033666610717773,1.2753888368606567,-1.4045710563659668
0.43083893021766956,-0.668486300009133,1.3293586043128034,2.231792449951172,-0.5527012944221497,4.675512790679932,-0.5631589293479919,-0.41763320565223694,-0.7130459547042847,-0.3624696731567383,1.2679903507232666,-1.4108248949050903
0.4209592586585768,-0.6956803486981846,1.3841614048438209,2.517672538757324,-0.37082231044769287,4.279751300811768,-0.5849549174308777,-0.4086361527442932,-0.7006028294563293,-0.48770737648010254,1.2726346254348755,-1.420536756515503
0.41484405408798836,-0.7204173217494863,1.437297375101289,2.860166549682617,-0.27221402525901794,3.8701534271240234,-0.6037421822547913,-0.40304720401763916,-0.6877850294113159,-0.5708335638046265,1.2748123407363892,-1.4464160203933716
0.41277655158568943,-0.7439814955777581,1.4897516342898587,3.2315874099731445,-0.23460620641708374,3.5431089401245117,-0.6203431487083435,-0.40115422010421753,-0.6739804148674011,-0.5643033981323242,1.2653205394744873,-1.4578555822372437
0.41366008843646335,-0.7678015647468402,1.5427352522750672,3.511733055114746,-0.2833433151245117,3.4010496139526367,-0.6359734535217285,-0.40196338295936584,-0.6587586998939514,-0.46249139308929443,1.268937349319458,-1.4181303977966309
0.4152816820078934,-0.7930046654877099,1.5966811436925523,3.624037265777588,-0.4194883704185486,3.3724424839019775,-0.6519073247909546,-0.403447687625885,-0.6420645713806152,-0.36445003747940063,1.3221794366836548,-1.3369394540786743
0.41614862262896135,-0.820107366310617,1.6509758582496903,3.6344614028930664,-0.6182635426521301,3.351377487182617,-0.6688114404678345,-0.40424078702926636,-0.6239235997200012,-0.3648189306259155,1.3684132099151611,-1.256951093673706
0.4161598235821931,-0.8489403739765274,1.7049527174601902,3.670370578765869,-0.7682506442070007,3.2395131587982178,-0.6865171194076538,-0.4042510390281677,-0.6043800711631775,-0.43967294692993164,1.3907470703125,-1.2295889854431152
0.4168427864408068,-0.8784156392820286,1.758387089662089,3.8393681049346924,-0.779613733291626,2.966710090637207,-0.7038179636001587,-0.40487560629844666,-0.5837088823318481,-0.5730680227279663,1.387236475944519,-1.2525339126586914
0.4199749856947079,-0.9073958764040314,1.8115669727150598,4.100674152374268,-0.6916553974151611,2.624677896499634,-0.7194333672523499,-0.4077376127243042,-0.5622860789299011,-0.6738466024398804,1.3597334623336792,-1.2694246768951416
0.42580730954688817,-0.9356430416152844,1.865021048956617,4.334689140319824,-0.5635624527931213,2.3342692852020264,-0.733100414276123,-0.4130561351776123,-0.5403224229812622,-0.6528095006942749,1.3504493236541748,-1.2217015027999878
0.4333411406793605,-0.9631478559596462,1.9188235697575415,4.448385238647461,-0.470281183719635,2.135681390762329,-0.7451066970825195,-0.4199054539203644,-0.5181653499603271,-0.5657147765159607,1.3408496379852295,-1.0968706607818604
0.4407798281402297,-0.990754930185085,1.9724695868863376,4.392788887023926,-0.5215861201286316,2.071166753768921,-0.7564923763275146,-0.426644891500473,-0.49567466974258423,-0.4461290240287781,1.3559051752090454,-0.9297099113464355
0.4463242283174023,-1.0192647939324002,2.0251929710926437,4.199688911437988,-0.659850537776947,2.09287428855896,-0.7682880759239197,-0.4316527545452118,-0.4726618826389313,-0.33794349431991577,1.3680694103240967,-0.7721959352493286
0.4490252413192921,-1.0486942167900366,2.0761496902061385,3.938795328140259,-0.8056551814079285,2.1245274543762207,-0.7808501124382019,-0.4340876042842865,-0.4492671489715576,-0.28845518827438354,1.3311060667037964,-0.6604282855987549
0.448901173909162,-1.0784769497499265,2.1246059833860316,3.6583828926086426,-0.9435251951217651,2.1207916736602783,-0.7939297556877136,-0.43397584557533264,-0.42584097385406494,-0.2924197316169739,1.2714086771011353,-0.6201490759849548
0.4464744059457208,-1.108736048300627,2.17058459200989,3.4814517498016357,-1.1274977922439575,2.1040029525756836,-0.8073902130126953,-0.43178823590278625,-0.40209439396858215,-0.2949199080467224,1.2261760234832764,-0.6546835899353027
0.4427060499898235,-1.14054011074794,2.215353778903176,3.4868621826171875,-1.3858686685562134,2.047114610671997,-0.821241021156311,-0.42838621139526367,-0.3768931031227112,-0.2971823811531067,1.2047533988952637,-0.7550649642944336
0.4386551640302601,-1.1749886993318155,2.260478342534436,3.652803421020508,-1.6340503692626953,1.95602548122406,-0.8353288769721985,-0.4247223436832428,-0.3490506708621979,-0.2916545867919922,1.1883180141448975,-0.8483220338821411
0.4348664074626221,-1.2116716224766346,2.3068166260414804,3.8448822498321533,-1.751736044883728,1.82877779006958,-0.8490687608718872,-0.42128923535346985,-0.3187437057495117,-0.270254909992218,1.1770875453948975,-0.8861361145973206
0.43131206031934416,-1.2488552556656765,2.354094294575151,3.9726831912994385,-1.6882152557373047,1.6993770599365234,-0.8617462515830994,-0.41806307435035706,-0.28743118047714233,-0.23233938217163086,1.1650418043136597,-0.8421007394790649
0.42751786475672815,-1.2848268362866295,2.4016132750545522,4.004670143127441,-1.5350933074951172,1.5990272760391235,-0.8730414509773254,-0.4146133363246918,-0.2566991448402405,-0.17682421207427979,1.1728224754333496,-0.7294001579284668
0.42311643775657426,-1.3187351498267779,2.448387968691245,3.9379055500030518,-1.3836184740066528,1.5076764822006226,-0.8830007314682007,-0.4106040596961975,-0.2274067997932434,-0.13733911514282227,1.1750693321228027,-0.5891673564910889
0.4178184515467966,-1.350595103356187,2.493524359416977,3.787489414215088,-1.3036600351333618,1.4368414878845215,-0.8919069766998291,-0.4057675302028656,-0.19963617622852325,-0.10554474592208862,1.171239972114563,-0.4619392156600952
0.4117531728096309,-1.3808516597795735,2.536125654697336,3.571619987487793,-1.3153690099716187,1.3229775428771973,-0.8999383449554443,-0.40021657943725586,-0.17302435636520386,-0.07431989908218384,1.1637816429138184,-0.37433895468711853
0.40533517986252876,-1.4100367949043757,2.5757023547119786,3.3384876251220703,-1.3776671886444092,1.2042970657348633,-0.9071210026741028,-0.3943268060684204,-0.14709772169589996,-0.04110586643218994,1.124047875404358,-0.33547675609588623
0.39861353238377584,-1.4389096994795447,2.612542213825033,3.166224241256714,-1.514096975326538,1.1089757680892944,-0.9135963916778564,-0.3881409466266632,-0.12119465321302414,0.03008204698562622,1.0767395496368408,-0.34343552589416504
0.3916525922778272,-1.4683192338330182,2.6476773677760006,3.110010862350464,-1.647405743598938,1.0294471979141235,-0.9194304943084717,-0.38171640038490295,-0.09455177932977676,0.10580146312713623,1.0401331186294556,-0.3880684971809387
0.3843563397448152,-1.4985311598433217,2.682451166207847,3.161808967590332,-1.7482848167419434,0.983465313911438,-0.9246203303337097,-0.3749625086784363,-0.06693439930677414,0.17809945344924927,1.0093313455581665,-0.43030381202697754
0.376584801795862,-1.5294169265038804,2.7174979815134646,3.223193407058716,-1.8055720329284668,0.9290822148323059,-0.929129958152771,-0.3677467405796051,-0.038468796759843826,0.2350229024887085,0.9891608953475952,-0.42719900608062744
0.3683958744379679,-1.5601879339692064,2.7526265115130983,3.255282402038574,-1.7688528299331665,0.875950276851654,-0.9328537583351135,-0.36011940240859985,-0.00989645067602396,0.27230072021484375,0.9776272773742676,-0.3795536756515503
0.35964603872338435,-1.5898432718430213,2.787608145633311,3.262848377227783,-1.6574368476867676,0.8442602753639221,-0.9358516931533813,-0.35194292664527893,0.017827272415161133,0.30705225467681885,0.968230128288269,-0.30730175971984863
0.35015959145306724,-1.6176858533660814,2.821839084486612,3.182537078857422,-1.5148289203643799,0.8342953324317932,-0.9382855892181396,-0.34304770827293396,0.044028040021657944,0.33675360679626465,0.9532466530799866,-0.21036410331726074
0.3400740291878066,-1.6432177416325628,2.8543859022873845,3.024121046066284,-1.3882131576538086,0.8040812611579895,-0.9402589201927185,-0.3335568904876709,0.06821417808532715,0.338437020778656,0.9404293298721313,-0.10761237144470215
0.3299088455788929,-1.6667519202550063,2.884623372171809,2.8112146854400635,-1.325294852256775,0.7328310608863831,-0.9417198300361633,-0.32395678758621216,0.09064164757728577,0.31137925386428833,0.9404728412628174,-0.02191615104675293
0.3203235203359753,-1.689208725141703,2.912186719438664,2.5647928714752197,-1.429503321647644,0.6001779437065125,-0.942487359046936,-0.3148736357688904,0.11212673783302307,0.23136663436889648,0.9504631757736206,0.05837489664554596
0.3120263487301309,-1.712997565037474,2.936908045894811,2.296072006225586,-1.813399076461792,0.4341284930706024,-0.9421074390411377,-0.3069877624511719,0.1348792165517807,0.13027870655059814,0.9564627408981323,0.1364220529794693
0.3051164830734219,-1.7406404288697734,2.9589352050417888,2.054633140563965,-2.3763182163238525,0.280693382024765,-0.940087616443634,-0.30040428042411804,0.16122157871723175,0.09636825323104858,0.9554335474967957,0.18507657945156097
0.2995151379756744,-1.7730930802184444,2.9787172772199617,1.863391399383545,-2.900998592376709,0.11777463555335999,-0.9359950423240662,-0.2950569689273834,0.1919747143983841,0.07208836078643799,0.9230018854141235,0.18810638785362244
0.29529573028521094,-1.8089361095582523,2.997066976794448,1.7351819276809692,-3.1253676414489746,-0.048497967422008514,-0.9297159314155579,-0.29102280735969543,0.22568480670452118,0.10552793741226196,0.8959269523620605,0.16510792076587677
0.29207802107288394,-1.8450433180280428,3.0142147973098843,1.582595705986023,-3.066939353942871,-0.15368840098381042,-0.9218596816062927,-0.2879428565502167,0.2593521475791931,0.1802825927734375,0.8659152388572693,0.15203997492790222
0.28954889492194685,-1.8796299735763213,3.029777699144296,1.4054275751113892,-2.939049243927002,-0.21137486398220062,-0.9130308628082275,-0.28551992774009705,0.2912951409816742,0.2555449604988098,0.8079351186752319,0.16413387656211853
0.28747753394329395,-1.912479876894583,3.043437498047338,1.197812795639038,-2.835610866546631,-0.22743114829063416,-0.903526246547699,-0.2835341691970825,0.32132306694984436,0.316017210483551,0.7693434953689575,0.1822321116924286
0.2858216227243405,-1.9438556436659393,3.055000279312129,0.9923760294914246,-2.782933235168457,-0.23191991448402405,-0.8934375047683716,-0.2819458246231079,0.34967973828315735,0.33929938077926636,0.7485747933387756,0.18346238136291504
0.2843919359483383,-1.9748096630523955,3.0645254227326304,0.8036589622497559,-2.8773515224456787,-0.18429549038410187,-0.8825567960739136,-0.28057387471199036,0.3773213028907776,0.3401985764503479,0.7237196564674377,0.18494969606399536
0.2828022560268349,-2.006885551324291,3.071869194096979,0.6080199480056763,-3.125831365585327,-0.09628093987703323,-0.8704054951667786,-0.2790476977825165,0.40561917424201965,0.330183207988739,0.6878763437271118,0.207036554813385
0.281124222230722,-2.0412750613777635,3.076729812493455,0.36889952421188354,-3.460517406463623,-0.013855348341166973,-0.8563605546951294,-0.27743589878082275,0.4355178475379944,0.28383564949035645,0.6403509378433228,0.24426120519638062
0.28002290400162205,-2.0780036437402365,3.0787570764337224,0.07117436081171036,-3.7360756397247314,0.019425909966230392,-0.8400574326515198,-0.2763776481151581,0.4668181836605072,0.19718921184539795,0.5967816114425659,0.2759644389152527
0.28032789796539764,-2.1161614718945665,3.077912861822848,-0.24521124362945557,-3.9062492847442627,0.006764225661754608,-0.8215652108192444,-0.27667075395584106,0.49848151206970215,0.10157930850982666,0.5383131504058838,0.29384633898735046
0.2824266358418784,-2.1548155568903358,3.0745769946204744,-0.5096673965454102,-3.976414203643799,-0.024666134268045425,-0.8012017607688904,-0.2786869704723358,0.5295367240905762,0.01834970712661743,0.5019688010215759,0.28371089696884155
0.2865545175582766,-2.1931875216382872,3.0699012723614567,-0.6849306225776672,-3.912325620651245,-0.15546590089797974,-0.7793563008308411,-0.2826489210128784,0.5592076778411865,-0.06157076358795166,0.47976192831993103,0.2599145770072937
0.2931213229328357,-2.229883683630934,3.065177085940751,-0.819661021232605,-3.6577796936035156,-0.36308753490448,-0.7568317651748657,-0.2889418303966522,0.5862748622894287,-0.1564677357673645,0.44709914922714233,0.233656108379364
0.30254473660466424,-2.263830931415553,3.0610870705878144,-0.9745382070541382,-3.3564553260803223,-0.6097831726074219,-0.7343699336051941,-0.2979503273963928,0.609857976436615,-0.22849029302597046,0.45621439814567566,0.2301841378211975
0.3150764088832996,-2.2951860817606393,3.0571910427083937,-1.23007071018219,-3.1528966426849365,-0.7967155575752258,-0.7120375633239746,-0.3098891079425812,0.6300567984580994,-0.24429184198379517,0.4774000346660614,0.27396541833877563
0.3310823375344129,-2.3248601662070256,3.052471689548049,-1.5887267589569092,-3.0637993812561035,-0.9637541770935059,-0.6893264651298523,-0.32506677508354187,0.6474264860153198,-0.24049854278564453,0.4605189263820648,0.33198946714401245
0.351127243018412,-2.3532446343428113,3.0466793474960943,-1.9684375524520874,-2.987225294113159,-1.1583993434906006,-0.6659188270568848,-0.34395650029182434,0.6620016098022461,-0.27669286727905273,0.45458269119262695,0.3393411636352539
0.3752779509736299,-2.3810301469676682,3.040445054661378,-2.2703604698181152,-3.0106561183929443,-1.3833339214324951,-0.6413557529449463,-0.3665311634540558,0.6740309596061707,-0.3382127285003662,0.445754736661911,0.29127049446105957
0.40297129321955794,-2.409743544672219,3.0350799315297836,-2.435180902481079,-3.1230146884918213,-1.6415345668792725,-0.6147198677062988,-0.3921533524990082,0.6843504309654236,-0.39074283838272095,0.40587088465690613,0.20851761102676392
0.4332549164116461,-2.4404461310647196,3.0320077713526996,-2.475351095199585,-3.242668628692627,-1.904115080833435,-0.5854901075363159,-0.4198271930217743,0.6935030817985535,-0.4028216600418091,0.3970915675163269,0.10331082344055176
0.46524098784644585,-2.473467833815208,3.032066951680445,-2.4587137699127197,-3.3288073539733887,-2.1320786476135254,-0.5536689758300781,-0.4486382007598877,0.7015514373779297,-0.3594169020652771,0.4411766231060028,0.014329850673675537
0.4983148277366025,-2.5085925390850727,3.0351591785003422,-2.466142177581787,-3.3883447647094727,-2.286376953125,-0.5196254849433899,-0.4779459834098816,0.7082069516181946,-0.2639133930206299,0.5290170311927795,-0.03727811574935913
0.532394524387498,-2.545227671441616,3.040264139592794,-2.591486692428589,-3.4048402309417725,-2.340813398361206,-0.48390454053878784,-0.5075979232788086,0.7128679752349854,-0.13465625047683716,0.6271809935569763,-0.0450977087020874
0.5678925989793989,-2.582016873875489,3.045971682023219,-2.808337450027466,-3.3314805030822754,-2.3340907096862793,-0.44750621914863586,-0.5378566384315491,0.7144567370414734,-0.031894415616989136,0.6118769645690918,-0.047495126724243164
0.6047550188923122,-2.618336755589451,3.0522483689141877,-2.930990219116211,-3.2080039978027344,-2.348766326904297,-0.4110763370990753,-0.5685605406761169,0.7125692367553711,0.0062149763107299805,0.5266599655151367,-0.12095552682876587
0.6417428800473041,-2.6544398889599248,3.0605681815492685,-2.8428215980529785,-3.0127668380737305,-2.4090235233306885,-0.37498271465301514,-0.5985925197601318,0.7078666090965271,0.009992450475692749,0.4999290704727173,-0.2711448073387146
0.6773561454659409,-2.691235960313322,3.0730111317433346,-2.5891048908233643,-2.805570602416992,-2.562368392944336,-0.3391895294189453,-0.6267350316047668,0.7015367150306702,-0.0138072669506073,0.48787999153137207,-0.4131455421447754
0.7106741913952934,-2.7303769814219647,3.0914232383647837,-2.2600629329681396,-2.652458906173706,-2.7793760299682617,-0.3029596209526062,-0.6523448824882507,0.6947383880615234,-0.03805899620056152,0.490037202835083,-0.5020657777786255
0.7410840786849602,-2.7730326345461984,3.116621782777265,-1.927182674407959,-2.5262110233306885,-2.998838186264038,-0.26578643918037415,-0.6750880479812622,0.6881960034370422,-0.009894073009490967,0.5204554796218872,-0.526254415512085
0.7684846920316545,-2.819689391039278,-3.135121513504257,-1.6874371767044067,-2.4954311847686768,-3.1296143531799316,-0.22746069729328156,-0.695046603679657,0.6820349097251892,0.08085429668426514,0.5480892062187195,-0.46943432092666626
0.7933405277155198,-2.8700787324688934,-3.0996904949816355,-1.6071546077728271,-2.5974302291870117,-3.101532220840454,-0.18812695145606995,-0.7127005457878113,0.6757707595825195,0.22613662481307983,0.5491721034049988,-0.3184557557106018
0.8165270048214138,-2.9235773178031184,-3.062986287330408,-1.6586427688598633,-2.7971975803375244,-2.9236903190612793,-0.14810757339000702,-0.7287721037864685,0.6685472130775452,0.3715572655200958,0.5714081525802612,-0.1410815715789795
0.8387246073430672,-2.9789252743003254,-3.027263410557035,-1.7738457918167114,-3.003925085067749,-2.643610715866089,-0.1082499548792839,-0.7437912225723267,0.6595881581306458,0.4596903920173645,0.5934921503067017,0.00040018558502197266
0.8602834660937153,-3.035976013501347,-2.993394642002168,-1.886894702911377,-3.323781728744507,-2.3570597171783447,-0.068757563829422,-0.7580274939537048,0.648588240146637,0.479920893907547,0.6554731130599976,0.12190413475036621
0.881517050064221,-3.0963048958141304,-2.9611306820070875,-2.0295329093933105,-3.791334867477417,-2.1074066162109375,-0.028792306780815125,-0.7717045545578003,0.6353288888931274,0.4383382201194763,0.7387303709983826,0.27707022428512573
0.9032048243676112,3.121846956293137,-2.9291802988920432,-2.2548017501831055,-4.188251972198486,-1.9683347940444946,0.012223690748214722,-0.7853150367736816,0.6189754605293274,0.3439164459705353,0.7805085778236389,0.44155603647232056
0.9262461869005895,3.051858399979494,-2.894573377580982,-2.57525897026062,-4.242371082305908,-2.015061378479004,0.053843505680561066,-0.7993701696395874,0.5984215140342712,0.21994495391845703,0.7945635914802551,0.5725531578063965
0.9508951117755888,2.9778651637971807,-2.8528753949998324,-2.921459674835205,-3.7396717071533203,-2.2660248279571533,0.0946938619017601,-0.8139358758926392,0.573185384273529,0.0968191921710968,0.7923141121864319,0.6272234916687012
0.9758728635682007,2.901233997816015,-2.799612969503562,-3.1598639488220215,-2.7816250324249268,-2.691563367843628,0.13341456651687622,-0.8281913995742798,0.5443339943885803,0.02275913953781128,0.7876793146133423,0.5830157995223999
0.9986541207056924,2.8227809720546637,-2.7324612307584966,-3.2291204929351807,-1.702185034751892,-3.1383016109466553,0.1697063148021698,-0.8407430648803711,0.5141507983207703,0.04658699035644531,0.8011006712913513,0.47744154930114746
1.016931127552229,2.7430239582173574,-2.653218819786329,-3.138794183731079,-0.8992078900337219,-3.4726133346557617,0.20413212478160858,-0.850497841835022,0.4847511053085327,0.1963805854320526,0.8360629081726074,0.373479425907135
1.0294043278208451,2.662650449046484,-2.5670441323147046,-2.9526124000549316,-0.5612052083015442,-3.6006345748901367,0.23748478293418884,-0.8569921851158142,0.457346111536026,0.41910091042518616,0.8880285024642944,0.3007410764694214
1.0365633919496546,2.581018076640009,-2.47879831540937,-2.7885587215423584,-0.6675963401794434,-3.511204481124878,0.2707177400588989,-0.8606594800949097,0.4312506914138794,0.6489905118942261,0.9282711744308472,0.2909477949142456
1.0401277807751577,2.498485872355457,-2.392896778539863,-2.743382692337036,-1.0600900650024414,-3.2454745769500732,0.3035062551498413,-0.8624688982963562,0.40500763058662415,0.8431612253189087,0.9841883778572083,0.33849209547042847
1.0424769611576366,2.4141053689046026,-2.3104441494292165,-2.90141224861145,-1.5846867561340332,-2.8893260955810547,0.3352122902870178,-0.8636554479598999,0.37647274136543274,0.9781268835067749,1.019371509552002,0.4438244700431824
1.0456042204803475,2.325567286233335,-2.229029328262642,-3.253204584121704,-2.0129339694976807,-2.5326120853424072,0.3652191460132599,-0.8652276396751404,0.3435060977935791,1.038116455078125,1.0188376903533936,0.5560452938079834
1.049993200635687,2.231856097905217,-2.145500215633797,-3.6239848136901855,-2.2207541465759277,-2.221710443496704,0.39275839924812317,-0.8674198389053345,0.3054892122745514,1.0308256149291992,1.005649209022522,0.5820534229278564
1.0543309983117424,2.134495065958075,-2.0591221439448275,-3.834096908569336,-2.1976113319396973,-1.994465708732605,0.4174095094203949,-0.8695700764656067,0.26385045051574707,1.0060523748397827,0.9619773030281067,0.5196882486343384
1.0564436072609158,2.0378892095068313,-1.971401242841937,-3.8560726642608643,-1.7919914722442627,-1.9083003997802734,0.43927180767059326,-0.8706113696098328,0.221530944108963,0.968626081943512,0.904714822769165,0.38793548941612244
1.0544365220668335,1.9479848714725716,-1.884619025189356,-3.7482433319091797,-1.0519269704818726,-1.9596961736679077,0.4590110778808594,-0.8696221709251404,0.181840181350708,0.9392126798629761,0.8307887315750122,0.2393939197063446
1.0479171031697054,1.868987737450493,-1.8013431012455574,-3.600829839706421,-0.31670841574668884,-1.98216712474823,0.47733885049819946,-0.8663849830627441,0.14671280980110168,0.9802417159080505,0.7604584693908691,0.14276158809661865
1.0384091205549104,1.800303240426465,-1.7233049923858508,-3.4775047302246094,0.005133835598826408,-1.8572754859924316,0.4942817986011505,-0.8615977764129639,0.11547574400901794,1.1155966520309448,0.7514751553535461,0.11853288859128952
1.0285084305308934,1.7371547200942312,-1.6503615038710842,-3.4568116664886475,-0.16683952510356903,-1.516078233718872,0.5089718103408813,-0.8565301299095154,0.0854615792632103,1.2814944982528687,0.7718744277954102,0.16635417938232422
1.0207187106083626,1.67235558671544,-1.5796390407668228,-3.6148502826690674,-0.7319437861442566,-0.987771213054657,0.5200597643852234,-0.8524839282035828,0.05299922451376915,1.4210259914398193,0.777883768081665,0.25954651832580566
1.0161851388846737,1.600498451628936,-1.5073692683712367,-3.875255584716797,-1.3127262592315674,-0.4099310040473938,0.5263804793357849,-0.8501052856445312,0.01563921757042408,1.4871234893798828,0.7494735717773438,0.3326425552368164
1.0145249776845582,1.5206364585717878,-1.4310926184748045,-4.140725612640381,-1.6526211500167847,0.15351226925849915,0.5273593068122864,-0.8492298126220703,-0.026474479585886,1.4719693660736084,0.6514759063720703,0.3478092551231384
1.0144621685648723,1.4351849788599977,-1.3502150168953029,-4.32640266418457,-1.6422332525253296,0.6030099391937256,0.5232282876968384,-0.8491966724395752,-0.07139389216899872,1.4046127796173096,0.57032710313797,0.30680644512176514
1.0140693932957068,1.349017419090816,-1.2661746719633886,-4.383474349975586,-1.279013752937317,0.8696028590202332,0.5154682397842407,-0.8489891886711121,-0.11623191833496094,1.2788736820220947,0.5128838419914246,0.20610612630844116
1.0116829412825858,1.267169005628051,-1.181864052145449,-4.321753978729248,-0.7783592939376831,0.9661075472831726,0.5061720013618469,-0.8477257490158081,-0.1585913598537445,1.1297991275787354,0.44379496574401855,0.10240845382213593
1.0065827115092263,1.1922813273576975,-1.1001350614864545,-4.191256523132324,-0.3834610879421234,0.9786701202392578,0.4968985617160797,-0.8450093865394592,-0.19761250913143158,1.0146369934082031,0.40229105949401855,0.04143872857093811
0.9991214573021159,1.1233480828756848,-1.0222290177404205,-4.073200225830078,-0.29707106947898865,1.0164766311645508,0.487777978181839,-0.8409959673881531,-0.23409037292003632,0.9911648631095886,0.40596795082092285,0.043981075286865234
0.9897147424636931,1.0577012921513669,-0.9470679198962924,-4.050373077392578,-0.22133423388004303,1.1000041961669922,0.4782424867153168,-0.8358694314956665,-0.26945579051971436,1.0405105352401733,0.446083664894104,0.08314591646194458
0.9785299870144214,0.9939759894610968,-0.8726995719168215,-4.139737129211426,-0.14426448941230774,1.2627185583114624,0.4679194688796997,-0.8296776413917542,-0.30444401502609253,1.0997684001922607,0.4164087176322937,0.08525151014328003
0.9657905300433055,0.9300620755314732,-0.7971303695844792,-4.276487350463867,-0.16959944367408752,1.5143754482269287,0.45595598220825195,-0.8224987983703613,-0.33999985456466675,1.1753153800964355,0.41783571243286133,0.05827677249908447
0.9517420915438645,0.8652341439955741,-0.7204589732774845,-4.325948715209961,-0.24417515099048615,1.7694751024246216,0.4417251646518707,-0.8144276142120361,-0.3762798309326172,1.2057510614395142,0.4334309697151184,-0.0267353355884552
0.9367883899994057,0.8011015317420047,-0.6445883124098618,-4.225792407989502,-0.2936088740825653,1.9801968336105347,0.4254007041454315,-0.8056597709655762,-0.4122457504272461,1.184462547302246,0.42827945947647095,-0.16365152597427368
0.9215488139448964,0.7398175176850192,-0.5719423908980409,-3.9866130352020264,-0.3191147744655609,2.1193788051605225,0.40758439898490906,-0.7965389490127563,-0.4465430676937103,1.1498801708221436,0.4156948924064636,-0.28525322675704956
0.906438340418029,0.6828712986057821,-0.5035219851779904,-3.744372844696045,-0.22248631715774536,2.229560613632202,0.3890596628189087,-0.7873128056526184,-0.4783002436161041,1.1523221731185913,0.4088643193244934,-0.35414302349090576
0.8914572619459202,0.6306030885155228,-0.43834427743243765,-3.5863869190216064,-0.030987728387117386,2.3714656829833984,0.3704533278942108,-0.7779881358146667,-0.5074433088302612,1.2084040641784668,0.408984899520874,-0.38444817066192627
0.8764661881549206,0.5819104859775714,-0.3743060775760691,-3.528911590576172,0.15329012274742126,2.6072041988372803,0.3516864776611328,-0.768482506275177,-0.5345571637153625,1.2852458953857422,0.3810924291610718,-0.4122660160064697
0.8612287630167506,0.5344815389713758,-0.3094887868539708,-3.5271050930023193,0.18976585566997528,2.894775390625,0.3318737745285034,-0.7586436867713928,-0.5606421828269958,1.3305407762527466,0.3758159279823303,-0.4740258455276489
0.845564443061948,0.48603961267266044,-0.24291316377551078,-3.4588756561279297,0.1378193497657776,3.2057583332061768,0.3098500967025757,-0.7483456134796143,-0.586491048336029,1.3306528329849243,0.4273923635482788,-0.5870014429092407
0.8303365313562857,0.43682181385837504,-0.175283727486594,-3.2633469104766846,0.06009979918599129,3.5213794708251953,0.2854090929031372,-0.7381584644317627,-0.6112803816795349,1.3145664930343628,0.45054560899734497,-0.7323017716407776
0.8163964827304266,0.38735886851096896,-0.10743957588918279,-2.9630024433135986,-0.0013364311307668686,3.7809431552886963,0.2586987018585205,-0.7286826968193054,-0.6341107487678528,1.2648913860321045,0.4623863697052002,-0.848616361618042
0.80388064341347,0.3386932582329198,-0.03999271227303305,-2.6755332946777344,0.05576067417860031,4.002162456512451,0.23055751621723175,-0.7200543284416199,-0.6544959545135498,1.1921566724777222,0.49709296226501465,-0.9073174595832825
0.7921236417235926,0.2914366798278048,0.027809832142632107,-2.4930381774902344,0.19469937682151794,4.251074314117432,0.20180100202560425,-0.7118464112281799,-0.6727191805839539,1.1464197635650635,0.5041742920875549,-0.9279583692550659
0.78028038602346,0.24479052306348534,0.0970421634993742,-2.3744277954101562,0.24758575856685638,4.528961658477783,0.17224431037902832,-0.7034786939620972,-0.6895285248756409,1.0852324962615967,0.4994993209838867,-0.9423074722290039
0.7677547450549208,0.19714449493860736,0.16771489244144652,-2.269287586212158,0.07321766018867493,4.741483688354492,0.1409229040145874,-0.6945216059684753,-0.7055355906486511,0.9389110803604126,0.5275905132293701,-0.9660648107528687
0.7542998083296172,0.1475986685083603,0.23852079150040084,-2.119441270828247,-0.21282847225666046,4.861830234527588,0.10717258602380753,-0.6847785711288452,-0.720827579498291,0.7374776601791382,0.536249577999115,-0.9888129830360413
0.7402502430942249,0.09696157085016008,0.30845158206954,-1.902043342590332,-0.38614600896835327,4.944149017333984,0.071474589407444,-0.6744726896286011,-0.7348319292068481,0.6088690757751465,0.5586432814598083,-1.0393227338790894
0.7261122935419742,0.04709444396882535,0.3771465876317201,-1.6390413045883179,-0.3596312999725342,5.003435134887695,0.03520239144563675,-0.6639676094055176,-0.746932327747345,0.5486904382705688,0.6199307441711426,-1.1073768138885498
0.712238665786197,2.591129835895356e-05,0.4446749247633184,-1.364434003829956,-0.1484365165233612,5.054068088531494,1.96122800844023e-05,-0.6535298824310303,-0.7569007277488708,0.4802355170249939,0.6462820172309875,-1.1847649812698364
0.6987517170203085,-0.0433657801297623,0.5109153282761959,-1.1026290655136108,0.047119926661252975,5.041473388671875,-0.03319241851568222,-0.6432624459266663,-0.7649258971214294,0.3744857907295227,0.661023736000061,-1.2503023147583008
0.6860497082910831,-0.0834237696355674,0.5749967430428422,-0.7947772145271301,0.11155980080366135,4.920028209686279,-0.0644746720790863,-0.6334855556488037,-0.7710635662078857,0.2144838571548462,0.7020128965377808,-1.2918941974639893
0.6748723431039262,-0.12092398477429259,0.636389200337442,-0.45316770672798157,0.10601003468036652,4.773881435394287,-0.09418591111898422,-0.6247976422309875,-0.7750850915908813,0.08623608946800232,0.6852682828903198,-1.3147586584091187
0.6654754678263836,-0.15669506124042254,0.6956266550586149,-0.1260816752910614,0.10109274089336395,4.653608322143555,-0.12275619804859161,-0.6174331903457642,-0.7769859433174133,0.063307985663414,0.6628586649894714,-1.3071815967559814
0.6576604488191737,-0.19109068034946014,0.7533340786037317,0.15422189235687256,0.10572530329227448,4.564904689788818,-0.15031512081623077,-0.6112669706344604,-0.7770187258720398,0.08755575120449066,0.6778258085250854,-1.2671250104904175
0.6508072692024254,-0.22487279929919549,0.8103539961565296,0.36347949504852295,0.06990288943052292,4.555808067321777,-0.17740365862846375,-0.6058288812637329,-0.7755638957023621,0.14069105684757233,0.6986175775527954,-1.2056678533554077
0.6441015646715778,-0.2589829433572764,0.8675694149838962,0.5122676491737366,0.0021139932796359062,4.605395317077637,-0.20478573441505432,-0.6004802584648132,-0.7729723453521729,0.2053350806236267,0.7279370427131653,-1.1359632015228271
0.6369585217134053,-0.2940249702779202,0.9252708869902707,0.6351925730705261,-0.11125833541154861,4.651577472686768,-0.23297810554504395,-0.5947531461715698,-0.7694087624549866,0.23491601645946503,0.7722129225730896,-1.0762333869934082
0.6293545850065564,-0.3297276706854597,0.9830846829922998,0.7750351428985596,-0.1740596741437912,4.651620864868164,-0.26175057888031006,-0.5886231064796448,-0.764859139919281,0.21917855739593506,0.817550778388977,-1.0303221940994263
0.6215781609295856,-0.3649975578498301,1.0405693594561072,0.9339637160301208,-0.14690330624580383,4.603643894195557,-0.29018381237983704,-0.5823188424110413,-0.7594064474105835,0.19571667909622192,0.8446632623672485,-1.001335859298706
0.6138488447380318,-0.3992317094857883,1.097422290736506,1.073988914489746,-0.12171991169452667,4.546474933624268,-0.31774643063545227,-0.5760179162025452,-0.7531537413597107,0.18003591895103455,0.8642717599868774,-0.9581957459449768
0.6057162550930812,-0.4329309210261261,1.1536936746777693,1.1459654569625854,-0.1858818680047989,4.522881507873535,-0.3448958396911621,-0.569351077079773,-0.7462480664253235,0.19729766249656677,0.8809813857078552,-0.8921491503715515
0.5961684385878561,-0.4667979900709674,1.2093156785670078,1.1037453413009644,-0.2829442322254181,4.5520920753479,-0.37239599227905273,-0.5614759922027588,-0.7389627695083618,0.2297568917274475,0.8757308125495911,-0.8376516699790955
0.5841706984532358,-0.500381406737408,1.2643454675702077,1.0229154825210571,-0.30449193716049194,4.628689289093018,-0.4002014696598053,-0.5515077710151672,-0.7319002747535706,0.2613618075847626,0.8686007261276245,-0.8622922897338867
0.5700163227769146,-0.5333006856980715,1.318879119069228,1.0470173358917236,-0.3230251371860504,4.68479061126709,-0.4279998242855072,-0.539645791053772,-0.7249817848205566,0.2555297911167145,0.897037148475647,-0.9774718284606934
