attitudeX,attitudeY,attitudeZ,gyroX,gyroY,gyroZ,gravityX,gravityY,gravityZ,accX,accY,accZ
0.49283153042655903,0.12953462222803164,0.26393165706958377,-0.46804627776145935,-0.2906491160392761,-0.032644882798194885,0.11380070447921753,-0.47312235832214355,-0.8736158609390259,0.19470150768756866,-0.17012709379196167,-0.1781267523765564
0.48728136041910336,0.1252098910743935,0.2652247544684636,-0.6383551359176636,-0.45665743947029114,0.1209520548582077,0.11034773290157318,-0.4682254195213318,-0.8766916990280151,0.20261003077030182,-0.15466883778572083,-0.23662006855010986
0.4810680714109792,0.11836247254360963,0.26826213792635334,-0.6350085735321045,-0.6201592683792114,0.25582143664360046,0.10468364506959915,-0.46272629499435425,-0.8802986145019531,0.20375753939151764,-0.14994454383850098,-0.3472404479980469
0.47581488452174675,0.10982605419804169,0.2723737482165518,-0.4695892035961151,-0.6944745779037476,0.3403642177581787,0.09743040800094604,-0.4580629765987396,-0.8835641741752625,0.16442567110061646,-0.1507931649684906,-0.46479398012161255
0.47298082711575035,0.10078971329551101,0.2767854336569171,-0.15833306312561035,-0.6865686774253845,0.3730335235595703,0.08957261592149734,-0.4555418789386749,-0.885696530342102,0.09075576066970825,-0.1490418016910553,-0.574691653251648
0.4735021205540403,0.09260196860712278,0.28095451350298967,0.18103234469890594,-0.5660322904586792,0.36953452229499817,0.08229586482048035,-0.45600587129592896,-0.8861636519432068,0.00626615434885025,-0.13318166136741638,-0.6291103959083557
0.4769333338924003,0.08572841725237584,0.28462930064406516,0.4282591938972473,-0.47474047541618347,0.3365640342235565,0.0760684609413147,-0.45905688405036926,-0.8851442337036133,-0.0329471230506897,-0.13368597626686096,-0.5845365524291992
0.4822916416727768,0.07979823282213745,0.28768539440823737,0.5795760154724121,-0.43449822068214417,0.29352352023124695,0.07062099128961563,-0.46381062269210815,-0.8831151723861694,-0.006381481885910034,-0.17606663703918457,-0.5083338618278503
0.48851132000183833,0.07433321697487973,0.290338893125589,0.6040435433387756,-0.4105300307273865,0.2727111876010895,0.06557821482419968,-0.4693118631839752,-0.8805940747261047,0.04214884340763092,-0.211870938539505,-0.41043686866760254
0.4944026483345458,0.06918320743775104,0.29295075359902223,0.5260698795318604,-0.36554327607154846,0.26515400409698486,0.0608501099050045,-0.4745059013366699,-0.8781465888023376,0.0533924400806427,-0.2082638144493103,-0.29746687412261963
0.49922876045402365,0.06475601482744575,0.2955507188496844,0.4004647731781006,-0.27539047598838806,0.2509545683860779,0.05681295320391655,-0.4787485599517822,-0.8761119246482849,0.025096237659454346,-0.1780659556388855,-0.2060566544532776
0.5027522754002637,0.06085014551105429,0.29812401872384436,0.2769368290901184,-0.26885557174682617,0.24200789630413055,0.05328763276338577,-0.48183906078338623,-0.8746379613876343,0.015025973320007324,-0.1446104645729065,-0.15201914310455322
0.505313517332683,0.05668417641385898,0.3007648165173003,0.21559330821037292,-0.30559229850769043,0.2540520429611206,0.0495733879506588,-0.48408180475234985,-0.8736173510551453,0.030825182795524597,-0.12312641739845276,-0.13869649171829224
0.5075986207706236,0.05210901240829041,0.303747159280741,0.2155085653066635,-0.31128138303756714,0.2911410927772522,0.04551820456981659,-0.4860800504684448,-0.8727280497550964,0.06114073097705841,-0.0944862961769104,-0.13128501176834106
0.5099824374855505,0.04731965756346938,0.3073082148875234,0.22864781320095062,-0.3039923310279846,0.3543362617492676,0.04128296673297882,-0.48816192150115967,-0.8717761039733887,0.08950012922286987,-0.04926782846450806,-0.10437434911727905
0.5125750950798927,0.041869234011325675,0.31197826760550834,0.25820156931877136,-0.3341323435306549,0.4983634948730469,0.03647772967815399,-0.4904230237007141,-0.8707207441329956,0.1352599561214447,0.008565783500671387,-0.0708075761795044
0.5157483624729234,0.03572976593595294,0.3187541145091896,0.3343205749988556,-0.2316773384809494,0.700998067855835,0.03107556328177452,-0.49318599700927734,-0.8693686723709106,0.20116321742534637,0.05457216501235962,-0.03918546438217163
0.5198355641764503,0.028712554647711483,0.3278021595628307,0.4319261908531189,-0.2886095643043518,0.8844362497329712,0.024916227906942368,-0.49673742055892944,-0.8675431609153748,0.19557328522205353,0.0865202248096466,0.014546334743499756
0.5250364688399687,0.01993636659166881,0.33873694663709314,0.5631087422370911,-0.35998600721359253,1.0235962867736816,0.017249908298254013,-0.5012445449829102,-0.8651337027549744,0.16271226108074188,0.1671534776687622,0.041830480098724365
0.5314007142974576,0.010053337960428801,0.35095311900647447,0.6592793464660645,-0.37702471017837524,1.0836615562438965,0.008666818030178547,-0.5067414045333862,-0.8620545268058777,0.11875933408737183,0.1829041838645935,0.08713692426681519
0.5376106869265843,-0.0003757067240785676,0.3640084630817726,0.5336159467697144,-0.4005500078201294,1.1640487909317017,-0.00032270752126351,-0.5120851993560791,-0.8589345812797546,0.11851729452610016,0.21075469255447388,0.20709437131881714
0.5413445934101062,-0.012081630771276825,0.37799462865003947,0.21208465099334717,-0.4842970371246338,1.2190186977386475,-0.010353907011449337,-0.515288770198822,-0.8569540977478027,0.1110771894454956,0.1910700798034668,0.32965606451034546
0.5412218215163954,-0.024285517412944838,0.3922876497818655,-0.19205722212791443,-0.4873889684677124,1.2105463743209839,-0.020812582224607468,-0.5151835680007935,-0.8568271398544312,0.01650962233543396,0.20445364713668823,0.3825076222419739
0.5372950560829648,-0.036581635375242894,0.4058981511572483,-0.4968436062335968,-0.5748299360275269,1.1337611675262451,-0.031420137733221054,-0.5118140578269958,-0.8585215210914612,-0.027906015515327454,0.21901321411132812,0.3670358657836914
0.5312514537631122,-0.04924096499975965,0.41823441909780174,-0.5891410112380981,-0.7058414816856384,1.0337125062942505,-0.0424371138215065,-0.5066127181053162,-0.8611287474632263,-0.0651983767747879,0.22539329528808594,0.27256667613983154
0.5251009210517855,-0.06299330407491319,0.42931445153967585,-0.5114233493804932,-0.9473038911819458,0.9396948218345642,-0.05447038635611534,-0.5013003349304199,-0.8635571599006653,-0.08264507353305817,0.2389560341835022,0.1969616413116455
0.5202189830077218,-0.0791618998865282,0.4392182003281797,-0.32877737283706665,-1.2904325723648071,0.8316218852996826,-0.06861788034439087,-0.49707016348838806,-0.8649929761886597,-0.08160488307476044,0.28195181488990784,0.14912688732147217
0.5171819190065359,-0.09771358839756825,0.44789043304568105,-0.15562133491039276,-1.5457066297531128,0.7207696437835693,-0.08479911834001541,-0.49443256855010986,-0.8650696873664856,-0.10302127152681351,0.315874308347702,0.1517975926399231
0.5152647803847935,-0.1185590767502465,0.4554444589916166,-0.09870585054159164,-1.8797810077667236,0.6266245245933533,-0.10292412340641022,-0.49276527762413025,-0.8640538454055786,-0.09547063708305359,0.35973918437957764,0.2645207643508911
0.513117097457769,-0.14248825094010992,0.4621581909123408,-0.19118040800094604,-2.2293152809143066,0.602062463760376,-0.12371877580881119,-0.4908953011035919,-0.8623893857002258,-0.055709317326545715,0.4326373338699341,0.42882609367370605
0.5090727767277484,-0.16967528533944257,0.46903004415956917,-0.4378378689289093,-2.511259078979492,0.7243266105651855,-0.1474500298500061,-0.48736780881881714,-0.8606573939323425,-0.0006975382566452026,0.5345785617828369,0.5935827493667603
0.5016044060631858,-0.1999447678002708,0.477304411503223,-0.7664399147033691,-2.721285820007324,0.9803314805030823,-0.17414824664592743,-0.48083293437957764,-0.8593440055847168,0.07058686017990112,0.6706370115280151,0.7115321159362793
0.48999633655455976,-0.23307642253423608,0.48766481325492467,-1.097625970840454,-2.895482301712036,1.2961632013320923,-0.2037944495677948,-0.4706226587295532,-0.8584766387939453,0.1164073795080185,0.794231116771698,0.7697619795799255
0.4742074850505669,-0.26869183424682774,0.5002796087940004,-1.3898688554763794,-3.037012815475464,1.6523232460021973,-0.23617707192897797,-0.4566335380077362,-0.8577331900596619,0.10547029972076416,0.9097127914428711,0.7450774908065796
0.45429034484932207,-0.30688049169440523,0.5153223645445703,-1.6473007202148438,-3.261162281036377,2.046992301940918,-0.2714465260505676,-0.43882474303245544,-0.8565918207168579,0.07189211249351501,1.0022708177566528,0.6717315912246704
0.4307914148403011,-0.34791798114891087,0.5324287786836477,-1.7734625339508057,-3.450928211212158,2.3626534938812256,-0.30979135632514954,-0.41759005188941956,-0.8541942834854126,0.04114517569541931,1.0471220016479492,0.6151043176651001
0.40502632690035356,-0.3908209912948639,0.5506974079921098,-1.8057645559310913,-3.642376661300659,2.596005916595459,-0.3501259386539459,-0.39404296875,-0.8497893810272217,-0.010088294744491577,1.0637969970703125,0.5398528575897217
0.3772473764457294,-0.4360579246649774,0.569733518339807,-1.8347020149230957,-3.9798777103424072,2.8515970706939697,-0.3926694393157959,-0.36836281418800354,-0.8426859378814697,-0.0376589298248291,1.0841374397277832,0.4671823978424072
0.347299451213262,-0.48562015922906865,0.5898443303346403,-1.8398743867874146,-4.525587558746338,3.17856502532959,-0.4388893246650696,-0.34035974740982056,-0.8315836787223816,-0.024336934089660645,1.0965396165847778,0.4461466670036316
0.31442466102879607,-0.5407949359155252,0.6116196122054933,-1.8338872194290161,-5.007954120635986,3.6068243980407715,-0.4895784556865692,-0.30926939845085144,-0.8152701258659363,-0.0077817440032958984,1.1205182075500488,0.4254233241081238
0.2786812622423647,-0.598161139699414,0.634801795579371,-1.7820549011230469,-5.0351338386535645,3.957118272781372,-0.5413979887962341,-0.27508804202079773,-0.7944902777671814,-0.042357444763183594,1.1282222270965576,0.3991045355796814
0.2396045863839649,-0.6539102322274956,0.6583192895193707,-1.89230477809906,-4.849466800689697,4.285276412963867,-0.5909168124198914,-0.23731853067874908,-0.7710365056991577,-0.027537107467651367,1.247191071510315,0.38993293046951294
0.19593742170734976,-0.7056577017874553,0.6813170505035872,-2.0435123443603516,-4.462275981903076,4.66926383972168,-0.6361252665519714,-0.19468609988689423,-0.7466203570365906,0.00045943260192871094,1.3171226978302002,0.3674393892288208
0.1481730230117492,-0.7521119974246254,0.7039437466473136,-2.078336715698242,-4.029922962188721,4.9691996574401855,-0.6756965517997742,-0.1476314216852188,-0.7222458720207214,-0.06296610832214355,1.2822291851043701,0.25245827436447144
0.09805902331016743,-0.7936310907864195,0.7260008776882584,-2.0139431953430176,-3.732685089111328,5.105867385864258,-0.709479570388794,-0.09790194779634476,-0.6978924870491028,-0.13324803113937378,1.2428452968597412,0.14442569017410278
0.0473451343485263,-0.8318695907592135,0.7469557439743724,-1.9141356945037842,-3.6052803993225098,5.082777976989746,-0.73836350440979,-0.047327447682619095,-0.6727402806282043,-0.18621224164962769,1.1744790077209473,0.11197972297668457
-0.0031563147584047916,-0.8684892753212052,0.7658914556482863,-1.9073294401168823,-3.6287930011749268,4.96182918548584,-0.7633501291275024,0.0031563094817101955,-0.6459773182868958,-0.24057132005691528,1.070482611656189,0.15501046180725098
-0.05363098502966338,-0.9050696299841644,0.7818695834468317,-1.989009141921997,-3.748154401779175,4.856768608093262,-0.7853373885154724,0.05360528081655502,-0.6167427897453308,-0.2809315323829651,1.006529688835144,0.2386910319328308
-0.10479662152758788,-0.9419156845276058,0.7947856112890318,-2.118248462677002,-3.789769172668457,4.839913845062256,-0.8042498826980591,0.10460490733385086,-0.5850127339363098,-0.27666741609573364,1.009240984916687,0.28381943702697754
-0.1574968422308878,-0.9784211519217028,0.8049036903243929,-2.2643187046051025,-3.7431416511535645,4.918315410614014,-0.8193486928939819,0.1568465232849121,-0.5514225959777832,-0.2674737572669983,1.0444321632385254,0.2562412619590759
-0.21199480451833894,-1.0141360717571328,0.8124146047587597,-2.39935302734375,-3.642799139022827,4.995441436767578,-0.8300174474716187,0.2104104608297348,-0.5165254473686218,-0.2776942849159241,1.0564963817596436,0.19743359088897705
-0.26796668092405945,-1.0484437205348311,0.8171407698684819,-2.548802375793457,-3.384169816970825,5.041196346282959,-0.8357182145118713,0.2647712230682373,-0.48111453652381897,-0.3203486204147339,1.0299828052520752,0.13936340808868408
-0.3249775951313644,-1.0796270212179144,0.8185842154796676,-2.721282958984375,-2.8908350467681885,5.024392604827881,-0.8356276154518127,0.31928756833076477,-0.44696974754333496,-0.3901718854904175,1.0060603618621826,0.08274245262145996
-0.3824469131190102,-1.1065300899014405,0.816452398972626,-2.8966224193573,-2.3332672119140625,4.953902244567871,-0.8295518159866333,0.3731917142868042,-0.4154175817966461,-0.4685590863227844,0.9792252779006958,0.0058106184005737305
-0.4398408269555917,-1.1297890388119847,0.8104854431162829,-3.086409330368042,-1.8421751260757446,4.846198081970215,-0.8182483911514282,0.42579543590545654,-0.3862227499485016,-0.5299267172813416,0.9324504733085632,-0.06772631406784058
-0.497108407124937,-1.1498759622755341,0.8004232266060802,-3.281359910964966,-1.2573139667510986,4.695978164672852,-0.802243173122406,0.47688591480255127,-0.35914576053619385,-0.5687742233276367,0.8814209699630737,-0.13230937719345093
-0.5530061666001264,-1.1671529036320227,0.7862967139559955,-3.3865528106689453,-0.8719193339347839,4.508439540863037,-0.7825637459754944,0.5252476930618286,-0.3342287242412567,-0.6332077383995056,0.8393153548240662,-0.2891233265399933
-0.6064516009947772,-1.1846604113351011,0.7694922212880897,-3.267756223678589,-0.7481203675270081,4.231233596801758,-0.7611767053604126,0.5699554085731506,-0.309452623128891,-0.6878436803817749,0.7891296744346619,-0.4018816351890564
-0.6561597733110421,-1.2020532342326673,0.7516780344055033,-3.05275559425354,-0.6368651986122131,3.9205782413482666,-0.7390806078910828,0.6100785732269287,-0.2855939567089081,-0.7612244486808777,0.6882460117340088,-0.586430549621582
-0.7021020471809958,-1.2200989120177483,0.7326848272859072,-2.950972080230713,-0.5932649970054626,3.6106317043304443,-0.7170155644416809,0.6458240151405334,-0.26229795813560486,-0.7752787470817566,0.5836071968078613,-0.6008307337760925
-0.7448872266441144,-1.240673709927762,0.7106418192540568,-3.0176687240600586,-0.598398745059967,3.330098867416382,-0.6954673528671265,0.6778889298439026,-0.23831014335155487,-0.7455878853797913,0.5095500349998474,-0.5149247646331787
-0.7851759301655686,-1.2650892235193205,0.6837826059613434,-3.1654999256134033,-0.5428851246833801,3.0980911254882812,-0.6744712591171265,0.7069495916366577,-0.2128635197877884,-0.714276909828186,0.4157463312149048,-0.4726223349571228
-0.8234659969583171,-1.292766225790196,0.651578047184589,-3.2816662788391113,-0.325668603181839,2.9357752799987793,-0.6535819172859192,0.7335060238838196,-0.1865471452474594,-0.6962563395500183,0.33383113145828247,-0.5170508623123169
-0.8598702513360134,-1.321585422754832,0.6152262912702778,-3.24726939201355,-0.007401424925774336,2.8177578449249268,-0.6323772668838501,0.7577579021453857,-0.1609409898519516,-0.6815569996833801,0.24360013008117676,-0.652352511882782
-0.8944840361334522,-1.3494463168099318,0.5769852284179912,-3.090348720550537,0.3075895607471466,2.7606334686279297,-0.610649824142456,0.7798862457275391,-0.13741903007030487,-0.6718055009841919,0.13304704427719116,-0.8023545145988464
-0.92762715483635,-1.3752152306243204,0.5386516335509138,-2.847730875015259,0.5840088725090027,2.7372665405273438,-0.5883002281188965,0.8001990914344788,-0.11655030399560928,-0.664263129234314,0.03404456377029419,-0.8831140398979187
-0.9595878522145694,-1.3981622104492186,0.5018658449146568,-2.5368082523345947,0.7615935206413269,2.735971212387085,-0.565327525138855,0.81895512342453,-0.09857604652643204,-0.6686354279518127,-0.05583256483078003,-0.9276843667030334
-0.9904399842515906,-1.4178441211277555,0.4685115422702944,-2.129879951477051,0.7959445714950562,2.719654083251953,-0.5419206619262695,0.8362672924995422,-0.0835404321551323,-0.7011823058128357,-0.16352254152297974,-0.9598097801208496
-1.0198143741940888,-1.4339882553085996,0.4408585507916042,-1.6260747909545898,0.6102505922317505,2.6368348598480225,-0.5186326503753662,0.8520108461380005,-0.07139912992715836,-0.7680647373199463,-0.29793357849121094,-0.9883543252944946
-1.0469657836905808,-1.4467104740104142,0.42093765160834146,-1.0998021364212036,0.25071364641189575,2.4561190605163574,-0.4963546693325043,0.8659095168113708,-0.06190866231918335,-0.8533614873886108,-0.43132394552230835,-0.9686089158058167
-1.0712044938980285,-1.456796802702996,0.408953527062622,-0.6485131978988647,-0.18906132876873016,2.186148166656494,-0.4759577810764313,0.877778172492981,-0.05449523776769638,-0.9652957916259766,-0.533295750617981,-0.8693481683731079
-1.0917308676013393,-1.4654212479782889,0.4037351668596542,-0.30689123272895813,-0.5959458947181702,1.8203226327896118,-0.4583933651447296,0.8874260783195496,-0.04848282039165497,-1.0877948999404907,-0.6093651056289673,-0.7323094010353088
-1.1082185867839023,-1.4737384282453447,0.4028016461611354,-0.13209891319274902,-0.8859215378761292,1.4445444345474243,-0.44415611028671265,0.894905149936676,-0.04324473813176155,-1.1494717597961426,-0.6718674302101135,-0.5839525461196899
-1.1211628784980399,-1.482621399648499,0.4035800471024905,-0.04490388557314873,-0.9969719648361206,1.1369694471359253,-0.43294692039489746,0.9006064534187317,-0.03827430680394173,-1.113683819770813,-0.7161277532577515,-0.46279382705688477
-1.131323522896322,-1.490321875654614,0.405400464241296,0.024954823777079582,-0.8328956961631775,0.9044958353042603,-0.4240853488445282,0.9049760699272156,-0.03420189768075943,-1.0513784885406494,-0.7205889225006104,-0.40386271476745605
-1.1396945670626255,-1.4946053621108202,0.40769050958354863,0.020651688799262047,-0.4106957018375397,0.7902523279190063,-0.4166596829891205,0.908505916595459,-0.031807273626327515,-0.9773374199867249,-0.6986517906188965,-0.3635784983634949
-1.1474696358611522,-1.4955950083949936,0.40823787759667884,-0.1100541278719902,0.11317285150289536,0.7644026279449463,-0.40963470935821533,0.9117273688316345,-0.030863270163536072,-0.8750789761543274,-0.6902613639831543,-0.31424480676651
-1.1550899384877373,-1.4958073444175353,0.40432130926221194,-0.3272838294506073,0.534713625907898,0.7150033116340637,-0.40270107984542847,0.914831280708313,-0.030254878103733063,-0.778420627117157,-0.714895486831665,-0.25795310735702515
-1.1620667575333254,-1.4980233603926438,0.3949092366956706,-0.5123505592346191,0.7052936553955078,0.6077210307121277,-0.39639198780059814,0.9176265001296997,-0.02889765053987503,-0.7260597944259644,-0.7463008165359497,-0.23570501804351807
-1.1676828259658354,-1.5032156568811863,0.38198318499053285,-0.5585846900939941,0.6043945550918579,0.4294675290584564,-0.39138874411582947,0.9198440909385681,-0.026490654796361923,-0.7024680376052856,-0.7665085196495056,-0.25898605585098267
-1.1713916291196542,-1.5097672063278895,0.36939362885796256,-0.45223087072372437,0.3918418288230896,0.24496398866176605,-0.38814598321914673,0.9212926626205444,-0.023717660456895828,-0.7055429220199585,-0.7786077260971069,-0.32248902320861816
-1.1732408202528033,-1.5153708291979515,0.3605329201232206,-0.24132263660430908,0.10009971261024475,0.08020486682653427,-0.38657093048095703,0.9220101833343506,-0.02144785411655903,-0.6993664503097534,-0.7867105603218079,-0.3874877095222473
-1.17325355299006,-1.5181754463785344,0.3582987563541972,0.07950438559055328,-0.24216841161251068,-0.0850842297077179,-0.3866182267665863,0.9220151305198669,-0.020362989977002144,-0.7166075110435486,-0.7950161099433899,-0.4617079496383667
-1.171629312144938,-1.5159408637498792,0.3649619456972773,0.4511210322380066,-0.5272729992866516,-0.20799356698989868,-0.3880663216114044,0.9213850498199463,-0.021308936178684235,-0.7198284864425659,-0.8238813877105713,-0.5119552612304688
-1.1688337352183478,-1.507662125273273,0.3807151573674633,0.7950997352600098,-0.6878078579902649,-0.2608591914176941,-0.39044561982154846,0.9202949404716492,-0.024683276191353798,-0.7019157409667969,-0.8324806690216064,-0.5141503810882568
-1.1656638478124035,-1.4929653469179458,0.40418458678174535,1.070751428604126,-0.666419267654419,-0.235073521733284,-0.3929472267627716,0.9190502166748047,-0.030645372346043587,-0.6891297101974487,-0.7899608612060547,-0.5095767974853516
-1.1622961834630254,-1.4721201250868965,0.4335681410551267,1.2883999347686768,-0.555831789970398,-0.23911619186401367,-0.39530089497566223,0.9177176356315613,-0.039133887737989426,-0.6714257001876831,-0.7541586756706238,-0.5003406405448914
-1.1579899059659908,-1.446388561816743,0.46709786780843043,1.4528396129608154,-0.44947314262390137,-0.32417383790016174,-0.3980811536312103,0.9159985184669495,-0.04978147894144058,-0.6724601984024048,-0.7524852752685547,-0.4737018346786499
-1.15197903742632,-1.417739028491409,0.5030095266070064,1.5702253580093384,-0.39019277691841125,-0.46543481945991516,-0.40192607045173645,0.9135705828666687,-0.062002647668123245,-0.6793575286865234,-0.7403374314308167,-0.43303823471069336
-1.1438713927823267,-1.3882177914841751,0.5396402868128184,1.6496944427490234,-0.3892771303653717,-0.6262449622154236,-0.40719130635261536,0.9102433323860168,-0.07518164813518524,-0.6761826276779175,-0.7051499485969543,-0.38615262508392334
-1.1335558718492111,-1.3594532112094901,0.5759208539644509,1.7235162258148193,-0.45877259969711304,-0.7990668416023254,-0.4140195846557617,0.90592360496521,-0.08882664889097214,-0.680630624294281,-0.65134596824646,-0.34403473138809204
-1.12078375679666,-1.3328110814896559,0.6114462384627335,1.807583212852478,-0.637267529964447,-1.0081801414489746,-0.42271700501441956,0.9004416465759277,-0.10254368185997009,-0.7095155715942383,-0.5847373008728027,-0.3084518313407898
-1.105292195584503,-1.309167430438079,0.6461253127604882,1.9154154062271118,-0.8495374917984009,-1.2274787425994873,-0.43359827995300293,0.8935953974723816,-0.11610308289527893,-0.7467911243438721,-0.515360414981842,-0.28103744983673096
-1.0870676878734569,-1.2887784622430936,0.6797892620413059,2.005788803100586,-1.0520135164260864,-1.4457995891571045,-0.44671061635017395,0.8852669596672058,-0.12943007051944733,-0.7750911712646484,-0.44021373987197876,-0.25055956840515137
-1.0663671723116759,-1.2720404044344358,0.7117757442282255,2.0626254081726074,-1.2263435125350952,-1.6363433599472046,-0.46189868450164795,0.8754504919052124,-0.1422526240348816,-0.78619384765625,-0.3569263815879822,-0.21577958762645721
-1.0437397486099995,-1.2593937914786681,0.7414809896460982,2.071704149246216,-1.4053128957748413,-1.7813923358917236,-0.47879981994628906,0.8642913103103638,-0.1541135162115097,-0.7704676389694214,-0.2751343846321106,-0.1793825924396515
-1.0197470401402033,-1.2508528988399394,0.7686908701669736,2.053225040435791,-1.5406336784362793,-1.8929508924484253,-0.49701157212257385,0.8519756197929382,-0.16467316448688507,-0.750836968421936,-0.19915884733200073,-0.15444916486740112
-0.9948995809609938,-1.2455800037091165,0.7934327079087307,2.0104942321777344,-1.5675805807113647,-1.9615284204483032,-0.5160408020019531,0.8387042880058289,-0.17400310933589935,-0.7397727370262146,-0.12782782316207886,-0.14888811111450195
-0.9695522585903431,-1.2425738923967566,0.8158235819181114,1.9592444896697998,-1.5442755222320557,-2.029103994369507,-0.535471498966217,0.8246325254440308,-0.18234944343566895,-0.7375386357307434,-0.06074708700180054,-0.16614608466625214
-0.9434656564274694,-1.2413580074215644,0.8361227308778352,1.931311011314392,-1.5179879665374756,-2.1403188705444336,-0.5554199814796448,0.8095972537994385,-0.18989664316177368,-0.7470090985298157,-0.017834067344665527,-0.1980275809764862
-0.9162144196275837,-1.2413354972918658,0.8548069615023063,1.9353440999984741,-1.4634519815444946,-2.2781739234924316,-0.5760831236839294,0.7933025360107422,-0.19697581231594086,-0.7442751526832581,0.011430859565734863,-0.23382559418678284
-0.8876369854418835,-1.2421165553440408,0.8721834685915768,1.9331332445144653,-1.4141546487808228,-2.414553642272949,-0.5974555611610413,0.7755822539329529,-0.2037624716758728,-0.7295708060264587,0.05345839262008667,-0.25548139214515686
-0.8579203743849348,-1.243918783457427,0.8881292169792016,1.909234642982483,-1.3879334926605225,-2.5355472564697266,-0.619381844997406,0.7564840912818909,-0.2099950909614563,-0.703219473361969,0.11563199758529663,-0.2611048221588135
-0.8271798069986951,-1.2471364303640882,0.9027018808434722,1.8844321966171265,-1.433489441871643,-2.652238368988037,-0.6418053507804871,0.7360251545906067,-0.21529756486415863,-0.6776068806648254,0.18177580833435059,-0.26118871569633484
-0.7954088005097639,-1.2522649669491115,0.9163658462366817,1.898290753364563,-1.5738176107406616,-2.7662906646728516,-0.6647805571556091,0.7141498327255249,-0.21921822428703308,-0.6650533080101013,0.2452923059463501,-0.2624101936817169
-0.7625236979334921,-1.259383485335671,0.9297498882332673,1.9345765113830566,-1.7116299867630005,-2.874124765396118,-0.6883155703544617,0.6907485127449036,-0.22155916690826416,-0.6615837216377258,0.3081529140472412,-0.2689651548862457
-0.7287007169658369,-1.2679608109285376,0.9429258966684307,1.9324218034744263,-1.7749000787734985,-2.964184284210205,-0.7120913863182068,0.6659008860588074,-0.22248998284339905,-0.6601009368896484,0.3773425221443176,-0.26043546199798584
-0.6942978889506929,-1.2779504960757222,0.9553346434676651,1.8653218746185303,-1.8312140703201294,-3.036574363708496,-0.735785186290741,0.6398460268974304,-0.22185003757476807,-0.6564114689826965,0.44973838329315186,-0.23399102687835693
-0.6594840151515726,-1.2895381715454892,0.9666489396059768,1.7875652313232422,-1.8879306316375732,-3.1259806156158447,-0.7592548727989197,0.6127091646194458,-0.21936164796352386,-0.6678385138511658,0.5148848295211792,-0.22636286914348602
-0.623973326006525,-1.3024319601527634,0.9770640949405691,1.7345385551452637,-1.920812726020813,-3.2394793033599854,-0.7825141549110413,0.5842643976211548,-0.2151898443698883,-0.6816733479499817,0.5454047918319702,-0.2444659322500229
-0.5875254367166544,-1.3162616619319367,0.9867491764465073,1.672252893447876,-1.9352641105651855,-3.369821786880493,-0.8054981827735901,0.5543031096458435,-0.20957280695438385,-0.6700876951217651,0.5664244294166565,-0.2598639130592346
-0.5501166772775921,-1.331185011801418,0.9954234666601661,1.5562559366226196,-1.9756534099578857,-3.503568649291992,-0.8281089067459106,0.5227866768836975,-0.2023109644651413,-0.6346596479415894,0.6005958914756775,-0.2541404962539673
-0.5119839609805167,-1.347585872991328,1.002588366335002,1.3787189722061157,-2.0187482833862305,-3.6062941551208496,-0.8501471281051636,0.48990777134895325,-0.19297730922698975,-0.5686455965042114,0.6422028541564941,-0.22015440464019775
-0.4737019070073354,-1.3654084072132135,1.0079470014447065,1.1541475057601929,-2.034132719039917,-3.6512956619262695,-0.8711820244789124,0.45618367195129395,-0.1814894676208496,-0.47789329290390015,0.691460371017456,-0.17698532342910767
-0.4355360379900685,-1.3842834119892904,1.010998691594135,0.8583343029022217,-1.9907304048538208,-3.705697774887085,-0.8909199237823486,0.42189645767211914,-0.1681220978498459,-0.4049021601676941,0.7187285423278809,-0.142958864569664
-0.3974224799134034,-1.4036304474236903,1.011394824845563,0.5516020059585571,-1.8931010961532593,-3.7580645084381104,-0.909208357334137,0.3870429992675781,-0.1534203588962555,-0.36137568950653076,0.7324180603027344,-0.13202588260173798
-0.3593057527770379,-1.422735794604196,1.0093810437039938,0.2790554165840149,-1.765206217765808,-3.804795503616333,-0.9258989095687866,0.35162439942359924,-0.13809970021247864,-0.3100782036781311,0.7503348588943481,-0.15575408935546875
-0.321067633752937,-1.4412013150196405,1.005547910695206,0.07107716053724289,-1.6736873388290405,-3.8449928760528564,-0.9409418702125549,0.3155798316001892,-0.12262865900993347,-0.2483738660812378,0.7654596567153931,-0.1944795846939087
-0.28249935508914864,-1.4592913658692084,1.0006848833376671,-0.05234783887863159,-1.6494717597961426,-3.8985092639923096,-0.9543975591659546,0.2787567973136902,-0.10686331987380981,-0.18593740463256836,0.7799590229988098,-0.24637769162654877
-0.24348706398695888,-1.477076337620975,0.9957390291942587,-0.09236852079629898,-1.6388434171676636,-3.9329898357391357,-0.966244101524353,0.24108828604221344,-0.09082245081663132,-0.1217990517616272,0.7845007181167603,-0.31501561403274536
-0.2042877443061236,-1.4944419904716824,0.9912745886037608,-0.11073687672615051,-1.6249507665634155,-3.9227592945098877,-0.9763527512550354,0.20286977291107178,-0.07469397783279419,-0.039668917655944824,0.7870899438858032,-0.3472573757171631
-0.16531262621995127,-1.5115165511323005,0.9873269750916254,-0.1336028277873993,-1.640840768814087,-3.8793327808380127,-0.9846343398094177,0.1645607054233551,-0.058437369763851166,0.048980712890625,0.7890373468399048,-0.3465767502784729
-0.12683330916017707,-1.5287856750320497,0.983894760221195,-0.15053308010101318,-1.7027955055236816,-3.814054012298584,-0.9910921454429626,0.12649352848529816,-0.041660938411951065,0.13740873336791992,0.7845324873924255,-0.3497270941734314
-0.08910665511064833,-1.5466196032095,0.9811037705246376,-0.15194189548492432,-1.7908560037612915,-3.7155704498291016,-0.9957414865493774,0.0889887809753418,-0.024078458547592163,0.22840756177902222,0.769684374332428,-0.3613433241844177
-0.0525812015153891,-1.56518780417541,0.979055738196215,-0.14793436229228973,-1.8818588256835938,-3.564504861831665,-0.9986022114753723,0.052556976675987244,-0.0056007420644164085,0.3147033452987671,0.7602635025978088,-0.3556358814239502
-0.01774059026193007,-1.5846887577632445,0.9777099136687513,-0.15251687169075012,-1.9961154460906982,-3.376357078552246,-0.9997462034225464,0.017739659175276756,0.013889798894524574,0.3853204846382141,0.7471529841423035,-0.3351331949234009
0.015123261275630507,-1.6051840938671758,0.9769507390413944,-0.16273009777069092,-2.084838390350342,-3.166595220565796,-0.9992945194244385,-0.01512268465012312,0.03437705710530281,0.4428369998931885,0.7263043522834778,-0.3232107162475586
0.045806349403470836,-1.6262033779778478,0.9764765985130884,-0.20753991603851318,-2.096529245376587,-2.940365791320801,-0.9974181056022644,-0.045790333300828934,0.0553206205368042,0.4792296290397644,0.7034136652946472,-0.3370131254196167
0.0742627236331306,-1.6470600980711543,0.9761827564653808,-0.213419109582901,-2.0635509490966797,-2.7148208618164062,-0.9943451881408691,-0.07419448345899582,0.07597987353801727,0.49089670181274414,0.6670137643814087,-0.37596774101257324
0.10043403616561629,-1.6675985382855816,0.9766568246679029,-0.13018806278705597,-2.015671491622925,-2.4923970699310303,-0.9903026819229126,-0.100265271961689,0.09616405516862869,0.4992595911026001,0.6222532391548157,-0.43899857997894287
0.1242156203508228,-1.687640101046682,0.9786771322437977,0.034110065549612045,-1.929747462272644,-2.2640137672424316,-0.985529363155365,-0.12389643490314484,0.11567988246679306,0.5144294500350952,0.5784100294113159,-0.5058928728103638
0.14545917701062092,-1.707016256314339,0.982689525571094,0.21642985939979553,-1.820271372795105,-2.0349247455596924,-0.9802738428115845,-0.14494676887989044,0.13436494767665863,0.5361818671226501,0.5296361446380615,-0.5572013854980469
0.16400713182666277,-1.7252452133963019,0.9884873312967153,0.37477555871009827,-1.6215041875839233,-1.786635160446167,-0.9748371243476868,-0.16327287256717682,0.15177123248577118,0.5525653958320618,0.5252419114112854,-0.5712811946868896
0.17976562695782525,-1.7412197777759326,0.9955897323612203,0.484406977891922,-1.3100661039352417,-1.540104627609253,-0.9696321487426758,-0.17879898846149445,0.16686668992042542,0.5787477493286133,0.514828085899353,-0.564815878868103
0.19298313276778598,-1.7539245936610566,1.003292190031968,0.52935391664505,-0.9337499141693115,-1.323808193206787,-0.965025782585144,-0.1917874962091446,0.17872589826583862,0.6230151653289795,0.4865720570087433,-0.5359342098236084
0.20414497076818486,-1.7629836739698068,1.0108070064072248,0.48986098170280457,-0.5850604176521301,-1.1407157182693481,-0.961205780506134,-0.2027299553155899,0.18704010546207428,0.676690399646759,0.446550190448761,-0.49642741680145264
0.21367833513604254,-1.7689709921352936,1.0172554794504602,0.3670937716960907,-0.36400631070137024,-0.9687607288360596,-0.9581303596496582,-0.2120560109615326,0.19240254163742065,0.7281955480575562,0.4141587018966675,-0.45081016421318054
0.2218048791808335,-1.7730526039572236,1.0218873278040295,0.1890590488910675,-0.2628800868988037,-0.7961621880531311,-0.9556173086166382,-0.21999064087867737,0.19595898687839508,0.7810109257698059,0.38507550954818726,-0.4043940305709839
0.22857779342586804,-1.7759492538083537,1.0243469432998027,0.006846366450190544,-0.20313793420791626,-0.6205775737762451,-0.9535648226737976,-0.2265925407409668,0.19841811060905457,0.8288700580596924,0.3665462136268616,-0.368569016456604
0.23392023307924337,-1.7775825480790006,1.024685459476089,-0.15476363897323608,-0.09564512968063354,-0.431842565536499,-0.9520410895347595,-0.23179276287555695,0.19972389936447144,0.8626551032066345,0.3608516454696655,-0.34938257932662964
0.23758476564470762,-1.777244230659967,1.0231074876291404,-0.29006633162498474,0.09520284831523895,-0.2152532935142517,-0.9512708187103271,-0.2353559285402298,0.19922631978988647,0.8883436322212219,0.37065571546554565,-0.35083815455436707
0.23930098190615876,-1.7745861451787421,1.019928089814754,-0.37380251288414,0.27539142966270447,0.00413880730047822,-0.9514002203941345,-0.23702359199523926,0.196615070104599,0.907164990901947,0.38875702023506165,-0.3628748655319214
0.23908472365661174,-1.7701993073343358,1.0158264795811907,-0.3855779469013214,0.40062472224235535,0.19717884063720703,-0.9523038864135742,-0.236813485622406,0.19244971871376038,0.8946865797042847,0.3987244963645935,-0.3949337899684906
0.23686270431726647,-1.764409740739461,1.0115067019795663,-0.3436664640903473,0.5555533766746521,0.40736284852027893,-0.9539158940315247,-0.23465408384799957,0.18703383207321167,0.8727392554283142,0.39600059390068054,-0.43459248542785645
0.23230343269824655,-1.7568294059434904,1.0072699432705745,-0.28961601853370667,0.7615169286727905,0.6425018906593323,-0.9563477635383606,-0.23021969199180603,0.17999355494976044,0.8816866278648376,0.3937634825706482,-0.4399728775024414
0.22521526366901942,-1.7470031544131766,1.003076786614473,-0.258613646030426,1.0100631713867188,0.9028882384300232,-0.9596527218818665,-0.22331619262695312,0.17086946964263916,0.8915222883224487,0.4166908860206604,-0.42299044132232666
0.21516668015245555,-1.7344391053481147,0.9985493449768028,-0.26791661977767944,1.2844829559326172,1.2312568426132202,-0.9638894200325012,-0.21351027488708496,0.15915676951408386,0.9168006777763367,0.45069289207458496,-0.38959503173828125
0.20171819382561293,-1.7190850513151343,0.9933962746661483,-0.2922572195529938,1.4914876222610474,1.586467981338501,-0.9689717292785645,-0.2003529816865921,0.14475013315677643,0.9717793464660645,0.4772695302963257,-0.3351188898086548
0.1847844494438579,-1.7024440582546199,0.9877309859125692,-0.33295539021492004,1.5807914733886719,1.9104756116867065,-0.9744700789451599,-0.18373465538024902,0.12903307378292084,1.0044078826904297,0.4947545826435089,-0.2711688280105591
0.16462801765432356,-1.6855654747250752,0.9815395855102467,-0.38000592589378357,1.5473538637161255,2.2302680015563965,-0.9799895882606506,-0.16388538479804993,0.11296901851892471,1.0011839866638184,0.5087798237800598,-0.21353983879089355
0.14124408452611215,-1.6694185730308009,0.9747991066439505,-0.44877034425735474,1.4675980806350708,2.5431008338928223,-0.9852308034896851,-0.1407749205827713,0.09748192131519318,0.9674543142318726,0.5243046283721924,-0.17249417304992676
0.11488177687637288,-1.6539437894015243,0.9673099933874726,-0.5489264130592346,1.4208447933197021,2.8184621334075928,-0.9899762868881226,-0.11462924629449844,0.08250423520803452,0.8950819373130798,0.5483908653259277,-0.140594482421875
0.08593099617910699,-1.639104094475603,0.9590149718932213,-0.6530040502548218,1.379172444343567,3.060662269592285,-0.9939867258071899,-0.08582527935504913,0.06800281256437302,0.7824541330337524,0.5601295232772827,-0.14428162574768066
0.05431974997119844,-1.624186079207591,0.9499934387840289,-0.7583162188529968,1.494750738143921,3.3449060916900635,-0.9971022009849548,-0.05429304018616676,0.05328568071126938,0.6637282371520996,0.5546440482139587,-0.17791950702667236
0.019444087099049857,-1.6071337104942098,0.9401156927625643,-0.8998219966888428,1.8618967533111572,3.6973209381103516,-0.9991509318351746,-0.019442861899733543,0.036322519183158875,0.5651299953460693,0.5723909139633179,-0.18920040130615234
-0.01943704418540182,-1.5859255951685995,0.9290726030674489,-1.1074280738830566,2.361057996749878,4.113595962524414,-0.999696671962738,0.01943582110106945,0.015125833451747894,0.48202699422836304,0.6257363557815552,-0.19195997714996338
-0.06299736521933118,-1.560686241142406,0.9167167773793246,-1.3283077478408813,2.7443971633911133,4.579067230224609,-0.997965395450592,0.06295570731163025,-0.010089859366416931,0.41079187393188477,0.6661550402641296,-0.20244991779327393
-0.11164058589597688,-1.5333484261360957,0.90364884971133,-1.483837366104126,2.9057974815368652,5.052661418914795,-0.9930780529975891,0.11140882223844528,-0.03720608353614807,0.31065911054611206,0.6737932562828064,-0.24381506443023682
-0.16531132455789385,-1.505755957016408,0.8911356516685291,-1.5210051536560059,2.9254255294799805,5.5049824714660645,-0.984281599521637,0.16455942392349243,-0.0641084611415863,0.17391788959503174,0.6336584091186523,-0.3043150305747986
-0.22358303176890745,-1.4789001735111962,0.8803004527452357,-1.5028977394104004,2.820317029953003,5.893090724945068,-0.970994770526886,0.22172488272190094,-0.08948271721601486,0.06892573833465576,0.5613104104995728,-0.3184915781021118
-0.28520623761637914,-1.454419402351297,0.8713723267097894,-1.4898340702056885,2.4661664962768555,6.1251749992370605,-0.9531126618385315,0.2813553512096405,-0.1114237979054451,-0.039852917194366455,0.5464186668395996,-0.2960774898529053
-0.3483330761296099,-1.4351819090179858,0.8644817589922239,-1.3631105422973633,1.7460243701934814,6.167383193969727,-0.9313128590583801,0.34133148193359375,-0.12707945704460144,-0.2047497034072876,0.5794448852539062,-0.30363041162490845
-0.4107743734524532,-1.4230120935180697,0.8614937598525376,-0.9024725556373596,0.9250484704971313,6.076521873474121,-0.9068183302879333,0.3993194103240967,-0.1349976807832718,-0.4415549635887146,0.5956451892852783,-0.4488646388053894
-0.4715113108981863,-1.414585897813256,0.8657535623466734,-0.15365037322044373,0.4128442108631134,6.005822658538818,-0.8800353407859802,0.45423319935798645,-0.13859988749027252,-0.6248931884765625,0.5705928802490234,-0.6557879447937012
-0.5299657244907882,-1.406200793950144,0.8795398262099846,0.6670585870742798,-0.08869747072458267,5.870694637298584,-0.8511630892753601,0.50550377368927,-0.14137667417526245,-0.6876552104949951,0.548176646232605,-0.7241171598434448
-0.5852739299479285,-1.3974927863213418,0.9033162470866928,1.4171817302703857,-0.6980741620063782,5.673122882843018,-0.821074366569519,0.5524277687072754,-0.14373698830604553,-0.7484903335571289,0.5556807518005371,-0.6725472211837769
-0.6374178399736746,-1.3888962715584425,0.9362861084120485,2.0159075260162354,-1.3860597610473633,5.5205230712890625,-0.7903765439987183,0.5951223373413086,-0.14537647366523743,-0.772031843662262,0.5885019302368164,-0.52671217918396
-0.6873590252746982,-1.3815124464686197,0.9770452568536804,2.4083409309387207,-2.1428580284118652,5.455331802368164,-0.7591193318367004,0.634498119354248,-0.1454300582408905,-0.7321983575820923,0.6287464499473572,-0.30783236026763916
-0.7364274183892594,-1.3755700083039268,1.0236946367900508,2.605339765548706,-2.7176663875579834,5.5099778175354,-0.7267988920211792,0.6716454029083252,-0.1437208205461502,-0.7044754028320312,0.67540043592453,-0.10363946855068207
-0.7863765087939857,-1.3686439456788633,1.0749927923336093,2.6573758125305176,-2.9289727210998535,5.719252586364746,-0.6920297145843506,0.7077982425689697,-0.14183276891708374,-0.6996938586235046,0.7560231685638428,0.021028876304626465
-0.8383599844060765,-1.3572974146093424,1.130526459473104,2.6025567054748535,-2.8622844219207764,5.9725542068481445,-0.653501033782959,0.7435474991798401,-0.1416810303926468,-0.7002739310264587,0.8045176863670349,0.10441900789737701
-0.8919623467869611,-1.3398791653629722,1.1898785806672318,2.520209789276123,-2.681077003479004,6.114168643951416,-0.6112198829650879,0.7783053517341614,-0.14370453357696533,-0.7484602332115173,0.7692257761955261,0.16615021228790283
-0.9455770846863034,-1.3153570432511932,1.2540909558326017,2.443357229232788,-2.6417195796966553,6.108964443206787,-0.5662843585014343,0.8108348250389099,-0.14788174629211426,-0.8499448299407959,0.6934986710548401,0.18854635953903198
-0.9977388498685235,-1.284695474366605,1.324350956808484,2.390171766281128,-2.840927839279175,6.008321285247803,-0.520163893699646,0.8402471542358398,-0.1530173122882843,-0.9301076531410217,0.6089411377906799,0.18052881956100464
-1.0472612528197058,-1.2479179523962398,1.4024659765846472,2.3982858657836914,-3.1234474182128906,5.8270158767700195,-0.47411075234413147,0.866057276725769,-0.15863126516342163,-0.9752147793769836,0.523011326789856,0.16209495067596436
-1.09272598611829,-1.2030893621402003,1.4907855250860296,2.4928946495056152,-3.386012554168701,5.5421462059021,-0.4293132722377777,0.8878843188285828,-0.16538327932357788,-1.0355762243270874,0.432855486869812,0.1357201188802719
-1.132305930398277,-1.1479795546945983,1.5913940230165775,2.6615612506866455,-3.6164538860321045,5.131567478179932,-0.38718393445014954,0.905393660068512,-0.17421548068523407,-1.0937577486038208,0.3054676055908203,0.11775791645050049
-1.1639745219793804,-1.0821281941579368,1.7044364448697413,2.8547518253326416,-3.8117709159851074,4.5798540115356445,-0.3493801951408386,0.9183830618858337,-0.18575796484947205,-1.126770257949829,0.13036876916885376,0.12611128389835358
-1.18612618067971,-1.0088618180250946,1.8260297778319172,2.994131088256836,-3.9482460021972656,3.9076168537139893,-0.31754910945892334,0.9269222617149353,-0.19994407892227173,-1.1232620477676392,-0.04615449905395508,0.17231035232543945
-1.198617114332712,-0.9356212098886013,1.9478109082432693,2.985771894454956,-4.001594066619873,3.1986796855926514,-0.29272350668907166,0.9315370917320251,-0.2157580405473709,-1.068513035774231,-0.18120139837265015,0.25881826877593994
-1.2031048129928223,-0.870811743469205,2.0601351392295912,2.7923331260681152,-3.945161819458008,2.525038957595825,-0.2749355137348175,0.9331596493721008,-0.23156774044036865,-0.9618350863456726,-0.26072001457214355,0.36529573798179626
-1.202432136997095,-0.8196403983407065,2.1564348221750174,2.4450559616088867,-3.749065637588501,1.9798113107681274,-0.2631899118423462,0.9329176545143127,-0.24575567245483398,-0.8363889455795288,-0.28478533029556274,0.4550299048423767
-1.1996599698881365,-0.7818247301198018,2.2355066562562156,2.020214080810547,-3.3867204189300537,1.6217772960662842,-0.25553157925605774,0.931915819644928,-0.2573643624782562,-0.7074505686759949,-0.25708067417144775,0.5068761110305786
-1.1974554922893803,-0.7525368098538641,2.3006306103720293,1.5726561546325684,-2.8529112339019775,1.5014359951019287,-0.24928884208202362,0.9311140179634094,-0.2662357687950134,-0.5790039300918579,-0.19089508056640625,0.5139011144638062
-1.1975638627864458,-0.7260214112785247,2.356693057673134,1.1667728424072266,-2.2749063968658447,1.5410292148590088,-0.2420758754014969,0.9311535954475403,-0.27267614006996155,-0.4729509949684143,-0.11435061693191528,0.49278417229652405
-1.200355527500389,-0.6989329901141651,2.40781228800791,0.8430618047714233,-1.8496017456054688,1.6298965215682983,-0.23292818665504456,0.9321678280830383,-0.2771416902542114,-0.41093167662620544,-0.0934838056564331,0.45415884256362915
-1.2053558021067605,-0.6710717973731419,2.45636562451181,0.5979961156845093,-1.655221939086914,1.6924539804458618,-0.22221603989601135,0.9339663982391357,-0.279869019985199,-0.39567333459854126,-0.11460006237030029,0.4162215292453766
-1.2117069935544948,-0.6436958217960396,2.5034194287964278,0.43693944811820984,-1.682729959487915,1.7097079753875732,-0.21090783178806305,0.9362172484397888,-0.2810963988304138,-0.41648781299591064,-0.15609639883041382,0.37928664684295654
-1.2185859108703023,-0.6180335564271708,2.5497322260991564,0.36075252294540405,-1.874477505683899,1.6914783716201782,-0.19988925755023956,0.9386124610900879,-0.2811601459980011,-0.45736783742904663,-0.2012162208557129,0.3327653408050537
-1.2250561200765144,-0.5950250094385937,2.5957597966844026,0.372988760471344,-2.1691129207611084,1.6138676404953003,-0.18995963037014008,0.9408248662948608,-0.2806491553783417,-0.5058258771896362,-0.24622952938079834,0.2769869565963745
-1.2302610026216243,-0.5756592465804545,2.641110950563897,0.4443071484565735,-2.4790849685668945,1.4921928644180298,-0.18182101845741272,0.942575991153717,-0.28016340732574463,-0.5572994947433472,-0.2954508066177368,0.23231178522109985
-1.233810698695126,-0.5604892862132508,2.685049314852353,0.5239375233650208,-2.7478437423706055,1.3452980518341064,-0.17577041685581207,0.9437556266784668,-0.28005358576774597,-0.5988420248031616,-0.34637415409088135,0.2048124372959137
-1.2358045696548015,-0.5497004009368133,2.7267228382299744,0.5715175867080688,-2.9264791011810303,1.1957939863204956,-0.17175541818141937,0.9444130063056946,-0.280328631401062,-0.6305516958236694,-0.39791953563690186,0.19768697023391724
-1.2368655203926608,-0.5430624687751178,2.7649341701051946,0.5320672392845154,-2.921478033065796,1.0591827630996704,-0.16937291622161865,0.9447612762451172,-0.2806044816970825,-0.6584621667861938,-0.44927793741226196,0.21598345041275024
-1.23808431486692,-0.540244732591744,2.798144322434096,0.35942330956459045,-2.758615016937256,0.9247264266014099,-0.16798913478851318,0.9451600313186646,-0.28009283542633057,-0.6852670311927795,-0.4900820255279541,0.2503381669521332
-1.2406475124498675,-0.5426981036468845,2.8237059706650247,0.039683904498815536,-2.548414707183838,0.7614473104476929,-0.16742423176765442,0.9459941387176514,-0.2776046395301819,-0.7018537521362305,-0.5284526348114014,0.2984480857849121
-1.2455024898295535,-0.5528858372785589,2.8388232676449645,-0.36957550048828125,-2.3263468742370605,0.5777145028114319,-0.16782966256141663,0.9475568532943726,-0.2719726264476776,-0.7339648008346558,-0.5467848777770996,0.33511343598365784
-1.253048117631573,-0.571807082141457,2.8419347865423243,-0.7991061210632324,-2.0267226696014404,0.3964216411113739,-0.16907143592834473,0.9499413371086121,-0.2627286911010742,-0.7584645748138428,-0.5422570705413818,0.32785314321517944
-1.262993989316041,-0.5999929151502839,2.832032686138054,-1.183471441268921,-1.7118281126022339,0.20021352171897888,-0.17106515169143677,0.9530016779899597,-0.25004905462265015,-0.7649242281913757,-0.5321338176727295,0.27400529384613037
-1.2745776358153509,-0.6384183449404841,2.808291680363073,-1.5045037269592285,-1.4398242235183716,0.0023692348040640354,-0.17395427823066711,0.9564471244812012,-0.2344118356704712,-0.7795979976654053,-0.5072894096374512,0.19144302606582642
-1.2866789111310233,-0.688027378627938,2.770669046876423,-1.7007310390472412,-1.274884581565857,-0.1994677484035492,-0.1780012547969818,0.9599094390869141,-0.2165399044752121,-0.7814561724662781,-0.48635292053222656,0.09222650527954102
-1.2976772168382427,-0.7486591820066149,2.720522372094706,-1.739220142364502,-1.2085448503494263,-0.4186384975910187,-0.18359798192977905,0.9629342555999756,-0.19760946929454803,-0.7821307182312012,-0.4916970729827881,-0.009681224822998047
-1.3058464851535045,-0.8189780021782898,2.660171935008228,-1.6681220531463623,-1.2148035764694214,-0.6871303915977478,-0.19127607345581055,0.9651056528091431,-0.17884285748004913,-0.8089680671691895,-0.5045191049575806,-0.09099364280700684
-1.3100437845749289,-0.8977578213134019,2.591482402711726,-1.5762640237808228,-1.2596192359924316,-0.9874260425567627,-0.20158791542053223,0.9661962389945984,-0.1607082635164261,-0.8306691646575928,-0.5123998522758484,-0.1310855746269226
-1.3099663734647966,-0.9824096382866024,2.5168432050088385,-1.520434856414795,-1.2174593210220337,-1.2565361261367798,-0.21451611816883087,0.9661762714385986,-0.14312978088855743,-0.8427653312683105,-0.4913991093635559,-0.14857248961925507
-1.3059136128009343,-1.0689273220715407,2.439234323057461,-1.4979909658432007,-1.0793735980987549,-1.4788718223571777,-0.2295123189687729,0.9651232361793518,-0.1259406954050064,-0.8419293165206909,-0.44923895597457886,-0.1632133573293686
-1.2980026355166694,-1.1535642379815263,2.362079010935523,-1.464585304260254,-0.9617677927017212,-1.7028777599334717,-0.24630995094776154,0.963021993637085,-0.10917854309082031,-0.8431522846221924,-0.40661031007766724,-0.18150144815444946
-1.2859473627029971,-1.233868707858473,2.288096299749725,-1.4280810356140137,-0.8595488667488098,-1.963584542274475,-0.2652122378349304,0.9597041010856628,-0.09289954602718353,-0.8486640453338623,-0.3758419156074524,-0.20441800355911255
-1.269500391262549,-1.3076025248345704,2.2193673858201777,-1.3837367296218872,-0.7023560404777527,-2.2516911029815674,-0.2865384519100189,0.9549527168273926,-0.07720614969730377,-0.8901582956314087,-0.3114439845085144,-0.2508273720741272
-1.2486753425656936,-1.3717175916749957,2.1581647960588533,-1.3060213327407837,-0.4524291455745697,-2.567931890487671,-0.31032636761665344,0.9485660791397095,-0.06260868161916733,-0.9411231875419617,-0.22638291120529175,-0.32092106342315674
-1.2233973484558556,-1.4242537440316039,2.1059749761729547,-1.194356083869934,-0.19331637024879456,-2.925063371658325,-0.33680394291877747,0.9402614235877991,-0.04971248283982277,-0.9797701835632324,-0.14977997541427612,-0.3900916576385498
-1.193743732683452,-1.4651364844795587,2.0632864011483143,-1.0535377264022827,-0.009825101122260094,-3.277254819869995,-0.3661283850669861,0.929753839969635,-0.03882967308163643,-1.0099244117736816,-0.051808953285217285,-0.4451181888580322
-1.1601767800322058,-1.4955123206762886,2.0299128187192967,-0.8811646699905396,0.09833439439535141,-3.5839486122131348,-0.39804673194885254,0.9168736934661865,-0.030023295432329178,-1.0014588832855225,0.0837518572807312,-0.4906677007675171
-1.1234125046079686,-1.515967186499634,2.005709778242335,-0.6406767964363098,0.21859687566757202,-3.8373122215270996,-0.4319581687450409,0.9015819430351257,-0.02370765618979931,-0.969973623752594,0.228041410446167,-0.5571945309638977
-1.084109017130487,-1.5267503916190288,1.9903187623078797,-0.34963932633399963,0.369123250246048,-4.03322172164917,-0.46724697947502136,0.8838870525360107,-0.02059365063905716,-0.9410019516944885,0.3667386770248413,-0.6467342972755432
-1.0430693424363828,-1.5295825592533714,1.9826643692913926,-0.04381885007023811,0.373830109834671,-4.158341407775879,-0.5031434297561646,0.8639539480209351,-0.020748184993863106,-0.8695830702781677,0.477247953414917,-0.7042579650878906
-1.0008289306981204,-1.527570511273121,1.9814742029421033,0.27976852655410767,0.22342009842395782,-4.250122547149658,-0.5391006469726562,0.8419185876846313,-0.023317590355873108,-0.7900772094726562,0.5681766271591187,-0.7198923230171204
-0.9577460016040944,-1.5222540808006149,1.9861406134174957,0.6388397216796875,0.0726197361946106,-4.298460006713867,-0.5746873021125793,0.8178967833518982,-0.02791854366660118,-0.7752578258514404,0.7162065505981445,-0.7580006718635559
-0.9141528493666845,-1.5137621591054833,1.9962249232388392,1.0096718072891235,0.023498263210058212,-4.301743030548096,-0.6094691157341003,0.7920457124710083,-0.03479830175638199,-0.8106206655502319,0.9017713665962219,-0.8216928839683533
-0.8706274110721621,-1.501884189960466,2.0107058024408464,1.3340696096420288,0.10742662847042084,-4.231653213500977,-0.6428176760673523,0.7647333741188049,-0.0443681925535202,-0.8182571530342102,1.0187444686889648,-0.8398939371109009
-0.8276464217955908,-1.4871968371150224,2.028079452170899,1.5924197435379028,0.21568971872329712,-4.13662052154541,-0.6742478609085083,0.7363409399986267,-0.056498460471630096,-0.762290894985199,1.0345025062561035,-0.7921038866043091
-0.7849552470099044,-1.4710546190478726,2.0473012656453267,1.8267314434051514,0.21930184960365295,-4.0996856689453125,-0.70390385389328,0.7067935466766357,-0.0704423263669014,-0.6953728199005127,0.9881832003593445,-0.721458375453949
-0.7419078772704015,-1.4551196932400383,2.0679869378542266,2.058344602584839,0.09381238371133804,-4.113585948944092,-0.7322540879249573,0.6756955981254578,-0.08508453518152237,-0.6369017958641052,0.9125306606292725,-0.6598648428916931
-0.6980035695991,-1.4407008431197557,2.08981842076925,2.263258934020996,-0.0869758203625679,-4.170063018798828,-0.7596526145935059,0.6426894664764404,-0.0993887186050415,-0.5811981558799744,0.8587600588798523,-0.6142649054527283
-0.6530096905198791,-1.428129675633349,2.1125666940699133,2.461209297180176,-0.24321095645427704,-4.230132102966309,-0.7861891984939575,0.6075796484947205,-0.11293020844459534,-0.5469100475311279,0.8665871024131775,-0.600631833076477
-0.6068669378729079,-1.4174888177362879,2.1361575162976054,2.6583282947540283,-0.4122058153152466,-4.30617618560791,-0.8118045330047607,0.5702966451644897,-0.12544001638889313,-0.5200893878936768,0.9156347513198853,-0.6179224848747253
-0.5594394827251157,-1.409048793945861,2.1608360978796672,2.8805220127105713,-0.6184743046760559,-4.380874156951904,-0.8364899754524231,0.5307112336158752,-0.13649259507656097,-0.5047881007194519,0.9778031706809998,-0.6572086811065674
-0.5109039030406474,-1.4029277064061738,2.186749401012863,3.0834298133850098,-0.7809364795684814,-4.430365562438965,-0.8600410223007202,0.4889659285545349,-0.14574550092220306,-0.4652458429336548,1.0311756134033203,-0.6758946180343628
-0.4617081017921879,-1.3987379708196561,2.2132434358458677,3.161003828048706,-0.8524412512779236,-4.438967227935791,-0.8820732831954956,0.44547802209854126,-0.15328368544578552,-0.38707637786865234,1.057939887046814,-0.6500305533409119
-0.4126479589664331,-1.3967401076095842,2.2389331565360835,3.076780319213867,-0.9110015630722046,-4.385499477386475,-0.9022208452224731,0.40103641152381897,-0.1586424559354782,-0.2548988461494446,1.0589396953582764,-0.5606264472007751
-0.3646847572796215,-1.396860775569952,2.2626729942272714,2.8836913108825684,-0.8972463607788086,-4.263331413269043,-0.9201398491859436,0.3566547930240631,-0.16167877614498138,-0.1263384222984314,1.0543406009674072,-0.4802585244178772
-0.3185849365083538,-1.3982809224204507,2.2839793585005106,2.6384365558624268,-0.796026885509491,-4.096645832061768,-0.9355826377868652,0.3132230043411255,-0.16302290558815002,-0.045725345611572266,1.03873610496521,-0.44885462522506714
-0.27469097746636223,-1.399784926729832,2.3026900537514208,2.3683173656463623,-0.5845982432365417,-3.914234161376953,-0.9484689831733704,0.2712495028972626,-0.16379889845848083,-0.006898939609527588,0.9962369799613953,-0.44095271825790405
-0.23315227355593535,-1.4002725732726486,2.3188139103909955,2.1092286109924316,-0.3268834054470062,-3.7169413566589355,-0.9588313102722168,0.2310456484556198,-0.16510696709156036,0.04322773218154907,0.9255399703979492,-0.4273918867111206
-0.1938336746779756,-1.399534765042617,2.3327100519581188,1.9034544229507446,-0.11830142140388489,-3.5516533851623535,-0.9669174551963806,0.19262218475341797,-0.16723401844501495,0.09179544448852539,0.8477982878684998,-0.4270806312561035
-0.1561271025194375,-1.3976404303660275,2.345195190420604,1.8138923645019531,0.05778852850198746,-3.4401562213897705,-0.973064661026001,0.1554935872554779,-0.1701962798833847,0.10001790523529053,0.7768488526344299,-0.46374547481536865
-0.11937257962071965,-1.3947145213414323,2.357370483208971,1.8341792821884155,0.18263620138168335,-3.3622689247131348,-0.9775311946868896,0.119089275598526,-0.1739266961812973,0.10846686363220215,0.7002771496772766,-0.5117270350456238
-0.08309907425616285,-1.3913155634286256,2.369959988302594,1.9075511693954468,0.2334027737379074,-3.3140721321105957,-0.9805412292480469,0.083003468811512,-0.1779026836156845,0.13973617553710938,0.6437726020812988,-0.5288539528846741
-0.047023912288160725,-1.3882299468854025,2.3834384309000507,2.0325000286102295,0.19746820628643036,-3.2805044651031494,-0.982293963432312,0.04700658470392227,-0.18135321140289307,0.173547625541687,0.6286830902099609,-0.5300268530845642
-0.010952131918469494,-1.3861546464893146,2.39839971650667,2.215829610824585,0.13166068494319916,-3.2410786151885986,-0.9829432368278503,0.010951912961900234,-0.1835833191871643,0.20080816745758057,0.6345863938331604,-0.5428723692893982
0.024912034083208533,-1.385398082993867,2.4151791968709246,2.382793664932251,0.03561778366565704,-3.1658084392547607,-0.9825580716133118,-0.024909457191824913,-0.18428079783916473,0.2602221369743347,0.644553542137146,-0.5267482995986938
0.060090116612230834,-1.386624261257711,2.4334660989277466,2.477233409881592,-0.12678132951259613,-3.053680419921875,-0.981313943862915,-0.06005395948886871,-0.18280215561389923,0.33319681882858276,0.69025719165802,-0.45875370502471924
0.09407639107326654,-1.390210638974214,2.452797425688664,2.5263724327087402,-0.29304593801498413,-2.9084877967834473,-0.9793885946273804,-0.09393768757581711,-0.17881156504154205,0.38928550481796265,0.7442672252655029,-0.39282846450805664
0.12649765207176394,-1.3961541403472961,2.4730379044270663,2.5648279190063477,-0.4436759948730469,-2.742478132247925,-0.9769201278686523,-0.12616056203842163,-0.17236743867397308,0.4309454560279846,0.7779091596603394,-0.3652302622795105
0.15715235590146592,-1.4040618235783215,2.4942544687182187,2.597744941711426,-0.5281128287315369,-2.564781665802002,-0.9739799499511719,-0.15650628507137299,-0.1639178842306137,0.4620474576950073,0.7862669825553894,-0.3654248118400574
0.1859100508981652,-1.4134121182047061,2.5163138802378366,2.599571466445923,-0.5771898627281189,-2.3953871726989746,-0.970622181892395,-0.18484097719192505,-0.15403451025485992,0.48971086740493774,0.7903096675872803,-0.35106199979782104
0.21284904103260244,-1.4236670997805945,2.5389092195809693,2.5755832195281982,-0.565390944480896,-2.240393877029419,-0.9668728113174438,-0.21124550700187683,-0.1432906836271286,0.5035703182220459,0.7899961471557617,-0.3419846296310425
0.2378878590994737,-1.4341321552731505,2.561799509527475,2.5339319705963135,-0.49757587909698486,-2.068730354309082,-0.9627763628959656,-0.23565049469470978,-0.13240236043930054,0.5349047780036926,0.7835935950279236,-0.33669865131378174
0.26087006066354007,-1.4444639956284402,2.5848847154819885,2.487335681915283,-0.4237581193447113,-1.8852366209030151,-0.9584662914276123,-0.2579212784767151,-0.12173359096050262,0.5706794261932373,0.7821979522705078,-0.33046066761016846
0.28172437336553496,-1.4545559058746798,2.6079286479592256,2.4063124656677246,-0.3571300506591797,-1.7042793035507202,-0.954095184803009,-0.2780124545097351,-0.11140664666891098,0.6037381887435913,0.7696810960769653,-0.3159158229827881
0.3004675294549513,-1.4643236236669321,2.6306041474675683,2.3085477352142334,-0.29205837845802307,-1.5246291160583496,-0.9497890472412109,-0.29596683382987976,-0.10151048749685287,0.6298580169677734,0.7527844309806824,-0.2989869713783264
0.31708970352501487,-1.4736670327786505,2.6526420741788463,2.190673828125,-0.2361661195755005,-1.348545789718628,-0.9456683993339539,-0.3118026852607727,-0.09214204549789429,0.6506704092025757,0.7470748424530029,-0.283453106880188
0.3316834517381935,-1.48253014460513,2.6738087841712432,2.0604300498962402,-0.18323339521884918,-1.1763498783111572,-0.941814661026001,-0.3256351947784424,-0.08334694802761078,0.668331503868103,0.7529270648956299,-0.2701992392539978
0.34427532033406383,-1.4907475706200874,2.6940921629251053,1.9555022716522217,-0.11540548503398895,-1.000571608543396,-0.9383059740066528,-0.33751460909843445,-0.07527107000350952,0.6913883090019226,0.7535760402679443,-0.27465879917144775
0.35475919853433646,-1.4981828712202112,2.713693699574278,1.865606665611267,-0.02537626028060913,-0.7974874973297119,-0.9352590441703796,-0.3473645746707916,-0.06803200393915176,0.7200644016265869,0.751340925693512,-0.28778767585754395
0.3628634662143931,-1.5045228038928606,2.7325917778284143,1.7633694410324097,0.08523048460483551,-0.5651001930236816,-0.9328319430351257,-0.35495269298553467,-0.06191273033618927,0.7512829303741455,0.7561977505683899,-0.2821882963180542
0.36845155367728116,-1.5097341692091932,2.7506507346244495,1.6621352434158325,0.1592911332845688,-0.33164674043655396,-0.9311476349830627,-0.3601713478565216,-0.05692865327000618,0.7752638459205627,0.7598752975463867,-0.2658405303955078
0.3716355353140492,-1.5141624684350135,2.7679378949941937,1.5878193378448486,0.20143526792526245,-0.11546501517295837,-0.9302409887313843,-0.363139808177948,-0.05273953080177307,0.7838938236236572,0.7527881860733032,-0.2621103525161743
0.37268534205608866,-1.5180681255386874,2.7847397589558005,1.5415178537368774,0.24084284901618958,0.07594702392816544,-0.9300585985183716,-0.36411774158477783,-0.049085814505815506,0.7787371873855591,0.7381259202957153,-0.26991450786590576
0.37184074913889537,-1.521387560784582,2.801255767333434,1.5070608854293823,0.2911314368247986,0.2488052099943161,-0.9305233359336853,-0.36333099007606506,-0.04601345583796501,0.769939661026001,0.7293435335159302,-0.2664560079574585
0.36922499107868634,-1.5242058566071583,2.81729455073848,1.4436273574829102,0.29902851581573486,0.41671934723854065,-0.9315953850746155,-0.36089277267456055,-0.04343489930033684,0.7742924690246582,0.724936842918396,-0.24263691902160645
0.36484493079296426,-1.5269871310297882,2.8326376453975413,1.3730272054672241,0.23505760729312897,0.585865318775177,-0.933282732963562,-0.35680443048477173,-0.04091254249215126,0.7774905562400818,0.7329487800598145,-0.22167599201202393
0.35868319201774845,-1.530359028872473,2.8474635727035165,1.3410370349884033,0.14250822365283966,0.7694348692893982,-0.9355944395065308,-0.3510415256023407,-0.03785354644060135,0.777498185634613,0.7418190836906433,-0.22015738487243652
0.35027598994666326,-1.5342813352369344,2.861999885903556,1.3077257871627808,0.08306565880775452,1.0273643732070923,-0.938651978969574,-0.3431570529937744,-0.03429010882973671,0.7981948852539062,0.7559378147125244,-0.21496224403381348
0.33885200228934304,-1.538471987320069,2.87610531443325,1.259511947631836,0.033070940524339676,1.357700228691101,-0.9426441192626953,-0.33240458369255066,-0.030480965971946716,0.8202534914016724,0.798316478729248,-0.20574039220809937
0.32384287277119156,-1.54267764647672,2.8896896938568113,1.2144402265548706,0.014825037680566311,1.7559970617294312,-0.947644829750061,-0.31821203231811523,-0.02665354683995247,0.8331581950187683,0.8417867422103882,-0.20613455772399902
0.30432349993067964,-1.5464428334216689,2.9028883204849745,1.1867351531982422,0.05551840364933014,2.214160203933716,-0.953766942024231,-0.29964783787727356,-0.023232150822877884,0.8294078707695007,0.8791766166687012,-0.221946120262146
0.28012999864489385,-1.5493762935372923,2.915849878553416,1.181579351425171,0.0995946004986763,2.6614949703216553,-0.960798978805542,-0.2764805853366852,-0.020583493635058403,0.7944172620773315,0.9181431531906128,-0.23587101697921753
0.25172348899771085,-1.5516836265775367,2.9288916984150135,1.215497374534607,0.12191455811262131,3.0380682945251465,-0.9683076739311218,-0.24907350540161133,-0.01850922778248787,0.7044985294342041,0.935917317867279,-0.2517392039299011
0.22021193161018024,-1.5537627869170194,2.9424181692619187,1.2988070249557495,0.08346881717443466,3.2710118293762207,-0.9757096171379089,-0.21843643486499786,-0.01662139594554901,0.5906541347503662,0.9326239824295044,-0.26497960090637207
0.18723170515494295,-1.5563559376142864,2.9568075762360815,1.4060648679733276,-0.026997242122888565,3.333484649658203,-0.9824208617210388,-0.18613970279693604,-0.0141875259578228,0.4565725326538086,0.9053778648376465,-0.2607758641242981
0.1540559635982717,-1.5597183078691905,2.9718670075799145,1.452178716659546,-0.12792472541332245,3.3156144618988037,-0.9880961179733276,-0.15344731509685516,-0.01094659510999918,0.3474864959716797,0.8583270311355591,-0.22516798973083496
0.12095411044195728,-1.5632670899975967,2.9865495544759444,1.3685795068740845,-0.16929879784584045,3.317169189453125,-0.9926658272743225,-0.12065940350294113,-0.007474157027900219,0.3007408380508423,0.825462818145752,-0.1517665982246399
0.08736497543509357,-1.5661419230499347,2.9997082950290075,1.1939852237701416,-0.11873604357242584,3.41113543510437,-0.996175229549408,-0.0872538834810257,-0.004636635072529316,0.289983332157135,0.8174784183502197,-0.08221644163131714
0.05227507796143667,-1.5672563163782416,3.0109677518508917,1.0235793590545654,0.07625581324100494,3.600330352783203,-0.9986276626586914,-0.05225127190351486,-0.0035351670812815428,0.2955179810523987,0.8029378652572632,-0.05844604969024658
0.014975746566357865,-1.5651284727227195,3.020811756376883,0.9160177111625671,0.4246788024902344,3.8533196449279785,-0.9998718500137329,-0.014975186437368393,-0.005667188670486212,0.2857452630996704,0.7765718102455139,-0.08138418197631836
-0.025004933933282215,-1.5589632510441516,3.030196964210415,0.9019091129302979,0.7888455986976624,4.129577159881592,-0.9996175169944763,0.02500232867896557,-0.011829101480543613,0.26037490367889404,0.7356940507888794,-0.12432509660720825
-0.06744704484038111,-1.5490275366720003,3.0403712576906328,0.9967164993286133,1.0869886875152588,4.360130310058594,-0.997489869594574,0.06739591807126999,-0.021717578172683716,0.23285675048828125,0.6652395129203796,-0.14995908737182617
-0.1117242669448989,-1.5360175763870259,3.0524779851394572,1.1625033617019653,1.2695776224136353,4.518796920776367,-0.9931644201278687,0.11149198561906815,-0.03455495089292526,0.17799413204193115,0.5995522737503052,-0.14679580926895142
-0.15663163183574072,-1.521128620604652,3.0671242668626033,1.3532459735870361,1.2923532724380493,4.526489734649658,-0.9865401983261108,0.15599197149276733,-0.04903952032327652,0.07871860265731812,0.5539841651916504,-0.11589276790618896
-0.20050413726988506,-1.5054097030838178,3.0845046567421943,1.544252872467041,1.2100666761398315,4.387033939361572,-0.9778722524642944,0.19916339218616486,-0.06403104215860367,-0.07289385795593262,0.5214328765869141,-0.07015473395586014
-0.242193812837811,-1.4897991078704849,3.104294823229302,1.6767593622207642,1.0264501571655273,4.179797172546387,-0.9676313996315002,0.23983298242092133,-0.07854729890823364,-0.20171070098876953,0.5015915632247925,0.008677296340465546
-0.2815391931149474,-1.475125984832218,3.1256717225916018,1.7149254083633423,0.7923308610916138,4.004627227783203,-0.956235945224762,0.27783456444740295,-0.09176355600357056,-0.2865312695503235,0.5197269916534424,0.10259724408388138
-0.31919432609526127,-1.462048946796324,-3.135565381232101,1.6664772033691406,0.5138640403747559,3.901796817779541,-0.9438796639442444,0.31380167603492737,-0.10305099189281464,-0.31078946590423584,0.5665541291236877,0.19139933586120605
-0.3561276081128671,-1.451150810937507,-3.1138041891869963,1.5525176525115967,0.2272128313779831,3.890558958053589,-0.9305534362792969,0.34864744544029236,-0.11187086999416351,-0.29989999532699585,0.6184850335121155,0.26157480478286743
-0.393275445756588,-1.4422111452621476,-3.0927858239881822,1.3944110870361328,0.03433568403124809,3.95109486579895,-0.9160333871841431,0.38321587443351746,-0.11844182014465332,-0.29494988918304443,0.6736383438110352,0.2976715564727783
-0.43137604946008623,-1.434477530708277,-3.0726876060378987,1.246767520904541,-0.08987707644701004,4.065982341766357,-0.8999642133712769,0.41812118887901306,-0.12344765663146973,-0.3060448169708252,0.7190706133842468,0.2888681888580322
-0.47068426769784205,-1.4270605720603222,-3.0528973834695536,1.1899515390396118,-0.14154228568077087,4.187659740447998,-0.8820673227310181,0.4534962475299835,-0.12766501307487488,-0.33775079250335693,0.7183634042739868,0.233087956905365
-0.510897217082606,-1.4189284657035022,-3.0324884539056973,1.1850212812423706,-0.15522907674312592,4.261768341064453,-0.862265944480896,0.4889600872993469,-0.13196660578250885,-0.39064836502075195,0.694892942905426,0.16599370539188385
-0.5513009366827669,-1.4097198385556646,-3.0110660700809375,1.1932512521743774,-0.17374588549137115,4.255317687988281,-0.8408167362213135,0.5237958431243896,-0.1366194188594818,-0.458316445350647,0.643104612827301,0.12555678188800812
-0.5910958648652105,-1.399453994524887,-2.988801548821988,1.1712733507156372,-0.17521807551383972,4.178312301635742,-0.8181717991828918,0.5572713017463684,-0.1415756493806839,-0.5105788707733154,0.5654245615005493,0.1113479733467102
-0.6297971726790166,-1.387892092292564,-2.966035058522002,1.1299371719360352,-0.11033111065626144,4.070906639099121,-0.794666588306427,0.5889808535575867,-0.14699068665504456,-0.5354114770889282,0.493172287940979,0.10682955384254456
-0.6672985419146018,-1.3743567587798113,-2.942891386681426,1.0708515644073486,0.025483982637524605,3.9619367122650146,-0.7703893780708313,0.6188662648200989,-0.1533120721578598,-0.5488092303276062,0.4413447976112366,0.10013522207736969
-0.7035561985269775,-1.3587872891051762,-2.919599837287165,0.9840507507324219,0.13159160315990448,3.8374886512756348,-0.7454730868339539,0.6469335556030273,-0.16045834124088287,-0.5719860196113586,0.3914880156517029,0.10868526995182037
-0.7383278372788047,-1.3419609341825052,-2.8964717668439803,0.8831449151039124,0.17459020018577576,3.6717607975006104,-0.7203147411346436,0.6730521321296692,-0.1677722930908203,-0.585761308670044,0.31112444400787354,0.1403522491455078
-0.7713404150720244,-1.324642953877513,-2.87389112827012,0.7564830780029297,0.1934320032596588,3.4992284774780273,-0.6953650712966919,0.6970968842506409,-0.17470943927764893,-0.5840080976486206,0.23744285106658936,0.17245113849639893
-0.8029222971595064,-1.3070290916961864,-2.852093155216994,0.6270813941955566,0.24566911160945892,3.3728768825531006,-0.6705841422080994,0.719389021396637,-0.1810975819826126,-0.5729614496231079,0.19981563091278076,0.18831491470336914
-0.833577409859186,-1.288776536253898,-2.830904524515774,0.5061918497085571,0.3062525987625122,3.29656982421875,-0.6456751227378845,0.7403409481048584,-0.18707945942878723,-0.5495153069496155,0.18212902545928955,0.19324399530887604
-0.8637200000155417,-1.2698061602579571,-2.8099708117614157,0.41172635555267334,0.34031227231025696,3.2571160793304443,-0.6204092502593994,0.7602643966674805,-0.19258835911750793,-0.5295083522796631,0.1679123044013977,0.18769028782844543
-0.8935830048922054,-1.249936542847904,-2.788619431666314,0.3561531603336334,0.33725854754447937,3.2419674396514893,-0.5946437120437622,0.7793219685554504,-0.19762620329856873,-0.5182713270187378,0.15157091617584229,0.1720982789993286
-0.9232116862710004,-1.2290750357496287,-2.766112359464221,0.33652541041374207,0.27531421184539795,3.2397642135620117,-0.56838059425354,0.7975432276725769,-0.2021586149930954,-0.5162903666496277,0.12671202421188354,0.15490218997001648
-0.9525304303981911,-1.2072903995977704,-2.7417760462747114,0.33807384967803955,0.14982402324676514,3.2341723442077637,-0.5417479276657104,0.8148847818374634,-0.20608676970005035,-0.524520993232727,0.0993301272392273,0.13876500725746155
-0.9813934429885144,-1.1847338485578576,-2.715243932604767,0.3480854630470276,-0.008576002903282642,3.219882011413574,-0.5149524807929993,0.8312727212905884,-0.20930732786655426,-0.5395519137382507,0.07023173570632935,0.12814582884311676
-1.009731003241078,-1.161388820363504,-2.6863247286623535,0.35748496651649475,-0.1778135597705841,3.2039101123809814,-0.488115131855011,0.8466887474060059,-0.21180632710456848,-0.5572340488433838,0.046987950801849365,0.1211996078491211
-1.0374677122203868,-1.137207281993051,-2.654672782233058,0.3768879771232605,-0.39286142587661743,3.1835262775421143,-0.4613569676876068,0.8611195683479309,-0.2135954201221466,-0.5705187320709229,0.019709348678588867,0.11252114176750183
-1.0645560500534357,-1.1122295810261509,-2.6200625887065345,0.3836963474750519,-0.6151123046875,3.1620688438415527,-0.43479734659194946,0.8745737671852112,-0.21464422345161438,-0.5813465118408203,-0.014985144138336182,0.11282229423522949
-1.0909684198849785,-1.086240618429779,-2.582454618148591,0.3849339187145233,-0.80324387550354,3.140838861465454,-0.40848517417907715,0.88707435131073,-0.21503277122974396,-0.5983203649520874,-0.042103588581085205,0.11075416207313538
-1.1167700394668085,-1.0585546471085259,-2.5415620837213555,0.38099974393844604,-0.951240599155426,3.13299298286438,-0.3822939693927765,0.8986884951591492,-0.21496598422527313,-0.6134794354438782,-0.059745073318481445,0.10121172666549683
-1.1420215514793173,-1.0283380552799672,-2.4967844772998937,0.3849409520626068,-1.10005521774292,3.1341614723205566,-0.3560716211795807,0.9094758033752441,-0.21463146805763245,-0.6267927885055542,-0.06886917352676392,0.08676278591156006
-1.1664298302219602,-0.9948406697858215,-2.4470389598616413,0.44087255001068115,-1.3002151250839233,3.1140763759613037,-0.3299640715122223,0.9193518161773682,-0.21427975594997406,-0.6466289758682251,-0.09556043148040771,0.05744995176792145
-1.189350807936144,-0.9572990801904342,-2.391020569585994,0.5465078949928284,-1.5399062633514404,3.060166597366333,-0.304376482963562,0.9281274676322937,-0.21432280540466309,-0.6697598695755005,-0.13636428117752075,0.02427460253238678
-1.2100774868964823,-0.9153172629637112,-2.327947659236633,0.6797563433647156,-1.8132436275482178,2.9655425548553467,-0.2798008322715759,0.9356433749198914,-0.21513496339321136,-0.6954799890518188,-0.17210882902145386,0.008103728294372559
-1.2280577841822617,-0.8691222613825172,-2.25787054644169,0.8143884539604187,-2.092506170272827,2.8431506156921387,-0.2566761076450348,0.9418378472328186,-0.21693088114261627,-0.7251507639884949,-0.20392268896102905,0.00936552882194519
-1.2430630906869928,-0.819697247687698,-2.1819931295561896,0.9142735600471497,-2.330476999282837,2.6941308975219727,-0.23528780043125153,0.946774423122406,-0.21967680752277374,-0.7613095045089722,-0.242703378200531,0.030010104179382324
-1.2550558833901961,-0.7688433163769106,-2.1027711869206214,0.9624226689338684,-2.507084369659424,2.505265712738037,-0.2159062922000885,0.9505667090415955,-0.22317589819431305,-0.8049677610397339,-0.28058385848999023,0.06794822216033936
-1.2643776898987327,-0.7196859313330403,-2.0240566547222207,0.9108353853225708,-2.6247854232788086,2.2818760871887207,-0.19882972538471222,0.9534199833869934,-0.22684188187122345,-0.8410110473632812,-0.3229878544807434,0.11838245391845703
-1.2718580048920995,-0.6759035655523786,-1.9502597000045836,0.7542297840118408,-2.6854453086853027,2.0387842655181885,-0.18424372375011444,0.9556496739387512,-0.22975654900074005,-0.8560090065002441,-0.36289143562316895,0.17364999651908875
-1.2785446067859212,-0.6400183733437618,-1.8844167745239482,0.5234846472740173,-2.7090423107147217,1.8033454418182373,-0.17206184566020966,0.957597553730011,-0.23108813166618347,-0.8587762117385864,-0.4040239453315735,0.21352529525756836
-1.2852530871610386,-0.6128861594195237,-1.8278772937292591,0.275657594203949,-2.6787712574005127,1.5881603956222534,-0.1620301753282547,0.9595087766647339,-0.2304106205701828,-0.856295645236969,-0.44273942708969116,0.2178068310022354
-1.2923739354997568,-0.5937684384138856,-1.780418075407949,0.05497993901371956,-2.5907633304595947,1.3926143646240234,-0.153769388794899,0.9614902138710022,-0.227797269821167,-0.8563014268875122,-0.4729343056678772,0.1935412883758545
-1.299984904528969,-0.5806313641646688,-1.7406601336557574,-0.12128723412752151,-2.4076719284057617,1.249036192893982,-0.14674493670463562,0.9635541439056396,-0.2236722856760025,-0.8615558743476868,-0.4928815960884094,0.140374556183815
-1.3081571558467968,-0.570144328718505,-1.7058567771646864,-0.24340611696243286,-2.1962268352508545,1.1822059154510498,-0.1401362419128418,0.9657081365585327,-0.21856257319450378,-0.8508458733558655,-0.5001929998397827,0.0745806097984314
-1.31682386287729,-0.5599036952422872,-1.673346549770021,-0.3205549716949463,-2.0344583988189697,1.1447285413742065,-0.1334405243396759,0.9679219722747803,-0.2128864973783493,-0.8202338218688965,-0.5061604976654053,0.010677039623260498
-1.3256277497120346,-0.5494227774104251,-1.641919095701105,-0.346950888633728,-1.9641889333724976,1.0912905931472778,-0.12674714624881744,0.9700964093208313,-0.20699790120124817,-0.802345335483551,-0.5263098478317261,-0.03201574087142944
-1.3339728631000807,-0.5402499811379918,-1.6120048670766889,-0.33326464891433716,-2.00557541847229,0.9840366244316101,-0.12067482620477676,0.9720881581306458,-0.20120200514793396,-0.8026803135871887,-0.5705683827400208,-0.05624425411224365
-1.341411701750358,-0.5355001092989832,-1.5859444470254684,-0.3259235620498657,-2.107084274291992,0.8036900162696838,-0.11602473258972168,0.9738065004348755,-0.1955486387014389,-0.8318818211555481,-0.618169903755188,-0.0634998083114624
-1.3477823470407388,-0.5396072626248908,-1.5676729010354375,-0.3494637608528137,-2.267686605453491,0.5433964133262634,-0.1136370375752449,0.9752352833747864,-0.189744234085083,-0.8798933029174805,-0.6573184132575989,-0.06580996513366699
-1.3529496396539131,-0.5577333984433931,-1.5619615042301918,-0.39822426438331604,-2.4555623531341553,0.20875389873981476,-0.11438881605863571,0.9763650894165039,-0.18337522447109222,-0.937018096446991,-0.6809244751930237,-0.07503235340118408
-1.356623941695545,-0.5939304849096153,-1.5728443214096048,-0.45748013257980347,-2.6296303272247314,-0.17297294735908508,-0.1189417764544487,0.9771526455879211,-0.17614135146141052,-0.993439257144928,-0.6678568720817566,-0.10149230062961578
-1.3585663555323046,-0.6493315015405338,-1.601831688632802,-0.534130871295929,-2.7397212982177734,-0.5017269253730774,-0.12736473977565765,0.9775636196136475,-0.1677727997303009,-1.0249791145324707,-0.5916078090667725,-0.1432165503501892
-1.3591001982850868,-0.7168919084928382,-1.6422995353026957,-0.6053374409675598,-2.8394904136657715,-0.7073575854301453,-0.13805735111236572,0.9776759147644043,-0.15839824080467224,-1.0144085884094238,-0.4362025856971741,-0.19824540615081787
-1.3583666092956805,-0.791856818493269,-1.6890890432813823,-0.6178857684135437,-2.993922233581543,-0.7933651804924011,-0.15004301071166992,0.977521538734436,-0.14811725914478302,-0.9883694648742676,-0.27302324771881104,-0.2768552303314209
-1.3564073304247966,-0.8682808414588898,-1.7353055194031934,-0.538427472114563,-3.251708745956421,-0.7882279753684998,-0.1623750776052475,0.9771065711975098,-0.13746635615825653,-0.9657225012779236,-0.11635833978652954,-0.3676910996437073
-1.3530300470835257,-0.9423093374173851,-1.775607106416492,-0.3830465078353882,-3.6679487228393555,-0.7930194139480591,-0.17476631700992584,0.9763824939727783,-0.12702015042304993,-0.9798967838287354,0.0017364025115966797,-0.4525849223136902
-1.3477325733759287,-1.013629916685538,-1.8086477116745379,-0.20830586552619934,-4.104116916656494,-0.8708300590515137,-0.18776091933250427,0.9752242565155029,-0.1169767677783966,-1.0399460792541504,0.05277562141418457,-0.540982186794281
-1.3397288758147865,-1.0842832122382617,-1.8373169258225908,-0.0844559445977211,-4.363816738128662,-1.081041932106018,-0.20244374871253967,0.9734224677085876,-0.10707604885101318,-1.1416724920272827,0.09518098831176758,-0.6076303720474243
-1.3285773493855444,-1.1546367025640478,-1.8642791128997842,-0.07964414358139038,-4.400012493133545,-1.4430062770843506,-0.2193850427865982,0.9708081483840942,-0.09696251899003983,-1.2837735414505005,0.13755977153778076,-0.6560739278793335
-1.3132680667456904,-1.2276521016900963,-1.8947772296040082,-0.19353455305099487,-4.233068943023682,-1.9464293718338013,-0.2398432493209839,0.9670224785804749,-0.08569083362817764,-1.4054663181304932,0.17543357610702515,-0.6885401010513306
-1.292707657855046,-1.3024326194449931,-1.9302199671492721,-0.3565234839916229,-3.8308863639831543,-2.51345157623291,-0.2646925747394562,0.9615818858146667,-0.0727897435426712,-1.4588487148284912,0.22628438472747803,-0.7353614568710327
-1.266643341922116,-1.373661212598256,-1.9674430452615117,-0.5230216383934021,-3.2429800033569336,-3.00758957862854,-0.2936842441558838,0.9541009664535522,-0.05865730717778206,-1.4276139736175537,0.3332219123840332,-0.7982304692268372
-1.2359606171589363,-1.436739318199848,-2.003112563621263,-0.6687859892845154,-2.568878412246704,-3.3679161071777344,-0.3256656229496002,0.9444643259048462,-0.043921180069446564,-1.3133877515792847,0.4688962697982788,-0.8475582599639893
-1.2019222862896188,-1.4890301745641703,-2.035088703253676,-0.7809920310974121,-1.8734214305877686,-3.590942859649658,-0.35936057567596436,0.9327338933944702,-0.029449190944433212,-1.1483298540115356,0.5562949180603027,-0.8730471134185791
-1.1658981277308247,-1.5300819043571818,-2.0626182261468737,-0.8416974544525146,-1.2428243160247803,-3.6868081092834473,-0.39359885454177856,0.919142484664917,-0.01603401079773903,-0.9674699306488037,0.5993053317070007,-0.8829222917556763
-1.128978703738165,-1.5608702135904884,-2.085354375181639,-0.8217552304267883,-0.7837470173835754,-3.712427854537964,-0.4275619089603424,0.9039759635925293,-0.004244167357683182,-0.8111922740936279,0.6352847218513489,-0.889875054359436
-1.0915303249531403,-1.582674665264815,-2.1025640491583144,-0.6946025490760803,-0.5094249248504639,-3.7562108039855957,-0.4610954225063324,0.8873336315155029,0.00547730503603816,-0.7153266668319702,0.6494094729423523,-0.9136804342269897
-1.0532568467916776,-1.5965647670171368,-2.113353811296696,-0.463794082403183,-0.3830740749835968,-3.8637068271636963,-0.4945791959762573,0.8690391182899475,0.012747355736792088,-0.6674692034721375,0.6449837684631348,-0.9503388404846191
-1.0136478128813653,-1.6037090271420293,-2.1172927660520022,-0.16300761699676514,-0.37609660625457764,-4.021509170532227,-0.528481662273407,0.8487663269042969,0.017400043085217476,-0.6379306316375732,0.6564673781394958,-0.9737141132354736
-0.9724814061703797,-1.6055933015565145,-2.1147188762351243,0.17193521559238434,-0.43642139434814453,-4.18723201751709,-0.5629100799560547,0.8262858986854553,0.019595475867390633,-0.5964222550392151,0.6904224157333374,-0.9819824695587158
-0.9299143218822277,-1.6035757698617557,-2.106238589288785,0.5239092111587524,-0.5443094968795776,-4.322134017944336,-0.5975815653800964,0.8015686869621277,0.01959540881216526,-0.5400832891464233,0.7493345737457275,-0.9816162586212158
-0.8862526663269913,-1.5988694066771874,-2.092584315075311,0.8836796283721924,-0.6568220853805542,-4.426534652709961,-0.6320703029632568,0.7747076749801636,0.017748823389410973,-0.4860479235649109,0.8078269958496094,-0.9783506393432617
-0.8415285788140288,-1.59216581612864,-2.074466846387452,1.237133264541626,-0.7487328052520752,-4.54683780670166,-0.666171669960022,0.74566251039505,0.014237916097044945,-0.44695693254470825,0.8386574983596802,-0.9673171043395996
-0.7953506265122128,-1.5840629524911234,-2.0526561286611003,1.5700784921646118,-0.8023235201835632,-4.710383892059326,-0.699972927570343,0.7141091227531433,0.009286823682487011,-0.44214749336242676,0.8597738742828369,-0.954248309135437
-0.7473054645375923,-1.5750262099876633,-2.0281708239105884,1.8333873748779297,-0.7902863025665283,-4.8990302085876465,-0.7335163354873657,0.6796647310256958,0.003102706978097558,-0.4521373510360718,0.8857343792915344,-0.9204000234603882
-0.6972090015919927,-1.5658442347831227,-2.002644262180051,1.9739242792129517,-0.7394912242889404,-5.083351135253906,-0.766627848148346,0.6420804858207703,-0.0037964426446706057,-0.45061153173446655,0.93277907371521,-0.8472472429275513
-0.6453462064564757,-1.5572621812402179,-1.9776599166924698,2.012057065963745,-0.6443479061126709,-5.208554267883301,-0.7988183498382568,0.6014750599861145,-0.010811984539031982,-0.4146520495414734,0.9882313013076782,-0.7597721219062805
-0.5924593476622277,-1.5493791037719487,-1.9540731488272005,1.9988915920257568,-0.5078645348548889,-5.256918907165527,-0.8293797373771667,0.5584028959274292,-0.017765726894140244,-0.3422207236289978,1.0422593355178833,-0.6905930042266846
-0.5393051355416555,-1.5417739845710645,-1.9320016275925218,1.981844186782837,-0.3296601474285126,-5.232069492340088,-0.8577042818069458,0.5135398507118225,-0.02489957958459854,-0.2542493939399719,1.0876867771148682,-0.6448391079902649
-0.48657702283966175,-1.5338959524447398,-1.9111490566748213,1.9858611822128296,-0.14096741378307343,-5.147740364074707,-0.8833368420600891,0.46760293841362,-0.03261026367545128,-0.1698247194290161,1.1126735210418701,-0.620679497718811
-0.4346727991391064,-1.5254667092634735,-1.8911283203515705,2.0127203464508057,0.05032718926668167,-5.038394451141357,-0.906076192855835,0.42111364006996155,-0.041100241243839264,-0.09306931495666504,1.1129286289215088,-0.605201005935669
-0.38381213174845175,-1.5161970869288535,-1.8716760650977615,2.044224262237549,0.2582390010356903,-4.909167766571045,-0.925862193107605,0.3744579553604126,-0.050601664930582047,-0.01464378833770752,1.0996936559677124,-0.5759546756744385
-0.3341550084153404,-1.5059877305964136,-1.8528676742957542,2.0458731651306152,0.4564729928970337,-4.763027191162109,-0.9427045583724976,0.32797104120254517,-0.06118103861808777,0.07075631618499756,1.075028896331787,-0.5296391844749451
-0.2858013971507162,-1.4950472480612444,-1.8348163159780064,2.048841953277588,0.6225800514221191,-4.613429546356201,-0.9566847085952759,0.2819264233112335,-0.07260691374540329,0.15608656406402588,1.0398509502410889,-0.47899824380874634
-0.23879423321162294,-1.4836290368844254,-1.8174434873071683,2.047757863998413,0.7493963241577148,-4.454431056976318,-0.9679350256919861,0.23653124272823334,-0.08458661288022995,0.24295932054519653,0.997736930847168,-0.42313432693481445
-0.1931815348544107,-1.472218569441273,-1.8007771076296655,2.0273897647857666,0.8039888739585876,-4.296679973602295,-0.9766338467597961,0.1919822096824646,-0.09658744186162949,0.32647210359573364,0.9595527648925781,-0.35820072889328003
-0.1490069444855709,-1.4613718676065246,-1.7847597014222936,2.017652750015259,0.8129549622535706,-4.132451057434082,-0.9830044507980347,0.1484561562538147,-0.10799611359834671,0.39999663829803467,0.9297909140586853,-0.3012903332710266
-0.10634738767571611,-1.4513661508734528,-1.7692558104801006,1.9994585514068604,0.7798023223876953,-3.9654006958007812,-0.987267255783081,0.10614704340696335,-0.11847332119941711,0.4720085859298706,0.902306318283081,-0.24673043191432953
-0.06518627329724835,-1.4425959060172295,-1.7542885275738973,1.9624403715133667,0.7092524766921997,-3.8101534843444824,-0.9896871447563171,0.06514012068510056,-0.127578005194664,0.5216085314750671,0.8843685388565063,-0.19583195447921753
-0.025559694380935753,-1.4352887305963242,-1.7399816207537349,1.897064447402954,0.6184236407279968,-3.6479990482330322,-0.9905091524124146,0.025556910783052444,-0.13504913449287415,0.5565187931060791,0.8796707391738892,-0.14566674828529358
0.012462147248739543,-1.4293175038017574,-1.7265113480943697,1.806965708732605,0.5633856654167175,-3.485760450363159,-0.9899317622184753,-0.012461824342608452,-0.14099638164043427,0.5825526118278503,0.8879958391189575,-0.10576874017715454
0.04857615572213538,-1.4240282101452144,-1.7139979657920474,1.691431999206543,0.5710081458091736,-3.276038646697998,-0.9880819320678711,-0.04855705425143242,-0.1460692584514618,0.6209097504615784,0.891071081161499,-0.07651065289974213
0.08228241998793931,-1.4189568539992767,-1.702630836016733,1.5420589447021484,0.5883336067199707,-3.026742935180664,-0.985150158405304,-0.08218960464000702,-0.1507449597120285,0.674176037311554,0.8921718597412109,-0.04513204097747803
0.1132064682486302,-1.4139556379450793,-1.6924880773769706,1.3963834047317505,0.6086118221282959,-2.751492500305176,-0.9814031720161438,-0.11296481639146805,-0.1551986187696457,0.7263525724411011,0.8862192034721375,-0.021772727370262146
0.1411160293186404,-1.4088914753100454,-1.6833962543027534,1.2622363567352295,0.6270701885223389,-2.4542789459228516,-0.9771115779876709,-0.14064814150333405,-0.1595960557460785,0.7757872343063354,0.8696062564849854,-0.004405349493026733
0.16586330508625086,-1.403949856446665,-1.6752080101460223,1.1369104385375977,0.6031566858291626,-2.1459476947784424,-0.9725801944732666,-0.16510385274887085,-0.16379429399967194,0.8255617618560791,0.8422889113426208,0.015143215656280518
0.18741848530863311,-1.3994785551275664,-1.6677730694585702,1.023962140083313,0.5404629707336426,-1.8469231128692627,-0.9681057333946228,-0.18632321059703827,-0.16749557852745056,0.8638883233070374,0.809660017490387,0.03001399338245392
0.2059527221593659,-1.395767225570053,-1.6610080494486381,0.9169997572898865,0.4631468653678894,-1.567223072052002,-0.9639108180999756,-0.20449984073638916,-0.170456662774086,0.8817119002342224,0.7833572626113892,0.04135212302207947
0.22165579105811822,-1.3928709391964842,-1.6548433919883891,0.8175746202468872,0.3759927749633789,-1.3058702945709229,-0.9601340293884277,-0.21984520554542542,-0.1726580411195755,0.8901572227478027,0.7580989599227905,0.046086445450782776
0.23471990415618033,-1.3908527619226028,-1.6491722916076508,0.7325770258903503,0.28278985619544983,-1.0666357278823853,-0.9568759202957153,-0.2325705736875534,-0.1740664690732956,0.8932316899299622,0.7329825758934021,0.048349350690841675
0.2453917034538608,-1.3897049111317832,-1.6439108880506077,0.6520241498947144,0.2002609223127365,-0.8469467759132385,-0.9541798830032349,-0.24293631315231323,-0.17470777034759521,0.8845387101173401,0.7139140367507935,0.044214650988578796
0.2538835785324499,-1.3892574650828051,-1.6390000093886188,0.5865989923477173,0.1328582465648651,-0.6472505927085876,-0.9520381689071655,-0.2511649429798126,-0.17475593090057373,0.872555136680603,0.6998190879821777,0.037350594997406006
0.2603287544425338,-1.3892844931438275,-1.6343662672299255,0.5247350931167603,0.10172988474369049,-0.4560801684856415,-0.9504308104515076,-0.25739824771881104,-0.17443431913852692,0.8583745956420898,0.6913429498672485,0.03271074593067169
0.2647522977307057,-1.3894423867768393,-1.6300307302892836,0.454129159450531,0.09113039821386337,-0.2598308324813843,-0.9493290185928345,-0.26167020201683044,-0.17407718300819397,0.846393346786499,0.6968356370925903,0.03316231071949005
0.2671853750485095,-1.389603756184973,-1.626090350457445,0.3757784366607666,0.08078321814537048,-0.07975054532289505,-0.9487281441688538,-0.2640177309513092,-0.173808753490448,0.841748833656311,0.7056375741958618,0.04102684557437897
0.26766317027555314,-1.3897987174216002,-1.6226404978204299,0.29238811135292053,0.056081622838974,0.10552137345075607,-0.948637843132019,-0.26447853446006775,-0.17360106110572815,0.8403156995773315,0.7087839841842651,0.05258364975452423
0.26610471180897144,-1.3901875000645765,-1.6197561452308447,0.19516968727111816,0.018100153654813766,0.30052363872528076,-0.9491094946861267,-0.2629752457141876,-0.17330604791641235,0.8403297066688538,0.711858332157135,0.06000961363315582
0.2623361849084684,-1.3906258879864035,-1.6176146507146298,0.0720582902431488,0.010015119798481464,0.5139650106430054,-0.9501537680625916,-0.25933751463890076,-0.17306634783744812,0.8345226645469666,0.7264547944068909,0.06860470771789551
0.2560894483512051,-1.3907805740414876,-1.6164200286263226,-0.07167758047580719,0.024177011102437973,0.7572562098503113,-0.9517558217048645,-0.2532994747161865,-0.17320604622364044,0.826221764087677,0.7467076778411865,0.07628226280212402
0.24705791491129145,-1.3902718090249768,-1.61634157576978,-0.2362004816532135,0.07782764732837677,1.021362066268921,-0.9538792371749878,-0.24455226957798004,-0.17409388720989227,0.8222264051437378,0.7674556970596313,0.07886381447315216
0.23507178956843552,-1.3889067379253281,-1.6174270859611668,-0.39921122789382935,0.1405152678489685,1.2906970977783203,-0.956454873085022,-0.2329128086566925,-0.17591343820095062,0.8157078623771667,0.7795131206512451,0.07700599730014801
0.22018173232981944,-1.3867840924027335,-1.6195889460245168,-0.5487859845161438,0.179401233792305,1.5508949756622314,-0.9593827724456787,-0.21840697526931763,-0.1785580962896347,0.8038347363471985,0.7900469899177551,0.07031227648258209
0.2024406829098185,-1.3842572541209446,-1.6225781307014402,-0.674590528011322,0.1991664171218872,1.8196332454681396,-0.9625849723815918,-0.20106077194213867,-0.18167181313037872,0.7953944802284241,0.8006548881530762,0.057816281914711
0.18172402801085735,-1.3815630618143313,-1.6261104494944876,-0.7755569219589233,0.19951961934566498,2.11065936088562,-0.9659761786460876,-0.18072548508644104,-0.1850084513425827,0.7843051552772522,0.8135684728622437,0.04935784637928009
0.15790354388665542,-1.3790294549742053,-1.6299310673252811,-0.8588020205497742,0.17328988015651703,2.4105353355407715,-0.9694563150405884,-0.15724818408489227,-0.18822254240512848,0.7636304497718811,0.8371950387954712,0.04268425703048706
0.13090978641920056,-1.376924268479259,-1.6338337616070044,-0.9251833558082581,0.132481649518013,2.7274842262268066,-0.9728694558143616,-0.13053619861602783,-0.19101135432720184,0.7297816872596741,0.8661166429519653,0.03883552551269531
0.10048277620971785,-1.3754240620056861,-1.637522225529589,-0.9632817506790161,0.07730894535779953,3.0867958068847656,-0.976027250289917,-0.10031376779079437,-0.1931525021791458,0.6849353909492493,0.8953119516372681,0.033011555671691895
0.06638693698724617,-1.3748487101010707,-1.6407316745940472,-0.9814324975013733,-0.019768856465816498,3.457946300506592,-0.9787029027938843,-0.0663381814956665,-0.19426721334457397,0.642460286617279,0.9228445291519165,0.023216262459754944
0.028624657036592303,-1.3754109348127754,-1.6433392063760488,-0.9880880117416382,-0.11314328014850616,3.823380947113037,-0.9805710315704346,-0.028620747849345207,-0.19406506419181824,0.5966598987579346,0.9397382736206055,0.0109902024269104
-0.012692118496958891,-1.3767842852653491,-1.6452317752104448,-0.9732564687728882,-0.1610674113035202,4.181907653808594,-0.9811594486236572,0.012691778130829334,-0.19278165698051453,0.540226399898529,0.9752385020256042,-0.016187399625778198
-0.057395982243447184,-1.3786790457893736,-1.6462342663670095,-0.9238308668136597,-0.21818023920059204,4.516939640045166,-0.9799856543540955,0.05736447498202324,-0.1906232088804245,0.4748740792274475,0.9938898086547852,-0.04776480793952942
-0.10492609726548847,-1.3812443495177806,-1.6460136235155813,-0.8250827789306641,-0.291641503572464,4.785746097564697,-0.976687490940094,0.1047336757183075,-0.18738265335559845,0.37102043628692627,0.9805324077606201,-0.06650827825069427
-0.15446606940275256,-1.3842012172713507,-1.64434009502369,-0.6901329755783081,-0.35051441192626953,4.963422775268555,-0.9709421992301941,0.15385255217552185,-0.18330544233322144,0.20356231927871704,0.960054337978363,-0.07510210573673248
-0.20472771194281458,-1.387845639120349,-1.6410703824591015,-0.5220462083816528,-0.5030907988548279,4.978873252868652,-0.9627760648727417,0.2033005654811859,-0.17813241481781006,-0.0214310884475708,0.9132307767868042,-0.058836519718170166
-0.2540194174927419,-1.3928640320753904,-1.6366568118930997,-0.4165341556072235,-0.7056702971458435,4.824296951293945,-0.9526286721229553,0.25129640102386475,-0.17131516337394714,-0.22306114435195923,0.8094030618667603,0.005574271082878113
-0.30122501012318637,-1.399906082726219,-1.6325571600434496,-0.4652000963687897,-0.9167265295982361,4.57051944732666,-0.9410632848739624,0.29669028520584106,-0.16240252554416656,-0.34717512130737305,0.7049728631973267,0.10448022186756134
-0.34608097561642176,-1.4092933615403012,-1.63062762524717,-0.6734929084777832,-1.0556164979934692,4.31424617767334,-0.9284675717353821,0.3392137587070465,-0.15126773715019226,-0.41070473194122314,0.6361889839172363,0.19091011583805084
-0.38909107809821203,-1.4205179434101471,-1.632305301269026,-0.9729725122451782,-1.0408748388290405,4.115907669067383,-0.9148262143135071,0.3793475925922394,-0.1385229527950287,-0.41818171739578247,0.602402925491333,0.22572694718837738
-0.4308636380855978,-1.4325014299148255,-1.6379650945188378,-1.2389298677444458,-0.8719478845596313,3.987684965133667,-0.8999303579330444,0.41765567660331726,-0.12525531649589539,-0.410067081451416,0.6081621646881104,0.18922026455402374
-0.4720037603999565,-1.443545220905442,-1.646734962085355,-1.3861048221588135,-0.5503162741661072,3.945207118988037,-0.883457601070404,0.45467185974121094,-0.11303172260522842,-0.40618467330932617,0.6425724029541016,0.07839429378509521
-0.5131849846114344,-1.452038364341353,-1.6571476213531933,-1.4200785160064697,-0.15563233196735382,3.988952159881592,-0.8650491833686829,0.4909544587135315,-0.10321717709302902,-0.3972647786140442,0.6804170608520508,-0.0538720041513443
-0.5550748713891485,-1.4571599834912996,-1.6679456421390169,-1.379889726638794,0.22102537751197815,4.0914483070373535,-0.844379723072052,0.5270069241523743,-0.09636738896369934,-0.3786274790763855,0.6933757066726685,-0.155417799949646
-0.5978560880279602,-1.459049024347842,-1.6783161877457355,-1.2983051538467407,0.5187015533447266,4.179866790771484,-0.8213890194892883,0.5628717541694641,-0.09217198938131332,-0.3785164952278137,0.6859991550445557,-0.2157198190689087
-0.641188546527378,-1.4583383349396184,-1.6878183430450553,-1.1970508098602295,0.7063598036766052,4.223618030548096,-0.796323299407959,0.5981483459472656,-0.08993235975503922,-0.407625675201416,0.6590232849121094,-0.240115225315094
-0.6846445260815476,-1.4557798735830272,-1.6960939640382628,-1.0739269256591797,0.8049513697624207,4.227881908416748,-0.7695257663726807,0.6323977112770081,-0.08890048414468765,-0.45084166526794434,0.6063718199729919,-0.24723529815673828
-0.7277870761892173,-1.4518637232679148,-1.7027780834365307,-0.9346659183502197,0.8326470851898193,4.188251972198486,-0.7413739562034607,0.6652190089225769,-0.08859163522720337,-0.5159350037574768,0.5571320652961731,-0.24803245067596436
-0.7701912462617317,-1.4469280850170678,-1.7076223897603664,-0.7881662249565125,0.799198567867279,4.106011867523193,-0.7122780680656433,0.6962725520133972,-0.08868265897035599,-0.5779746174812317,0.5043957829475403,-0.24096816778182983
-0.8116718744341209,-1.4410753763094157,-1.71024417536393,-0.6206185817718506,0.734551191329956,4.023095607757568,-0.6825035810470581,0.7254388928413391,-0.08903498947620392,-0.6126319169998169,0.4396458864212036,-0.2325439453125
-0.8521543742063387,-1.4339966198559708,-1.7103069157429387,-0.464398592710495,0.68367999792099,3.94702410697937,-0.6522125005722046,0.7527005076408386,-0.08978325128555298,-0.6347596049308777,0.3854679465293884,-0.21021974086761475
-0.8917346353604265,-1.4255523252583073,-1.7080045828473296,-0.36030393838882446,0.6513737440109253,3.9017608165740967,-0.6214501261711121,0.7781623601913452,-0.09090202301740646,-0.6499732136726379,0.3420768976211548,-0.17283082008361816
-0.9307708048426372,-1.4157266538746685,-1.7037634089470841,-0.2958700656890869,0.6403919458389282,3.865344524383545,-0.5900497436523438,0.802080512046814,-0.09223935753107071,-0.6624831557273865,0.28889232873916626,-0.138458251953125
-0.9691876602582707,-1.404457224641587,-1.6977737302759484,-0.24497175216674805,0.6312469244003296,3.7981231212615967,-0.5581576824188232,0.8244262337684631,-0.0937093198299408,-0.6812527179718018,0.22194522619247437,-0.11689245700836182
-1.0066690065208561,-1.3917643011427234,-1.689877570555529,-0.1850876361131668,0.5750986933708191,3.7047955989837646,-0.526132345199585,0.8450555205345154,-0.09521400183439255,-0.7050535678863525,0.1443394422531128,-0.10224996507167816
-1.0429386340001596,-1.3778051639999385,-1.6797296604618301,-0.1223125159740448,0.4751516282558441,3.591578483581543,-0.49433282017707825,0.8638880848884583,-0.09660422056913376,-0.7290557622909546,0.06769144535064697,-0.09104835242033005
-1.0777706672944434,-1.3624874110214336,-1.666971990853031,-0.04206348955631256,0.35886338353157043,3.4570319652557373,-0.4630618691444397,0.8809048533439636,-0.09787978231906891,-0.7540249824523926,0.00025963783264160156,-0.08589696884155273
-1.110842301391076,-1.3451288348003971,-1.6509161065790705,0.05530718341469765,0.25628936290740967,3.2925355434417725,-0.4326518177986145,0.8960729241371155,-0.09932731091976166,-0.78899747133255,-0.0625615119934082,-0.08924080431461334
-1.1417950468008775,-1.325172266620171,-1.6311390287846397,0.14793671667575836,0.16440951824188232,3.0963776111602783,-0.4034776985645294,0.909381628036499,-0.1011461466550827,-0.821314811706543,-0.11355966329574585,-0.08708618581295013
-1.170355990777223,-1.3026509753315938,-1.6079147026369471,0.2060377597808838,0.09206219017505646,2.8812930583953857,-0.37589290738105774,0.9208894371986389,-0.10328125953674316,-0.8585583567619324,-0.16202419996261597,-0.07204221189022064
-1.196362424739527,-1.2777848050367295,-1.5819044902814057,0.235106959939003,0.06868549436330795,2.6377084255218506,-0.3501568138599396,0.9307148456573486,-0.1056407168507576,-0.8983936309814453,-0.2042286992073059,-0.050334565341472626
-1.219617333557473,-1.2512488360055936,-1.5542399054367193,0.22967985272407532,0.0698656290769577,2.368877410888672,-0.32659074664115906,0.938967764377594,-0.10806472599506378,-0.9308555722236633,-0.24890434741973877,-0.028180956840515137
-1.2400681453599098,-1.2240259086928302,-1.52617404638801,0.20331428945064545,0.08301738649606705,2.09492564201355,-0.30540183186531067,0.9458061456680298,-0.11036394536495209,-0.9536923766136169,-0.2861230969429016,-0.006228424608707428
-1.2578875689665214,-1.1973158835693456,-1.498931550444702,0.15390799939632416,0.08870214968919754,1.8338167667388916,-0.2866065204143524,0.9514421820640564,-0.11231324821710587,-0.963546097278595,-0.3099476099014282,0.01307012140750885
-1.2733091658661029,-1.1721760433984716,-1.4734983299273139,0.10092147439718246,0.08201628178358078,1.589363694190979,-0.270137220621109,0.9560760855674744,-0.11377310752868652,-0.9658246636390686,-0.32704776525497437,0.03113151341676712
-1.2865900918180897,-1.1496619925732874,-1.4506986591269009,0.041064485907554626,0.046559374779462814,1.3580158948898315,-0.2558963894844055,0.959884524345398,-0.11462464183568954,-0.9730159640312195,-0.33682239055633545,0.04476994276046753
-1.297970807951297,-1.1310130188405498,-1.4313767915622368,-0.026410428807139397,-0.03752700984477997,1.151634693145752,-0.24381357431411743,0.9630134105682373,-0.11471814662218094,-0.9645909667015076,-0.3457801342010498,0.06062579154968262
-1.3079059474820034,-1.1167516531645967,-1.4156622975294901,-0.07991969585418701,-0.13842754065990448,1.0005077123641968,-0.23354296386241913,0.9656428694725037,-0.11398141831159592,-0.935142993927002,-0.3494471311569214,0.0713178962469101
-1.3169184706829413,-1.106438837253496,-1.4030850559020114,-0.14668966829776764,-0.23392343521118164,0.8980138301849365,-0.22456440329551697,0.9679457545280457,-0.11248153448104858,-0.9014732241630554,-0.3378339409828186,0.07584522664546967
-1.3254350485765347,-1.1009023616128155,-1.3943601816594542,-0.23502443730831146,-0.35016077756881714,0.8124409914016724,-0.216579869389534,0.9700496196746826,-0.10998629778623581,-0.8772464394569397,-0.3363978862762451,0.0853281021118164
-1.333570262490947,-1.1011797597764554,-1.3902906815122982,-0.32366588711738586,-0.4972738027572632,0.7215316295623779,-0.20956625044345856,0.971993625164032,-0.10635144263505936,-0.8628062009811401,-0.35082346200942993,0.08509598672389984
-1.3411845426265239,-1.107735047402261,-1.3909821387903658,-0.38306501507759094,-0.6758665442466736,0.6208088994026184,-0.20363062620162964,0.9737548232078552,-0.10166611522436142,-0.8558176159858704,-0.3662872910499573,0.0586821585893631
-1.3480334874680595,-1.1198203809643301,-1.395383449684917,-0.39015647768974304,-0.8809576630592346,0.5172958374023438,-0.19883744418621063,0.9752907752990723,-0.09628888219594955,-0.850662112236023,-0.37311798334121704,0.014929063618183136
-1.3538316605703524,-1.1358166009439934,-1.4016110366983752,-0.3454136550426483,-1.0991244316101074,0.41105538606643677,-0.19522106647491455,0.976555347442627,-0.090711809694767,-0.8439025282859802,-0.3745197057723999,-0.03836227208375931
-1.3583649300284844,-1.1540256478071835,-1.407773958873036,-0.26311612129211426,-1.3283804655075073,0.309307724237442,-0.1927894800901413,0.9775211811065674,-0.08534882217645645,-0.8385825157165527,-0.37673699855804443,-0.08915065973997116
-1.3615671324521945,-1.1726168276446147,-1.4120383526750397,-0.15317393839359283,-1.542934775352478,0.21154803037643433,-0.19145724177360535,0.9781913161277771,-0.08053629100322723,-0.839457094669342,-0.37707120180130005,-0.13192707300186157
-1.3634447003127574,-1.1899855741837122,-1.4130345060026106,-0.025655394420027733,-1.7203612327575684,0.1227254867553711,-0.19112181663513184,0.978579580783844,-0.07651621103286743,-0.8427832722663879,-0.37762731313705444,-0.1675785779953003
-1.3640722323244843,-1.204531783835297,-1.409559283359961,0.11054383218288422,-1.8477540016174316,0.04981570690870285,-0.19164082407951355,0.9787085652351379,-0.07350804656744003,-0.8442173004150391,-0.3888190984725952,-0.19709128141403198
-1.3636630209290044,-1.2154433462692273,-1.4013449094646209,0.2308092564344406,-1.9233344793319702,-0.0046440716832876205,-0.1928066462278366,0.9786244630813599,-0.0715518370270729,-0.8410220742225647,-0.39944666624069214,-0.21571004390716553
-1.3623268147266594,-1.223363197310096,-1.3894361982000512,0.3160065710544586,-1.985219955444336,-0.07764607667922974,-0.1945963054895401,0.9783487915992737,-0.07046766579151154,-0.8351125717163086,-0.39785879850387573,-0.21574139595031738
-1.359913501872703,-1.2302583590190073,-1.375637111706145,0.383863627910614,-2.087480306625366,-0.18243587017059326,-0.1973026543855667,0.9778465032577515,-0.06991267204284668,-0.8411189913749695,-0.38817065954208374,-0.20732420682907104
-1.3562553489194418,-1.237772042611257,-1.3612735573578711,0.42765137553215027,-2.210592031478882,-0.30318793654441833,-0.20120136439800262,0.9770742058753967,-0.06959705799818039,-0.8493204712867737,-0.3687216639518738,-0.20094120502471924
-1.3513062566140455,-1.2466854796371147,-1.3470089583661768,0.469883531332016,-2.3428359031677246,-0.42843931913375854,-0.20639540255069733,0.9760085940361023,-0.06934017688035965,-0.8552958965301514,-0.34316563606262207,-0.20229673385620117
-1.34512956304143,-1.257209913596885,-1.3330238674844248,0.5010024309158325,-2.4729483127593994,-0.5443843007087708,-0.21284449100494385,0.9746451377868652,-0.06902258843183517,-0.8528445959091187,-0.31892919540405273,-0.20926713943481445
-1.337795497406828,-1.2694391568632206,-1.3194464632383553,0.5289517641067505,-2.6023993492126465,-0.6608152985572815,-0.22049221396446228,0.972977876663208,-0.068534255027771,-0.8467074632644653,-0.29753243923187256,-0.22184044122695923
-1.3292424936270317,-1.2833919305471575,-1.3063240534704257,0.5519658327102661,-2.7213048934936523,-0.7888304591178894,-0.2293996810913086,0.9709674715995789,-0.06780784577131271,-0.8392190337181091,-0.28481030464172363,-0.24290680885314941
-1.3193487827745938,-1.2994266445413625,-1.2942217511067482,0.5561033487319946,-2.8096816539764404,-0.9397523403167725,-0.2397013008594513,0.9685533046722412,-0.06669288128614426,-0.8344411849975586,-0.26790010929107666,-0.26732194423675537
-1.3080439445985568,-1.317626995332232,-1.2836444991295444,0.5430387854576111,-2.852468967437744,-1.0933078527450562,-0.2514597475528717,0.9656787514686584,-0.06505782157182693,-0.8295491933822632,-0.23807865381240845,-0.2948511838912964
-1.2953187541772437,-1.3376379821571147,-1.2747175891591147,0.5245899558067322,-2.8486413955688477,-1.2485677003860474,-0.2646465599536896,0.962295413017273,-0.0628475621342659,-0.8157062530517578,-0.19653308391571045,-0.3308596611022949
-1.2812075243081016,-1.3586323934721254,-1.2669929947170697,0.5190354585647583,-2.8134536743164062,-1.393739104270935,-0.27915507555007935,0.9583613872528076,-0.06013160198926926,-0.7926222681999207,-0.1564815640449524,-0.37883317470550537
-1.2656268943901317,-1.3795906474573592,-1.2595340499747507,0.531911313533783,-2.7888777256011963,-1.5587818622589111,-0.29497891664505005,0.9537960886955261,-0.05709918588399887,-0.7725411653518677,-0.1126401424407959,-0.42777931690216064
-1.2483060168874973,-1.4004773916696407,-1.2519064316695818,0.5521388649940491,-2.827822208404541,-1.751630187034607,-0.31234362721443176,0.9484491348266602,-0.05371847376227379,-0.7590522766113281,-0.057961463928222656,-0.4666061997413635
-1.2290393482440944,-1.4215729242245991,-1.2437978925532585,0.5814541578292847,-2.912294626235962,-1.9487727880477905,-0.3314184546470642,0.9421672821044922,-0.049825772643089294,-0.7391228675842285,0.010988175868988037,-0.494439959526062
-1.2079621910485783,-1.4428821132417187,-1.234671144305679,0.6260448694229126,-3.0490996837615967,-2.115806818008423,-0.35202541947364807,0.9348946809768677,-0.04527626186609268,-0.6968026161193848,0.08544522523880005,-0.524990439414978
-1.1854170587305803,-1.46413534101673,-1.2237144516213545,0.6940683722496033,-3.2298052310943604,-2.2472190856933594,-0.37377411127090454,0.9266559481620789,-0.04001899063587189,-0.6458791494369507,0.16540026664733887,-0.5714921951293945
-1.1616693949205845,-1.4856265359367065,-1.2104429705875954,0.783174455165863,-3.506664752960205,-2.3605453968048096,-0.3963663876056671,0.9174684882164001,-0.03384030610322952,-0.599498450756073,0.24828767776489258,-0.637836217880249
-1.1369151466716714,-1.507585978169666,-1.193907788523544,0.9410418272018433,-3.888766288757324,-2.449885606765747,-0.41955578327178955,0.907340943813324,-0.02655564434826374,-0.543075442314148,0.332511842250824,-0.7339881062507629
-1.1115580224766664,-1.5293214083543982,-1.1722768033792252,1.1962246894836426,-4.336654186248779,-2.492048501968384,-0.4428843557834625,0.8963903784751892,-0.018379131332039833,-0.469331830739975,0.4037041664123535,-0.8613815307617188
-1.0861465406226833,-1.549870031305524,-1.1439369519985796,1.5367498397827148,-4.789454936981201,-2.4845104217529297,-0.465796560049057,0.8848381638526917,-0.009748819284141064,-0.3897789716720581,0.45882028341293335,-0.9849410653114319
-1.0611986288060142,-1.568815858413142,-1.1083348821136039,1.9103038311004639,-5.216528415679932,-2.4456794261932373,-0.48782533407211304,0.8729408383369446,-0.0009661239455454051,-0.31577882170677185,0.51081782579422,-1.0966747999191284
-1.0370698242289615,-1.5860151586497764,-1.0656360945424983,2.3073813915252686,-5.580132007598877,-2.389055013656616,-0.5086861252784729,0.8609172105789185,0.0077422065660357475,-0.2373923659324646,0.5440510511398315,-1.194448709487915
-1.0140358988898945,-1.6011018220259234,-1.0160355536504884,2.714402437210083,-5.876931667327881,-2.312974214553833,-0.5281962156295776,0.8489714860916138,0.016012148931622505,-0.15121668577194214,0.5541505813598633,-1.2735956907272339
-0.9923977410840885,-1.6145545020772172,-0.9605041591494262,3.068227529525757,-6.132328987121582,-2.21146821975708,-0.5461603999137878,0.8373391628265381,0.023914247751235962,-0.05669903755187988,0.5701772570610046,-1.302249789237976
-0.9723852673535299,-1.6273716042529762,-0.9006905851888508,3.3300700187683105,-6.3389177322387695,-2.100562572479248,-0.562428891658783,0.8262317776679993,0.0318535640835762,0.035695552825927734,0.5767375230789185,-1.297188639640808
-0.9540233537362768,-1.641080701277991,-0.8388068152124144,3.4489762783050537,-6.521018981933594,-2.0044076442718506,-0.5769774913787842,0.8157492280006409,0.04061941057443619,0.09438788890838623,0.5858162045478821,-1.2733311653137207
-0.9369720412435336,-1.6572973430519298,-0.7772489731924828,3.433724880218506,-6.652433395385742,-1.9486031532287598,-0.5900160074234009,0.8057685494422913,0.051164660602808,0.11060023307800293,0.6030753254890442,-1.2515430450439453
-0.9209994304652871,-1.676481983750272,-0.7175903172320988,3.348341703414917,-6.681570529937744,-1.9009791612625122,-0.6016489267349243,0.7962067127227783,0.06382346153259277,0.12479656934738159,0.585736095905304,-1.2532308101654053
-0.9061516866535554,-1.6976126791371706,-0.660003467314362,3.2813100814819336,-6.606675148010254,-1.8468683958053589,-0.6118263602256775,0.7871360182762146,0.07800822705030441,0.15076690912246704,0.5403786301612854,-1.2902426719665527
-0.8925806956399742,-1.7192023947815211,-0.603894094430992,3.243479013442993,-6.442631721496582,-1.7862931489944458,-0.6205081343650818,0.7786934971809387,0.09276923537254333,0.18850135803222656,0.47687602043151855,-1.3413654565811157
-0.8802534608667727,-1.7400238802463694,-0.5489197260294901,3.206841230392456,-6.184698104858398,-1.7349051237106323,-0.6278572082519531,0.7709003686904907,0.10727676749229431,0.23768997192382812,0.3942914605140686,-1.3734357357025146
-0.8689696493517798,-1.7591037099348656,-0.49523718606241224,3.1442818641662598,-5.82025146484375,-1.6991963386535645,-0.6342010498046875,0.7636641263961792,0.1208566352725029,0.2990264892578125,0.2931444048881531,-1.378592848777771
-0.8585855451458342,-1.7756480942524713,-0.4431877567751211,3.0612308979034424,-5.355566501617432,-1.6464825868606567,-0.6398448944091797,0.7569189667701721,0.13293813169002533,0.3704661726951599,0.2013789415359497,-1.3623844385147095
-0.8491965546282433,-1.7889852212587956,-0.39312938809581444,2.956368923187256,-4.820030689239502,-1.5538551807403564,-0.6449249386787415,0.7507498860359192,0.1429918110370636,0.43624573945999146,0.12910252809524536,-1.3327653408050537
-0.8410353761750445,-1.7988614815993942,-0.3454637316709607,2.8309364318847656,-4.258476257324219,-1.4264657497406006,-0.6494278311729431,0.7453337907791138,0.15073439478874207,0.48429733514785767,0.06751710176467896,-1.2925801277160645
-0.8341046093504723,-1.805361586503894,-0.3004711770289366,2.6952176094055176,-3.705796003341675,-1.292782187461853,-0.6534432172775269,0.7406952381134033,0.1561494618654251,0.5032967925071716,0.019085705280303955,-1.2430634498596191
-0.8282998307835759,-1.8086212677963331,-0.25816781955940904,2.5628254413604736,-3.1831576824188232,-1.1650069952011108,-0.657098114490509,0.7367829084396362,0.15928886830806732,0.5038541555404663,-0.02329719066619873,-1.190828800201416
-0.8235000549337936,-1.8089168738650974,-0.21827854908436511,2.4561164379119873,-2.7296860218048096,-1.0362529754638672,-0.6604801416397095,0.7335291504859924,0.16031543910503387,0.4926944971084595,-0.062386512756347656,-1.1493443250656128
-0.8196974901000397,-1.806669647087864,-0.18026133480353274,2.3891890048980713,-2.386500358581543,-0.9144536256790161,-0.6635459661483765,0.7309393882751465,0.1594814658164978,0.48134082555770874,-0.09718084335327148,-1.1121792793273926
-0.8167882316607505,-1.8024652764655529,-0.14341058504960744,2.3653981685638428,-2.150627374649048,-0.8122058510780334,-0.6662775874137878,0.7289509177207947,0.1571778804063797,0.46487683057785034,-0.1209186315536499,-1.0781679153442383
-0.8146949613497462,-1.796717565191477,-0.10708678206044132,2.3742189407348633,-1.9833581447601318,-0.7195850014686584,-0.6686553955078125,0.7275163531303406,0.15368713438510895,0.44757091999053955,-0.13155388832092285,-1.0465856790542603
-0.8134115183531299,-1.7897999529927795,-0.07101103426388977,2.382990837097168,-1.8753584623336792,-0.6166053414344788,-0.6706136465072632,0.726635217666626,0.14926078915596008,0.44482940435409546,-0.1393548846244812,-1.0038750171661377
-0.8129558033405945,-1.7824416522809825,-0.03536361475663265,2.3619585037231445,-1.8246839046478271,-0.5109148621559143,-0.6720173954963684,0.7263220548629761,0.1443917602300644,0.4523061513900757,-0.1414831280708313,-0.9556710720062256
-0.8133819991375052,-1.7752999146587796,-0.0006482970236380114,2.306006908416748,-1.7777246236801147,-0.3860134184360504,-0.6727281212806702,0.7266148924827576,0.13952583074569702,0.4656206965446472,-0.13945674896240234,-0.9121851921081543
-0.8148501556105745,-1.7685035866568986,0.0327141486834828,2.224153757095337,-1.7011656761169434,-0.23586027324199677,-0.6726141571998596,0.7276228070259094,0.1347408890724182,0.48183363676071167,-0.14240247011184692,-0.8874416351318359
-0.8175631227529017,-1.761810390027438,0.06461902125822869,2.157829999923706,-1.5962474346160889,-0.0704372227191925,-0.6715605854988098,0.7294811606407166,0.1298607438802719,0.49387192726135254,-0.15285146236419678,-0.8870171308517456
-0.8216927847411194,-1.7546792304708068,0.09547890874317963,2.1253905296325684,-1.4793657064437866,0.10298889130353928,-0.6695021390914917,0.7322996258735657,0.12451659142971039,0.4840315580368042,-0.15742462873458862,-0.9085437059402466
-0.8273613525824169,-1.7466559407905888,0.12584670678501644,2.1251213550567627,-1.3729043006896973,0.28239408135414124,-0.6663813591003418,0.7361480593681335,0.1184127926826477,0.4633480906486511,-0.14941716194152832,-0.92998206615448
-0.8346017264197955,-1.73763918296718,0.1561417520120651,2.1288371086120605,-1.300350308418274,0.4561622440814972,-0.6621488928794861,0.7410291433334351,0.11151143163442612,0.4396299719810486,-0.1415722370147705,-0.9369814395904541
-0.8432589940317261,-1.727864450748118,0.18635160693700922,2.108543634414673,-1.2454172372817993,0.623736560344696,-0.6568459868431091,0.7468144297599792,0.1040264368057251,0.4075174927711487,-0.13866013288497925,-0.9326397180557251
-0.853165391547012,-1.7176725147494414,0.21623353832232303,2.0613927841186523,-1.219833493232727,0.7772651314735413,-0.6505216360092163,0.7533657550811768,0.09623917937278748,0.3604367971420288,-0.12905222177505493,-0.9266377687454224
-0.8643867333039766,-1.7079766775082716,0.2453034921515258,1.9943711757659912,-1.2480881214141846,0.912598729133606,-0.6430088877677917,0.7606973052024841,0.0887656956911087,0.30104416608810425,-0.11561661958694458,-0.9237112998962402
-0.8766285147134786,-1.6991238447475554,0.2737195855912271,1.9442006349563599,-1.33015775680542,1.030076503753662,-0.6344854831695557,0.7685863375663757,0.0818718671798706,0.22916638851165771,-0.10011410713195801,-0.9301995038986206
-0.8897580799071296,-1.691378097947309,0.30194551498281,1.926198959350586,-1.4864258766174316,1.1261929273605347,-0.6250283122062683,0.7769194841384888,0.07573443651199341,0.14295750856399536,-0.079531729221344,-0.9479267597198486
-0.9036307006760905,-1.6847454637481378,0.330723856893398,1.9596561193466187,-1.676992416381836,1.206102728843689,-0.6147490739822388,0.7855786085128784,0.0703548938035965,0.046755969524383545,-0.05138671398162842,-0.9814877510070801
-0.9182685313656371,-1.678364157932427,0.361117138297448,2.0635170936584473,-1.8343729972839355,1.2902172803878784,-0.6036871671676636,0.7945514917373657,0.0651889443397522,-0.053340911865234375,-0.010814368724822998,-1.042941689491272
-0.9338403404773105,-1.6704615646391887,0.394490620187791,2.240640640258789,-1.8987064361572266,1.3868117332458496,-0.5917996764183044,0.8039098978042603,0.05917792394757271,-0.15032672882080078,0.039885878562927246,-1.1210217475891113
-0.9503572083943537,-1.6588140144136303,0.43232683294305563,2.4845352172851562,-1.8768354654312134,1.4773293733596802,-0.5791416764259338,0.8136232495307922,0.051106758415699005,-0.2527063488960266,0.08315098285675049,-1.1906331777572632
-0.9674186337836809,-1.6418080906233676,0.4757332606726864,2.7315292358398438,-1.8199270963668823,1.5158379077911377,-0.5659970641136169,0.8234237432479858,0.04026014730334282,-0.36320215463638306,0.10229653120040894,-1.2208479642868042
-0.9841727842806646,-1.6188976449180756,0.525047981414917,2.9575934410095215,-1.7617677450180054,1.4837180376052856,-0.5529119372367859,0.8328144550323486,0.026616323739290237,-0.47539305686950684,0.09960436820983887,-1.2066395282745361
-0.9993954896433782,-1.590217024580536,0.5801067460811515,3.129087448120117,-1.715844988822937,1.3455226421356201,-0.5407087802886963,0.8411442041397095,0.01050226204097271,-0.5876022577285767,0.07304030656814575,-1.1577801704406738
