attitudeX,attitudeY,attitudeZ,gyroX,gyroY,gyroZ,gravityX,gravityY,gravityZ,accX,accY,accZ
0.48650851035183007,-0.06331231454584295,1.7755332090994016,-0.23108145594596863,0.5954496264457703,0.27168363332748413,-0.05592884495854378,-0.4675423800945282,-0.8821995854377747,-0.27288272976875305,-0.1019308865070343,-0.015352904796600342
0.48369520528882315,-0.05850465984876617,1.778108913575378,-0.3182874917984009,0.59874427318573,0.22228679060935974,-0.051763612776994705,-0.46505364775657654,-0.8837679028511047,-0.19674095511436462,-0.10652533173561096,0.07372450828552246
0.4794743434363496,-0.05376368945277891,1.7803847072811556,-0.5116012692451477,0.5497269034385681,0.23278844356536865,-0.04767818748950958,-0.461312860250473,-0.8859555721282959,-0.14107297360897064,-0.09967651963233948,0.1728665828704834
0.4730089646492333,-0.049930779008407054,1.782905616533824,-0.7551900148391724,0.43712446093559265,0.2827754616737366,-0.04442998766899109,-0.455566942691803,-0.8890920877456665,-0.09485217928886414,-0.08605903387069702,0.250191330909729
0.4641178401198082,-0.047683881375728286,1.7859501234162116,-0.9845107793807983,0.2788567841053009,0.34337088465690613,-0.042623572051525116,-0.44763413071632385,-0.8932003378868103,-0.05755031853914261,-0.08907848596572876,0.2854886054992676
0.45330036795287815,-0.047403529450165655,1.7894835246119878,-1.1305742263793945,0.08627776801586151,0.38499584794044495,-0.042600128799676895,-0.4379349648952484,-0.8979967832565308,-0.03715750202536583,-0.10794821381568909,0.26848018169403076
0.44153498093747434,-0.04906731053395996,1.793104493325433,-1.1634331941604614,-0.10368817299604416,0.37180760502815247,-0.044343799352645874,-0.4273277521133423,-0.9030086398124695,-0.04578981176018715,-0.13285291194915771,0.20285910367965698
0.43012991634599834,-0.0523107949724252,1.7963722097955306,-1.063425898551941,-0.26517534255981445,0.3303993046283722,-0.04752420634031296,-0.41698887944221497,-0.9076682925224304,-0.06899183988571167,-0.15289637446403503,0.11032027006149292
0.42028273577970154,-0.056753554186784114,1.7990051817980295,-0.8625183701515198,-0.39898109436035156,0.25437432527542114,-0.05178668722510338,-0.4080185890197754,-0.9115036725997925,-0.08346715569496155,-0.16272112727165222,0.018223702907562256
0.4127446493202445,-0.06211153125024585,1.8009406663518133,-0.6148459911346436,-0.5022923350334167,0.18837541341781616,-0.056859035044908524,-0.4011249840259552,-0.9142569303512573,-0.0844983160495758,-0.1644420027732849,-0.0431862473487854
0.40774008538922385,-0.06793763869757355,1.8023083571638143,-0.3674761652946472,-0.540544331073761,0.12847132980823517,-0.06232009828090668,-0.3965356945991516,-0.9159015417098999,-0.07680948078632355,-0.1581212878227234,-0.0738750696182251
0.40509127992050714,-0.07365207702652851,1.8032560198549994,-0.15480005741119385,-0.5136602520942688,0.0824306309223175,-0.06762997061014175,-0.39410266280174255,-0.9165747761726379,-0.06809690594673157,-0.14474624395370483,-0.07542961835861206
0.40433632216993687,-0.07864318826710683,1.8039536195677774,0.004826087038964033,-0.42002567648887634,0.058402787894010544,-0.07222718745470047,-0.3934086859226227,-0.9165221452713013,-0.058342210948467255,-0.12398633360862732,-0.05712592601776123
0.40482659162744544,-0.08239604483422829,1.8045267674801961,0.09077441692352295,-0.27941155433654785,0.041790399700403214,-0.07565036416053772,-0.3938593864440918,-0.9160522818565369,-0.045214444398880005,-0.10681203007698059,-0.025094568729400635
0.40576428081513766,-0.08467493788809008,1.805073367978818,0.09307592362165451,-0.12953975796699524,0.044688452035188675,-0.077706478536129,-0.3947210907936096,-0.9155091047286987,-0.02298620343208313,-0.10015195608139038,0.02601325511932373
0.40639487397115104,-0.08552393339724525,1.805671342544502,0.03493281453847885,0.006899834610521793,0.0587039478123188,-0.07846243679523468,-0.39530041813850403,-0.9151946306228638,0.0046099647879600525,-0.10125109553337097,0.07617485523223877
0.40626363151580736,-0.08520109723995418,1.8063948156864966,-0.054643940180540085,0.1064796894788742,0.07426159828901291,-0.07817139476537704,-0.3951798379421234,-0.9152716398239136,0.02473517507314682,-0.1058882474899292,0.11554324626922607
0.4052260618257789,-0.08409746369478972,1.8071738989512924,-0.13927163183689117,0.17075534164905548,0.08349299430847168,-0.07719562202692032,-0.3942265212535858,-0.9157654047012329,0.034486323595047,-0.11225846409797668,0.1347900629043579
0.4034562823887499,-0.08253460544142228,1.8079226141359919,-0.1941218227148056,0.19540688395500183,0.0800258219242096,-0.07582171261310577,-0.3925994634628296,-0.9165788292884827,0.038407228887081146,-0.11785280704498291,0.13235336542129517
0.4013911567689343,-0.08082529020833228,1.8085548128079765,-0.20176789164543152,0.19287420809268951,0.06870432198047638,-0.07432018220424652,-0.3906992971897125,-0.9175132513046265,0.034174367785453796,-0.11779984831809998,0.11255109310150146
0.39943142152687516,-0.0791157164255968,1.8089988428722845,-0.1807505041360855,0.18066787719726562,0.04577849805355072,-0.07281189411878586,-0.38889458775520325,-0.9184004664421082,0.030423037707805634,-0.11466071009635925,0.08899372816085815
0.3978098498287052,-0.0774049143842903,1.8092000252397957,-0.14186355471611023,0.17378388345241547,0.01581374928355217,-0.07128925621509552,-0.38740015029907227,-0.919151246547699,0.022735856473445892,-0.10942599177360535,0.06963342428207397
0.3965359620273241,-0.07562342068724659,1.8090403070269307,-0.1157267689704895,0.17412982881069183,-0.026102542877197266,-0.06968890875577927,-0.3862254321575165,-0.9197681546211243,0.010790042579174042,-0.10368853807449341,0.05825686454772949
0.3954836965161029,-0.07355253922694817,1.8084185064499971,-0.10476791113615036,0.19437330961227417,-0.07418423891067505,-0.06781385838985443,-0.3852545917034149,-0.9203152656555176,-0.0035972148180007935,-0.10327079892158508,0.04755830764770508
0.3944978683503292,-0.07091429798027195,1.8071877105702934,-0.11199386417865753,0.23788908123970032,-0.13778769969940186,-0.0654124915599823,-0.3843446671962738,-0.9208693504333496,-0.015626877546310425,-0.1100706160068512,0.03157186508178711
0.3934154985249326,-0.06757042613714505,1.8052394123419762,-0.1322399079799652,0.2767137289047241,-0.203897625207901,-0.062360912561416626,-0.38334521651268005,-0.9214974641799927,-0.0163591206073761,-0.11589184403419495,0.010593533515930176
0.39201917226125693,-0.06372981886233091,1.8026296033173432,-0.17761191725730896,0.2834262251853943,-0.25626951456069946,-0.05885538458824158,-0.3820551931858063,-0.9222634434700012,-0.0021186769008636475,-0.11948594450950623,-0.006218612194061279
0.3901479996056199,-0.059906117533793976,1.7995459090682535,-0.23150594532489777,0.2401256263256073,-0.2837238907814026,-0.055371206253767014,-0.3803252875804901,-0.9231937527656555,0.02801225706934929,-0.12178042531013489,-0.029214084148406982
0.3878536967787798,-0.05666595065086899,1.7964098670578874,-0.25708720088005066,0.16551077365875244,-0.2631690800189972,-0.05242890119552612,-0.3782024085521698,-0.924237072467804,0.0713651180267334,-0.12137037515640259,-0.06528013944625854
0.38544367340497127,-0.05445273832041689,1.7937185820308748,-0.2454032003879547,0.07605412602424622,-0.20152288675308228,-0.050432704389095306,-0.3759703040122986,-0.9252582788467407,0.10707338899374008,-0.1194215714931488,-0.11633718013763428
0.3833664216019231,-0.05340941252337491,1.791855490166474,-0.18125006556510925,-0.002612719312310219,-0.12023575603961945,-0.04950891435146332,-0.37404462695121765,-0.926088273525238,0.1241854876279831,-0.11084914207458496,-0.17535215616226196
0.38220019009150297,-0.05337724376246315,1.7909623346524695,-0.054822031408548355,-0.053379762917757034,-0.0354536734521389,-0.04950236529111862,-0.3729628026485443,-0.926524817943573,0.1198454350233078,-0.10068526864051819,-0.2411845326423645
0.3824364773097873,-0.05401151897708,1.7909030882832209,0.09730678796768188,-0.07689175009727478,0.0180502999573946,-0.050085265189409256,-0.3731820285320282,-0.9264051914215088,0.09577015042304993,-0.09549164772033691,-0.29951637983322144
0.38404202152470257,-0.055022417142826664,1.791262564342235,0.212923064827919,-0.0965496078133583,0.024604327976703644,-0.05098872631788254,-0.3746711015701294,-0.9257546663284302,0.048410046845674515,-0.09145435690879822,-0.3283957242965698
0.38632025889138644,-0.056075945925758236,1.7914758123998173,0.23105545341968536,-0.09339828789234161,-0.01783554069697857,-0.051916033029556274,-0.3767824172973633,-0.924845814704895,-0.00525858998298645,-0.08909893035888672,-0.323017954826355
0.3883252295442227,-0.05672742129486272,1.7909892060381356,0.15115027129650116,-0.0663328468799591,-0.09643685817718506,-0.05247559770941734,-0.3786388635635376,-0.9240556955337524,-0.04501274973154068,-0.09162172675132751,-0.30262887477874756
0.38922275688056723,-0.05650570543781476,1.789569338526102,0.007304424419999123,0.008577613160014153,-0.17212896049022675,-0.05225150287151337,-0.3794694244861603,-0.9237276315689087,-0.06482912600040436,-0.09297320246696472,-0.2831357717514038
0.38857123233661145,-0.055004850017929645,1.7873832534408685,-0.15946587920188904,0.13194376230239868,-0.21904930472373962,-0.05087864771485329,-0.3788665533065796,-0.9240517020225525,-0.07167989015579224,-0.08312380313873291,-0.27078777551651
0.386352012750059,-0.05183246743906627,1.7847942539558714,-0.30102860927581787,0.31318387389183044,-0.22888383269309998,-0.04799039289355278,-0.37681183218955994,-0.9250457882881165,-0.06701504439115524,-0.060535579919815063,-0.26471251249313354
0.3830588331624438,-0.04658569764060928,1.782305374785742,-0.36667418479919434,0.5510360598564148,-0.19188107550144196,-0.04319380596280098,-0.37375935912132263,-0.9265193939208984,-0.05258555710315704,-0.028050333261489868,-0.26458168029785156
0.37946998335463134,-0.03909322593947674,1.7804989432508687,-0.3527359962463379,0.8076116442680359,-0.10717363655567169,-0.03630292788147926,-0.370428204536438,-0.9281514286994934,-0.034253645688295364,0.005788952112197876,-0.2624308466911316
0.37631994992214984,-0.029605197398841602,1.7798632746009546,-0.2720526158809662,1.0277024507522583,0.016695283353328705,-0.027529502287507057,-0.3675004243850708,-0.9296157956123352,-0.007474096491932869,0.04050460457801819,-0.24216759204864502
0.37410294523333293,-0.018988442316579725,1.7807693136263665,-0.16788627207279205,1.1398636102676392,0.16477929055690765,-0.01767406053841114,-0.36543765664100647,-0.9306679964065552,0.021748214960098267,0.06641116738319397,-0.19799411296844482
0.3729002454951653,-0.008584345208647677,1.7833639044812948,-0.06592607498168945,1.1029101610183716,0.31735101342201233,-0.007994284853339195,-0.3643178939819336,-0.9312403202056885,0.05189387872815132,0.0742940902709961,-0.14143729209899902
0.3726416802880267,0.00010954442210185956,1.7874571041178993,0.014552520588040352,0.9094727635383606,0.43575674295425415,0.00010202625708188862,-0.364077091217041,-0.9313688278198242,0.0712481290102005,0.058855533599853516,-0.08996295928955078
0.37311132462461827,0.005964767448286591,1.7925426266701934,0.07158798724412918,0.6242470145225525,0.4997573792934418,0.005554344970732927,-0.36451444029808044,-0.9311811923980713,0.06498709321022034,0.028897374868392944,-0.06045699119567871
0.3740746666652656,0.008750608877390594,1.797993353287134,0.10538936406373978,0.33221137523651123,0.5066189765930176,0.008145366795361042,-0.36541134119033813,-0.9308105111122131,0.03045942634344101,0.004510462284088135,-0.057730138301849365
0.3752585786366988,0.008901726663566407,1.8032330777034031,0.11782409995794296,0.08969883620738983,0.4587428569793701,0.008282171562314034,-0.36651313304901123,-0.9303759932518005,-0.02390711009502411,-0.0040007829666137695,-0.07459831237792969
0.37639886502414555,0.007193758264264662,1.807755139828105,0.09694651514291763,-0.09209360182285309,0.38048532605171204,0.006690096575766802,-0.3675738275051117,-0.9299702644348145,-0.07070066034793854,0.004414677619934082,-0.09072059392929077
0.37713417464814464,0.004356365128656627,1.811361197159821,0.040362775325775146,-0.20233435928821564,0.28789350390434265,0.00405020359903574,-0.3682575523853302,-0.9297149777412415,-0.09781540930271149,0.019105970859527588,-0.09872734546661377
0.3771913340892099,0.0011603027046474573,1.8140230251931921,-0.030772652477025986,-0.2335929423570633,0.20671795308589935,0.0010787363862618804,-0.36831068992614746,-0.9297021627426147,-0.10413653403520584,0.03508925437927246,-0.10014402866363525
0.37652536143677295,-0.001733653425047006,1.8159643120507272,-0.10149633139371872,-0.19231922924518585,0.1571010947227478,-0.0016122064553201199,-0.3676914572715759,-0.9299464225769043,-0.09726468473672867,0.050644367933273315,-0.10029643774032593
0.3751869031117372,-0.003826641025770643,1.8175761453529924,-0.16213944554328918,-0.10361706465482712,0.1450638771057129,-0.00356044783256948,-0.36644643545150757,-0.9304323196411133,-0.08678678423166275,0.07202810049057007,-0.09546184539794922
0.3733364266028375,-0.004928167996855765,1.8192204212729324,-0.20345568656921387,0.007868412882089615,0.1639007329940796,-0.004588675685226917,-0.3647240698337555,-0.9311043620109558,-0.07501636445522308,0.0958794355392456,-0.08352881669998169
0.3711594789856003,-0.005045285237010859,1.8212035250173797,-0.22533515095710754,0.11313597857952118,0.20852120220661163,-0.004701718688011169,-0.36269620060920715,-0.9318955540657043,-0.06330664455890656,0.11698395013809204,-0.06882154941558838
0.36869150606534246,-0.004495440663392283,1.823743030299113,-0.27049651741981506,0.168553426861763,0.2674366235733032,-0.004193331580609083,-0.3603951632976532,-0.9327902793884277,-0.05082980543375015,0.12922453880310059,-0.04723590612411499
0.36590628985635704,-0.003409465383369101,1.827091917803037,-0.2740350663661957,0.292407751083374,0.3567214906215668,-0.0031837522983551025,-0.35779574513435364,-0.9337944388389587,-0.03386452794075012,0.13491064310073853,-0.010007381439208984
0.3633743036229221,-0.001569715789969965,1.831329898958554,-0.22738564014434814,0.3621082305908203,0.430525541305542,-0.0014672172255814075,-0.3554302155971527,-0.934701681137085,-0.00011964142322540283,0.12226065993309021,0.002221822738647461
0.36149012941386155,0.0003984509695965528,1.8362561703227427,-0.14673154056072235,0.37581366300582886,0.48265427350997925,0.0003726994036696851,-0.3536684513092041,-0.9353708028793335,0.009179361164569855,0.1166079044342041,0.010886549949645996
0.3606353431371965,0.0024733299591294233,1.8415676411219382,-0.022830771282315254,0.41102278232574463,0.5056204795837402,0.0023142253048717976,-0.3528687655925751,-0.9356699585914612,0.005696691572666168,0.11562511324882507,0.02761942148208618
0.36112128061247917,0.004833465030923254,1.846964230519865,0.11815804243087769,0.4379747807979584,0.5012582540512085,0.004521694965660572,-0.35332340002059937,-0.9354903101921082,-0.00905349850654602,0.11386722326278687,0.046772658824920654
0.36303751870885037,0.00741984087450469,1.8522118350351733,0.2552645206451416,0.4496577978134155,0.478445827960968,0.006936170160770416,-0.3551154136657715,-0.9347967505455017,-0.02593330293893814,0.1174750030040741,0.07330077886581421
0.3662188695328214,0.010168661247547704,1.8571763021063468,0.3633965849876404,0.4464995563030243,0.4518299102783203,0.009494193829596043,-0.35808759927749634,-0.9336397051811218,-0.03357250243425369,0.11986738443374634,0.11032122373580933
0.3703026688245099,0.012838819014199001,1.8618415809449886,0.4343565106391907,0.41548171639442444,0.42794978618621826,0.011968247592449188,-0.3618975877761841,-0.9321410059928894,-0.03125529736280441,0.11794009804725647,0.15247797966003418
0.37487416228784415,0.015106685617935335,1.8663092433863429,0.4613412618637085,0.360965758562088,0.41841113567352295,0.014057047665119171,-0.3661554455757141,-0.930447518825531,-0.016162708401679993,0.11081486940383911,0.195858895778656
0.3795367082790238,0.01675085032093514,1.8707987621996915,0.45113056898117065,0.29631248116493225,0.4282083213329315,0.015558071434497833,-0.3704901933670044,-0.9287060499191284,0.003042452037334442,0.0995398759841919,0.23127257823944092
0.38402187208868593,0.017715540599552434,1.8754006136536605,0.4239705801010132,0.23680999875068665,0.43721991777420044,0.016424376517534256,-0.3746524155139923,-0.9270198345184326,0.02028833143413067,0.0871158242225647,0.2579219937324524
0.3881468335014159,0.018026262913006737,1.8800899657588834,0.3823275566101074,0.176324263215065,0.44127193093299866,0.01668442226946354,-0.37847375869750977,-0.9254616498947144,0.026925258338451385,0.07882165908813477,0.27465903759002686
0.3918472363907854,0.017732474279240604,1.8847751412819236,0.3412914276123047,0.12092998623847961,0.43465930223464966,0.016387585550546646,-0.3818962872028351,-0.9240598678588867,0.02491801232099533,0.07142570614814758,0.2806730270385742
0.3951460863709735,0.01691504362905655,1.8893619276471303,0.3003256916999817,0.06692667305469513,0.4192676842212677,0.015610831789672375,-0.38494300842285156,-0.9228082895278931,0.019194521009922028,0.06556132435798645,0.27987927198410034
0.39801247120361455,0.01561352454357534,1.8936927993225334,0.25982940196990967,0.0056497324258089066,0.38495683670043945,0.014392480254173279,-0.38758695125579834,-0.9217208027839661,0.0136990025639534,0.05644068121910095,0.27163535356521606
0.4004241364286836,0.01384640495728845,1.897618903945656,0.2093416452407837,-0.051049500703811646,0.33978864550590515,0.012750688008964062,-0.3898089528083801,-0.9208074808120728,0.005987159907817841,0.04657775163650513,0.25737059116363525
0.40230768344969015,0.011904513433773698,1.9009474759985951,0.15650558471679688,-0.07410821318626404,0.27198854088783264,0.010953797027468681,-0.39154282212257385,-0.9200946688652039,-0.012143924832344055,0.03604355454444885,0.23410534858703613
0.4036226965366703,0.010105350314775033,1.903497913112096,0.09720121324062347,-0.08179622888565063,0.19819819927215576,0.009293168783187866,-0.3927524983882904,-0.9195972681045532,-0.03216603398323059,0.027304500341415405,0.20708811283111572
0.4041741044989171,0.0086460904019886,1.9052848382213128,0.004436657764017582,-0.06644763052463531,0.13345381617546082,0.007949354127049446,-0.39325955510139465,-0.9193931221961975,-0.04244941473007202,0.025492191314697266,0.18817675113677979
0.4036505876686152,0.007611675402097372,1.9065020046012666,-0.1138499528169632,-0.042328447103500366,0.08984477072954178,0.0069998824037611485,-0.3927781581878662,-0.919606626033783,-0.037303775548934937,0.02617049217224121,0.17313140630722046
0.4018796018771448,0.006995826710246829,1.9074067617368053,-0.2373971939086914,-0.009338537231087685,0.07771007716655731,0.0064383987337350845,-0.3911488950252533,-0.9203048944473267,-0.020247548818588257,0.029103577136993408,0.15220797061920166
0.39897065476803617,0.00660627051973422,1.9083235608146218,-0.3383083939552307,-0.0045091621577739716,0.0894358828663826,0.006087378598749638,-0.3884700536727905,-0.9214412569999695,-0.0007620006799697876,0.03298604488372803,0.12033957242965698
0.3952754102858327,0.006017229234688777,1.909436148846778,-0.39453303813934326,-0.030711203813552856,0.11023863404989243,0.005553210619837046,-0.3850623667240143,-0.922873854637146,0.017258740961551666,0.029929310083389282,0.079673171043396
0.39131004249848145,0.004964676722344345,1.9107068534142073,-0.39003390073776245,-0.08405272662639618,0.11803929507732391,0.004589378833770752,-0.3813997507095337,-0.9243988394737244,0.022739164531230927,0.01985800266265869,0.028356969356536865
0.38759843433483193,0.0032412101519253733,1.9120219402177305,-0.34431836009025574,-0.1630932092666626,0.11861240863800049,0.0030007699970155954,-0.37796610593795776,-0.9258145689964294,0.025533221662044525,0.014867931604385376,-0.018857061862945557
0.38455691721615526,0.0008097860054251064,1.913202738182056,-0.26057279109954834,-0.23727689683437347,0.09606093913316727,0.0007506429683417082,-0.3751484453678131,-0.9269644618034363,0.0224275141954422,0.01493421196937561,-0.05695277452468872
0.38246945488901196,-0.0022574456785820324,1.9140712143035286,-0.15190277993679047,-0.3066815435886383,0.06263427436351776,-0.002094333991408348,-0.37321263551712036,-0.9277434945106506,0.014362461864948273,0.015317738056182861,-0.08788150548934937
0.3816179113197562,-0.005682454236315118,1.914531934797899,-0.017068497836589813,-0.3388618528842926,0.022147690877318382,-0.005273649003356695,-0.3724224865436554,-0.928048312664032,-0.001913181971758604,0.015794098377227783,-0.12639498710632324
0.38209107058402997,-0.009189662413385827,1.9145292447548616,0.10590163618326187,-0.361624151468277,-0.02275799959897995,-0.008526848629117012,-0.3728615641593933,-0.9278478026390076,-0.020220644772052765,0.02418297529220581,-0.15100961923599243
0.38358832034418167,-0.012775014243250471,1.9140824953235567,0.18883229792118073,-0.3832647204399109,-0.06478284299373627,-0.011846302077174187,-0.3742504119873047,-0.9272519946098328,-0.03353327512741089,0.03574943542480469,-0.15447407960891724
0.38566006147547793,-0.016258344676189897,1.9132338107037459,0.21116210520267487,-0.36803489923477173,-0.09545820206403732,-0.015063511207699776,-0.3761707842350006,-0.9264279007911682,-0.0363890677690506,0.03527417778968811,-0.1460666060447693
0.3876069546785222,-0.01942944107545944,1.9121520484845733,0.1617172211408615,-0.3451423645019531,-0.1091945469379425,-0.017986960709095,-0.3779739737510681,-0.9256414771080017,-0.022876016795635223,0.026045262813568115,-0.11895996332168579
0.38862178021539734,-0.022316717403009872,1.9110059032791582,0.020507624372839928,-0.31811875104904175,-0.10495878756046295,-0.020650893449783325,-0.3789133131504059,-0.9252017140388489,-0.0015353262424468994,0.011069715023040771,-0.08508270978927612
0.3878262281508746,-0.02501271875190052,1.9099626784721864,-0.194067120552063,-0.3073902130126953,-0.08099641650915146,-0.02315269224345684,-0.3781769871711731,-0.9254437685012817,0.016301557421684265,-0.011135756969451904,-0.05218684673309326
0.3845204197934152,-0.028101541917449912,1.9091769997337753,-0.47449371218681335,-0.3807549774646759,-0.04567278176546097,-0.02604609541594982,-0.3751146197319031,-0.9266124367713928,0.023162242025136948,-0.032172977924346924,-0.028175771236419678
0.3782691959316563,-0.03256078427538128,1.908693421199339,-0.7788332104682922,-0.5557667016983032,-0.011030411347746849,-0.030253561213612556,-0.369312584400177,-0.9288126230239868,0.00977632962167263,-0.049602210521698,-0.028584778308868408
0.3690021016195629,-0.03924890723570475,1.908227775729896,-1.060083031654358,-0.8156795501708984,-0.017010007053613663,-0.03659757599234581,-0.360684871673584,-0.931969404220581,-0.038277238607406616,-0.07283255457878113,-0.07466810941696167
0.3574832522870517,-0.04828134942879709,1.9072023690788718,-1.2244535684585571,-1.0473178625106812,-0.07733593881130219,-0.04521145299077034,-0.3499177098274231,-0.9356887936592102,-0.12086514383554459,-0.1027953028678894,-0.1909286379814148
0.3452527416168533,-0.058840451834975604,1.9051307464883362,-1.2095342874526978,-1.1861505508422852,-0.18474361300468445,-0.05533633008599281,-0.33843451738357544,-0.9393614530563354,-0.19747121632099152,-0.12300649285316467,-0.3488312363624573
0.33411209697983785,-0.06982471017285706,1.901729371954676,-1.0310168266296387,-1.2138489484786987,-0.31405824422836304,-0.06590994447469711,-0.3279305100440979,-0.9423998594284058,-0.24164614081382751,-0.132259339094162,-0.5003644227981567
0.32542975510926,-0.08022220124680049,1.8971208846304815,-0.754520833492279,-1.1403872966766357,-0.41866534948349,-0.07593011111021042,-0.3197160065174103,-0.9444661140441895,-0.2510198950767517,-0.13186782598495483,-0.6084055304527283
0.3198528405981644,-0.0890381870730424,1.8919225325835436,-0.4377693235874176,-0.9287006258964539,-0.46014198660850525,-0.08441068977117538,-0.31442686915397644,-0.945521354675293,-0.22714321315288544,-0.12350040674209595,-0.6628313064575195
0.3173986068047681,-0.09532095068424065,1.8869594111510046,-0.1397799700498581,-0.6281256079673767,-0.4225325584411621,-0.09042264521121979,-0.31209617853164673,-0.9457376599311829,-0.18058866262435913,-0.10964149236679077,-0.6604787707328796
0.3176632329231189,-0.09868637387995724,1.8829959443843127,0.11232323944568634,-0.28872647881507874,-0.32438740134239197,-0.09359679371118546,-0.31234756112098694,-0.9453457593917847,-0.13234004378318787,-0.08987411856651306,-0.6062899827957153
0.3200985219246269,-0.09922801252437043,1.8805479581513556,0.31832221150398254,0.02142203599214554,-0.18203343451023102,-0.09403318166732788,-0.31466007232666016,-0.9445351958274841,-0.08972835540771484,-0.06537529826164246,-0.5172567367553711
0.32426806706366706,-0.09757597732180537,1.879871696074491,0.4923516809940338,0.2546028196811676,-0.025168856605887413,-0.0923440232872963,-0.3186150789260864,-0.9433753490447998,-0.05423184484243393,-0.047855257987976074,-0.4076225757598877
0.3299418222010528,-0.0946207226826855,1.8809603809865982,0.6479926705360413,0.3853038549423218,0.11850947886705399,-0.08938347548246384,-0.3239879906177521,-0.941829264163971,-0.03966003656387329,-0.030702561140060425,-0.29112666845321655
0.33690943309154797,-0.09154759619277988,1.8835399560605801,0.7790598273277283,0.38601040840148926,0.2338595986366272,-0.0862802267074585,-0.33057186007499695,-0.9398286938667297,-0.04988914728164673,-0.012354165315628052,-0.18095988035202026
0.3449745806000635,-0.08930218544389562,1.8872741510695359,0.8794437050819397,0.3050985038280487,0.3161107897758484,-0.08392920345067978,-0.3381727635860443,-0.9373340606689453,-0.07087115198373795,-0.0041123926639556885,-0.08575248718261719
0.35377793705913696,-0.08842474673598688,1.8918004942017193,0.9369788765907288,0.17493543028831482,0.3660072088241577,-0.08284059911966324,-0.3464442491531372,-0.9344056248664856,-0.10003592818975449,0.000664830207824707,-0.0025297999382019043
0.3629290390558451,-0.08910184377455002,1.8967025096318333,0.9567152857780457,0.03565104305744171,0.378314733505249,-0.08318766206502914,-0.35501399636268616,-0.9311524629592896,-0.12944349646568298,0.0004607737064361572,0.06620800495147705
0.3720960572806524,-0.09105359082396003,1.9015228914804463,0.9412211179733276,-0.07337318360805511,0.34728220105171204,-0.08470539003610611,-0.36356884241104126,-0.9277082681655884,-0.15551365911960602,-0.008654028177261353,0.12157124280929565
0.38099919819674427,-0.09375450521042611,1.9058186986204824,0.8948003649711609,-0.14684098958969116,0.2797151505947113,-0.08690425753593445,-0.3718481957912445,-0.9242167472839355,-0.17208310961723328,-0.022606760263442993,0.16585493087768555
0.3893770906665569,-0.09673954418659626,1.9092617290508254,0.8254286646842957,-0.18338996171951294,0.19187751412391663,-0.08935864269733429,-0.3796122074127197,-0.9208200573921204,-0.17948590219020844,-0.03313803672790527,0.20159703493118286
0.39700685397901775,-0.09940908793861238,1.9116174417013538,0.7302283644676208,-0.1633872240781784,0.08865124732255936,-0.09152637422084808,-0.38665974140167236,-0.917669415473938,-0.17800480127334595,-0.03771770000457764,0.23309916257858276
0.40369630995963623,-0.10125123255829792,1.912736610381943,0.6136949062347412,-0.11401381343603134,-0.01949632354080677,-0.0929531678557396,-0.39282020926475525,-0.9149054288864136,-0.16604945063591003,-0.04561057686805725,0.25787729024887085
0.40926012106281634,-0.10206074088042177,1.9125868333204836,0.4843827188014984,-0.06214635819196701,-0.11787216365337372,-0.09346963465213776,-0.39793065190315247,-0.9126415252685547,-0.14424696564674377,-0.050082623958587646,0.27911192178726196
0.4135238627177074,-0.10196665284937378,1.9112989381659489,0.33655697107315063,-0.023899368941783905,-0.19870160520076752,-0.09321022033691406,-0.40183866024017334,-0.9109541773796082,-0.12097734212875366,-0.05001983046531677,0.29622340202331543
0.4164372808122287,-0.10124542366558964,1.9091077774435576,0.2004614621400833,-0.008488722145557404,-0.25523385405540466,-0.09243446588516235,-0.40450480580329895,-0.9098526239395142,-0.09555375576019287,-0.04907798767089844,0.30316317081451416
0.41814168792662004,-0.10022965992038492,1.906264392965758,0.09158329665660858,-0.01792137138545513,-0.29269951581954956,-0.09144110232591629,-0.4060629606246948,-0.9092587232589722,-0.07161425799131393,-0.048404842615127563,0.29297149181365967
0.4190138679209772,-0.09918378143761744,1.9029570392642456,0.029082639142870903,-0.04373406246304512,-0.3224848508834839,-0.09045497328042984,-0.406859815120697,-0.9090011119842529,-0.058974288403987885,-0.04541069269180298,0.26988673210144043
0.41949385099869174,-0.09831340717810655,1.8993739005652834,0.009432181715965271,-0.07282083481550217,-0.3368963599205017,-0.08964458853006363,-0.4072982370853424,-0.9088850021362305,-0.0503547340631485,-0.038929760456085205,0.23975664377212524
0.42000340806738123,-0.09774682925370458,1.8957076325078774,0.031003519892692566,-0.11485403776168823,-0.33705559372901917,-0.08910935372114182,-0.4077635705471039,-0.9087290167808533,-0.04199410229921341,-0.028790384531021118,0.20951026678085327
0.42090283650684995,-0.09762004317027148,1.8921311295636156,0.08826374262571335,-0.15190686285495758,-0.32629579305648804,-0.08895836025476456,-0.4085846543312073,-0.9083749055862427,-0.03866609185934067,-0.024581849575042725,0.17668545246124268
0.4224807100443493,-0.09788821535691081,1.888732157350129,0.16334012150764465,-0.1795070767402649,-0.3200637400150299,-0.08913883566856384,-0.4100243151187897,-0.9077082872390747,-0.038638196885585785,-0.024942725896835327,0.1483088731765747
0.42484368573814946,-0.09845138490670434,1.8854678173324417,0.24454277753829956,-0.20276924967765808,-0.31463098526000977,-0.08955453336238861,-0.4121783673763275,-0.9066911935806274,-0.04008407145738602,-0.029441475868225098,0.13113278150558472
0.42794106023927114,-0.09923059310137573,1.8823935762214838,0.3125779926776886,-0.19969622790813446,-0.30323904752731323,-0.09013409912586212,-0.4149984121322632,-0.9053464531898499,-0.039916492998600006,-0.03460177779197693,0.12150245904922485
0.43161789867721395,-0.09989085100452541,1.8794882121365257,0.3636617660522461,-0.16590924561023712,-0.29281994700431824,-0.0905790627002716,-0.41834086179733276,-0.9037623405456543,-0.04571238160133362,-0.03533342480659485,0.1165156364440918
0.4356821747570423,-0.10007206110483721,1.8766732067919387,0.38616707921028137,-0.10208071768283844,-0.29856225848197937,-0.09057221561670303,-0.42202895879745483,-0.9020466804504395,-0.06644066423177719,-0.030409425497055054,0.12094926834106445
0.4398769967820932,-0.09945189379075378,1.8737134599868754,0.39010488986968994,-0.02080903761088848,-0.3226584196090698,-0.08983621746301651,-0.4258281886577606,-0.9003331661224365,-0.09285720437765121,-0.02432134747505188,0.12855887413024902
0.4439809694848338,-0.09778091589382215,1.8702923562318607,0.36075472831726074,0.05854783579707146,-0.3754049837589264,-0.08816029876470566,-0.4295378625392914,-0.8987351655960083,-0.11537662148475647,-0.02109992504119873,0.13974779844284058
0.4476753630572847,-0.09515002343288308,1.8661721916839102,0.2970372140407562,0.10627622157335281,-0.4347141683101654,-0.0856441780924797,-0.43287116289138794,-0.8973782062530518,-0.12688016891479492,-0.021779745817184448,0.15738797187805176
0.45074068019699864,-0.091871780243741,1.861293397374328,0.22923630475997925,0.1267993450164795,-0.49528348445892334,-0.08257977664470673,-0.4356323480606079,-0.8963286280632019,-0.1227424293756485,-0.029180854558944702,0.16003108024597168
0.4532318009960167,-0.08810194822698099,1.8557524083718548,0.1778315156698227,0.1407926380634308,-0.5387400984764099,-0.0791044607758522,-0.43787333369255066,-0.8955498337745667,-0.11253061890602112,-0.03301289677619934,0.14510726928710938
0.45531161054251945,-0.08402058355501535,1.8496897189954242,0.13931713998317719,0.14640498161315918,-0.5774071216583252,-0.07537215203046799,-0.43974220752716064,-0.8949557542800903,-0.10494089871644974,-0.024720102548599243,0.12457001209259033
0.45707803037654743,-0.07961716924295001,1.8431973476738601,0.11604338884353638,0.16453152894973755,-0.6073776483535767,-0.07136867940425873,-0.4413279891014099,-0.8945032954216003,-0.094143345952034,-0.010423749685287476,0.10403698682785034
0.4586572705923912,-0.07479744256778208,1.8364450962723664,0.10435956716537476,0.20413033664226532,-0.6223246455192566,-0.06700444221496582,-0.44274455308914185,-0.8941407203674316,-0.0840880274772644,-0.0027663111686706543,0.08357858657836914
0.46013545887422913,-0.06939291167738279,1.8295285412716702,0.10167299211025238,0.26343095302581787,-0.6335039138793945,-0.06212563067674637,-0.4440694749355316,-0.8938359618186951,-0.07860612869262695,0.0017171800136566162,0.05774587392807007
0.46161956708990315,-0.06322415209003825,1.8224376000164006,0.11106649041175842,0.337803453207016,-0.6490386724472046,-0.056568924337625504,-0.44539874792099,-0.8935434818267822,-0.08178246021270752,0.00766986608505249,0.03441262245178223
0.46312888998035096,-0.05622214604243696,1.815219296921743,0.11333928257226944,0.41613873839378357,-0.6552631258964539,-0.05027315765619278,-0.44674956798553467,-0.8932454586029053,-0.08258506655693054,0.014513850212097168,0.019298315048217773
0.46458659391601637,-0.048416119391318214,1.8079850193548235,0.10811495780944824,0.4921344220638275,-0.646650493144989,-0.04326743632555008,-0.448053240776062,-0.8929592370986938,-0.07370638847351074,0.01680934429168701,0.008529305458068848
0.4659391233259427,-0.04000068247927468,1.8008952372688782,0.10152551531791687,0.5517623424530029,-0.6268995404243469,-0.035727083683013916,-0.44926202297210693,-0.8926854133605957,-0.06759011745452881,0.014066100120544434,-0.0011134147644042969
0.4671672909755277,-0.03115496099119658,1.7940453269429797,0.0989806056022644,0.5973135828971863,-0.6019300222396851,-0.027812132611870766,-0.45035892724990845,-0.8924143314361572,-0.06093292683362961,0.01307252049446106,-0.009639501571655273
0.4683601058214459,-0.022124071732409104,1.7875238306778556,0.10782081633806229,0.6124994158744812,-0.5646278858184814,-0.019739914685487747,-0.4514235854148865,-0.8920913934707642,-0.059651508927345276,0.009849518537521362,-0.027616798877716064
0.46972217377091585,-0.01335614111288072,1.781457776348855,0.14666248857975006,0.5871903300285339,-0.5192617774009705,-0.011909238062798977,-0.45263856649398804,-0.891614556312561,-0.05033130198717117,0.008317887783050537,-0.042803168296813965
0.47156726186246134,-0.005214019696529311,1.7759902123412956,0.21488718688488007,0.5455686450004578,-0.4567401111125946,-0.004644927103072405,-0.45428305864334106,-0.8908452987670898,-0.03670632839202881,0.0024397671222686768,-0.059899330139160156
0.47422159875611863,0.0023005919781895435,1.771184858413426,0.3177446126937866,0.5188672542572021,-0.39548632502555847,0.0020467161666601896,-0.4566460847854614,-0.889646053314209,-0.026018209755420685,-0.0011480748653411865,-0.07788318395614624
0.4779814738656252,0.009304164539364373,1.767027103425111,0.437568724155426,0.49651530385017395,-0.3381243050098419,0.008261282928287983,-0.4599878191947937,-0.8878868222236633,-0.02370312064886093,0.004039973020553589,-0.08829420804977417
0.4829943029665491,0.015739344054645592,1.763467304514213,0.56601881980896,0.45589226484298706,-0.27772167325019836,0.013938317075371742,-0.46443304419517517,-0.885498583316803,-0.028464630246162415,0.01596200466156006,-0.08193916082382202
0.48906121317452705,0.021315456174215413,1.7604496996319128,0.6460040211677551,0.36781248450279236,-0.2301356941461563,0.018815312534570694,-0.46979737281799316,-0.8825737237930298,-0.03677484393119812,0.037729501724243164,-0.048700690269470215
0.4955361555775114,0.02542423109816958,1.7579128611583372,0.639959454536438,0.2049577683210373,-0.18621031939983368,0.02236364036798477,-0.4755033850669861,-0.8794295787811279,-0.044855035841464996,0.06420272588729858,0.00915980339050293
0.501444969168185,0.027452325943087465,1.7558469039680724,0.5342121124267578,-0.0027951495721936226,-0.1466977447271347,0.024069616571068764,-0.48069313168525696,-0.8765584826469421,-0.051779523491859436,0.08036351203918457,0.06588953733444214
0.5057607021017559,0.027059569543714114,1.7540711583863033,0.3209051787853241,-0.2488778978586197,-0.13937591016292572,0.023668989539146423,-0.4844730496406555,-0.8744859099388123,-0.07058970630168915,0.08913308382034302,0.10577863454818726
0.5075822184115558,0.02434244522346782,1.75232468766091,0.046891823410987854,-0.4451315402984619,-0.15827955305576324,0.021271303296089172,-0.48606571555137634,-0.8736633062362671,-0.1018986850976944,0.09278571605682373,0.11241763830184937
0.5067724927422664,0.020357464735619866,1.7503310879037668,-0.1924818754196167,-0.5232465863227844,-0.19313420355319977,0.017797619104385376,-0.4853579103946686,-0.8741344213485718,-0.1237698495388031,0.08353298902511597,0.06555593013763428
0.5040651372877875,0.016523318298611013,1.7478546137450302,-0.32687216997146606,-0.4656458795070648,-0.250201553106308,0.014467595145106316,-0.4829890727996826,-0.8755068182945251,-0.1352103352546692,0.07031512260437012,-0.017803728580474854
0.5005880640302005,0.014111267537042275,1.7445432020906875,-0.3484688103199005,-0.3295847177505493,-0.34193921089172363,0.012379410676658154,-0.4799415171146393,-0.8772131204605103,-0.13423603773117065,0.06738963723182678,-0.10176026821136475
0.49725220521488567,0.013635583823956852,1.7401920735408705,-0.29603415727615356,-0.18470261991024017,-0.4260438084602356,0.011983896605670452,-0.4770123064517975,-0.8788148760795593,-0.11047931760549545,0.07143375277519226,-0.1572721004486084
0.4946613279058919,0.014693475188730869,1.735084110121779,-0.20779536664485931,-0.09370987117290497,-0.46758779883384705,0.012931696139276028,-0.4747335910797119,-0.8800345063209534,-0.05474071949720383,0.0815298855304718,-0.17515647411346436
0.4928803615737069,0.016333147727824116,1.72984909993697,-0.13730189204216003,-0.08529454469680786,-0.4496612250804901,0.014388432726264,-0.473165363073349,-0.8808560967445374,0.010208799503743649,0.09932506084442139,-0.15822160243988037
0.49157047151381483,0.01741958843123566,1.7251294208362962,-0.11509671062231064,-0.14669053256511688,-0.379664808511734,0.015356204472482204,-0.472010999917984,-0.8814589381217957,0.054513849318027496,0.1191362738609314,-0.12165385484695435
0.49029874650646155,0.017222223550597635,1.7213707185218652,-0.13390864431858063,-0.2487678825855255,-0.2860645353794098,0.015192560851573944,-0.47088944911956787,-0.8820613622665405,0.07919836789369583,0.13055744767189026,-0.0907931923866272
0.48876389749790905,0.01544428897348137,1.7186281786336044,-0.16575631499290466,-0.36471793055534363,-0.2057928591966629,0.013635436072945595,-0.46953487396240234,-0.8828086256980896,0.08366992324590683,0.12627315521240234,-0.0814858078956604
0.48695480216112563,0.012253234574013751,1.7165756938031067,-0.1891491860151291,-0.45866572856903076,-0.16606192290782928,0.010828671045601368,-0.46793684363365173,-0.8836956024169922,0.06198633462190628,0.11956340074539185,-0.09210395812988281
0.484982932507395,0.008299493546160101,1.7146761764237513,-0.1997285932302475,-0.5005971789360046,-0.17785707116127014,0.007342335768043995,-0.4661932587623596,-0.8846524357795715,0.017499037086963654,0.11713320016860962,-0.11958950757980347
0.48296670877024744,0.004405149475503696,1.7124231018984142,-0.20245783030986786,-0.47174501419067383,-0.22559727728366852,0.0039012806955724955,-0.46440860629081726,-0.8856124877929688,-0.027613379061222076,0.11724063754081726,-0.14583587646484375
0.4809177188758801,0.001456778833774154,1.7095204305069482,-0.2068488597869873,-0.37799882888793945,-0.2888713479042053,0.001291537075303495,-0.4625929892063141,-0.8865698575973511,-0.05289670079946518,0.11765283346176147,-0.15333187580108643
0.4787546193383048,-0.00013132691739337028,1.706016067582219,-0.22641828656196594,-0.25973719358444214,-0.32956093549728394,-0.00011656174319796264,-0.4606741666793823,-0.8875693082809448,-0.05092402920126915,0.11385717988014221,-0.13742458820343018
0.4763360140660964,-0.0005202020154289377,1.7021341134193946,-0.25998368859291077,-0.17595627903938293,-0.3552798628807068,-0.00046229359577409923,-0.4585261344909668,-0.8886808156967163,-0.035853564739227295,0.10792496800422668,-0.10570394992828369
0.47351000590127496,-0.00020551387505442925,1.6980308378200057,-0.30365100502967834,-0.13813646137714386,-0.3735083341598511,-0.00018290182924829423,-0.45601290464401245,-0.8899731636047363,-0.02975478395819664,0.10318392515182495,-0.07540464401245117
0.4702852973526447,0.00043532186833595795,1.6937363115411825,-0.3404516279697418,-0.1197902038693428,-0.391339510679245,0.00038806290831416845,-0.45314061641693115,-0.8914389610290527,-0.0349491611123085,0.10501137375831604,-0.056742191314697266
0.4667629541114176,0.0013985051544333539,1.6892223701490232,-0.35941067337989807,-0.09430696070194244,-0.4109298288822174,0.0012489061336964369,-0.4499978721141815,-0.893028736114502,-0.03732062131166458,0.0988931655883789,-0.05344337224960327
0.4632835454441391,0.002691966860252978,1.6845548917271973,-0.3259693384170532,-0.0620315745472908,-0.42009347677230835,0.0024082036688923836,-0.44688794016838074,-0.8945866823196411,-0.020413517951965332,0.08108901977539062,-0.06203258037567139
0.460343361793938,0.004380417742169404,1.6798667918163372,-0.25338464975357056,-0.017570367082953453,-0.4174622893333435,0.003924403805285692,-0.4442557394504547,-0.8958914279937744,-0.0013913847506046295,0.0682639479637146,-0.06886076927185059
0.45825751271608745,0.006461678040431336,1.6752373804808396,-0.15719793736934662,0.023100096732378006,-0.40594810247421265,0.005794952157884836,-0.44238606095314026,-0.896806001663208,0.012027371674776077,0.07402363419532776,-0.05828738212585449
0.45709526613991336,0.008798767464235345,1.6708464035219994,-0.06921061873435974,0.05169552192091942,-0.3802092969417572,0.007895369082689285,-0.4413434565067291,-0.8973035216331482,0.02677265927195549,0.08526435494422913,-0.028523504734039307
0.45671770826495295,0.01104430665275432,1.6668692765441204,-0.0053304387256503105,0.04441018030047417,-0.3324636220932007,0.009912117384374142,-0.44100460410118103,-0.8974500894546509,0.04501958191394806,0.08857238292694092,0.015537858009338379
0.4567677856439455,0.012869136194360083,1.6634970881291364,0.020554056391119957,0.020357316359877586,-0.27241984009742737,0.0115495091304183,-0.4410495460033417,-0.8974084258079529,0.0560775026679039,0.08390232920646667,0.06107419729232788
0.4569610443620082,0.014062847098630605,1.6607379990678606,0.022916279733181,-0.02786853536963463,-0.22287386655807495,0.012619547545909882,-0.44122299551963806,-0.8973087668418884,0.044448383152484894,0.06898486614227295,0.09147685766220093
0.457116537358111,0.014515759354515394,1.658350316445217,0.01537796575576067,-0.09022113680839539,-0.20793955028057098,0.013024953193962574,-0.44136252999305725,-0.8972343802452087,0.017828378826379776,0.04710596799850464,0.10818707942962646
0.45722435037690196,0.014343861576543045,1.6559879264941246,0.015528966672718525,-0.1533242166042328,-0.2193187028169632,0.012870036996901035,-0.4414592683315277,-0.8971889615058899,-0.0026313336566090584,0.022132515907287598,0.11394011974334717
0.45739996761549623,0.013629848135370664,1.6533479233246435,0.027463451027870178,-0.2196371704339981,-0.2557772696018219,0.012228372506797314,-0.44161683320999146,-0.8971204161643982,-0.012899700552225113,-0.0018340647220611572,0.1104993224143982
0.45764564785615347,0.012460071749338572,1.6502258753949983,0.027191542088985443,-0.2868273854255676,-0.3024646043777466,0.01117758173495531,-0.44183725118637085,-0.8970255851745605,-0.01602981612086296,-0.01864248514175415,0.11139631271362305
0.4577577568786594,0.010839781172703278,1.6465811763870912,-0.002317155711352825,-0.35563763976097107,-0.34784996509552,0.009723588824272156,-0.4419378340244293,-0.8969929814338684,-0.01401124894618988,-0.02896365523338318,0.12402850389480591
0.45743090551767907,0.008725184120472724,1.6425021462751963,-0.060112014412879944,-0.4254516065120697,-0.38085639476776123,0.00782804936170578,-0.4416446089744568,-0.8971559405326843,-0.006668321788311005,-0.03552824258804321,0.13861101865768433
0.4563577410189102,0.006041936957875481,1.6381022244481054,-0.14746204018592834,-0.4912329912185669,-0.40453410148620605,0.005423593334853649,-0.440681517124176,-0.8976471424102783,-0.0018682368099689484,-0.041038453578948975,0.14450383186340332
0.45443060594322865,0.0028457073839716204,1.6334716062997747,-0.23177000880241394,-0.547042965888977,-0.427594929933548,0.0025568963028490543,-0.438950777053833,-0.8985074758529663,-0.004403151571750641,-0.04360842704772949,0.1359494924545288
0.4517804666743915,-0.0007107918520761211,1.6285229374334869,-0.2927511930465698,-0.5929908156394958,-0.4596198499202728,-0.0006394789670594037,-0.4365680515766144,-0.8996710181236267,-0.015550035983324051,-0.04736441373825073,0.10685485601425171
0.44867570381582034,-0.004521217957380726,1.6231650534649704,-0.32540181279182434,-0.6295269727706909,-0.5033252239227295,-0.004073704592883587,-0.4337726831436157,-0.9010131359100342,-0.027160976082086563,-0.05060228705406189,0.06745600700378418
0.4454377613719327,-0.008392174884203157,1.6172678249721448,-0.32197481393814087,-0.648788571357727,-0.5514418482780457,-0.007573195733129978,-0.4308529794216156,-0.9023903608322144,-0.03525816649198532,-0.0493105947971344,0.026398539543151855
0.442430214768233,-0.01209291248086296,1.6108263478533993,-0.2868003249168396,-0.6367151141166687,-0.6048163771629333,-0.010928266681730747,-0.428136944770813,-0.903647780418396,-0.04166872054338455,-0.047815173864364624,-0.010063707828521729
0.4399374577267747,-0.015315413161714487,1.6037686512919584,-0.22545768320560455,-0.6033949255943298,-0.6590642333030701,-0.013856511563062668,-0.42588287591934204,-0.9046722054481506,-0.04360802844166756,-0.04233306646347046,-0.037344396114349365
0.43815360753127697,-0.01801828220780934,1.596197033407319,-0.15348176658153534,-0.5778427124023438,-0.6992177963256836,-0.01631532981991768,-0.4242682158946991,-0.9053896069526672,-0.031642988324165344,-0.032396793365478516,-0.046590983867645264
0.437074684169198,-0.020522758708567613,1.5883503492191988,-0.09429841488599777,-0.5854164958000183,-0.711193323135376,-0.018592186272144318,-0.4232909679412842,-0.9058030247688293,-0.008308997377753258,-0.019641131162643433,-0.034687697887420654
0.43648587720541543,-0.023227568966099753,1.5804991142146678,-0.0612507127225399,-0.618014395236969,-0.7014954090118408,-0.02104792557656765,-0.42275744676589966,-0.9059984087944031,0.018774427473545074,-0.010744720697402954,-0.01592230796813965
0.43612505596956264,-0.02638667064527365,1.57280287192058,-0.047714587301015854,-0.6632699966430664,-0.6829141974449158,-0.023913981392979622,-0.4224304258823395,-0.9060798287391663,0.03918808698654175,-0.015801995992660522,-0.0034508109092712402
0.4358676293053378,-0.0301664603590735,1.5653379758927568,-0.0374574214220047,-0.7198978662490845,-0.6645381450653076,-0.027341870591044426,-0.4221970736980438,-0.9060916304588318,0.04839906096458435,-0.022062569856643677,-0.008764326572418213
0.43586748884290916,-0.034562102929858035,1.5580546507242365,-0.005723133683204651,-0.7629947662353516,-0.6536624431610107,-0.03132445365190506,-0.4221969544887543,-0.9059627652168274,0.04171574488282204,-0.021131902933120728,-0.03179663419723511
0.43635880134916794,-0.039277526447392706,1.5507393094515145,0.05404645577073097,-0.7874574661254883,-0.6778333187103271,-0.03558793663978577,-0.4226422607898712,-0.9055976271629333,0.021595686674118042,-0.018336713314056396,-0.05845266580581665
0.4374314995564499,-0.04393801742352266,1.543042903457412,0.09732577204704285,-0.7846446633338928,-0.7226486802101135,-0.039788126945495605,-0.4236142039299011,-0.9049684405326843,0.0018090605735778809,-0.012955009937286377,-0.07052594423294067
0.43883052436738945,-0.04813839460328005,1.5348380099655572,0.10735630244016647,-0.7446812391281128,-0.7725078463554382,-0.04356041178107262,-0.42488110065460205,-0.9042004942893982,0.00040861591696739197,-0.00830066204071045,-0.0633135437965393
0.4401925777879005,-0.051616131622418245,1.526104623226339,0.08253153413534164,-0.690109372138977,-0.8168297410011292,-0.04667481407523155,-0.42611369490623474,-0.9034647941589355,0.004606388509273529,-0.005587935447692871,-0.04724931716918945
0.44124999238362633,-0.05425756822858155,1.5168268529112763,0.03619519621133804,-0.626017153263092,-0.8639538884162903,-0.04903663322329521,-0.4270700514316559,-0.9028879404067993,0.007242865860462189,-0.0015798211097717285,-0.035603880882263184
0.44179954648875125,-0.056177121355086825,1.5070902518675717,-0.026775244623422623,-0.5929585695266724,-0.8913231492042542,-0.05075649544596672,-0.42756691575050354,-0.9025576710700989,0.021215535700321198,0.00332680344581604,-0.019530951976776123
0.4416928540424067,-0.05787429216275787,1.4971309889320839,-0.09657909721136093,-0.6009291410446167,-0.8967211246490479,-0.05229085311293602,-0.42747047543525696,-0.9025157690048218,0.050902362912893295,0.005976945161819458,-0.00045359134674072266
0.44091087130208734,-0.05991541348362378,1.4872120844550403,-0.16552259027957916,-0.6633512377738953,-0.8758326172828674,-0.05415288731455803,-0.4267634153366089,-0.9027405381202698,0.0818476527929306,0.0026911497116088867,0.007492125034332275
0.43944984819222793,-0.06308427535879252,1.4775051337517768,-0.2383728176355362,-0.8007335662841797,-0.8519014716148376,-0.05705251917243004,-0.4254416525363922,-0.9031856656074524,0.10174557566642761,0.0019797682762145996,0.001284480094909668
0.4370231923426825,-0.06794993109451901,1.4680080782313984,-0.3616996705532074,-0.9733541011810303,-0.8297159075737,-0.06151633337140083,-0.42324429750442505,-0.9039247632026672,0.09877835214138031,0.0045736730098724365,-0.016378581523895264
0.43318214054921156,-0.07447997185039884,1.4585903003946545,-0.5214235186576843,-1.106956958770752,-0.8151993155479431,-0.06753811985254288,-0.41976115107536316,-0.9051183462142944,0.07113924622535706,0.00012919306755065918,-0.057085633277893066
0.42805166371697384,-0.08158810986571238,1.4491007531841609,-0.6213048696517944,-1.0809248685836792,-0.8276880979537964,-0.07414460182189941,-0.41509905457496643,-0.9067499041557312,0.02054053544998169,-0.01847943663597107,-0.1537664532661438
0.42239711215905396,-0.08771440483898313,1.4390219479983843,-0.6538255214691162,-0.9660804867744446,-0.912300705909729,-0.0799025371670723,-0.40994805097579956,-0.9086023569107056,-0.052070677280426025,-0.028131753206253052,-0.2709631323814392
0.4166916301184414,-0.09213067303348899,1.4276762155090112,-0.6649217009544373,-0.8327127695083618,-1.0457795858383179,-0.08412819355726242,-0.4047373831272125,-0.910554826259613,-0.1239863783121109,-0.006578505039215088,-0.34684568643569946
0.41106584851181543,-0.09453533596745539,1.4149888148053298,-0.6640002131462097,-0.6549880504608154,-1.1486912965774536,-0.08653108775615692,-0.39958661794662476,-0.9126023054122925,-0.1485304981470108,0.014317452907562256,-0.3880264163017273
0.40567284945527515,-0.09466719009159266,1.401659883403331,-0.6370287537574768,-0.4221809506416321,-1.1660860776901245,-0.08685386180877686,-0.3946370780467987,-0.9147229194641113,-0.12652498483657837,0.02137663960456848,-0.41778135299682617
0.4006486401387009,-0.09259189727050528,1.3886281141611803,-0.5812890529632568,-0.1857532411813736,-1.113128662109375,-0.08513760566711426,-0.39001569151878357,-0.9168638586997986,-0.09529752284288406,0.03791916370391846,-0.4294648766517639
0.39617292138456905,-0.08885539530308767,1.3765645307908354,-0.5078186988830566,-0.015126646496355534,-1.0088212490081787,-0.08186523616313934,-0.38589051365852356,-0.9189050793647766,-0.06822014600038528,0.06397590041160583,-0.4159184694290161
0.39243378218067915,-0.08446904996869213,1.3659502319600385,-0.40159881114959717,0.0686366930603981,-0.8689781427383423,-0.07795502245426178,-0.3824383020401001,-0.920686662197113,-0.049074336886405945,0.08031430840492249,-0.39013487100601196
0.3898281003001258,-0.08039524319547578,1.3571165470141733,-0.24394956231117249,0.0627705454826355,-0.7106381058692932,-0.07428345829248428,-0.3800294101238251,-0.9219867587089539,-0.02807243913412094,0.08013319969177246,-0.36071282625198364
0.38886666419353894,-0.07740467464938025,1.3501336806877628,-0.04488678276538849,-0.0037094131112098694,-0.5641157627105713,-0.07155408710241318,-0.3791399300098419,-0.922568678855896,-0.017084166407585144,0.0703020691871643,-0.3255392909049988
0.3898033378433023,-0.07586060925652721,1.344720253376953,0.15039385855197906,-0.09852750599384308,-0.4483449161052704,-0.07010255008935928,-0.3800065219402313,-0.9223235249519348,-0.03144463896751404,0.06132671236991882,-0.2759034037590027
0.39243335910497945,-0.07560078369451038,1.3404587420311709,0.3043948709964752,-0.16686022281646729,-0.3783109486103058,-0.06978718191385269,-0.38243791460990906,-0.9213419556617737,-0.05741003155708313,0.055915117263793945,-0.21321004629135132
0.3962196255753143,-0.07603653909905292,1.3368920336727668,0.3857511579990387,-0.18570184707641602,-0.3398008346557617,-0.07007815688848495,-0.38593360781669617,-0.9198610186576843,-0.08585135638713837,0.046379804611206055,-0.13624554872512817
0.4003877751454335,-0.07637440646163508,1.333497075819587,0.3853226602077484,-0.1411554217338562,-0.35349321365356445,-0.07026559114456177,-0.38977548480033875,-0.9182253479957581,-0.11573899537324905,0.027974367141723633,-0.05824559926986694
0.40427825837150294,-0.0758912850492198,1.329684230473556,0.3265283703804016,-0.058166518807411194,-0.4083244204521179,-0.06970646977424622,-0.3933553099632263,-0.9167401790618896,-0.1435503214597702,0.004439324140548706,0.010093450546264648
0.40741900376938744,-0.07405025062847885,1.3250790280646312,0.2338852435350418,0.06353035569190979,-0.4795528054237366,-0.06792686134576797,-0.3962409198284149,-0.9156304001808167,-0.15474459528923035,-0.014525651931762695,0.07181936502456665
0.4095421134883338,-0.07061981214889895,1.3196414936953895,0.11529495567083359,0.18498966097831726,-0.5407845377922058,-0.06472595036029816,-0.39818933606147766,-0.9150168299674988,-0.14532648026943207,-0.01608675718307495,0.12627476453781128
0.41046314907022186,-0.06599230138719374,1.3135875221591424,-0.0046729883179068565,0.25149011611938477,-0.5704766511917114,-0.060466814786195755,-0.3990340530872345,-0.9149402379989624,-0.11940373480319977,-0.008497655391693115,0.1781696081161499
0.4102658939257107,-0.060907061839620316,1.307336949189232,-0.10364188253879547,0.2592135965824127,-0.5608291029930115,-0.05581815168261528,-0.3988531827926636,-0.9153144359588623,-0.07835232466459274,-0.004863858222961426,0.2123725414276123
0.4092167770988811,-0.056072405031671775,1.3013602465306267,-0.1648104190826416,0.22277222573757172,-0.5134682655334473,-0.05141570791602135,-0.3978908956050873,-0.9159908890724182,-0.037542976438999176,-0.007443547248840332,0.22563743591308594
0.40770017602369873,-0.05206440703080128,1.2959877204307884,-0.1850205361843109,0.1467062085866928,-0.4480954706668854,-0.04777536168694496,-0.39649906754493713,-0.9167911410331726,-0.00691208615899086,-0.012558549642562866,0.2262546420097351
0.40612114006118305,-0.04924206359016867,1.2913802506526693,-0.16838136315345764,0.051419101655483246,-0.3784591555595398,-0.045218437910079956,-0.39504894614219666,-0.9175465106964111,0.008276961743831635,-0.019593358039855957,0.21869397163391113
0.40482997779073016,-0.04778105323767616,1.2875538088802265,-0.12034960836172104,-0.057715922594070435,-0.31138378381729126,-0.04390216991305351,-0.3938624858856201,-0.9181203246116638,0.012713264673948288,-0.026105135679244995,0.20616048574447632
0.40407192291682725,-0.04767093827851599,1.284429466567093,-0.05524197220802307,-0.16032911837100983,-0.25541719794273376,-0.043815288692712784,-0.39316558837890625,-0.9184231162071228,0.006644926965236664,-0.03237149119377136,0.1910061240196228
0.40397611738863964,-0.04873034026599687,1.281847745444605,0.013372416608035564,-0.24980758130550385,-0.2180655151605606,-0.044790077954530716,-0.3930774927139282,-0.9184138178825378,-0.007410190999507904,-0.03885301947593689,0.17470043897628784
0.40453303823576703,-0.05065697797110437,1.2796233888139796,0.07256463915109634,-0.30812492966651917,-0.19477324187755585,-0.046548351645469666,-0.3935895264148712,-0.9181070327758789,-0.023825127631425858,-0.04523792862892151,0.1613779067993164
0.40555279301526836,-0.05318471708003926,1.2777103068285371,0.10903383791446686,-0.3390125632286072,-0.1685599684715271,-0.04884757474064827,-0.39452677965164185,-0.9175851941108704,-0.03502993285655975,-0.04790174961090088,0.15554600954055786
0.406811008997849,-0.05588422325732338,1.2760533096139428,0.11876209825277328,-0.3260118067264557,-0.1477590799331665,-0.0512966513633728,-0.39568260312080383,-0.9169536232948303,-0.04289579764008522,-0.05220857262611389,0.15486866235733032
0.4080383364128187,-0.05842461891632766,1.2745825180164811,0.10780759155750275,-0.2929505407810211,-0.13802772760391235,-0.05359750986099243,-0.39680948853492737,-0.9163348078727722,-0.06185043230652809,-0.058222830295562744,0.1531054973602295
0.40911242799089176,-0.06052331771207632,1.2731473410315444,0.08990608900785446,-0.23442012071609497,-0.13891856372356415,-0.05549469217658043,-0.397795170545578,-0.9157943725585938,-0.08853296935558319,-0.0628218948841095,0.14698028564453125
0.4100003162347136,-0.06192790381859176,1.2715906430962591,0.07161502540111542,-0.16819289326667786,-0.15351364016532898,-0.0567590668797493,-0.39860960841178894,-0.9153626561164856,-0.10983633995056152,-0.07065913081169128,0.1380189061164856
0.41073928589353126,-0.06265688793656553,1.269880756142091,0.05666723847389221,-0.11321086436510086,-0.1693570613861084,-0.05740787833929062,-0.39928722381591797,-0.9150267839431763,-0.1185411661863327,-0.07509323954582214,0.13589775562286377
0.4113422676395674,-0.06287753257349733,1.267995635953219,0.039392657577991486,-0.07997222244739532,-0.18144014477729797,-0.05759463086724281,-0.39983999729156494,-0.9147736430168152,-0.11780509352684021,-0.07135137915611267,0.14277046918869019
0.411740946034102,-0.06277500516093748,1.2660128314456764,0.01685725338757038,-0.0595037043094635,-0.18333472311496735,-0.05749083682894707,-0.4002053737640381,-0.9146203994750977,-0.11044734716415405,-0.06637784838676453,0.15332889556884766
0.4119052360512231,-0.06267782545822105,1.2641321949652264,-0.0076715098693966866,-0.07386316359043121,-0.16046583652496338,-0.057397834956645966,-0.4003559350967407,-0.9145603179931641,-0.09616656601428986,-0.06102403998374939,0.16272926330566406
0.41182956872336496,-0.0629238240536332,1.2624935573834695,-0.02684839814901352,-0.10969839245080948,-0.13732483983039856,-0.05762472003698349,-0.40028658509254456,-0.9145764112472534,-0.08559422194957733,-0.05621057748794556,0.16263854503631592
0.4116349859079087,-0.06364689089369645,1.2610437887449475,-0.02870175614953041,-0.147979736328125,-0.12505416572093964,-0.05829095467925072,-0.400108277797699,-0.9146122336387634,-0.0871710255742073,-0.05843353271484375,0.14653056859970093
0.41150831638610685,-0.06481393616325726,1.2597467123324353,-0.010866031982004642,-0.18525466322898865,-0.11207310855388641,-0.059361591935157776,-0.3999921679496765,-0.9145941734313965,-0.09392814338207245,-0.06231856346130371,0.12190002202987671
0.4116203813397558,-0.06625403734367383,1.2586090122982307,0.023221973329782486,-0.19072428345680237,-0.09956660121679306,-0.060675669461488724,-0.4000948965549469,-0.9144629836082458,-0.0982293039560318,-0.06424528360366821,0.09932321310043335
0.41220774889480893,-0.06762246999625512,1.2575966126203326,0.07996541261672974,-0.16008302569389343,-0.09408235549926758,-0.06191110238432884,-0.4006331264972687,-0.9141444563865662,-0.10096115618944168,-0.06839150190353394,0.08048051595687866
0.4135297155390059,-0.06876707771248637,1.256652536008227,0.14072191715240479,-0.11487692594528198,-0.1104971244931221,-0.0629209503531456,-0.4018440246582031,-0.9135438203811646,-0.10649733245372772,-0.07020187377929688,0.06954967975616455
0.41543182768954606,-0.06927730284970364,1.255476482832512,0.18477113544940948,-0.0504944771528244,-0.1434079259634018,-0.06333403289318085,-0.4035850763320923,-0.9127474427223206,-0.11337795108556747,-0.07258066534996033,0.07691675424575806
0.4176779404697879,-0.0689374125448338,1.2538838750935155,0.20171986520290375,0.022099029272794724,-0.18479590117931366,-0.06296119838953018,-0.405639111995697,-0.9118622541427612,-0.11761125922203064,-0.07794240117073059,0.09345710277557373
0.4199767330337115,-0.06768989361914876,1.2518477121404823,0.18583491444587708,0.09287945926189423,-0.22814445197582245,-0.061760347336530685,-0.40773922204971313,-0.9110073447227478,-0.12215378880500793,-0.08075562119483948,0.1122249960899353
0.4219742505379264,-0.06560445724897804,1.2493233655173812,0.13668644428253174,0.14519351720809937,-0.2701042592525482,-0.05980685353279114,-0.4095623195171356,-0.9103196263313293,-0.12422934919595718,-0.07890200614929199,0.13422709703445435
0.42339800081005985,-0.0629340248243978,1.2462444106188917,0.07362093776464462,0.16449184715747833,-0.3238963782787323,-0.05733896419405937,-0.4108607769012451,-0.9098932147026062,-0.12207382917404175,-0.082989901304245,0.1486017107963562
0.42422895955325335,-0.059973640887295954,1.242458813271105,0.019915925338864326,0.14733658730983734,-0.390931099653244,-0.05462459847331047,-0.4116182029247284,-0.909717857837677,-0.11927977204322815,-0.09692668914794922,0.1389811635017395
0.42463545846017164,-0.05702111021121751,1.2377747628253821,-0.02038436010479927,0.09353326261043549,-0.4818149209022522,-0.05192885547876358,-0.41198864579200745,-0.9097080826759338,-0.11872538924217224,-0.10923629999160767,0.11138343811035156
0.4246026265527711,-0.05407448364436983,1.2320076921664476,-0.04207348823547363,0.01936798170208931,-0.5617910027503967,-0.049248795956373215,-0.4119587242603302,-0.9098706245422363,-0.1140812337398529,-0.11056321859359741,0.07826662063598633
0.4244463612233724,-0.05157033690184847,1.2255420307513099,-0.04759129136800766,-0.04469702020287514,-0.6025840044021606,-0.04697351157665253,-0.4118163287639618,-0.91005539894104,-0.0950552448630333,-0.10112309455871582,0.03647446632385254
0.4243376329141932,-0.049456816374808504,1.2188683900766044,-0.036284033209085464,-0.08065053820610046,-0.6033908724784851,-0.04505220055580139,-0.4117172360420227,-0.910197377204895,-0.07349328696727753,-0.07990562915802002,-0.008412301540374756
0.4243792868134056,-0.04771208917693546,1.2123535128758185,-0.013276983052492142,-0.10105140507221222,-0.578582227230072,-0.043463271111249924,-0.41175520420074463,-0.9102574586868286,-0.0609983466565609,-0.04652723670005798,-0.04440867900848389
0.42469517795002787,-0.04609599367125242,1.2061858657258668,0.023533396422863007,-0.07967420667409897,-0.5451468825340271,-0.04198615625500679,-0.4120430648326874,-0.9101965427398682,-0.05624987930059433,-0.021459102630615234,-0.07471257448196411
0.42532903795113663,-0.04428367334685144,1.2004408647787668,0.055109962821006775,-0.026646412909030914,-0.5023128390312195,-0.040324948728084564,-0.41262051463127136,-0.9100099802017212,-0.054432082921266556,-0.00669097900390625,-0.09685647487640381
0.4262146895983344,-0.041923605688613724,1.19516916893191,0.07724790275096893,0.06487048417329788,-0.4629937410354614,-0.03816182166337967,-0.41342711448669434,-0.9097371697425842,-0.05659520998597145,0.0005243122577667236,-0.10446882247924805
0.42714262298783745,-0.03870014553547162,1.1902767859551668,0.06771139055490494,0.17688463628292084,-0.4361583888530731,-0.035214267671108246,-0.41427183151245117,-0.9094716906547546,-0.060610875487327576,-0.0035595297813415527,-0.09919530153274536
0.42782177689572526,-0.03448473530237537,1.1855660697657349,0.03170360252261162,0.2690209150314331,-0.4278615415096283,-0.03137046471238136,-0.4148898720741272,-0.9093306660652161,-0.06221163645386696,-0.017422109842300415,-0.07824867963790894
0.4280034801291017,-0.029491299367773786,1.1808315835319274,-0.023929834365844727,0.33352425694465637,-0.43167757987976074,-0.02682718262076378,-0.41505521535873413,-0.9094005823135376,-0.06220779940485954,-0.03344634175300598,-0.0510181188583374
0.42754877276406084,-0.02390933528853304,1.1760471005003925,-0.08797451108694077,0.37982815504074097,-0.43692687153816223,-0.02175506018102169,-0.41464146971702576,-0.909724771976471,-0.05916224792599678,-0.044922709465026855,-0.03192561864852905
0.42652948809459773,-0.017951334075459527,1.1711960679185387,-0.13196192681789398,0.40571674704551697,-0.4380001127719879,-0.01634214259684086,-0.4137137234210968,-0.9102603197097778,-0.05909726023674011,-0.05071800947189331,-0.025561213493347168
0.4251047403273646,-0.011808848464264977,1.1662848861983464,-0.16692522168159485,0.40700221061706543,-0.44768989086151123,-0.010757558047771454,-0.4124161899089813,-0.9109320044517517,-0.06655867397785187,-0.0552351176738739,-0.026827335357666016
0.42327029237908814,-0.005955420634741889,1.1612682533637149,-0.2080010175704956,0.3415382504463196,-0.46132636070251465,-0.005429825745522976,-0.4107443392276764,-0.911734402179718,-0.07441936433315277,-0.05782249569892883,-0.019311130046844482
0.4209314201914975,-0.0010698881074200613,1.1560985557269974,-0.2608814835548401,0.2015603929758072,-0.4775746464729309,-0.0009764960268512368,-0.4086107313632965,-0.9127082228660583,-0.0894928127527237,-0.057117968797683716,-0.01215749979019165
0.41811459092896036,0.002239273043078326,1.1508120558298796,-0.295925498008728,0.02362874150276184,-0.4865846633911133,0.002046371577307582,-0.40603819489479065,-0.9138538241386414,-0.10647747665643692,-0.04969605803489685,-0.018168270587921143
0.4151381809606113,0.0037188728929771456,1.1455124064060545,-0.2888453006744385,-0.15190312266349792,-0.4818512797355652,0.0034029860980808735,-0.4033163785934448,-0.9150542616844177,-0.1275179237127304,-0.0354958176612854,-0.055679380893707275
0.41248841755151805,0.003649109662943122,1.1402303413313568,-0.22956068813800812,-0.2797468304634094,-0.48406729102134705,0.003343037096783519,-0.4008902609348297,-0.9161199927330017,-0.14775216579437256,-0.020404845476150513,-0.10702759027481079
0.41068000355075207,0.002595482743473214,1.1348517163397154,-0.1252518892288208,-0.34536421298980713,-0.5016365647315979,0.0023796644527465105,-0.3992328941822052,-0.9168464541435242,-0.1556388884782791,-0.0134563148021698,-0.15725022554397583
0.4099914928001735,0.0014373684129428868,1.1291756216046716,-0.015428978949785233,-0.32594069838523865,-0.5362605452537537,0.0013182449620217085,-0.3986015319824219,-0.9171232581138611,-0.15306685864925385,-0.007907837629318237,-0.19167190790176392
0.4102266512382516,0.001024149130375911,1.1230419991125966,0.05401967093348503,-0.23605740070343018,-0.5842301845550537,0.0009391757776029408,-0.39881718158721924,-0.9170299768447876,-0.14870524406433105,0.002927929162979126,-0.1959766149520874
0.4108448427270069,0.002005801632345038,1.116383673979917,0.06116120517253876,-0.09734878689050674,-0.6321266293525696,0.0018388851312920451,-0.3993840217590332,-0.9167819023132324,-0.1355516016483307,0.009109973907470703,-0.17202425003051758
0.4112123493088421,0.00462945109182951,1.109259521751062,0.0123312808573246,0.052533626556396484,-0.6687583923339844,0.004243510775268078,-0.3997209072113037,-0.9166271090507507,-0.11439666897058487,0.011110126972198486,-0.13433724641799927
0.41094615674742707,0.008716471859710851,1.1018521657357991,-0.05853436887264252,0.1666644662618637,-0.6786874532699585,0.00799066573381424,-0.39947688579559326,-0.9167084097862244,-0.09148670732975006,0.01736631989479065,-0.09879451990127563
0.40996477902575057,0.013625085428198557,1.0945113850763115,-0.11829033493995667,0.22344863414764404,-0.660639226436615,0.012495654635131359,-0.3985770344734192,-0.9170497059822083,-0.06643542647361755,0.027498573064804077,-0.07719767093658447
0.40852556226075915,0.018655954711559206,1.0875375360648427,-0.1417088508605957,0.21894577145576477,-0.6209881901741028,0.017119716852903366,-0.39725667238235474,-0.917547881603241,-0.044219277799129486,0.036706775426864624,-0.07383096218109131
0.40709490515039654,0.023033482018956095,1.0809577352022506,-0.11457419395446777,0.12650296092033386,-0.5881286263465881,0.021149199455976486,-0.3959433138370514,-0.9180313944816589,-0.040344707667827606,0.05097264051437378,-0.08572232723236084
0.4060663862159291,0.02604254423818581,1.0747219337893739,-0.06204334273934364,-0.024042878299951553,-0.5623689293861389,0.023922104388475418,-0.3949986398220062,-0.9183701872825623,-0.05596550926566124,0.06916248798370361,-0.10352617502212524
0.4055238321081636,0.027299668436689385,1.0687572449700937,-0.023639928549528122,-0.194489985704422,-0.5344037413597107,0.025082437321543694,-0.39450016617774963,-0.9185534715652466,-0.08466796576976776,0.09712165594100952,-0.11565673351287842
0.4052052429003733,0.02675764582669121,1.0630981326660172,-0.0162975937128067,-0.3548831343650818,-0.5074248909950256,0.02458791807293892,-0.3942073881626129,-0.9186925292015076,-0.11803269386291504,0.1213650107383728,-0.12717539072036743
0.40490895183635617,0.02462476771135197,1.057573064172515,-0.016179844737052917,-0.49519604444503784,-0.5117434859275818,0.02263127826154232,-0.39393508434295654,-0.918859601020813,-0.1555352807044983,0.12480059266090393,-0.1481417417526245
0.40464354021966026,0.021510572327636514,1.0516850338816295,-0.00999944657087326,-0.5795737504959106,-0.5739991068840027,0.019771913066506386,-0.39369112253189087,-0.9190301299095154,-0.19404250383377075,0.11157140135765076,-0.17484194040298462
0.40445778526931664,0.01826410053261727,1.044891058850789,-0.0030243610963225365,-0.5909228324890137,-0.6746935248374939,0.016789544373750687,-0.3935203552246094,-0.9191625714302063,-0.2235918641090393,0.09704211354255676,-0.2026025652885437
0.4042862447702737,0.01573563034153565,1.0369827184488332,-0.0068225618451833725,-0.5201109647750854,-0.7748594880104065,0.014466480351984501,-0.3933626413345337,-0.9192695617675781,-0.23153796792030334,0.09023159742355347,-0.21740341186523438
0.40405075182643485,0.014751332654080756,1.0280811886462211,-0.018981577828526497,-0.3646581768989563,-0.8549930453300476,0.013563004322350025,-0.3931461274623871,-0.9193759560585022,-0.21653537452220917,0.08736005425453186,-0.2138027548789978
0.4036377762499115,0.01581918903274271,1.01843222383289,-0.035348035395145416,-0.17432817816734314,-0.914821207523346,0.014547324739396572,-0.39276638627052307,-0.9195232391357422,-0.19159501791000366,0.08643096685409546,-0.1929798722267151
0.4030450415237668,0.01908469242855535,1.00822380121747,-0.04988257586956024,0.022855374962091446,-0.95541912317276,0.0175543874502182,-0.39222121238708496,-0.9197034239768982,-0.15480715036392212,0.08269670605659485,-0.1534624695777893
0.4022709549755533,0.02417093627269318,0.9978041847894078,-0.062058545649051666,0.16726794838905334,-0.9530841112136841,0.022239308804273605,-0.3915090262889862,-0.9199054837226868,-0.11197620630264282,0.0809011459350586,-0.10731619596481323
0.4014683049520923,0.030182672840717607,0.9876431622889373,-0.04604104161262512,0.23109914362430573,-0.9112037420272827,0.02777857705950737,-0.3907703161239624,-0.9200689792633057,-0.07114401459693909,0.08426707983016968,-0.06358885765075684
0.40086901068698116,0.036197511191888646,0.9780766840501923,-0.013698016293346882,0.21440166234970093,-0.8468314409255981,0.03332057595252991,-0.3902186155319214,-0.9201191067695618,-0.04940329119563103,0.09073439240455627,-0.029389560222625732
0.40068156796414695,0.04147379637859964,0.9691825786654623,0.0424794964492321,0.13832364976406097,-0.7878977060317993,0.03817793354392052,-0.39004603028297424,-0.9200035333633423,-0.050690099596977234,0.09657377004623413,-0.0009864568710327148
0.4011531623443573,0.045645519575847296,0.9608209582657696,0.11977268755435944,0.04025859385728836,-0.7466999292373657,0.042007192969322205,-0.3904802203178406,-0.9196524620056152,-0.06675690412521362,0.09206414222717285,0.013921260833740234
0.4024372567051617,0.048656288103444856,0.9526575143519745,0.20695316791534424,-0.07796019315719604,-0.7416343092918396,0.04475143179297447,-0.39166203141212463,-0.9190201759338379,-0.09411357343196869,0.0844721794128418,0.025450289249420166
0.40450966552963985,0.05057777773322706,0.9443598183964597,0.2780017852783203,-0.18886487185955048,-0.7588428854942322,0.046476103365421295,-0.3935680389404297,-0.9181199073791504,-0.11198204755783081,0.07769590616226196,0.04669046401977539
0.4071422611546412,0.05163658039693838,0.9357402745976207,0.32052308320999146,-0.27452224493026733,-0.7910473942756653,0.047394540160894394,-0.3959868252277374,-0.9170323014259338,-0.11552499979734421,0.0720580518245697,0.07789045572280884
0.4100043714834147,0.052167007074159534,0.9266957111097143,0.32885557413101196,-0.3296949565410614,-0.8333740830421448,0.047821659594774246,-0.3986133337020874,-0.9158714413642883,-0.11407527327537537,0.06638374924659729,0.10974961519241333
0.41271089910550485,0.05251254360146614,0.9171487283608447,0.298941433429718,-0.3555830121040344,-0.8834230303764343,0.04808131977915764,-0.40109407901763916,-0.9147741198539734,-0.11052024364471436,0.061753928661346436,0.1366521716117859
0.41489976114251725,0.053046595322770645,0.9070058952734568,0.22933067381381989,-0.3520069122314453,-0.943593442440033,0.0485231839120388,-0.4030981957912445,-0.9138694405555725,-0.11114521324634552,0.05841746926307678,0.16049724817276
0.41617397548868507,0.05380077763140427,0.8963008449345213,0.12477614730596542,-0.3601812422275543,-0.9911543726921082,0.049184732139110565,-0.404263973236084,-0.913318932056427,-0.10938061773777008,0.05926281213760376,0.1803019642829895
0.41628270054917726,0.05455250496974551,0.8852290320125109,0.004414319060742855,-0.3885345757007599,-1.021070957183838,0.04986888915300369,-0.4043634235858917,-0.9132378101348877,-0.09802559018135071,0.06059819459915161,0.1869804859161377
0.4152666866706716,0.05492052995517639,0.8740342879006537,-0.0925096645951271,-0.4401540756225586,-1.0288467407226562,0.05022750794887543,-0.40343397855758667,-0.9136291742324829,-0.08610088378190994,0.06015703082084656,0.17354732751846313
0.41353294024164466,0.054715094485934146,0.8628218058498526,-0.132297545671463,-0.500268816947937,-1.0327266454696655,0.05007798969745636,-0.4018469750881195,-0.9143365025520325,-0.08582929521799088,0.06464305520057678,0.13496333360671997
0.41171873699091466,0.05390719425983123,0.8515888959698842,-0.10981951653957367,-0.5536332726478577,-1.0354570150375366,0.04937848076224327,-0.4001850187778473,-0.9151031374931335,-0.08743386715650558,0.07622572779655457,0.08064568042755127
0.4104519309482562,0.05266530419130563,0.8403223453614026,-0.031134292483329773,-0.5903715491294861,-1.033944845199585,0.0482686348259449,-0.39902377128601074,-0.9156692624092102,-0.08217363059520721,0.08363991975784302,0.035282909870147705
0.41008392102883545,0.05101800640276832,0.829106467956976,0.06576864421367645,-0.6281468868255615,-1.0201480388641357,0.04676767438650131,-0.3986862897872925,-0.9158941507339478,-0.07145635783672333,0.09087076783180237,0.0069432854652404785
0.4106901418640648,0.04899858296312475,0.8179960471513319,0.1522286981344223,-0.6617913842201233,-1.0036156177520752,0.04490615800023079,-0.3992421627044678,-0.9157451391220093,-0.0628046840429306,0.09440213441848755,-0.0034748315811157227
0.41199744548871164,0.046441913067104594,0.8069634470291065,0.19837379455566406,-0.7316122651100159,-0.9992068409919739,0.04254048690199852,-0.40044042468070984,-0.9153347611427307,-0.061064623296260834,0.08931377530097961,0.007116377353668213
0.41356108126406477,0.04301608118099541,0.7959456757111556,0.19719667732715607,-0.8336244225502014,-1.0028177499771118,0.03937748819589615,-0.4018727242946625,-0.9148484468460083,-0.06792663782835007,0.07614341378211975,0.0241929292678833
0.4148596276694076,0.03859978424707344,0.7847629953470244,0.1410592794418335,-0.9411351680755615,-1.0272104740142822,0.03531670570373535,-0.40306147933006287,-0.9144912362098694,-0.08414479345083237,0.06497254967689514,0.03180074691772461
0.4155308844471425,0.03332141290878496,0.7733087474986897,0.06422813981771469,-1.0241986513137817,-1.0587716102600098,0.030480191111564636,-0.40367570519447327,-0.9143942594528198,-0.09592510759830475,0.060337722301483154,0.018413424491882324
0.41541007245227507,0.027594007612410404,0.7615356890437273,-0.020860860124230385,-1.059059739112854,-1.091033935546875,0.025243958458304405,-0.4035651683807373,-0.9146025776863098,-0.10727518051862717,0.06042554974555969,-0.020425498485565186
0.4145279913164964,0.02194765588574638,0.7493495127294251,-0.09658598154783249,-1.0366833209991455,-1.1390517950057983,0.020087219774723053,-0.4027579426765442,-0.9150860905647278,-0.12477774173021317,0.06540140509605408,-0.07035702466964722
0.4130576634840644,0.017065527942221034,0.736598261175593,-0.14862102270126343,-0.9514338374137878,-1.1929097175598145,0.015629518777132034,-0.4014117121696472,-0.915764331817627,-0.13901206851005554,0.06950259208679199,-0.11287641525268555
0.4112331625069971,0.013417832578827256,0.7233358960467651,-0.17368829250335693,-0.8305079936981201,-1.2344542741775513,0.01229880005121231,-0.39973998069763184,-0.9165460467338562,-0.14009112119674683,0.07111150026321411,-0.1447332501411438
0.4092423471600515,0.011092524993370271,0.7096617494149856,-0.19291095435619354,-0.7249267101287842,-1.2686575651168823,0.010176324285566807,-0.3979143500328064,-0.9173661470413208,-0.13218557834625244,0.07329893112182617,-0.15645593404769897
0.4070751521295833,0.009618764711335638,0.6957395969535204,-0.21515607833862305,-0.6794263124465942,-1.284220576286316,0.008832610212266445,-0.3959251940250397,-0.9182403087615967,-0.11576616764068604,0.07593318819999695,-0.1361420750617981
0.40459416975360946,0.008248362662028021,0.6816925266838806,-0.2581823766231537,-0.7062678337097168,-1.293222427368164,0.0075823222286999226,-0.3936457335948944,-0.9192309379577637,-0.09339772164821625,0.0702357292175293,-0.09766054153442383
0.4016549773816011,0.006393801180290549,0.6675510074231942,-0.31207677721977234,-0.7728005051612854,-1.3082242012023926,0.005884912330657244,-0.39094215631484985,-0.9203964471817017,-0.08306382596492767,0.05390605330467224,-0.06989896297454834
0.398150919452512,0.003931313391863221,0.6531099918546126,-0.37549105286598206,-0.8396490216255188,-1.3470563888549805,0.003623794764280319,-0.38771456480026245,-0.9217723608016968,-0.09056834876537323,0.03891393542289734,-0.06277048587799072
0.39394748265919677,0.0010019018117389824,0.638238958870213,-0.45886504650115967,-0.8839049339294434,-1.3896653652191162,0.0009251570445485413,-0.3838365077972412,-0.9234005808830261,-0.09617049992084503,0.027711689472198486,-0.06674224138259888
0.388932411171099,-0.002051640217631432,0.6229836489021279,-0.5440449714660645,-0.8785538077354431,-1.4205551147460938,-0.001898410962894559,-0.3792007863521576,-0.9253124594688416,-0.08640417456626892,0.013050943613052368,-0.08303409814834595
0.3831482668750436,-0.004751486095168525,0.6074237701407015,-0.616862416267395,-0.8211837410926819,-1.4498722553253174,-0.00440694997087121,-0.3738422989845276,-0.9274818301200867,-0.08836646378040314,0.004289746284484863,-0.1151970624923706
0.37676153302639814,-0.006653434672078505,0.5916133580576611,-0.6686246991157532,-0.7224733829498291,-1.4674644470214844,-0.006186723709106445,-0.36791107058525085,-0.9298403859138489,-0.09795448184013367,0.00356176495552063,-0.15747040510177612
0.3701324926739674,-0.007558790800138308,0.5757586049608163,-0.6690851449966431,-0.6109095811843872,-1.4661887884140015,-0.007046838290989399,-0.3617389500141144,-0.932252824306488,-0.10113795101642609,-7.739663124084473e-05,-0.19996464252471924
0.3637890588551055,-0.00744345931607347,0.5600013437649262,-0.6081939339637756,-0.4946631193161011,-1.4559261798858643,-0.006956260185688734,-0.35581785440444946,-0.9345294237136841,-0.10855275392532349,-0.004808306694030762,-0.23865783214569092
0.3584173472881317,-0.006340209664878088,0.5444372853657146,-0.4738268256187439,-0.38160982728004456,-1.4380075931549072,-0.005937269888818264,-0.3507925868034363,-0.9364343285560608,-0.12383870780467987,0.0004203319549560547,-0.2707037329673767
0.3547298840792747,-0.004362826891594647,0.529176446147073,-0.26891306042671204,-0.2914527356624603,-1.4058499336242676,-0.004091185983270407,-0.3473370671272278,-0.9377314448356628,-0.13305477797985077,0.007371306419372559,-0.28664910793304443
0.35326444461055057,-0.002051304846740874,0.5143536544162908,-0.029804859310388565,-0.2798038125038147,-1.3636587858200073,-0.0019246320007368922,-0.3459624946117401,-0.9382463693618774,-0.12589821219444275,0.005600005388259888,-0.27201974391937256
0.3542267357020109,-0.0001735468386152009,0.5001284505898521,0.2171853929758072,-0.33594217896461487,-1.2924803495407104,-0.0001627721794648096,-0.3468652069568634,-0.9379149675369263,-0.10135394334793091,-0.0014623701572418213,-0.22903144359588623
0.3575468231996809,0.000561627735044748,0.48672892463638845,0.4401487112045288,-0.45583608746528625,-1.21129310131073,0.000526109361089766,-0.3499772548675537,-0.9367580413818359,-0.08370175957679749,-0.004560649394989014,-0.17305946350097656
0.3628750692108166,-0.00023517871508458234,0.4740880079193427,0.6153315901756287,-0.5904858112335205,-1.1539103984832764,-0.00021986391220707446,-0.3549635410308838,-0.9348801374435425,-0.09275192022323608,-0.0021683573722839355,-0.11458885669708252
0.36961903653496875,-0.0024230265307258747,0.4618185981809139,0.7161969542503357,-0.7178120613098145,-1.1380864381790161,-0.0022593853063881397,-0.36126023530960083,-0.9324623346328735,-0.11973461508750916,-0.0026313066482543945,-0.05586475133895874
0.37695157679386765,-0.005702274881421155,0.44945385303322566,0.7237356305122375,-0.8328667879104614,-1.1683311462402344,-0.005301895551383495,-0.3680877983570099,-0.9297758936882019,-0.15418295562267303,-0.004074037075042725,0.004635512828826904
0.3839895145729014,-0.009719122601561334,0.4365405421163693,0.6518984436988831,-0.9201550483703613,-1.2359929084777832,-0.009011209942400455,-0.3746224343776703,-0.9271336793899536,-0.18378356099128723,-0.0067861974239349365,0.05449873208999634
0.39003964431634064,-0.01394986376316195,0.4227187819593398,0.5191574692726135,-0.9571795463562012,-1.3327769041061401,-0.012901727110147476,-0.3802250921726227,-0.9248040318489075,-0.20413927733898163,-0.014153540134429932,0.0845024585723877
0.39464645045944996,-0.017782792431658548,0.40770525423987164,0.3503604531288147,-0.9447671175003052,-1.4510152339935303,-0.016415009275078773,-0.38448184728622437,-0.9229865670204163,-0.21443518996238708,-0.01868581771850586,0.09579235315322876
0.39756611882430337,-0.02057718262946392,0.39133628461855613,0.17568287253379822,-0.8605175018310547,-1.568827748298645,-0.018970947712659836,-0.38717544078826904,-0.9218108654022217,-0.21505308151245117,-0.014496862888336182,0.08733820915222168
0.3988756561875689,-0.021766521647317218,0.37388101617556085,0.02255164459347725,-0.7189781665802002,-1.6364457607269287,-0.020056227222085,-0.3883824944496155,-0.9212799668312073,-0.19666434824466705,-0.0034478604793548584,0.06251531839370728
0.39891706710304997,-0.02113125666037796,0.35591749231425507,-0.07950259745121002,-0.5466458797454834,-1.6562623977661133,-0.01947062648832798,-0.3884206712245941,-0.9212764501571655,-0.16435199975967407,0.01674714684486389,0.029751181602478027
0.3981764513386221,-0.018876521311588033,0.3379655728368585,-0.12671564519405365,-0.39708012342453003,-1.6307590007781982,-0.017398769035935402,-0.38773810863494873,-0.9216053485870361,-0.12522512674331665,0.03304758667945862,0.011830568313598633
0.39714680116608103,-0.01565586568288995,0.3204786452634816,-0.1310022920370102,-0.319301962852478,-1.5772607326507568,-0.01443675346672535,-0.3867887854576111,-0.9220553040504456,-0.0846232920885086,0.04004812240600586,0.012570440769195557
0.396210315166879,-0.012235679521024868,0.3036989810193588,-0.09597187489271164,-0.29896870255470276,-1.5042458772659302,-0.011287502013146877,-0.3859250247478485,-0.9224610924720764,-0.05994051694869995,0.037978917360305786,0.024160921573638916
0.39566856252323274,-0.009205297466371906,0.2877662534381757,-0.04079252853989601,-0.3259657323360443,-1.4251072406768799,-0.008493967354297638,-0.3854251801967621,-0.9226999878883362,-0.044774457812309265,0.024448126554489136,0.04121500253677368
0.3957193188627637,-0.00694615273914747,0.27267400374249484,0.029829977080225945,-0.3838671147823334,-1.353905439376831,-0.006409299094229937,-0.38547202944755554,-0.9226972460746765,-0.04041992127895355,0.00664210319519043,0.055921733379364014
0.3964430080304853,-0.005524146714237057,0.2582624808022371,0.09779079258441925,-0.44234132766723633,-1.300724983215332,-0.005095669534057379,-0.3861396908760071,-0.9224262237548828,-0.043640896677970886,-0.008818775415420532,0.07400703430175781
0.397776992460785,-0.004759386243193853,0.2443526720667537,0.15073630213737488,-0.4725777804851532,-1.2598234415054321,-0.004387777764350176,-0.38736987113952637,-0.9219139814376831,-0.04733949899673462,-0.023228824138641357,0.09273606538772583
0.3995006173248737,-0.004305055683984912,0.2308416864729816,0.17741943895816803,-0.47817254066467285,-1.2269651889801025,-0.00396604323759675,-0.3889583349227905,-0.9212468266487122,-0.05015687644481659,-0.03546479344367981,0.11422473192214966
0.4013849942790554,-0.003878014610931942,0.2176072904818723,0.18640920519828796,-0.46387481689453125,-1.2054535150527954,-0.0035697841085493565,-0.39069363474845886,-0.9205138683319092,-0.05348283052444458,-0.046485841274261475,0.13384699821472168
0.4032652805517842,-0.003337609052429449,0.20452570698800748,0.1762464940547943,-0.4492461085319519,-1.198002576828003,-0.003069875529035926,-0.3924237787723541,-0.9197794198989868,-0.05288410186767578,-0.05815291404724121,0.14989721775054932
0.40498172569976015,-0.0026659240093832165,0.1914623949884765,0.15647998452186584,-0.4390352964401245,-1.1980795860290527,-0.002450273372232914,-0.39400196075439453,-0.9191063046455383,-0.04523344337940216,-0.0680951476097107,0.16028672456741333
0.4064462389011409,-0.0018129151648951663,0.1783761918590142,0.12853088974952698,-0.41979554295539856,-1.1997982263565063,-0.0016652189660817385,-0.39534759521484375,-0.9185301065444946,-0.04224957525730133,-0.07375329732894897,0.16314369440078735
0.4075952619559856,-0.0006835228052131522,0.16529627459312035,0.09678839892148972,-0.38814017176628113,-1.1911909580230713,-0.0006275263149291277,-0.3964027464389801,-0.9180765151977539,-0.044965729117393494,-0.07343053817749023,0.1606760025024414
0.4083930820027773,0.0006730077168619063,0.15243848213353478,0.06244811415672302,-0.35955241322517395,-1.159834384918213,0.0006176596507430077,-0.39713507890701294,-0.9177599549293518,-0.036826759576797485,-0.06761705875396729,0.1600237488746643
0.40881614298092783,0.0020622633740334725,0.13998619039511656,0.02577398717403412,-0.3479018807411194,-1.115217924118042,0.001892315223813057,-0.39752331376075745,-0.9175901412963867,-0.026138529181480408,-0.06074383854866028,0.15683269500732422
0.40896142377746914,0.003309173651173565,0.12809554868604447,0.006947508081793785,-0.3454586863517761,-1.0599795579910278,0.0030362748075276613,-0.3976566195487976,-0.917529284954071,-0.018249288201332092,-0.05728411674499512,0.15277403593063354
0.40901995937715513,0.004278102444367767,0.11683252225567511,0.014224063605070114,-0.35388413071632385,-1.0027668476104736,0.0039251940324902534,-0.39771032333374023,-0.9175026416778564,-0.01094423234462738,-0.06113666296005249,0.14095234870910645
0.4092652845427872,0.004959645136781559,0.10615125434602331,0.042538803070783615,-0.3556884825229645,-0.9543015360832214,0.0045500267297029495,-0.3979353904724121,-0.9174021482467651,-0.0095854252576828,-0.06648105382919312,0.12280070781707764
0.4097995379649586,0.0054274884273547335,0.09589710147628039,0.07496678084135056,-0.36203745007514954,-0.9236485958099365,0.00497807189822197,-0.39842545986175537,-0.9171872138977051,-0.021121874451637268,-0.06847816705703735,0.1052059531211853
0.41063931620746774,0.005978261030236045,0.08586991551379901,0.10045268386602402,-0.32132941484451294,-0.9096847176551819,0.0054812305606901646,-0.3991955816745758,-0.9168494343757629,-0.04051542282104492,-0.07193472981452942,0.08921271562576294
0.4116570045284791,0.00712848447526726,0.07592464022313627,0.10523279756307602,-0.2387288212776184,-0.9066506028175354,0.006532908882945776,-0.40012845396995544,-0.9164357781410217,-0.051607370376586914,-0.07710537314414978,0.07900291681289673
0.41250834353308125,0.009153686159547094,0.06603704367453289,0.07226474583148956,-0.14125631749629974,-0.8976287841796875,0.008385740220546722,-0.40090852975845337,-0.9160796999931335,-0.05413159728050232,-0.07904136180877686,0.08592528104782104
0.4128746215640881,0.012201740546171154,0.05632793121780098,0.017886724323034286,-0.025656480342149734,-0.8725003004074097,0.01117616519331932,-0.40124404430389404,-0.9159030318260193,-0.04094606637954712,-0.07922464609146118,0.10494410991668701
0.41271411023811094,0.0162200284153941,0.046965543830616976,-0.02641237899661064,0.07298353314399719,-0.8376484513282776,0.014857470989227295,-0.40109702944755554,-0.9159150719642639,-0.02421112358570099,-0.08027192950248718,0.11815506219863892
0.41209361344005757,0.020839991570340145,0.03810217234564782,-0.07000991702079773,0.1365976631641388,-0.7844308018684387,0.01909397542476654,-0.40052855014801025,-0.9160853028297424,-0.013616085052490234,-0.07939082384109497,0.12191110849380493
0.4110486374643389,0.02577231707340403,0.02978992798562295,-0.10290969163179398,0.18375109136104584,-0.7404884696006775,0.02362292818725109,-0.3995708227157593,-0.9163978695869446,-0.01141589879989624,-0.08053165674209595,0.11409074068069458
0.40968715580047976,0.030910584819131136,0.021923536746089434,-0.1270025074481964,0.2132221758365631,-0.7067041397094727,0.028348078951239586,-0.3983224034309387,-0.9168073534965515,-0.024899601936340332,-0.0818716287612915,0.09544193744659424
0.4081476830300819,0.03616118514716069,0.014309167209179229,-0.13277357816696167,0.22909428179264069,-0.6969961524009705,0.03318358585238457,-0.39690983295440674,-0.91725754737854,-0.047328487038612366,-0.08610707521438599,0.06418442726135254
0.4066421863034993,0.041420870362879066,0.006755570606518191,-0.11125069856643677,0.22248245775699615,-0.69225013256073,0.03803228959441185,-0.39552757143974304,-0.9176663160324097,-0.05773138999938965,-0.09502720832824707,0.029497981071472168
0.40546693873188194,0.0466468423813118,-0.000747891039735683,-0.06385226547718048,0.23322166502475739,-0.6893607378005981,0.0428490936756134,-0.3944478929042816,-0.9179187417030334,-0.0627923458814621,-0.1008676290512085,-0.006229817867279053
0.40480596208828185,0.05206244130036197,-0.008185194943529097,-0.0018285796977579594,0.2650062143802643,-0.6771355271339417,0.04783307760953903,-0.39384040236473083,-0.9179334044456482,-0.06652510166168213,-0.0953410267829895,-0.03412348031997681
0.40469223137365734,0.0577634466387745,-0.015506348717942459,0.050095148384571075,0.2982029318809509,-0.6649483442306519,0.053068000823259354,-0.3937358856201172,-0.9176905155181885,-0.07969459891319275,-0.08612245321273804,-0.05336356163024902
0.4050393269813919,0.06379922519142982,-0.02271082463718083,0.09614519774913788,0.34611451625823975,-0.6455543637275696,0.05859725922346115,-0.39405491948127747,-0.9172170162200928,-0.08360642194747925,-0.08101218938827515,-0.06502175331115723
0.4058094169038869,0.07044439665929861,-0.029696355618885308,0.14111630618572235,0.4357801079750061,-0.6227547526359558,0.06466960906982422,-0.3947625756263733,-0.9165043830871582,-0.07759380340576172,-0.07514703273773193,-0.0811305046081543
0.4069753369634972,0.07803904331758445,-0.03653649494059807,0.18183603882789612,0.5425385236740112,-0.6105297803878784,0.07159227132797241,-0.3958335220813751,-0.91552734375,-0.0923900157213211,-0.06989520788192749,-0.1052093505859375
0.40860730725780986,0.08689095796115462,-0.04338586682014848,0.24909628927707672,0.6931919455528259,-0.6147547960281372,0.07963736355304718,-0.39733168482780457,-0.9142130017280579,-0.11696037650108337,-0.06619977951049805,-0.14999598264694214
0.4110657922405283,0.09787282456280805,-0.05059491508841093,0.3622761070728302,0.9334708452224731,-0.6600274443626404,0.08957640826702118,-0.39958655834198,-0.9123084545135498,-0.14855164289474487,-0.054469168186187744,-0.19982844591140747
0.4145828803725906,0.11165023984276229,-0.058663654336366985,0.4856589436531067,1.1499128341674805,-0.7337868809700012,0.10197953879833221,-0.40280818939208984,-0.9095854759216309,-0.2026417851448059,-0.02768796682357788,-0.22994089126586914
0.4189978079306435,0.12719683131707032,-0.06767574294899813,0.568058431148529,1.2059372663497925,-0.7896102070808411,0.11588087677955627,-0.4068451523780823,-0.90611732006073,-0.20773878693580627,-0.0035856962203979492,-0.21427452564239502
0.42332168991160235,0.14276948757762958,-0.07726282982514586,0.4952552020549774,1.0894250869750977,-0.8196532726287842,0.1297253966331482,-0.41079118847846985,-0.9024533033370972,-0.1704968810081482,0.028390735387802124,-0.11816138029098511
0.4249162238975439,0.15505268442129724,-0.08646998778229628,0.018826620653271675,0.5010217428207397,-0.7813485264778137,0.14069899916648865,-0.4122444689273834,-0.9001435041427612,-0.08561481535434723,0.0710580050945282,0.16094672679901123
0.42136841185082363,0.15765354803078532,-0.09392962574937483,-0.48934218287467957,-0.5910761952400208,-0.6671647429466248,0.1432684063911438,-0.40900954604148865,-0.9012132883071899,0.1216546893119812,0.018384605646133423,0.45835739374160767
0.414210774042359,0.15089226348053053,-0.09966056446611508,-0.7134520411491394,-1.1306174993515015,-0.5900377631187439,0.1376083642244339,-0.4024675786495209,-0.9050325155258179,0.1516677439212799,-0.01582157611846924,0.2021515965461731
0.40658059381044376,0.141234208858457,-0.10480339367251038,-0.617423951625824,-1.165552020072937,-0.5650193095207214,0.12928974628448486,-0.3954710066318512,-0.9093331694602966,0.007963061332702637,0.043206632137298584,-0.15849214792251587
0.40145223088665505,0.13338421327874495,-0.11051177007730562,-0.2218204289674759,-0.7876216769218445,-0.628640353679657,0.122415691614151,-0.3907555341720581,-0.912318229675293,-0.1169988363981247,0.120903879404068,-0.5314226150512695
0.4007733339586433,0.1317912241960091,-0.11817272212816342,0.26974403858184814,-0.11069812625646591,-0.7903134226799011,0.12099705636501312,-0.39013051986694336,-0.9127748608589172,-0.23137915134429932,0.11901238560676575,-0.78340744972229
0.4042001835450651,0.1381006632884769,-0.12831383543269062,0.6288805603981018,0.5594557523727417,-0.9547779560089111,0.12656891345977783,-0.39328351616859436,-0.9106637239456177,-0.25985443592071533,0.13046619296073914,-0.7684897780418396
0.40987707364950077,0.15082948649859895,-0.1401506325571099,0.7791962027549744,1.013065218925476,-1.0113602876663208,0.13781233131885529,-0.3984965980052948,-0.9067569971084595,-0.19143174588680267,0.1868267059326172,-0.5484737753868103
0.416087656667961,0.16712115267537309,-0.15209231823460992,0.7697526216506958,1.2530823945999146,-0.9312068819999695,0.15215134620666504,-0.404185026884079,-0.9019337296485901,-0.08208301663398743,0.21691396832466125,-0.2938365936279297
0.4216474487465532,0.18401504183436676,-0.16248598029443306,0.6355617642402649,1.234130859375,-0.732852041721344,0.16695231199264526,-0.4092641770839691,-0.8970115780830383,-0.0022184252738952637,0.2529226839542389,-0.04366225004196167
0.42577272137425826,0.1984093187681426,-0.17025794652764478,0.4360361397266388,0.973294734954834,-0.4963252544403076,0.17951208353042603,-0.4130246341228485,-0.892852783203125,0.06357565522193909,0.2747953534126282,0.1652374267578125
0.4283185326456245,0.20808216753216055,-0.17522105155765372,0.2500803470611572,0.525155782699585,-0.29256248474121094,0.1879221498966217,-0.4153418242931366,-0.8900429606437683,0.0983937531709671,0.24613717198371887,0.2768227458000183
0.4296374655714724,0.2119079390623377,-0.17819754837641916,0.1281733512878418,-0.010690850205719471,-0.19401830434799194,0.19121049344539642,-0.4165412485599518,-0.8887811303138733,0.08808636665344238,0.19072648882865906,0.2925592064857483
0.43011958146405116,0.21027499862848523,-0.18058909168040532,0.06090265139937401,-0.4999239444732666,-0.2262696474790573,0.18971696496009827,-0.41697949171066284,-0.8888956904411316,0.040080368518829346,0.13209795951843262,0.2506205439567566
0.4299054942902341,0.20470330160345374,-0.18378661179544775,0.015220117755234241,-0.8549166917800903,-0.36107325553894043,0.18477953970432281,-0.4167849123477936,-0.890026330947876,-0.037837401032447815,0.08876675367355347,0.16892647743225098
0.429017378634475,0.19708200183410515,-0.18879751412184956,-0.003917107358574867,-1.0608325004577637,-0.5740789771080017,0.17806348204612732,-0.415977418422699,-0.8917713761329651,-0.1355525255203247,0.07390594482421875,0.05508619546890259
0.42756082734957035,0.1891924897975997,-0.19644962903671767,-0.01970565691590309,-1.1281663179397583,-0.8476921319961548,0.17113614082336426,-0.41465243697166443,-0.893742561340332,-0.23877835273742676,0.08632910251617432,-0.05687999725341797
0.4251974550420195,0.1823426336572587,-0.20709288762563333,-0.10152154415845871,-1.1074316501617432,-1.142518401145935,0.16518740355968475,-0.41250064969062805,-0.8958550691604614,-0.31461673974990845,0.10433420538902283,-0.13185489177703857
0.4210789031060521,0.17701707888392892,-0.22072914109379202,-0.27583688497543335,-1.0693378448486328,-1.4390486478805542,0.16071197390556335,-0.40874534845352173,-0.8983868360519409,-0.33397555351257324,0.10994783043861389,-0.16463196277618408
0.4146398499869603,0.17310681981857365,-0.23696076451880907,-0.47217971086502075,-1.0195345878601074,-1.6899912357330322,0.15764789283275604,-0.4028603136539459,-0.9015823006629944,-0.29114705324172974,0.1024453341960907,-0.18597263097763062
0.406154610449396,0.17057642632737985,-0.25520247682820024,-0.6162176132202148,-0.9287146329879761,-1.87844979763031,0.1559406965970993,-0.39507970213890076,-0.905314564704895,-0.2064473181962967,0.09367290139198303,-0.23235023021697998
0.3963774354053375,0.1694419281750575,-0.2747926928558122,-0.6901397705078125,-0.8304927945137024,-1.9864356517791748,0.15555749833583832,-0.38607919216156006,-0.9092550277709961,-0.1119784265756607,0.10719436407089233,-0.2876901626586914
0.38618690983431203,0.16905610318972678,-0.2948244454758659,-0.6791577339172363,-0.7654938101768494,-1.9801329374313354,0.15586057305335999,-0.3766588866710663,-0.9131459593772888,-0.02757994830608368,0.14951661229133606,-0.3325815796852112
0.37666153151700676,0.16901649319310738,-0.31425276753309234,-0.5790043473243713,-0.68206387758255,-1.8724207878112793,0.15642084181308746,-0.36781808733940125,-0.9166473746299744,0.028134196996688843,0.19440200924873352,-0.3805633783340454
0.36874088251853393,0.16923712799890483,-0.3324643872820945,-0.3980523943901062,-0.5897358059883118,-1.7237626314163208,0.1571088582277298,-0.3604412376880646,-0.9194557666778564,0.05080738663673401,0.23335081338882446,-0.41965556144714355
0.36313120136761773,0.17000585526706563,-0.3493811127861306,-0.17072360217571259,-0.46112778782844543,-1.5744060277938843,0.15815523266792297,-0.35520297288894653,-0.9213130474090576,0.04539698362350464,0.2542661428451538,-0.4398930072784424
0.35989167391043303,0.17166665273772852,-0.3651919005630437,0.028723187744617462,-0.3230394423007965,-1.4416704177856445,0.1598808467388153,-0.3521728515625,-0.9221780896186829,0.039200544357299805,0.2549439072608948,-0.4109823703765869
0.35849722755778224,0.17426213648659916,-0.37994087394159115,0.15887023508548737,-0.19462579488754272,-1.3231613636016846,0.16235879063606262,-0.3508673906326294,-0.9222427606582642,0.037088796496391296,0.23860856890678406,-0.33595120906829834
0.358128365878329,0.1776299140101063,-0.39371063033504133,0.20966736972332,-0.10033416748046875,-1.2265698909759521,0.1654866337776184,-0.3505219519138336,-0.9218180775642395,0.033823639154434204,0.21494770050048828,-0.2398030161857605
0.35809998351166766,0.18134186557835152,-0.4066435275894313,0.2142011821269989,-0.06903401017189026,-1.153803825378418,0.16890902817249298,-0.3504953682422638,-0.9212071895599365,0.03313256800174713,0.18910321593284607,-0.14841866493225098
0.3581365434339738,0.1849831775782511,-0.4188597833433395,0.21107302606105804,-0.06192949414253235,-1.0874933004379272,0.17225994169712067,-0.35052961111068726,-0.9205734729766846,0.037411049008369446,0.16821765899658203,-0.08540797233581543
0.3583403904902089,0.18829597161627298,-0.4303474262165968,0.22651880979537964,-0.08404839783906937,-1.0120352506637573,0.17529527842998505,-0.35072052478790283,-0.9199275374412537,0.04598763585090637,0.1603366732597351,-0.04622846841812134
0.3588759390875999,0.19107616371288547,-0.44103126342369114,0.2555038630962372,-0.10866532474756241,-0.92574542760849,0.1778164803981781,-0.3512220084667206,-0.9192520976066589,0.04279504716396332,0.16698744893074036,-0.020170509815216064
0.3599166448435358,0.1933399119327304,-0.45088491406499176,0.29625460505485535,-0.1293639838695526,-0.8444022536277771,0.17982664704322815,-0.35219621658325195,-0.9184879660606384,0.02320675551891327,0.17786461114883423,-0.005630075931549072
0.3614824560632218,0.1952097096250722,-0.46013289687469916,0.340475857257843,-0.14692619442939758,-0.792708158493042,0.18143652379512787,-0.35366126894950867,-0.9176080226898193,-0.01586344838142395,0.17972636222839355,0.001485586166381836
0.3634476867428043,0.19683266522217063,-0.4691307891264583,0.3680555522441864,-0.16206757724285126,-0.7805821895599365,0.18278925120830536,-0.3554988205432892,-0.9166289567947388,-0.05373042821884155,0.16921955347061157,0.01617729663848877
0.3656243796128498,0.19823686404051705,-0.4782341175500027,0.389493465423584,-0.20260967314243317,-0.8023753762245178,0.1839233636856079,-0.35753247141838074,-0.9156105518341064,-0.07566231489181519,0.14787673950195312,0.039206743240356445
0.3679013330558252,0.19934859583046222,-0.48774253364708464,0.40725985169410706,-0.2535626292228699,-0.8437385559082031,0.18477948009967804,-0.35965800285339355,-0.9146052002906799,-0.08948838710784912,0.12807542085647583,0.05442148447036743
0.370238714396994,0.20017654958556177,-0.4977233374178593,0.4149598479270935,-0.3015269339084625,-0.8842535018920898,0.18536899983882904,-0.3618379831314087,-0.9136255383491516,-0.09480814635753632,0.12204620242118835,0.06441289186477661
0.3725785930489942,0.20056463254138862,-0.508013001351742,0.42054611444473267,-0.36810702085494995,-0.8907040953636169,0.1855543702840805,-0.3640183210372925,-0.9127213358879089,-0.07968893647193909,0.12442487478256226,0.07502907514572144
0.3750119515245138,0.20027701197353354,-0.5182570410655325,0.4352843165397644,-0.4295554757118225,-0.8707506060600281,0.18511506915092468,-0.366283655166626,-0.9119039177894592,-0.05034947395324707,0.12791091203689575,0.07534074783325195
0.3777624482564061,0.19941995469995127,-0.5281677022492857,0.46608343720436096,-0.46274080872535706,-0.8216503858566284,0.18413317203521729,-0.36884161829948425,-0.911071240901947,-0.027715355157852173,0.13884592056274414,0.06597846746444702
0.38091953541201257,0.19820838319292275,-0.5376442721749781,0.49320241808891296,-0.4755024015903473,-0.7752283215522766,0.18279899656772614,-0.37177425622940063,-0.910147488117218,-0.020903289318084717,0.1537719964981079,0.06465792655944824
0.38428544734226167,0.19682329248025526,-0.546693407463126,0.4901092052459717,-0.474193811416626,-0.737575352191925,0.18129244446754456,-0.3748967945575714,-0.9091674089431763,-0.016940072178840637,0.1548651158809662,0.07899779081344604
0.3874802460514687,0.19526383624640034,-0.5554692900926574,0.4435228109359741,-0.4962935149669647,-0.733919084072113,0.17964111268520355,-0.37785667181015015,-0.908269464969635,-0.016326338052749634,0.13295316696166992,0.10361242294311523
0.39003824900484596,0.19342217123372007,-0.5642052393744669,0.3644992411136627,-0.5336213707923889,-0.7528015971183777,0.17778171598911285,-0.3802237808704376,-0.9076472520828247,-0.028825461864471436,0.1061607301235199,0.11454117298126221
0.3917579795689794,0.19117324674200062,-0.5730990994665393,0.28392770886421204,-0.5899986624717712,-0.7934102416038513,0.17561553418636322,-0.38181379437446594,-0.907401442527771,-0.0483572781085968,0.08484727144241333,0.097098708152771
0.3927096812670465,0.18848086350624899,-0.5824176725949687,0.22860385477542877,-0.6638057231903076,-0.8610157370567322,0.17310366034507751,-0.38269323110580444,-0.9075136780738831,-0.0637897253036499,0.07290935516357422,0.06171894073486328
0.39307602565753125,0.18514482439343258,-0.592447529130294,0.1903962939977646,-0.7736248970031738,-0.9427965879440308,0.17004938423633575,-0.3830316662788391,-0.9079481959342957,-0.06926512718200684,0.067525714635849,0.018498122692108154
0.3930710731086471,0.18089997316593806,-0.6033573171283824,0.17552338540554047,-0.9056561589241028,-1.0327116250991821,0.1661940962076187,-0.3830270767211914,-0.9086636900901794,-0.0620223730802536,0.06630045175552368,-0.03382593393325806
0.39285038693947283,0.17584647713720966,-0.6150758588966017,0.16559618711471558,-0.9876549243927002,-1.095712423324585,0.16161485016345978,-0.38282322883605957,-0.9095751643180847,-0.04190970957279205,0.07371070981025696,-0.08693057298660278
0.39250729764648173,0.17054287695892872,-0.6271707194386591,0.1536693274974823,-0.9804428219795227,-1.1087642908096313,0.15681086480617523,-0.38250625133514404,-0.9105489253997803,-0.019832760095596313,0.09326067566871643,-0.13570046424865723
0.39222384546915634,0.16575577185691748,-0.6391917361470658,0.16200822591781616,-0.8809913396835327,-1.0813909769058228,0.15246807038784027,-0.3822443187236786,-0.9113960266113281,-0.0053276121616363525,0.11751961708068848,-0.18119430541992188
0.3922357603445034,0.1620421724351347,-0.6508395387756517,0.19074919819831848,-0.7490407824516296,-1.0328882932662964,0.1490817368030548,-0.38225534558296204,-0.91195148229599,0.003139898180961609,0.1393202245235443,-0.2118125557899475
0.3926963032622726,0.1594515526528457,-0.6619557502802969,0.22528506815433502,-0.6148768663406372,-0.9748057723045349,0.1466907560825348,-0.38268086314201355,-0.9121607542037964,0.015967905521392822,0.15112876892089844,-0.2094518542289734
0.3935726699519135,0.15792567737721078,-0.6725219485938988,0.24907702207565308,-0.4983057379722595,-0.923069417476654,0.14524593949317932,-0.3834903836250305,-0.9120519757270813,0.026567965745925903,0.1459568440914154,-0.19688057899475098
0.3945371758887737,0.1573574681839664,-0.6827778276209588,0.2321302592754364,-0.4022047519683838,-0.9195396304130554,0.14466965198516846,-0.384380966424942,-0.9117686152458191,0.023115962743759155,0.1279417872428894,-0.17021691799163818
0.39504754436989875,0.15788711245032214,-0.6931816181108369,0.16330569982528687,-0.2887456715106964,-0.9640737771987915,0.14512167870998383,-0.3848520815372467,-0.9114980101585388,-0.005427524447441101,0.10192367434501648,-0.12085062265396118
0.3945709050565129,0.15961795652471883,-0.7041404709600518,0.05647299438714981,-0.21163703501224518,-1.048987627029419,0.1467282474040985,-0.38441210985183716,-0.9114264249801636,-0.04107643663883209,0.08485159277915955,-0.06737911701202393
0.39287365527235957,0.16226874741457675,-0.7158950933109326,-0.03936561569571495,-0.15038539469242096,-1.1445531845092773,0.14924892783164978,-0.3828447163105011,-0.9116768836975098,-0.05531586706638336,0.06698781251907349,-0.03983074426651001
0.3901949188844955,0.16618308521525274,-0.7285373467771015,-0.10408655554056168,-0.02854364924132824,-1.2390016317367554,0.15298548340797424,-0.3803686797618866,-0.9120938181877136,-0.06927584111690521,0.06342843174934387,-0.022003471851348877
0.38666041516080824,0.17138202915165124,-0.7419279277515594,-0.17836318910121918,0.043323129415512085,-1.3089683055877686,0.15795361995697021,-0.377097487449646,-0.9126051068305969,-0.0627235472202301,0.08212986588478088,0.022849857807159424
0.3815683976066656,0.17745401914836698,-0.7553707869817693,-0.43067851662635803,0.10330923646688461,-1.300108551979065,0.16382883489131927,-0.37237653136253357,-0.9135074019432068,-0.00805191695690155,0.09344589710235596,0.1383761763572693
0.374074442428581,0.18034412551451248,-0.7679097153346806,-0.5806447863578796,-0.42580869793891907,-1.2414511442184448,0.16696414351463318,-0.3654111325740814,-0.9157497882843018,0.13567861914634705,0.06112039089202881,0.31235623359680176
0.3669226777840932,0.1794642420826669,-0.779732055683134,-0.3989943265914917,-0.5687850117683411,-1.1827231645584106,0.16662056744098663,-0.35874465107917786,-0.9184442758560181,0.19919359683990479,0.018473684787750244,0.09080755710601807
0.3623745535253216,0.1777125723521477,-0.791729219874769,-0.09178822487592697,-0.6337637305259705,-1.1716645956039429,0.1652982234954834,-0.3544955849647522,-0.9203311204910278,0.10459920763969421,0.009128183126449585,-0.08693206310272217
0.3611563387918204,0.17579894014220898,-0.8039817915990473,0.256391316652298,-0.5842002034187317,-1.1129895448684692,0.16361215710639954,-0.3533562123775482,-0.9210702776908875,0.08161178231239319,0.047692179679870605,-0.19443875551223755
0.3634740068006461,0.1751828323934605,-0.8161264283437604,0.575698733329773,-0.3887169063091278,-1.04221773147583,0.16290147602558136,-0.35552340745925903,-0.9203619956970215,0.04800546169281006,0.06418737769126892,-0.2612175941467285
0.36825410034080275,0.17640607892390384,-0.828171027315377,0.728043794631958,-0.24294054508209229,-0.9989567399024963,0.1637270599603653,-0.35998713970184326,-0.9184784889221191,0.01028411090373993,0.07312193512916565,-0.20179128646850586
0.3736988603966561,0.1783697995678166,-0.8398791661386507,0.7076097726821899,-0.22163663804531097,-0.9515249133110046,0.16518017649650574,-0.365061491727829,-0.9162126183509827,0.010036438703536987,0.07451891899108887,-0.044541776180267334
0.3783085372889935,0.18013446717306336,-0.8510049281876745,0.5481524467468262,-0.24309425055980682,-0.9197491407394409,0.1664934605360031,-0.3693491518497467,-0.9142544269561768,0.00013247132301330566,0.05112713575363159,0.09560513496398926
0.38086346689137385,0.1812784463450411,-0.8615663575567041,0.2985224425792694,-0.3197017014026642,-0.913122296333313,0.1673685610294342,-0.37172219157218933,-0.9131321310997009,-0.025187209248542786,0.037402182817459106,0.2087712287902832
0.3808234769996104,0.1811204493217329,-0.8716174636098837,0.030033189803361893,-0.45742443203926086,-0.9177525043487549,0.16722697019577026,-0.37168508768081665,-0.913173258304596,-0.030111536383628845,0.024440854787826538,0.27502012252807617
0.378388872622556,0.17938921834637916,-0.8812601388465379,-0.17953069508075714,-0.5987834334373474,-0.9291377663612366,0.16580677032470703,-0.3694237768650055,-0.9143490195274353,-0.021702826023101807,0.0008782744407653809,0.2755855917930603
0.37429820642967215,0.1762796544483915,-0.8907982594824291,-0.30149438977241516,-0.7105360627174377,-0.9574143886566162,0.1632263958454132,-0.365619421005249,-0.9163403511047363,-0.016238540410995483,-0.010982722043991089,0.23495906591415405
0.36930072818325277,0.17229618358589655,-0.9004856201365159,-0.3580770194530487,-0.7789958119392395,-0.9923637509346008,0.1598861664533615,-0.3609634041786194,-0.9187719225883484,-0.025288432836532593,-0.007124364376068115,0.1714269518852234
0.3641556509049877,0.16798057045643597,-0.9105658010017013,-0.32498830556869507,-0.7885922193527222,-1.031587839126587,0.15622806549072266,-0.356160432100296,-0.9212722778320312,-0.03739267587661743,0.0018666386604309082,0.09583276510238647
0.359626256151201,0.16398860888754485,-0.9211030951237831,-0.23799297213554382,-0.7538669109344482,-1.0531377792358398,0.1528109312057495,-0.35192441940307617,-0.9234706163406372,-0.04548066854476929,0.01603272557258606,0.022011876106262207
0.3560177664781298,0.16029520216182705,-0.9318463350432645,-0.15091480314731598,-0.7360868453979492,-1.037286400794983,0.14960086345672607,-0.34854447841644287,-0.9252763390541077,-0.04027169942855835,0.034381330013275146,-0.015412747859954834
0.3532610229384204,0.15652297242786514,-0.9422672049757829,-0.08833746612071991,-0.7389612197875977,-0.9704443216323853,0.14625868201255798,-0.34595930576324463,-0.9267796874046326,-0.02460041642189026,0.05028977990150452,-0.01761728525161743
0.3511496639538188,0.15234240980814914,-0.951967528014988,-0.049487270414829254,-0.7670575976371765,-0.889551043510437,0.14249348640441895,-0.34397754073143005,-0.9281029105186462,-0.01308375597000122,0.06289541721343994,-0.00776439905166626
0.3495567507485799,0.14753093976312853,-0.9609484134242148,-0.014120327308773994,-0.8075213432312012,-0.8217252492904663,0.13810668885707855,-0.342481404542923,-0.9293186068534851,-0.016768842935562134,0.06600743532180786,-0.011752009391784668
0.34842638343585497,0.1421101163751726,-0.9692726819113562,0.015743829309940338,-0.8372417092323303,-0.7546069622039795,0.13312174379825592,-0.34141916036605835,-0.9304361939430237,-0.025211647152900696,0.06538769602775574,-0.02465718984603882
0.34763931311655316,0.13620319273746995,-0.976926981386938,0.023060226812958717,-0.8627673387527466,-0.6890497803688049,0.1276598870754242,-0.3406792879104614,-0.9314722418785095,-0.03416934609413147,0.061443477869033813,-0.02931267023086548
0.3469142344493368,0.1297680835236219,-0.9839138194376795,0.004193327855318785,-0.8969628810882568,-0.6311507821083069,0.12169510126113892,-0.3399975001811981,-0.9325191974639893,-0.045538529753685,0.05772519111633301,-0.024191617965698242
0.34604463844823957,0.12274267950576645,-0.9903574174982106,-0.02397521585226059,-0.9394461512565613,-0.594265878200531,0.1151769831776619,-0.3391795754432678,-0.93364417552948,-0.07097233086824417,0.04904896020889282,-0.02555382251739502
0.344997204798867,0.11524398217027258,-0.9966299148147801,-0.04592552408576012,-0.9768263101577759,-0.6042042374610901,0.10821348428726196,-0.3381940424442291,-0.9348340034484863,-0.10914433002471924,0.037779033184051514,-0.04139280319213867
0.3437590758641322,0.10763337387930225,-1.0032068825830038,-0.06429979205131531,-0.9797559976577759,-0.655544102191925,0.10114067047834396,-0.3370286226272583,-0.9360460638999939,-0.15390563011169434,0.02956405282020569,-0.062321245670318604
0.34225276416199385,0.10033078804648446,-1.0104502800152708,-0.09366540610790253,-0.961817741394043,-0.7288231253623962,0.09435322135686874,-0.3356100618839264,-0.9372637867927551,-0.18538722395896912,0.020851820707321167,-0.07347840070724487
0.34051824617035165,0.09351535197453782,-1.0184654366949903,-0.10020822286605835,-0.926384449005127,-0.8026490211486816,0.08801744133234024,-0.333975613117218,-0.9384632110595703,-0.19661429524421692,0.010916560888290405,-0.09083366394042969
0.338873756099004,0.08750154321644116,-1.0272908777829481,-0.07624989002943039,-0.861761212348938,-0.8802396655082703,0.08242002874612808,-0.3324251174926758,-0.9395214319229126,-0.21005985140800476,0.007580786943435669,-0.1220325231552124
0.33752503499824704,0.08228332416323057,-1.0369237955739963,-0.03736155107617378,-0.8162810802459717,-0.943692147731781,0.07755307853221893,-0.3311527967453003,-0.9403846859931946,-0.2089618295431137,0.014990687370300293,-0.13471907377243042
0.336608825176891,0.07766360947860555,-1.0471716230502222,0.003593606175854802,-0.7807528972625732,-0.9896697402000427,0.07323147356510162,-0.3302881419658661,-0.9410350322723389,-0.1951797604560852,0.02811834216117859,-0.13101696968078613
0.33601987209487577,0.07344037224131165,-1.057770324049798,0.02577943727374077,-0.7598268389701843,-1.0077306032180786,0.06927087903022766,-0.32973217964172363,-0.9415297508239746,-0.18087372183799744,0.04575088620185852,-0.10973978042602539
0.3356109886838306,0.06946803959564489,-1.0685129656928654,0.030924130231142044,-0.7398603558540344,-1.0135506391525269,0.06553962081670761,-0.3293461203575134,-0.9419319033622742,-0.16850599646568298,0.0626530647277832,-0.08037644624710083
0.33520515058923134,0.06558828269737867,-1.079203744397228,0.022200025618076324,-0.7333004474639893,-0.9996933937072754,0.06189342588186264,-0.32896292209625244,-0.9423123598098755,-0.1591682732105255,0.06968560814857483,-0.05344569683074951
0.33473782263347146,0.061711377468425886,-1.0897067743110203,0.009910868480801582,-0.7273107171058655,-0.9814518094062805,0.05824919044971466,-0.3285215497016907,-0.94269859790802,-0.15262487530708313,0.06954941153526306,-0.03217017650604248
0.33419993767653816,0.057867340734616225,-1.1001095161819838,-0.0001445729285478592,-0.7192597389221191,-0.9870259165763855,0.05463521182537079,-0.32801347970962524,-0.9430918097496033,-0.16552087664604187,0.062205374240875244,-0.02065330743789673
0.33363138182890095,0.054240193771499745,-1.1107711863140786,-0.0012977216392755508,-0.6955717206001282,-1.0346705913543701,0.0512242317199707,-0.3274763226509094,-0.9434698224067688,-0.19485527276992798,0.04848465323448181,-0.0164453387260437
0.3329866056881167,0.05108241863118294,-1.1221796446887675,-0.017380407080054283,-0.6799812912940979,-1.126528024673462,0.04825548455119133,-0.3268670439720154,-0.943837583065033,-0.2290416806936264,0.03546997904777527,-0.012110292911529541
0.3320320953065054,0.04843192398674325,-1.1347385003984414,-0.05531394109129906,-0.6641600131988525,-1.2494581937789917,0.04576876759529114,-0.3259648084640503,-0.9442733526229858,-0.2612534463405609,0.02487841248512268,-0.0014206171035766602
0.3306050919544067,0.04642175767606029,-1.1486269451636935,-0.10961922258138657,-0.6386356949806213,-1.3808581829071045,0.04389207065105438,-0.3246154189109802,-0.944827139377594,-0.28002187609672546,0.019943207502365112,0.013842642307281494
0.32859461988003963,0.044957656788207866,-1.1638071418353146,-0.15879075229167938,-0.6364849209785461,-1.4956973791122437,0.04253794625401497,-0.322713166475296,-0.9455404281616211,-0.27471572160720825,0.02045181393623352,0.028761863708496094
0.32615769465114847,0.04365179670445657,-1.1799866948886784,-0.18577800691127777,-0.659869909286499,-1.5736382007598877,0.04133735969662666,-0.32040566205978394,-0.9463780522346497,-0.24481336772441864,0.027833670377731323,0.03144580125808716
0.3236143042123478,0.042171850471359004,-1.1967073604048977,-0.18052972853183746,-0.7037361860275269,-1.6013026237487793,0.03997095674276352,-0.3179953098297119,-0.9472493529319763,-0.2065817415714264,0.0343954861164093,0.01742452383041382
0.32122642134895646,0.04010385763393129,-1.2134979284789351,-0.16215628385543823,-0.7664234042167664,-1.5860569477081299,0.038042303174734116,-0.315730482339859,-0.9480859637260437,-0.1689170002937317,0.038554608821868896,0.00045412778854370117
0.3191475859993713,0.03733104608294653,-1.2300356745537502,-0.1324886679649353,-0.8223702907562256,-1.5596171617507935,0.03543771430850029,-0.3137573003768921,-0.9488416910171509,-0.15254898369312286,0.04108273983001709,-0.01905381679534912
0.31744143708353584,0.03384713431791603,-1.2463286086831797,-0.10259263217449188,-0.8897571563720703,-1.5379283428192139,0.032149896025657654,-0.31213685870170593,-0.9494929909706116,-0.16447417438030243,0.04017946124076843,-0.03674358129501343
0.3160131996314915,0.02960558708474883,-1.2625168849554391,-0.08667890727519989,-0.9572200775146484,-1.5378886461257935,0.02813546732068062,-0.3107796609401703,-0.9500654935836792,-0.1786177009344101,0.03378686308860779,-0.0496445894241333
0.3147813545703196,0.024845874160075283,-1.2788918462456558,-0.07178106904029846,-1.002150297164917,-1.574304461479187,0.02362261898815632,-0.3096085786819458,-0.9505706429481506,-0.19813744723796844,0.0208359956741333,-0.06804507970809937
0.31385640071436544,0.019952535045745366,-1.295836993403094,-0.041107580065727234,-1.0091874599456787,-1.6426807641983032,0.018976595252752304,-0.3087289333343506,-0.9509607553482056,-0.22493979334831238,0.012876302003860474,-0.10467278957366943
