attitudeX,attitudeY,attitudeZ,gyroX,gyroY,gyroZ,gravityX,gravityY,gravityZ,accX,accY,accZ
0.3376086553664855,0.08965305075296849,-2.2546473782023284,0.7992991209030151,-0.6712021231651306,-0.23783937096595764,0.08447881042957306,-0.3312316834926605,-0.9397600293159485,0.38303518295288086,-0.014975011348724365,-0.239271342754364
0.34424890643480355,0.08467629977119145,-2.2571949179384125,0.5432167053222656,-0.48839929699897766,-0.112099289894104,0.07961305975914001,-0.3374897539615631,-0.9379565119743347,0.4532696008682251,-0.019367575645446777,-0.11984372138977051
0.34799216115527964,0.08097115998897814,-2.2578861431691264,0.20531271398067474,-0.30415967106819153,0.04677610844373703,0.0760345458984375,-0.34101101756095886,-0.9369792938232422,0.4869537055492401,-0.006065458059310913,-0.04086488485336304
0.3484506543853679,0.07819522061636448,-2.25661334191108,-0.1300174742937088,-0.1698479801416397,0.194609135389328,0.07342103868722916,-0.3414419889450073,-0.9370307922363281,0.48018306493759155,0.02212125062942505,0.005344390869140625
0.3459542583893163,0.07594864271411957,-2.25360646836501,-0.3992422819137573,-0.0809338316321373,0.32828304171562195,0.07138019055128098,-0.3390945494174957,-0.9380403757095337,0.45767250657081604,0.03555139899253845,0.01601278781890869
0.341367417423608,0.07384258872829323,-2.249106636139914,-0.5652486681938171,-0.04339573532342911,0.4410468339920044,0.06951849162578583,-0.3347759246826172,-0.9397298693656921,0.4318852722644806,0.0394267737865448,-0.007459402084350586
0.33571669236383955,0.07165160647754072,-2.243530731605104,-0.6266049742698669,-0.025921404361724854,0.5180550813674927,0.06759374588727951,-0.3294459283351898,-0.9417517781257629,0.3879726231098175,0.04116159677505493,-0.049337029457092285
0.3298572495986809,0.06944993462565746,-2.237293227592953,-0.6161640286445618,-0.007763948757201433,0.568688690662384,0.06565298140048981,-0.3239079713821411,-0.9438078999519348,0.3443048596382141,0.039377301931381226,-0.08278816938400269
0.3244168899366808,0.06729379206235328,-2.230599227952878,-0.543732762336731,-0.000285525806248188,0.615683376789093,0.06373540312051773,-0.3187561333179474,-0.9456914663314819,0.3165440857410431,0.0370635986328125,-0.10054266452789307
0.32007213519198785,0.06516254035121986,-2.2236014927802183,-0.4007827043533325,0.02134329453110695,0.6464425921440125,0.06180934980511665,-0.3146350383758545,-0.9471981525421143,0.28773894906044006,0.027952879667282104,-0.12407559156417847
0.3173891207570063,0.06332684860809647,-2.216512410072558,-0.21883580088615417,0.05220293626189232,0.6577959060668945,0.060123689472675323,-0.31208714842796326,-0.9481491446495056,0.2654072642326355,0.02296358346939087,-0.13557583093643188
0.31655299841875023,0.06162267701406922,-2.209363255163295,-0.03108919784426689,0.04808858036994934,0.6855771541595459,0.058523841202259064,-0.3112926781177521,-0.9485102891921997,0.27121853828430176,0.025373458862304688,-0.11803323030471802
0.317526928127716,0.05977835766947674,-2.2019467672255004,0.1323050558567047,0.04261685162782669,0.7316737771034241,0.05675624683499336,-0.3122180700302124,-0.9483135342597961,0.29233428835868835,0.025322288274765015,-0.08376038074493408
0.3199448690718648,0.05766399212213708,-2.1940685660059276,0.2530389726161957,0.028441172093153,0.7883431315422058,0.054707374423742294,-0.3145142197608948,-0.9476749897003174,0.3177138566970825,0.018661558628082275,-0.04368847608566284
0.3232893660699452,0.05521369540099815,-2.18556839363782,0.31572631001472473,0.015620184130966663,0.8558524250984192,0.052326783537864685,-0.3176872432231903,-0.9467506408691406,0.33295759558677673,0.007781177759170532,-0.004436492919921875
0.3270475796572209,0.05243799866088225,-2.176407686873492,0.33152294158935547,0.014230788685381413,0.9120018482208252,0.049635764211416245,-0.32124850153923035,-0.9456932544708252,0.3383799195289612,-0.000727236270904541,0.035201311111450195
0.33072283450436424,0.04958006913904258,-2.1666974831201022,0.3013455867767334,0.04511040821671486,0.9516658782958984,0.04687400907278061,-0.32472679018974304,-0.9446456432342529,0.3302927017211914,-0.005580276250839233,0.06818079948425293
0.3339110680814923,0.04702174308804139,-2.156634169395398,0.23630115389823914,0.1030525341629982,0.9694444537162781,0.04440825805068016,-0.3277405798435211,-0.9437234997749329,0.31011441349983215,-0.006945759057998657,0.09167271852493286
0.33631945173056726,0.04511237113776576,-2.14639254926791,0.15160544216632843,0.18730616569519043,0.9796675443649292,0.04257053881883621,-0.3300149738788605,-0.9430152773857117,0.2935347557067871,-0.005876779556274414,0.10773396492004395
0.3378362470065293,0.044100011080787024,-2.1360296686679856,0.06412597000598907,0.29376551508903503,0.9805470705032349,0.041593730449676514,-0.33144643902778625,-0.9425567388534546,0.2704331874847412,-0.008412599563598633,0.11102908849716187
0.3385641396547091,0.04414087418574698,-2.1256507356442182,-0.0033281720243394375,0.4039759039878845,0.9731283187866211,0.04162158817052841,-0.33213308453559875,-0.9423137903213501,0.2386365532875061,-0.013722658157348633,0.1062694787979126
0.3387753016221946,0.0453600714063754,-2.115379298991085,-0.03742970898747444,0.5179021954536438,0.9588615298271179,0.0427672453224659,-0.3323322534561157,-0.9421922564506531,0.21371769905090332,-0.018970876932144165,0.10100573301315308
0.3387825031055937,0.04768408890710688,-2.105326568067991,-0.045399751514196396,0.6050751805305481,0.932032585144043,0.04495668411254883,-0.3323390483856201,-0.9420879483222961,0.1964525729417801,-0.02593734860420227,0.10117608308792114
0.33882878267069494,0.0507864838744534,-2.095531224094514,-0.03341779112815857,0.6561015248298645,0.9111533164978027,0.047878410667181015,-0.3323826789855957,-0.9419285655021667,0.1886022537946701,-0.032531291246414185,0.11317795515060425
0.3391054622977445,0.054137988691304366,-2.0859393368953527,-0.003300101961940527,0.6403454542160034,0.8907228708267212,0.05103003606200218,-0.33264362812042236,-0.9416709542274475,0.18754108250141144,-0.039319902658462524,0.1258140206336975
0.3397528648073385,0.057174021655026525,-2.076668552273765,0.033856071531772614,0.5741137862205505,0.8537033796310425,0.053876422345638275,-0.3332540988922119,-0.9412964582443237,0.17769090831279755,-0.047086477279663086,0.1333436369895935
0.3407772554119847,0.05958985605382146,-2.0678781793044396,0.06991580128669739,0.4902268946170807,0.8100792169570923,0.05612991750240326,-0.334219753742218,-0.9408223032951355,0.16385599970817566,-0.05243799090385437,0.133983314037323
0.3420669577183233,0.06127625057722602,-2.0595269483028447,0.08861299604177475,0.4014917016029358,0.7752987146377563,0.05768999084830284,-0.33543500304222107,-0.9402952790260315,0.15712319314479828,-0.05554097890853882,0.133791983127594
0.3434515965690973,0.062307386736683956,-2.051509674671162,0.09149479866027832,0.3415713906288147,0.7442603707313538,0.058630555868148804,-0.33673909306526184,-0.9397708177566528,0.14905676245689392,-0.06034037470817566,0.1269809603691101
0.344769879711293,0.06301777843718849,-2.0438593729508177,0.0771370455622673,0.31426069140434265,0.7060618996620178,0.059270139783620834,-0.33798012137413025,-0.9392850995063782,0.13526411354541779,-0.059877604246139526,0.12031537294387817
0.34581128613077616,0.06364069753163576,-2.0366288449192664,0.044534098356962204,0.29828518629074097,0.662723183631897,0.05983281135559082,-0.33896005153656006,-0.9388962388038635,0.1237608939409256,-0.05671563744544983,0.11629492044448853
0.34647511757221044,0.06429482640220222,-2.0297854381141764,0.005220924504101276,0.29310640692710876,0.6299757361412048,0.06043248623609543,-0.33958449959754944,-0.9386321306228638,0.1256178766489029,-0.05776962637901306,0.11101073026657104
0.34673739711675455,0.06502426982603837,-2.023200741114468,-0.03316934034228325,0.2964633107185364,0.6055036783218384,0.06111135706305504,-0.3398311734199524,-0.9384989142417908,0.13055424392223358,-0.058530062437057495,0.10112708806991577
0.3466383869134645,0.06580251883187159,-2.0168002794588125,-0.0699222981929779,0.28879842162132263,0.5919355154037476,0.06184393912553787,-0.33973807096481323,-0.9384846091270447,0.13226306438446045,-0.05464059114456177,0.09479570388793945
0.34614591435201086,0.06646867164339072,-2.0104893324760225,-0.10525765269994736,0.2672254741191864,0.5854679942131042,0.06248020380735397,-0.3392748534679413,-0.9386100172996521,0.13481588661670685,-0.054386675357818604,0.0878257155418396
0.3453880366525471,0.06683440584936212,-2.0042004180000075,-0.12390948832035065,0.230880007147789,0.5829452276229858,0.06284063309431076,-0.3385618329048157,-0.9388434290885925,0.12540699541568756,-0.061966150999069214,0.06779545545578003
0.3446020940234586,0.066854131128895,-1.998047716346776,-0.1083824634552002,0.1880425214767456,0.5560915470123291,0.06287690997123718,-0.33782219886779785,-0.939107358455658,0.09785911440849304,-0.06894662976264954,0.032872676849365234
0.34403340359647483,0.06660612129553128,-1.992352208911691,-0.07916192710399628,0.14433157444000244,0.497516393661499,0.06265677511692047,-0.33728688955307007,-0.9393144845962524,0.06109195202589035,-0.06922256946563721,-0.0017865896224975586
0.3436616948749234,0.06613541718704316,-1.9873549373948125,-0.06013071537017822,0.09786740690469742,0.433938205242157,0.0622229129076004,-0.33693692088127136,-0.9394689202308655,0.03425835818052292,-0.06797033548355103,-0.02241462469100952
0.34336468856603974,0.06547003679024212,-1.983007707417776,-0.0566416010260582,0.06470123678445816,0.37852397561073303,0.0616043396294117,-0.3366572856903076,-0.9396098852157593,0.021281350404024124,-0.06818893551826477,-0.029262125492095947
0.3429810184730389,0.0647285687146668,-1.9791712387502378,-0.06728439033031464,0.04584605246782303,0.33542975783348083,0.060915980488061905,-0.3362959623336792,-0.9397841691970825,0.019955549389123917,-0.0642930269241333,-0.03081214427947998
0.3424272406771841,0.06398232202725523,-1.9757065638193687,-0.08990561217069626,0.03985601291060448,0.3101502060890198,0.060226552188396454,-0.33577439188957214,-0.9400150775909424,0.027053669095039368,-0.057169973850250244,-0.029391050338745117
0.3415637058351231,0.06329671223744751,-1.97238754104435,-0.1235133707523346,0.044054221361875534,0.30291467905044556,0.05960037559270859,-0.3349608778953552,-0.9403451681137085,0.036011144518852234,-0.04695138335227966,-0.022026658058166504
0.34029226342817476,0.06264657256024962,-1.9690303430271356,-0.16971971094608307,0.04405772313475609,0.31446659564971924,0.05901562049984932,-0.33376261591911316,-0.9408079981803894,0.0485282763838768,-0.03971153497695923,-0.011462509632110596
0.3385978889681624,0.061755959687710256,-1.9654240156190754,-0.20826897025108337,0.01536642201244831,0.3413616120815277,0.0582125186920166,-0.3321649134159088,-0.941423237323761,0.05807466059923172,-0.034885287284851074,-0.007810711860656738
0.3366684407483879,0.060410610374377754,-1.961486807896653,-0.21896882355213165,-0.02661726251244545,0.37325114011764526,0.05698451027274132,-0.33034440875053406,-0.9421387314796448,0.059363704174757004,-0.03122788667678833,-0.016418397426605225
0.3348286360888776,0.0584252002842844,-1.9572136163595701,-0.19399023056030273,-0.0932045429944992,0.4074629247188568,0.05514926463365555,-0.32860732078552246,-0.9428551197052002,0.05137228965759277,-0.02608323097229004,-0.030548810958862305
0.33341595856572415,0.05557549542651705,-1.9526548760817883,-0.13273879885673523,-0.17785391211509705,0.4315412938594818,0.05248791724443436,-0.32727277278900146,-0.9434710144996643,0.034807559102773666,-0.023282676935195923,-0.04906743764877319
0.33274745070286005,0.05182134447779983,-1.9480003499848326,-0.049338970333337784,-0.26850444078445435,0.43238896131515503,0.04895694553852081,-0.3266409933567047,-0.9438796639442444,0.0044792816042900085,-0.025608152151107788,-0.07200467586517334
0.3328605094053503,0.04714801499017788,-1.9435421741612262,0.024301907047629356,-0.3766355514526367,0.40646126866340637,0.04454362764954567,-0.326747864484787,-0.944061279296875,-0.02678244560956955,-0.0284920334815979,-0.0828704833984375
0.3335184478791232,0.04140202478553318,-1.9394377573586636,0.06922304630279541,-0.5001047849655151,0.37112298607826233,0.03910944610834122,-0.3273696303367615,-0.9440866708755493,-0.041276246309280396,-0.0312119722366333,-0.07521569728851318
0.334374317269391,0.03453837158995184,-1.9356622274016289,0.06868840754032135,-0.6184644103050232,0.3477320075035095,0.03261900693178177,-0.32817819714546204,-0.9440524578094482,-0.043162886053323746,-0.033714503049850464,-0.06549948453903198
0.3350631625024537,0.026703996604259067,-1.9321291042718893,0.04336787015199661,-0.7082939147949219,0.3223606050014496,0.025215977802872658,-0.3288288116455078,-0.9440528154373169,-0.047066621482372284,-0.026716232299804688,-0.06684190034866333
0.33547899633785466,0.018175548119097322,-1.928823071511122,0.02851446345448494,-0.7737115025520325,0.3012731969356537,0.01716136559844017,-0.3292214870452881,-0.9440967440605164,-0.05565934628248215,-0.015306711196899414,-0.08689379692077637
0.3358322563721426,0.00921420419562198,-1.9257415588650464,0.03651593253016472,-0.8115329146385193,0.2818142771720886,0.008699342608451843,-0.32955503463745117,-0.9440962672233582,-0.06002996116876602,-0.007786273956298828,-0.12670445442199707
0.33645047232663855,-9.735372079964535e-05,-1.9227389107401236,0.08745253831148148,-0.8467792868614197,0.2884886562824249,-9.189533739117905e-05,-0.3301386535167694,-0.9439324736595154,-0.04913301020860672,-0.0013127923011779785,-0.16655641794204712
0.33776201682086876,-0.009786074175292018,-1.919451546113538,0.18239423632621765,-0.8651551008224487,0.33672595024108887,-0.009233000688254833,-0.33137640357017517,-0.9434534907341003,-0.02200179174542427,0.0065777599811553955,-0.19599658250808716
0.3401235126770709,-0.019880111477354735,-1.9152969517371496,0.30213800072669983,-0.8766186237335205,0.44160082936286926,-0.018740015104413033,-0.33360353112220764,-0.942527174949646,0.011888766661286354,0.011612564325332642,-0.21566063165664673
0.3436684835368916,-0.030698740560514505,-1.9098341792779867,0.42785945534706116,-0.9197253584861755,0.5664852261543274,-0.028899090364575386,-0.3369433283805847,-0.9410813450813293,0.03367504104971886,0.015577942132949829,-0.21513813734054565
0.3481739423234469,-0.04251588875388041,-1.9030756290677817,0.5072088241577148,-0.9775964021682739,0.6586434841156006,-0.039952781051397324,-0.3411818742752075,-0.9391478896141052,0.023534271866083145,0.019297689199447632,-0.19618231058120728
0.3530887165902847,-0.05510533410445927,-1.8956190263259378,0.5290677547454834,-1.0177456140518188,0.6757399439811707,-0.05167967453598976,-0.3457976281642914,-0.9368848204612732,-0.029924381524324417,0.014880239963531494,-0.17557239532470703
0.35779706033975467,-0.06782413004534943,-1.8884155305623966,0.47838926315307617,-1.014494776725769,0.5952392816543579,-0.06348017603158951,-0.35021165013313293,-0.9345170259475708,-0.11155344545841217,-0.006203174591064453,-0.1624220609664917
0.36162453542380424,-0.07983770483489515,-1.8825692705037582,0.3526606261730194,-0.9632246494293213,0.42434266209602356,-0.07459475845098495,-0.3537941575050354,-0.9323439598083496,-0.19107607007026672,-0.04346844553947449,-0.15746921300888062
0.3640283422545316,-0.0902459725465115,-1.8790595041554805,0.17258258163928986,-0.8581621646881104,0.1837264597415924,-0.08421774208545685,-0.35604149103164673,-0.9306674003601074,-0.25318464636802673,-0.07317304611206055,-0.1540951132774353
0.36468838591475805,-0.09836418105653601,-1.8783349009683918,-0.031461358070373535,-0.7052775621414185,-0.05895089730620384,-0.09174713492393494,-0.3566581904888153,-0.9297189712524414,-0.27672216296195984,-0.08467176556587219,-0.1524496078491211
0.363586539300216,-0.10386258074324224,-1.8801749727287909,-0.21823446452617645,-0.5227082371711731,-0.25227510929107666,-0.09689837694168091,-0.3556285798549652,-0.9295907616615295,-0.261454313993454,-0.08156624436378479,-0.15564477443695068
0.3609919000037179,-0.10699817999743026,-1.8838849000781948,-0.3646896779537201,-0.3664107918739319,-0.3722531795501709,-0.0999109223484993,-0.35320237278938293,-0.9301967024803162,-0.2268408238887787,-0.05544328689575195,-0.16170698404312134
0.3573145365458064,-0.10827294326911682,-1.8886344167218738,-0.45705875754356384,-0.22249829769134521,-0.4230906367301941,-0.10123629868030548,-0.34975963830947876,-0.9313535094261169,-0.1854458749294281,-0.013140171766281128,-0.16215229034423828
0.3530020515808394,-0.10803954957229482,-1.8935770662472649,-0.4920947849750519,-0.07585026323795319,-0.3937321901321411,-0.10118062794208527,-0.34571629762649536,-0.9328680038452148,-0.13780257105827332,0.026487141847610474,-0.15783023834228516
0.3485738947708259,-0.10662495828472722,-1.8979336018089494,-0.46568363904953003,0.055911626666784286,-0.31567683815956116,-0.10002283751964569,-0.3415578007698059,-0.9345232248306274,-0.09487773478031158,0.04776504635810852,-0.14943057298660278
0.3446197027181188,-0.10438212047719204,-1.90126009583937,-0.3780834972858429,0.15894798934459686,-0.22265982627868652,-0.09806656092405319,-0.3378387689590454,-0.9360811710357666,-0.06442433595657349,0.05277404189109802,-0.1329038143157959
0.3416675427509433,-0.10169790756499045,-1.9035473840580446,-0.24812287092208862,0.21724405884742737,-0.14614200592041016,-0.09565440565347672,-0.33505871891975403,-0.937329113483429,-0.04428400099277496,0.04953619837760925,-0.10129082202911377
0.3400197042018481,-0.09897734570162497,-1.904969951642874,-0.10775592923164368,0.22431954741477966,-0.08799293637275696,-0.09315842390060425,-0.33350566029548645,-0.9381340146064758,-0.025280341506004333,0.03512004017829895,-0.048636555671691895
0.3396630003357885,-0.09660491082219151,-1.9056399449903554,0.019701864570379257,0.20434464514255524,-0.02878737449645996,-0.09094396978616714,-0.3331693708896637,-0.9384707808494568,-0.0036453083157539368,0.014565825462341309,0.013772904872894287
0.3403353635948657,-0.09471986011806127,-1.9055312747577717,0.11067571491003036,0.17942970991134644,0.0384497195482254,-0.08915354311466217,-0.3338032364845276,-0.9384173154830933,0.017467699944972992,0.002595961093902588,0.07904231548309326
0.34167043560213356,-0.09329922399086765,-1.9046190468996773,0.16465400159358978,0.1621851623058319,0.10945910960435867,-0.08777870237827301,-0.3350614309310913,-0.9380984902381897,0.03000888228416443,-0.0008760690689086914,0.1456790566444397
0.34330987344095454,-0.0923396220956329,-1.9028861182330457,0.18687967956066132,0.14314115047454834,0.18492324650287628,-0.08682769536972046,-0.33660566806793213,-0.9376340508460999,0.03827417641878128,-0.003161817789077759,0.20464760065078735
0.3449875156782601,-0.09196634082524212,-1.9002959963579502,0.18919061124324799,0.10262060910463333,0.26573461294174194,-0.08642570674419403,-0.3381849229335785,-0.937102735042572,0.04563891142606735,-0.011775404214859009,0.2497553825378418
0.3466154326851075,-0.09231717716633894,-1.8969383085293237,0.1909152865409851,0.05144743621349335,0.327147901058197,-0.08670360594987869,-0.33971649408340454,-0.936522901058197,0.048632875084877014,-0.024327725172042847,0.2782740592956543
0.3482045547160424,-0.09348384595573915,-1.8930145342507114,0.191954106092453,-0.015043394640088081,0.3735094964504242,-0.08774565160274506,-0.34121066331863403,-0.9358824491500854,0.04042809456586838,-0.03616970777511597,0.2930755019187927
0.34980728927085125,-0.09544496401522704,-1.8886909288430775,0.1981680542230606,-0.07982265204191208,0.40092408657073975,-0.0895286276936531,-0.342716783285141,-0.9351630210876465,0.03345252573490143,-0.046763837337493896,0.2983832359313965
0.3514871849571049,-0.09812859411700953,-1.8842075908095182,0.21497921645641327,-0.14831753075122833,0.39962735772132874,-0.09198139607906342,-0.3442944586277008,-0.9343450665473938,0.026460111141204834,-0.06067383289337158,0.2959479093551636
0.3533380740216273,-0.10144240831224889,-1.8798550122225082,0.2318524718284607,-0.2106139212846756,0.3725169003009796,-0.09501243382692337,-0.3460315763950348,-0.9333996176719666,0.017070502042770386,-0.07634696364402771,0.28461116552352905
0.35545074864517484,-0.10510667936718066,-1.8759516596724808,0.26190266013145447,-0.24678771197795868,0.3061787784099579,-0.09835509955883026,-0.3480129837989807,-0.9323160648345947,0.0012481212615966797,-0.08724397420883179,0.266651451587677
0.35791404524594445,-0.10869358818053582,-1.8728169977137505,0.2874133586883545,-0.24753525853157043,0.22262157499790192,-0.10160528868436813,-0.3503212332725525,-0.9311022758483887,-0.009875476360321045,-0.0901695191860199,0.25170469284057617
0.36067374606596325,-0.11179771842381077,-1.8705650242643848,0.30071157217025757,-0.21204663813114166,0.13232600688934326,-0.10438680648803711,-0.35290470719337463,-0.9298180937767029,-0.014738619327545166,-0.08612117171287537,0.24695676565170288
0.36348544098130203,-0.1141127559550432,-1.86925378968365,0.274565726518631,-0.15968170762062073,0.04492690786719322,-0.1064256802201271,-0.3555341064929962,-0.9285844564437866,-0.012974396347999573,-0.07920408248901367,0.2561753988265991
0.36592047745321993,-0.11564812191392379,-1.868934661292597,0.20754437148571014,-0.12795770168304443,-0.03960862010717392,-0.10775105655193329,-0.3578089773654938,-0.9275572299957275,0.001397252082824707,-0.07106980681419373,0.2774108052253723
0.3675840796002688,-0.11660665172876218,-1.8695239751550388,0.1051170602440834,-0.10960133373737335,-0.10562411695718765,-0.10857069492340088,-0.3593619465827942,-0.926861047744751,0.019993387162685394,-0.07069176435470581,0.29352980852127075
0.36820478030249104,-0.11723693142748562,-1.8709116934727494,-0.015689559280872345,-0.11954236030578613,-0.1627553403377533,-0.10912873595952988,-0.35994112491607666,-0.92657071352005,0.037687040865421295,-0.07148587703704834,0.2978171110153198
0.3676340382228635,-0.11784671196202026,-1.8730062449580114,-0.14572131633758545,-0.1534057855606079,-0.2059486210346222,-0.10971786081790924,-0.35940855741500854,-0.9267078638076782,0.052878834307193756,-0.06788331270217896,0.288921058177948
0.36586069246032243,-0.11851659699122405,-1.8756397940635967,-0.26372116804122925,-0.16676241159439087,-0.2360624521970749,-0.1104138121008873,-0.3577531576156616,-0.9272655844688416,0.06503412872552872,-0.06151258945465088,0.26028871536254883
0.36304802326074676,-0.11910754335898163,-1.8786946088715513,-0.3607446551322937,-0.1682140976190567,-0.2603994905948639,-0.11108088493347168,-0.35512521862983704,-0.928195595741272,0.071514792740345,-0.052269190549850464,0.21669358015060425
0.35940619617874836,-0.11965799912213197,-1.8820998874306847,-0.43566054105758667,-0.17474515736103058,-0.2833167612552643,-0.1117454469203949,-0.3517184257507324,-0.9294122457504272,0.07179788500070572,-0.045940905809402466,0.16895997524261475
0.35515474324659047,-0.12008764761828478,-1.8858164863393931,-0.48753759264945984,-0.16719083487987518,-0.30391284823417664,-0.11232287436723709,-0.3477354645729065,-0.930840253829956,0.07055952399969101,-0.042782723903656006,0.11960679292678833
0.3505250180643285,-0.12027007589984773,-1.8897748558402772,-0.5144816040992737,-0.13911211490631104,-0.3190469443798065,-0.11268463730812073,-0.34339094161987305,-0.9324080944061279,0.07180629670619965,-0.03688862919807434,0.07391810417175293
0.34575980871525225,-0.12009548197835682,-1.8938356419643898,-0.5164927840232849,-0.0993010625243187,-0.3228648602962494,-0.11271660774946213,-0.33891162276268005,-0.9340416789054871,0.06936635076999664,-0.029588133096694946,0.028173208236694336
0.34117837877653284,-0.1193486130759433,-1.897875004178728,-0.47989049553871155,-0.023235879838466644,-0.3179711699485779,-0.11220266669988632,-0.33459779620170593,-0.9356574416160583,0.06628891825675964,-0.023449748754501343,-0.019954681396484375
0.33717027809915656,-0.11782791046821525,-1.9016328574037855,-0.3937326967716217,0.08402479439973831,-0.2849296033382416,-0.11093644797801971,-0.3308180272579193,-0.937151312828064,0.07021069526672363,-0.017280757427215576,-0.06747210025787354
0.3341644622860756,-0.11521648866767449,-1.9047153198450917,-0.26974964141845703,0.23493607342243195,-0.2181764543056488,-0.1086025983095169,-0.3279799520969391,-0.938421368598938,0.08174707740545273,-0.005180448293685913,-0.10715663433074951
0.3323750569974827,-0.11135943171927568,-1.9067239988962914,-0.12753893435001373,0.40181586146354675,-0.11320023983716965,-0.105047307908535,-0.32628902792930603,-0.9394149780273438,0.10069850832223892,0.006998836994171143,-0.12235254049301147
0.33186670570605575,-0.1062947421257601,-1.9072992084464027,0.010939307510852814,0.5679364204406738,0.020598307251930237,-0.1003057211637497,-0.32580843567848206,-0.9400997757911682,0.11535084247589111,0.015581995248794556,-0.11632716655731201
0.33248340872247656,-0.10028328841212536,-1.906285804931957,0.1257079690694809,0.6903076171875,0.1546543687582016,-0.09463243931531906,-0.32639142870903015,-0.9404857158660889,0.12057233601808548,0.018728435039520264,-0.09180188179016113
0.3339978542800679,-0.09377271393046267,-1.9038074383435106,0.2137966901063919,0.760148286819458,0.2780414819717407,-0.08846098929643631,-0.32782256603240967,-0.940588653087616,0.11397363245487213,0.01588711142539978,-0.05326205492019653
0.3361808333997033,-0.08719807210875252,-1.9001837487242554,0.27678871154785156,0.7832791805267334,0.3585991859436035,-0.08221257477998734,-0.3298841416835785,-0.9404347538948059,0.09496887773275375,-0.002208143472671509,-0.014124512672424316
0.33881034063829524,-0.08084558411437053,-1.8959220416309652,0.3052360713481903,0.7564182877540588,0.3918333947658539,-0.0761665403842926,-0.3323653042316437,-0.9400702118873596,0.06354746967554092,-0.02968001365661621,0.01407533884048462
0.34155050939220966,-0.07509074199886899,-1.8914705674947145,0.2985592484474182,0.6808103322982788,0.3966270983219147,-0.07068676501512527,-0.33494845032691956,-0.9395812749862671,0.037147894501686096,-0.05451691150665283,0.03833615779876709
0.3440974800893257,-0.0702098465374079,-1.8871410578568713,0.2617531716823578,0.57914137840271,0.3752468526363373,-0.06603988260030746,-0.33734720945358276,-0.9390610456466675,0.017654210329055786,-0.08086571097373962,0.04671180248260498
0.3462739785130161,-0.06629172895414795,-1.8832104052707668,0.2172379046678543,0.4667554199695587,0.32959121465682983,-0.06231124326586723,-0.33939531445503235,-0.9385777115821838,0.009286906570196152,-0.10635969042778015,0.03809559345245361
0.3480012627660606,-0.06331714474039275,-1.8797808534293918,0.16766943037509918,0.35720038414001465,0.28736430406570435,-0.0594819113612175,-0.34101957082748413,-0.938172459602356,0.007373098284006119,-0.12296968698501587,0.016251742839813232
0.3492777747255666,-0.06131829110443747,-1.8768087083043317,0.12175839394330978,0.247508242726326,0.2540798485279083,-0.057579800486564636,-0.3422192931175232,-0.9378542304039001,0.010613195598125458,-0.12059509754180908,-0.012417376041412354
0.35018713059792167,-0.060185282148904735,-1.8741869610780584,0.09006713330745697,0.15745165944099426,0.225312739610672,-0.05649842694401741,-0.3430735766887665,-0.9376078248023987,0.007731284946203232,-0.10585525631904602,-0.06004232168197632
0.3508268351769313,-0.059830467403784594,-1.8718900449075473,0.061387013643980026,0.06862165033817291,0.19299767911434174,-0.05615261197090149,-0.3436743915081024,-0.9374085664749146,-0.0002286657691001892,-0.08573845028877258,-0.11817920207977295
0.35117930049889695,-0.06007774635694356,-1.870071935340799,0.02456672117114067,0.011068323627114296,0.14234544336795807,-0.05637713521718979,-0.34400537610054016,-0.9372736811637878,-0.022404048591852188,-0.06978249549865723,-0.17489367723464966
0.35106115022117573,-0.06063509428588005,-1.868904506720218,-0.04181789606809616,-0.04078102484345436,0.0760796070098877,-0.056901976466178894,-0.34389442205429077,-0.9372826814651489,-0.04440117999911308,-0.056023210287094116,-0.22154605388641357
0.35019955833920996,-0.06133749434040243,-1.8684962186082892,-0.1298326998949051,-0.0659087523818016,0.01406257227063179,-0.057578448206186295,-0.34308525919914246,-0.9375378489494324,-0.047493621706962585,-0.04950815439224243,-0.2595904469490051
0.34844363067397555,-0.0619411336696564,-1.8687148589728535,-0.22218021750450134,-0.06911519169807434,-0.029144287109375,-0.05818157643079758,-0.34143537282943726,-0.9381027817726135,-0.0236513614654541,-0.053263723850250244,-0.288902223110199
0.34589116104548423,-0.06246517170777957,-1.8692580320421033,-0.2870270609855652,-0.06785211712121964,-0.03565603122115135,-0.05872737988829613,-0.33903518319129944,-0.9389388561248779,0.013103552162647247,-0.05278000235557556,-0.3126022219657898
0.3428731806306374,-0.06284918203615539,-1.8697545853419133,-0.3141193985939026,-0.03351730853319168,-0.01670124940574169,-0.05915193632245064,-0.3361944258213043,-0.939933180809021,0.04119228571653366,-0.028109192848205566,-0.334602952003479
0.3397611136959486,-0.06275289150070895,-1.8699647964270978,-0.3010993003845215,0.044122662395238876,0.019171491265296936,-0.059126753360033035,-0.3332618772983551,-0.9409785270690918,0.047514766454696655,0.011591315269470215,-0.3522038459777832
0.33690988740054845,-0.061674181533696984,-1.8696411745501509,-0.2554399371147156,0.20504097640514374,0.08229666203260422,-0.058170005679130554,-0.3305722773075104,-0.9419863224029541,0.039767857640981674,0.044317394495010376,-0.3630216121673584
0.3347347105930364,-0.05871168367551125,-1.8684382770591819,-0.15802179276943207,0.4743070602416992,0.1725434511899948,-0.05542118474841118,-0.3285186290740967,-0.9428700804710388,0.0294964499771595,0.06286311149597168,-0.3673563003540039
0.33372963606206424,-0.05301196468965317,-1.8661022107133263,-0.016881713643670082,0.8250224590301514,0.2784866392612457,-0.050063688308000565,-0.3275691568851471,-0.9434999227523804,0.022399455308914185,0.07096207141876221,-0.34971296787261963
0.33420234903353335,-0.044161288400739206,-1.8625748446102977,0.1423494964838028,1.159477949142456,0.3809308409690857,-0.041704386472702026,-0.3280157446861267,-0.9437512159347534,0.02618613839149475,0.07665771245956421,-0.2865343689918518
0.3362171704157582,-0.032670013665289536,-1.858058136741278,0.289126455783844,1.4101269245147705,0.45240768790245056,-0.030835315585136414,-0.32991844415664673,-0.9435057044029236,0.041989438235759735,0.06958821415901184,-0.18001419305801392
0.33961822018702,-0.01954988518834217,-1.852786517892475,0.40479913353919983,1.5355664491653442,0.5234175324440002,-0.01843205839395523,-0.33312714099884033,-0.9427017569541931,0.05952392518520355,0.05749237537384033,-0.057145655155181885
0.34392046367447343,-0.006132491843018033,-1.8466882501318098,0.45921948552131653,1.5294816493988037,0.609589695930481,-0.0057733370922505856,-0.33718055486679077,-0.9414222836494446,0.07701656967401505,0.05522865056991577,0.06507956981658936
0.34846706571313496,0.006277767244461614,-1.83982219129227,0.43637239933013916,1.3945497274398804,0.6718260645866394,0.0059004174545407295,-0.34145739674568176,-0.9398787021636963,0.08653727173805237,0.05712512135505676,0.17718344926834106
0.35257843751696727,0.01660771615578551,-1.832449027162821,0.35861796140670776,1.1569100618362427,0.714668333530426,0.015585383400321007,-0.3453187644481659,-0.9383560419082642,0.09183643758296967,0.044979989528656006,0.26242220401763916
0.3558293981637661,0.02401167426227398,-1.8246759454201038,0.2584827244281769,0.8519595861434937,0.751244068145752,0.022505369037389755,-0.34836792945861816,-0.9370876550674438,0.12059149891138077,0.005823373794555664,0.31208765506744385
0.3581079347640808,0.027989168438441025,-1.8165554178758396,0.1581001728773117,0.5023533701896667,0.7719325423240662,0.026210159063339233,-0.3505028188228607,-0.9361948370933533,0.1527906358242035,-0.03903880715370178,0.32611793279647827
0.3595280828471144,0.028368112638785904,-1.808421483426723,0.08156763017177582,0.14465808868408203,0.7491777539253235,0.0265507772564888,-0.3518325388431549,-0.9356863498687744,0.16993659734725952,-0.07425391674041748,0.3109915256500244
0.36027200831581707,0.025374227526939117,-1.8006700447412491,0.03078593872487545,-0.19362302124500275,0.6971023082733154,0.0237426795065403,-0.35252878069877625,-0.9354997277259827,0.17222589254379272,-0.09049490094184875,0.27502304315567017
0.3605432419171867,0.019385073183446348,-1.7934531250781005,-0.010593459010124207,-0.4823320806026459,0.6525713205337524,0.018137579783797264,-0.35278260707855225,-0.9355295300483704,0.1704152226448059,-0.08734193444252014,0.22566014528274536
0.36013903267556785,0.010945536338143595,-1.7865397239310385,-0.10083574056625366,-0.7132017612457275,0.6409083008766174,0.010243152268230915,-0.3524043560028076,-0.9357917904853821,0.15623018145561218,-0.05367782711982727,0.16716080904006958
0.3584454354835284,0.00011268037041209501,-1.7796534499718089,-0.24982979893684387,-0.961923360824585,0.643478512763977,0.00010551878222031519,-0.3508189022541046,-0.9364433288574219,0.1326306313276291,-0.007564276456832886,0.10967636108398438
0.35510530371949445,-0.012934600840094233,-1.7728110727511144,-0.4076465964317322,-1.1549128293991089,0.6407256126403809,-0.012127271853387356,-0.34768909215927124,-0.9375314712524414,0.09797316044569016,0.01271289587020874,0.035843849182128906
0.35035199628203867,-0.02751259215676535,-1.7660898568845247,-0.503632664680481,-1.2776411771774292,0.6325792670249939,-0.02583799511194229,-0.34322842955589294,-0.9388964772224426,0.05911736190319061,0.008923649787902832,-0.0746685266494751
0.34520555966333316,-0.04263971468679073,-1.7597163573377217,-0.46549996733665466,-1.2885299921035767,0.5902994871139526,-0.04011206701397896,-0.3383901119232178,-0.9401506185531616,0.012066356837749481,0.0055501461029052734,-0.22201979160308838
0.3410590589100346,-0.0569335991621575,-1.7540299793831067,-0.2957460582256317,-1.1635582447052002,0.5118337273597717,-0.05362529680132866,-0.33448535203933716,-0.9408739805221558,-0.04142175242304802,0.020276367664337158,-0.37049680948257446
0.33903030810027646,-0.06906317267382706,-1.7491718165761023,-0.047124817967414856,-0.919162392616272,0.4267188310623169,-0.06508016586303711,-0.3325727581977844,-0.9408293962478638,-0.08482223749160767,0.050269901752471924,-0.47094428539276123
0.33958793550254623,-0.07808217578128034,-1.7448664064786816,0.21275338530540466,-0.5862234830856323,0.3791491389274597,-0.07354827225208282,-0.3330985903739929,-0.9400191307067871,-0.09397801756858826,0.08268663287162781,-0.5038284659385681
0.34262019804454014,-0.08356511898796791,-1.7405242992715368,0.4467887878417969,-0.21568506956100464,0.3944181203842163,-0.07861654460430145,-0.3359561562538147,-0.9385908842086792,-0.06744064390659332,0.10754731297492981,-0.469062864780426
0.34757861360056574,-0.08560266275981561,-1.7354884939255721,0.6061618328094482,0.1417401134967804,0.4705098569393158,-0.08038538694381714,-0.340622216463089,-0.9367575645446777,-0.01759134978055954,0.1291658878326416,-0.37717676162719727
0.3536479915961553,-0.08484661182750365,-1.729445594515056,0.6857328414916992,0.40602633357048035,0.5525543689727783,-0.0795004591345787,-0.34632232785224915,-0.9347409009933472,0.035509318113327026,0.14211395382881165,-0.24030792713165283
0.36010577443695835,-0.08216968267187828,-1.7226077548830303,0.693658173084259,0.5981606245040894,0.6076549291610718,-0.07681277394294739,-0.3523732125759125,-0.9327019453048706,0.06655881553888321,0.13293656706809998,-0.1028052568435669
0.3662875039249641,-0.0780411594592918,-1.7153683845765972,0.6336491703987122,0.7310832738876343,0.6376871466636658,-0.0727902352809906,-0.3581516742706299,-0.9308216571807861,0.07855800539255142,0.11655926704406738,0.019871950149536133
0.37164105831927774,-0.07301493169366981,-1.7079062635386346,0.5297861099243164,0.8005185723304749,0.6611502170562744,-0.06796996295452118,-0.3631449341773987,-0.9292501211166382,0.0814586877822876,0.10450848937034607,0.12103790044784546
0.37586276002280977,-0.06760213392958792,-1.700411942773739,0.4061831831932068,0.8159907460212708,0.661470353603363,-0.06283503025770187,-0.36707520484924316,-0.9280665516853333,0.07945180684328079,0.09479737281799316,0.19669759273529053
0.3790001768717469,-0.06225906530446012,-1.6931354797862,0.3090098798274994,0.7782557606697083,0.6405642628669739,-0.05780349299311638,-0.3699917793273926,-0.9272350668907166,0.0721772164106369,0.08243989944458008,0.24319881200790405
0.3813710192074421,-0.05739017016035583,-1.6862801383941335,0.2427370846271515,0.6941126585006714,0.5967533588409424,-0.05323775112628937,-0.3721933364868164,-0.9266271591186523,0.06443764269351959,0.0731058120727539,0.26528072357177734
0.38331559121890524,-0.05338539423950979,-1.6800497199468107,0.21101103723049164,0.5618769526481628,0.5323736071586609,-0.04948768764734268,-0.3739975094795227,-0.9261084198951721,0.057025473564863205,0.06866911053657532,0.2788459062576294
0.38505684286378833,-0.05058463233792284,-1.6745811020769725,0.19018299877643585,0.40484872460365295,0.4576159715652466,-0.04686068743467331,-0.375611811876297,-0.9255915880203247,0.05328458547592163,0.06564480066299438,0.289101779460907
0.38668812802153674,-0.04915945203579343,-1.6698895387704964,0.1788252741098404,0.22872130572795868,0.3940960168838501,-0.045511335134506226,-0.3771231472492218,-0.9250442385673523,0.05686381831765175,0.0596030056476593,0.2932998538017273
0.3882479957907606,-0.04924372261609523,-1.665910247045584,0.16669005155563354,0.051616303622722626,0.3245246410369873,-0.04556027799844742,-0.3785673975944519,-0.9244517087936401,0.05407462641596794,0.054455459117889404,0.28681743144989014
0.38968403641287963,-0.050785573785032255,-1.6627035529852507,0.14674265682697296,-0.11013664305210114,0.2552224397659302,-0.046957943588495255,-0.3798961639404297,-0.9238365292549133,0.04550830274820328,0.05235099792480469,0.27393418550491333
0.3908936544743645,-0.05349283541998967,-1.6602152583534355,0.11562734842300415,-0.23311424255371094,0.1933438926935196,-0.04943422973155975,-0.3810148239135742,-0.923246443271637,0.049037445336580276,0.04957866668701172,0.25631529092788696
0.39177556627861365,-0.0569023434063084,-1.658288381243807,0.07753072679042816,-0.294201523065567,0.15476201474666595,-0.05256262049078941,-0.3818300664424896,-0.9227367043495178,0.059444278478622437,0.047601521015167236,0.23143726587295532
0.392232390321478,-0.06053511801974965,-1.6567602773135386,0.026291508227586746,-0.3059426248073578,0.12029511481523514,-0.055903803557157516,-0.38225221633911133,-0.9223654270172119,0.06841595470905304,0.051563769578933716,0.2039969563484192
0.39220846899966466,-0.06393403779341886,-1.6556005288472466,-0.0197365190833807,-0.28081488609313965,0.0886099562048912,-0.05903910472989082,-0.38223013281822205,-0.9221792221069336,0.07142918556928635,0.05302172899246216,0.1751394271850586
0.39177281401724706,-0.06681977761551593,-1.6548224832474012,-0.06041204184293747,-0.23723332583904266,0.05784592032432556,-0.061711136251688004,-0.3818275034427643,-0.9221710562705994,0.06502223759889603,0.05251231789588928,0.14232492446899414
0.391018310528764,-0.06916414432636028,-1.6544691094665323,-0.08687189966440201,-0.20312650501728058,0.019737593829631805,-0.06389276683330536,-0.38113006949424744,-0.922311007976532,0.055363044142723083,0.055095523595809937,0.11374777555465698
0.3901041816642049,-0.07103518324456375,-1.6545048836450973,-0.09227119386196136,-0.175316721200943,-0.012002494186162949,-0.06564303487539291,-0.38028478622436523,-0.9225369691848755,0.050491005182266235,0.053548336029052734,0.08620280027389526
0.38933825783366294,-0.07249989731724545,-1.6548633859168813,-0.06226792186498642,-0.15054981410503387,-0.045139119029045105,-0.06701529026031494,-0.37957626581192017,-0.9227300882339478,0.04560715705156326,0.050367891788482666,0.050018906593322754
0.38902923863682776,-0.073700845088989,-1.655652080922413,-0.010578624904155731,-0.15868976712226868,-0.09800579398870468,-0.06813202798366547,-0.379290372133255,-0.922765851020813,0.03427271544933319,0.044390469789505005,0.01753818988800049
0.38922965565587425,-0.07503032684224584,-1.65704774130365,0.029808741062879562,-0.21961256861686707,-0.15904028713703156,-0.06935306638479233,-0.37947580218315125,-0.922598659992218,0.03212156891822815,0.036732882261276245,0.005789577960968018
0.3897681797777226,-0.07689110548543482,-1.659016314397755,0.043844133615493774,-0.3034278452396393,-0.21155968308448792,-0.07105398923158646,-0.37997397780418396,-0.9222640991210938,0.04224533587694168,0.02467307448387146,0.00545501708984375
0.39029947175182056,-0.07942126007005693,-1.6615314209456156,0.02131844125688076,-0.3895280957221985,-0.25856077671051025,-0.07337120920419693,-0.38046538829803467,-0.9218800067901611,0.049750544130802155,0.01387295126914978,-0.0003612041473388672
0.39053416905146077,-0.08248479212738885,-1.664577479118486,-0.019684385508298874,-0.4438725709915161,-0.3064177930355072,-0.07618770748376846,-0.38068240880966187,-0.9215618968009949,0.047073885798454285,0.010839909315109253,-0.02242302894592285
0.39040992784302986,-0.08569324694108348,-1.6682536832393686,-0.062192074954509735,-0.4709740877151489,-0.36666223406791687,-0.07914814352989197,-0.3805675208568573,-0.9213598370552063,0.04148939996957779,0.0154552161693573,-0.0532495379447937
0.3899362983179882,-0.08872420431235313,-1.6726252680487859,-0.10541944205760956,-0.46687307953834534,-0.4296760857105255,-0.08195634186267853,-0.38012948632240295,-0.9212951064109802,0.035401731729507446,0.019900023937225342,-0.0818328857421875
0.3889598740832408,-0.09143452696590998,-1.677711300128731,-0.17782963812351227,-0.45765504240989685,-0.48572397232055664,-0.08448689430952072,-0.3792261779308319,-0.9214388132095337,0.03265273571014404,0.02246043086051941,-0.09597146511077881
0.387155002481256,-0.09379424928646285,-1.6833882612152415,-0.28715214133262634,-0.44456854462623596,-0.5174006819725037,-0.08672495931386948,-0.3775555193424225,-0.9219168424606323,0.0380493700504303,0.020469337701797485,-0.10251247882843018
0.3839756907855732,-0.09609296699501178,-1.6893221101509988,-0.4561142325401306,-0.4700535833835602,-0.5084114670753479,-0.08895868062973022,-0.3746096193790436,-0.9229052066802979,0.03977954387664795,0.01592126488685608,-0.10626959800720215
0.37881138547775883,-0.09898493394239784,-1.6952316911295686,-0.6836906671524048,-0.5546595454216003,-0.4763408899307251,-0.09181727468967438,-0.369816392660141,-0.9245568513870239,0.028157547116279602,0.0028272271156311035,-0.1200140118598938
0.3713158921304237,-0.10302913745381691,-1.701083307894961,-0.9108704924583435,-0.6819324493408203,-0.45343342423439026,-0.09583801031112671,-0.36284196376800537,-0.9269092679023743,-0.01324712485074997,-0.02546370029449463,-0.16679495573043823
0.36188241354627154,-0.10818865107361092,-1.7072664072254014,-1.066680669784546,-0.7814081907272339,-0.49988749623298645,-0.10098422318696976,-0.354035347700119,-0.9297640323638916,-0.09335176646709442,-0.06272795796394348,-0.2638547420501709
0.35162455937799714,-0.11372861869450832,-1.71444705837482,-1.1013736724853516,-0.8160992860794067,-0.6185265779495239,-0.10654005408287048,-0.34442341327667236,-0.9327495694160461,-0.1898925006389618,-0.08944499492645264,-0.38712042570114136
0.3417489325431241,-0.11881672528019041,-1.7231762819780114,-1.0368852615356445,-0.7819016575813293,-0.7791444659233093,-0.11168234050273895,-0.33513540029525757,-0.9355273246765137,-0.26278364658355713,-0.08918103575706482,-0.49560976028442383
0.33317519881167784,-0.12285510914759408,-1.733228686274948,-0.8812090158462524,-0.6768402457237244,-0.8865385055541992,-0.11580730974674225,-0.3270452618598938,-0.9378859400749207,-0.27899864315986633,-0.07369634509086609,-0.5686905384063721
0.3265821292850344,-0.1254370467236481,-1.7437035957358071,-0.6630908250808716,-0.5078765153884888,-0.8960553407669067,-0.11849567294120789,-0.32080769538879395,-0.9397026896476746,-0.2476085126399994,-0.057167768478393555,-0.6114294528961182
0.32237213394285863,-0.126441860664504,-1.7533469152664622,-0.39848846197128296,-0.30669572949409485,-0.797404408454895,-0.11960910260677338,-0.31681737303733826,-0.9409146308898926,-0.1984756737947464,-0.03817835450172424,-0.6207155585289001
0.3207467516358892,-0.12598322509814572,-1.7612444666715747,-0.11074881255626678,-0.10148850828409195,-0.6373326778411865,-0.1192420944571495,-0.31527531147003174,-0.9414790272712708,-0.16316762566566467,-0.014543384313583374,-0.594760537147522
0.32178342967632395,-0.12421842845727608,-1.7669444868791535,0.1792941689491272,0.09024475514888763,-0.4612281918525696,-0.11753983050584793,-0.31625896692276,-0.9413631558418274,-0.14320239424705505,0.001912623643875122,-0.5330477952957153
0.3253624818977478,-0.12147269701998913,-1.7705987662812275,0.43852388858795166,0.21494488418102264,-0.31915467977523804,-0.11481676995754242,-0.319652259349823,-0.9405527710914612,-0.13197892904281616,0.001979529857635498,-0.43704116344451904
0.3311672801440527,-0.11822603181390073,-1.772744345267515,0.6531283259391785,0.28719255328178406,-0.22283616662025452,-0.11154177039861679,-0.3251470923423767,-0.9390621781349182,-0.1258392632007599,-0.010988771915435791,-0.3184298276901245
0.33869707712723557,-0.11479602900742034,-1.773775244307004,0.8073517084121704,0.3268166780471802,-0.1465483158826828,-0.10803662985563278,-0.3322584629058838,-0.9369804859161377,-0.1261553168296814,-0.0186021625995636,-0.1989905834197998
0.3472762996864622,-0.11132580911480607,-1.774011503013113,0.8771141171455383,0.3493073880672455,-0.09455399960279465,-0.10446391999721527,-0.34033796191215515,-0.9344823956489563,-0.1361824870109558,-0.01944902539253235,-0.08663570880889893
0.35615607484639233,-0.10787013830141165,-1.7738275764114255,0.8754004240036011,0.349525511264801,-0.07003321498632431,-0.1009046882390976,-0.34867411851882935,-0.9317964315414429,-0.1515520215034485,-0.009556472301483154,0.02165544033050537
0.3647044966759187,-0.10454858645811635,-1.7736223569977871,0.8146397471427917,0.32357579469680786,-0.07394661754369736,-0.09749450534582138,-0.3566732406616211,-0.929128110408783,-0.1591583788394928,-0.002717047929763794,0.11694854497909546
0.37244869048816265,-0.1015154142514023,-1.773692263673257,0.7141667008399963,0.27549800276756287,-0.10113882273435593,-0.09439310431480408,-0.36389732360839844,-0.9266437888145447,-0.1591469943523407,-0.0051364898681640625,0.19196361303329468
0.3790971634345439,-0.09884922686526991,-1.7743202842141819,0.5902442336082458,0.2094031572341919,-0.14806175231933594,-0.09168136864900589,-0.3700818717479706,-0.9244641065597534,-0.1541682928800583,-0.011189490556716919,0.2466840147972107
0.3845208837036832,-0.09667116521209392,-1.7756703586001197,0.4604199528694153,0.12357374280691147,-0.2065943032503128,-0.08947255462408066,-0.3751150369644165,-0.922650158405304,-0.14685562252998352,-0.017386794090270996,0.28323066234588623
0.3887204570840856,-0.09507066279084435,-1.7778648639720553,0.33355918526649475,0.03197493404150009,-0.2764987051486969,-0.08784542232751846,-0.37900465726852417,-0.921215832233429,-0.13706918060779572,-0.019799083471298218,0.30604255199432373
0.3917947441977504,-0.09400220684422382,-1.7810006060632066,0.22438502311706543,-0.05558447539806366,-0.3541868329048157,-0.08675131946802139,-0.3818477690219879,-0.92014479637146,-0.11663313955068588,-0.023349374532699585,0.31589680910110474
0.39394264332270207,-0.09350254073519114,-1.7850417421826463,0.13661889731884003,-0.15663591027259827,-0.42485642433166504,-0.08621476590633392,-0.38383203744888306,-0.9193693399429321,-0.08701832592487335,-0.027254998683929443,0.31567060947418213
0.3953898910008694,-0.09372720573604545,-1.7898280213735083,0.0711248442530632,-0.25533851981163025,-0.47528496384620667,-0.08636923134326935,-0.38516801595687866,-0.9187959432601929,-0.04876265674829483,-0.027795851230621338,0.30684220790863037
0.396294542503768,-0.0946922620666825,-1.7950268526839597,0.02165769413113594,-0.3363957405090332,-0.49116790294647217,-0.08722290396690369,-0.38600271940231323,-0.9183648824691772,-0.013851359486579895,-0.021422207355499268,0.2950586676597595
0.39680256216521975,-0.09638804814418736,-1.8002776616895357,-0.013366070576012135,-0.4035835564136505,-0.4771535396575928,-0.08876124024391174,-0.38647133111953735,-0.9180203676223755,0.013016559183597565,-0.005252331495285034,0.281805157661438
0.3969678040425051,-0.0987793257988389,-1.8052988647237627,-0.044215064495801926,-0.4601011574268341,-0.44554340839385986,-0.09094993025064468,-0.38662371039390564,-0.9177418947219849,0.030647151172161102,0.008205771446228027,0.26623743772506714
0.39683833529781665,-0.10182307276854782,-1.810034248001018,-0.06981097161769867,-0.5124583840370178,-0.4216218590736389,-0.09374796599149704,-0.38650432229042053,-0.9175106287002563,0.03417760133743286,0.010512471199035645,0.24711573123931885
0.3964694873360841,-0.1053778971587775,-1.8146996902380008,-0.09266738593578339,-0.5554484724998474,-0.4245595932006836,-0.09702394157648087,-0.3861640989780426,-0.917313277721405,0.024041101336479187,0.0031379759311676025,0.22384709119796753
0.395912581777943,-0.1091855027519522,-1.8194919032305132,-0.11087276041507721,-0.5698391795158386,-0.4459298849105835,-0.10053941607475281,-0.3856503367424011,-0.9171508550643921,0.015166446566581726,-0.011871665716171265,0.1994231939315796
0.39529802414915793,-0.11286447958375814,-1.8245626213417125,-0.11575406789779663,-0.5482322573661804,-0.4683051109313965,-0.10393957793712616,-0.38508325815200806,-0.9170100688934326,0.014446735382080078,-0.02563759684562683,0.17145037651062012
0.3947269953588968,-0.11612194800628067,-1.8299580091104453,-0.10921334475278854,-0.508219301700592,-0.5040071606636047,-0.10695161670446396,-0.38455620408058167,-0.9168848991394043,0.011980853974819183,-0.03226816654205322,0.1401057243347168
0.394298223693894,-0.11863316215239018,-1.8356913377148583,-0.09693842381238937,-0.4303928315639496,-0.5333366394042969,-0.1092732772231102,-0.3841603696346283,-0.9167770743370056,0.01189163327217102,-0.03446453809738159,0.11085361242294312
0.3940595932743502,-0.1202609182199528,-1.8416424997363778,-0.08285163342952728,-0.34699302911758423,-0.5436201691627502,-0.11077641695737839,-0.38394004106521606,-0.9166889786720276,0.02830260992050171,-0.03378459811210632,0.09405714273452759
0.39387609041720056,-0.12108711962625945,-1.847481059242907,-0.08480250090360641,-0.2669748365879059,-0.5165151357650757,-0.11154225468635559,-0.38377058506011963,-0.9166670441627502,0.05342148244380951,-0.02656877040863037,0.09232628345489502
0.3935589817674591,-0.12142584965784992,-1.8528928145346497,-0.10129758715629578,-0.21647332608699799,-0.46264395117759705,-0.11186747997999191,-0.38347774744033813,-0.9167499542236328,0.07101966440677643,-0.016638249158859253,0.09910774230957031
0.3929802786985489,-0.12158428344271205,-1.8576660150499935,-0.1181163638830185,-0.1883634775876999,-0.39376354217529297,-0.11203962564468384,-0.38294321298599243,-0.91695237159729,0.07763099670410156,-0.012381523847579956,0.10103440284729004
0.3922170194539058,-0.12190244209576848,-1.8617618970872232,-0.12050628662109375,-0.18603454530239105,-0.3375857472419739,-0.11236686259508133,-0.3822380304336548,-0.9172065258026123,0.07299913465976715,-0.017038732767105103,0.0951240062713623
0.39144368101068505,-0.12243975689803908,-1.865370059976714,-0.11232758313417435,-0.19623833894729614,-0.3052196502685547,-0.11289574950933456,-0.3815232813358307,-0.9174391031265259,0.060695379972457886,-0.0269545316696167,0.08122694492340088
0.3907386080574838,-0.12321225295496058,-1.8687120568016475,-0.10275085270404816,-0.21266791224479675,-0.29113203287124634,-0.11363746225833893,-0.380871444940567,-0.9176183938980103,0.04378267377614975,-0.03972184658050537,0.06521666049957275
0.39009733977247935,-0.12410018967855602,-1.8719537775901873,-0.0994684249162674,-0.2105923891067505,-0.2876465916633606,-0.11448241770267487,-0.38027843832969666,-0.9177592992782593,0.02271600067615509,-0.05165213346481323,0.04637563228607178
0.389493413560703,-0.12488982099985538,-1.875186867450544,-0.09374582767486572,-0.1873035877943039,-0.28796884417533875,-0.11523565649986267,-0.3797198235988617,-0.9178962707519531,0.011643677949905396,-0.05565923452377319,0.0281563401222229
0.38904199553621627,-0.1252686140006117,-1.8784055004350813,-0.06744200736284256,-0.12802456319332123,-0.2880724370479584,-0.11560474336147308,-0.37930217385292053,-0.9180225729942322,0.006534874439239502,-0.060395121574401855,0.0018696188926696777
0.38903154316016164,-0.12488944339204415,-1.8815882026292141,-0.00782182440161705,-0.037441402673721313,-0.29329249262809753,-0.1152571439743042,-0.37929248809814453,-0.9180702567100525,0.005103886127471924,-0.06811046600341797,-0.02611309289932251
0.3896935129258462,-0.12359250779796835,-1.8847550647202804,0.06373964995145798,0.05597570911049843,-0.30481675267219543,-0.11403539031744003,-0.37990492582321167,-0.9179695844650269,0.0023410022258758545,-0.06519398093223572,-0.040602803230285645
0.3910340397991855,-0.12138938075405507,-1.8879594529210444,0.12404507398605347,0.13928551971912384,-0.31272661685943604,-0.11195094138383865,-0.38114461302757263,-0.9177122116088867,-0.001330360770225525,-0.058918893337249756,-0.041073739528656006
0.39288054128141264,-0.11845668151677255,-1.8910996208222257,0.16659243404865265,0.20333918929100037,-0.3028621971607208,-0.10917573422193527,-0.3828510642051697,-0.9173362255096436,0.004042625427246094,-0.05570179224014282,-0.030387163162231445
0.3950225584701506,-0.11506141932748289,-1.8940426762965121,0.18994462490081787,0.24589411914348602,-0.28200700879096985,-0.10596612095832825,-0.38482901453971863,-0.9168848395347595,0.008035168051719666,-0.05334237217903137,-0.019821643829345703
0.3972909692908148,-0.11146028915625106,-1.8967206325256603,0.20024463534355164,0.2637135982513428,-0.2584860026836395,-0.10256625711917877,-0.3869217336177826,-0.916390597820282,0.01199004054069519,-0.053172290325164795,-0.013953030109405518
0.39958636834313943,-0.10793303448319334,-1.899134950328632,0.20350274443626404,0.25439679622650146,-0.2325284332036972,-0.0992373451590538,-0.3890373408794403,-0.9158612489700317,0.012262195348739624,-0.05262833833694458,-0.016893208026885986
0.4018907639884266,-0.1045384165021157,-1.9013100760868968,0.2077215164899826,0.2559773921966553,-0.21184667944908142,-0.096033975481987,-0.39115914702415466,-0.9152988791465759,0.009653918445110321,-0.055877625942230225,-0.030456125736236572
0.40426530053572174,-0.1011104174848115,-1.9032792929451494,0.22658494114875793,0.27305999398231506,-0.197121262550354,-0.09280175715684891,-0.39334338903427124,-0.9146960377693176,0.002668045461177826,-0.06576308608055115,-0.05350464582443237
0.40691580233333124,-0.0975681724302429,-1.9051290325703514,0.2682058811187744,0.28684234619140625,-0.19524069130420685,-0.08945923298597336,-0.3957788646221161,-0.9139782190322876,-0.0013306140899658203,-0.0812414288520813,-0.0786670446395874
0.4100940498416657,-0.09391573405802935,-1.9069558347810336,0.330889493227005,0.2948238253593445,-0.20200112462043762,-0.08600199967622757,-0.39869558811187744,-0.913041889667511,4.919618368148804e-05,-0.09747445583343506,-0.10008060932159424
0.4139147672202516,-0.0901659194617289,-1.908787525453539,0.3941499888896942,0.30556219816207886,-0.2004769742488861,-0.08243989944458008,-0.40219658613204956,-0.911834180355072,0.0070003941655159,-0.10444101691246033,-0.11146599054336548
0.4182784299397063,-0.0863123894914136,-1.910496479880635,0.44205519556999207,0.3223276138305664,-0.1847318410873413,-0.07877346873283386,-0.40618789196014404,-0.9103878736495972,0.011100687086582184,-0.09657391905784607,-0.10978418588638306
0.4229889414093777,-0.08245077858750825,-1.9119608111237028,0.4631997048854828,0.325361043214798,-0.15922534465789795,-0.075098916888237,-0.4104878008365631,-0.908768355846405,0.001841425895690918,-0.06973680853843689,-0.0936577320098877
0.4276831202519897,-0.07878308186970147,-1.9131447031809417,0.44401803612709045,0.3075285255908966,-0.1330382227897644,-0.0716128870844841,-0.4147637188434601,-0.9071067571640015,-0.017345905303955078,-0.038407087326049805,-0.07073748111724854
0.43186459590812065,-0.07546006153903011,-1.9142375948103854,0.3623069226741791,0.25633665919303894,-0.13049842417240143,-0.06846681982278824,-0.41856494545936584,-0.9056023955345154,-0.04309023916721344,-0.019286036491394043,-0.04268556833267212
0.43488304312437187,-0.07286565296325098,-1.915579887265913,0.20485125482082367,0.1361900120973587,-0.15787678956985474,-0.06602481007575989,-0.4213043451309204,-0.9045128226280212,-0.07090762257575989,-0.013082891702651978,-0.01078563928604126
0.43592008414933536,-0.0714536868497763,-1.9175440304597755,-0.029011283069849014,-0.01936781406402588,-0.21433289349079132,-0.06471637636423111,-0.4222446084022522,-0.9041688442230225,-0.09402085840702057,-0.01736113429069519,0.007882833480834961
0.43456512241667744,-0.07106652144597245,-1.9204239711867672,-0.27460214495658875,-0.1380486637353897,-0.28644171357154846,-0.0644068717956543,-0.42101597785949707,-0.9047636985778809,-0.10868887603282928,-0.029698163270950317,-0.01116037368774414
0.43104561313620915,-0.07114900106250588,-1.9243140548078155,-0.4653531312942505,-0.19826805591583252,-0.36682775616645813,-0.06458643078804016,-0.4178209900856018,-0.9062307476997375,-0.12080790102481842,-0.028895318508148193,-0.07477205991744995
0.4262405220320136,-0.07101099499394735,-1.9292255685811726,-0.5370739102363586,-0.16693809628486633,-0.4528052508831024,-0.06460306793451309,-0.4134506285190582,-0.908231794834137,-0.11967737227678299,-0.018144220113754272,-0.16185176372528076
0.4215452934942157,-0.06986324259180811,-1.9348882906285534,-0.4513736665248871,-0.0625632256269455,-0.5031976103782654,-0.06369540840387344,-0.4091709554195404,-0.9102318286895752,-0.08548981696367264,-0.005013585090637207,-0.25308293104171753
0.41845917295901436,-0.06723858953763341,-1.9407454298287863,-0.2244451642036438,0.11873705685138702,-0.5081974267959595,-0.061390701681375504,-0.40635305643081665,-0.9116514921188354,-0.039988741278648376,0.01786428689956665,-0.32460033893585205
0.41793687020274656,-0.06283086193853069,-1.9460739915747796,0.05780106410384178,0.3255309462547302,-0.44549089670181274,-0.05738512799143791,-0.4058757722377777,-0.9121248722076416,0.010876286774873734,0.05609852075576782,-0.3373562693595886
0.41998207502777135,-0.05699705746220777,-1.950194452921031,0.29430949687957764,0.492130309343338,-0.32101210951805115,-0.052015624940395355,-0.40774407982826233,-0.9116134643554688,0.06809833645820618,0.10316336154937744,-0.2789992690086365
0.4238780975918903,-0.050609329444973296,-1.9527157519492628,0.4407937526702881,0.5629904866218567,-0.17544712126255035,-0.04611075296998024,-0.4112984240055084,-0.9103336930274963,0.11588914692401886,0.12859880924224854,-0.17291826009750366
0.4286068318815198,-0.044662742206639794,-1.953655896700441,0.4760172665119171,0.5303177237510681,-0.03828686848282814,-0.040609296411275864,-0.4156040549278259,-0.908638596534729,0.1445063352584839,0.12149089574813843,-0.06020289659500122
0.43315866944345366,-0.040201047606144805,-1.9531200957469657,0.4245641827583313,0.39376574754714966,0.09419704973697662,-0.0364784300327301,-0.41973984241485596,-0.9069111347198486,0.16237865388393402,0.09628400206565857,0.030858278274536133
0.43689081965717874,-0.037988593324296334,-1.9512822090713462,0.3304845690727234,0.1964215338230133,0.20347827672958374,-0.03441210836172104,-0.42312437295913696,-0.9054178595542908,0.16510358452796936,0.061826735734939575,0.08045148849487305
0.4396419225105277,-0.038269608097334144,-1.9485751235740856,0.2412363886833191,-0.025934096425771713,0.25909820199012756,-0.03462187573313713,-0.42561545968055725,-0.9042415618896484,0.15367089211940765,0.03999531269073486,0.08774375915527344
0.4416676231881142,-0.04085814490723023,-1.9455927710098855,0.18734678626060486,-0.23574750125408173,0.258687824010849,-0.036927126348018646,-0.427447646856308,-0.9032856225967407,0.13014301657676697,0.029391616582870483,0.06319773197174072
0.44335145786762953,-0.045256218152261975,-1.9426981778509442,0.1701420545578003,-0.38217633962631226,0.24954858422279358,-0.040866851806640625,-0.42896929383277893,-0.90239417552948,0.10580820590257645,0.03398025035858154,0.01398169994354248
0.44484926564962024,-0.050781411994314206,-1.9398156036095913,0.15036249160766602,-0.4696750342845917,0.25615426898002625,-0.04581943899393082,-0.4303218126296997,-0.9015119075775146,0.07931242883205414,0.05683243274688721,-0.04024529457092285
0.4460611199614779,-0.05698819326994723,-1.9368765455158343,0.11751262843608856,-0.5092298984527588,0.2586653530597687,-0.05138426646590233,-0.4314154088497162,-0.9006888270378113,0.05525995045900345,0.0801733136177063,-0.08069539070129395
0.4469481736645933,-0.06329759994481352,-1.9339607635101257,0.0916924774646759,-0.4878300428390503,0.25243115425109863,-0.05704179033637047,-0.43221551179885864,-0.899964451789856,0.03497752919793129,0.08761098980903625,-0.11875808238983154
0.44767802149312214,-0.06905012887434112,-1.9312065041539306,0.0833224505186081,-0.4163154363632202,0.22926932573318481,-0.06219610944390297,-0.43287354707717896,-0.8993064761161804,0.02041749283671379,0.08384400606155396,-0.15687638521194458
0.44829906271777353,-0.07379885076160579,-1.928836255935976,0.06974831968545914,-0.32297855615615845,0.18448267877101898,-0.06644611060619354,-0.43343329429626465,-0.8987327218055725,0.013223409652709961,0.08017706871032715,-0.17345654964447021
0.4487568933813789,-0.07725674172527573,-1.927054910131862,0.046069804579019547,-0.21117500960826874,0.13015253841876984,-0.06953810900449753,-0.4338458478450775,-0.8982996344566345,0.01306527853012085,0.07860597968101501,-0.17422538995742798
0.44902493208002914,-0.07926373500806629,-1.9258668794911904,0.020372163504362106,-0.0859273374080658,0.07801397889852524,-0.07133163511753082,-0.434087336063385,-0.8980423212051392,0.014645189046859741,0.07988503575325012,-0.16549527645111084
0.44901494101754535,-0.0798939429748791,-1.9252392839080241,-0.014362362213432789,0.009612444788217545,0.037974078208208084,-0.07189792394638062,-0.4340783357620239,-0.898001492023468,0.02114715427160263,0.08994686603546143,-0.1464473009109497
0.44873503888746835,-0.07955083000282137,-1.9249158441221668,-0.030598323792219162,0.08504941314458847,0.03043147549033165,-0.07159945368766785,-0.43382614850997925,-0.8981472253799438,0.04620877653360367,0.09836167097091675,-0.13462865352630615
0.44856372375779235,-0.07849148987142697,-1.9245048254950183,0.011862605810165405,0.15827491879463196,0.052634868770837784,-0.07065379619598389,-0.4336718022823334,-0.898296594619751,0.0783441811800003,0.10388356447219849,-0.14007920026779175
0.4490629798789711,-0.0769635124472249,-1.9236594023501334,0.10518296808004379,0.21583381295204163,0.09418097883462906,-0.0692644789814949,-0.43412160873413086,-0.898187518119812,0.09892752021551132,0.11841726303100586,-0.1428280472755432
0.4506784957271845,-0.07515403508544491,-1.9222114342580459,0.236786350607872,0.26947763562202454,0.1406024694442749,-0.06758637726306915,-0.4355763792991638,-0.8976109027862549,0.11385096609592438,0.13754168152809143,-0.12517046928405762
0.45352628446677656,-0.07322522314897656,-1.9201378620809229,0.35454627871513367,0.2919834554195404,0.18752311170101166,-0.06576390564441681,-0.43813806772232056,-0.8964987993240356,0.12324372678995132,0.15057092905044556,-0.08079606294631958
0.45732209324907713,-0.07146780989567697,-1.9174698191405481,0.4291476309299469,0.2881677448749542,0.23453032970428467,-0.06406906992197037,-0.4415469765663147,-0.8949477076530457,0.1275760978460312,0.1523318588733673,-0.02053380012512207
0.4615815783691392,-0.07005082183087062,-1.9143023349587227,0.45124441385269165,0.2735650837421417,0.2700153589248657,-0.06266866624355316,-0.44536471366882324,-0.8931533694267273,0.12373428791761398,0.14343905448913574,0.036753833293914795
0.465833275340579,-0.06895896079745914,-1.9108064611699755,0.4318884015083313,0.25298333168029785,0.2893249988555908,-0.06156240031123161,-0.4491674304008484,-0.8913241028785706,0.10973434895277023,0.13268491625785828,0.08714020252227783
0.46974560778599833,-0.06818759305499157,-1.9072557537448374,0.3841398060321808,0.21785518527030945,0.2869334816932678,-0.060754645615816116,-0.4526594579219818,-0.8896113038063049,0.09482747316360474,0.12085705995559692,0.1253749132156372
0.473071043405114,-0.06778460487607048,-1.9037897510490234,0.3225673735141754,0.1749766767024994,0.28132960200309753,-0.06029384583234787,-0.45562219619750977,-0.888128936290741,0.08530294895172119,0.11036154627799988,0.15297579765319824
0.4757677175940049,-0.06778881488903052,-1.9005073036316051,0.2548770010471344,0.12410630285739899,0.26314422488212585,-0.06021413952112198,-0.45802104473114014,-0.8868996500968933,0.0792723149061203,0.10229289531707764,0.1656472086906433
0.47782971964744175,-0.06816650236304471,-1.8974785760779782,0.193756565451622,0.08018285781145096,0.24568341672420502,-0.06048464775085449,-0.45985305309295654,-0.8859327435493469,0.07733030617237091,0.09878429770469666,0.16736584901809692
0.4793105640318793,-0.06882319811943723,-1.8946631932096185,0.13507913053035736,0.05447909235954285,0.23025253415107727,-0.06101952865719795,-0.4611675441265106,-0.8852124810218811,0.07293659448623657,0.10180777311325073,0.1624951958656311
0.48024533923326884,-0.06956580799949448,-1.892033122366375,0.08126837760210037,0.04247435927391052,0.22153814136981964,-0.06164688616991043,-0.46199676394462585,-0.8847364783287048,0.06549204885959625,0.10530731081962585,0.1519026756286621
0.48071304987746594,-0.0702310240349704,-1.8895897582633565,0.04105810448527336,0.04900389909744263,0.20196282863616943,-0.062220241874456406,-0.4624115228652954,-0.8844796419143677,0.053125955164432526,0.10541689395904541,0.13298428058624268
0.4808502622625511,-0.07068354962528262,-1.8874086090511473,0.01682339794933796,0.06350258737802505,0.18055257201194763,-0.0626160055398941,-0.462533175945282,-0.8843880891799927,0.04642638564109802,0.10085409879684448,0.11278170347213745
0.480874169660388,-0.07088470280954748,-1.8855026353614792,0.012762877158820629,0.06738866865634918,0.15602858364582062,-0.06279311329126358,-0.462554395198822,-0.8843644261360168,0.0463135689496994,0.09649601578712463,0.09554612636566162
0.48093242303083356,-0.07092855387315132,-1.8838684293290502,0.01983833871781826,0.07152020931243896,0.1318063586950302,-0.06282998621463776,-0.4626060426235199,-0.8843348026275635,0.04731176048517227,0.09425884485244751,0.07946425676345825
0.4811317795310738,-0.07078244285936666,-1.8825102944506846,0.03451262414455414,0.08170094341039658,0.10762672126293182,-0.062694251537323,-0.46278277039527893,-0.8842519521713257,0.04232371598482132,0.08935439586639404,0.06253564357757568
0.4814313453782905,-0.07041042912425799,-1.8813593512971531,0.037139978259801865,0.09748530387878418,0.09133264422416687,-0.062355536967515945,-0.4630483090877533,-0.8841369152069092,0.04404493793845177,0.08092242479324341,0.05311274528503418
0.48170331651842463,-0.069822156979315,-1.88035667068096,0.02490648254752159,0.11105065047740936,0.08106855303049088,-0.06182662770152092,-0.463289350271225,-0.88404780626297,0.04591165482997894,0.06591993570327759,0.04864436388015747
0.48174364060209846,-0.06903635266981087,-1.8795313107199658,-0.007724020630121231,0.12091536819934845,0.061170946806669235,-0.06113062798976898,-0.4633250832557678,-0.8840774297714233,0.0346260666847229,0.04676014184951782,0.038999974727630615
0.4815265154704281,-0.06798137350106434,-1.879059209912524,-0.030315883457660675,0.13017277419567108,0.02196308970451355,-0.06020474433898926,-0.4631326496601105,-0.8842418193817139,0.006875224411487579,0.029050588607788086,0.013682126998901367
0.48124985754318306,-0.06662730762810383,-1.8792117216941315,-0.02304057776927948,0.12383146584033966,-0.04846176132559776,-0.059015896171331406,-0.4628874361515045,-0.8844503164291382,-0.032796286046504974,0.012707352638244629,-0.029017090797424316
0.48125806805297744,-0.06490932813362292,-1.8802660818958505,0.017868772149086,0.12269535660743713,-0.13695675134658813,-0.057496096938848495,-0.4628947079181671,-0.8845465779304504,-0.061003707349300385,0.0029947757720947266,-0.06815111637115479
0.4817628871496828,-0.06281513602139131,-1.8821031434067825,0.07369209080934525,0.11377863585948944,-0.18236322700977325,-0.055628884583711624,-0.4633421301841736,-0.8844317197799683,-0.055363595485687256,-0.0032869279384613037,-0.08715635538101196
0.4827881664629144,-0.06089187900838273,-1.8840680171793673,0.12627647817134857,0.07606082409620285,-0.16537918150424957,-0.05389885604381561,-0.46425047516822815,-0.8840624690055847,-0.016581542789936066,-0.014341473579406738,-0.08371096849441528
0.4842313515664285,-0.059700043768477776,-1.885562337070945,0.16063721477985382,0.00874566100537777,-0.10887235403060913,-0.052805133163928986,-0.4655282199382782,-0.8834563493728638,0.02277578040957451,-0.028322488069534302,-0.06600654125213623
0.48586916669175007,-0.05977461041323447,-1.8864040980727703,0.1639733612537384,-0.12237587571144104,-0.05644083768129349,-0.05282539129257202,-0.4669771194458008,-0.8826901316642761,0.03561342880129814,-0.032946616411209106,-0.0436251163482666
0.4871364384186612,-0.06167675263927789,-1.8867871876409952,0.08139188587665558,-0.305717796087265,-0.025694023817777634,-0.05446777492761612,-0.46809735894203186,-0.8819966912269592,0.008203070610761642,-0.010280966758728027,-0.011084973812103271
0.48697540695907404,-0.0654288605836097,-1.8869011921249088,-0.11028886586427689,-0.43598151206970215,0.005203705281019211,-0.057781655341386795,-0.4679550528526306,-0.8818612694740295,-0.03732642903923988,0.014891058206558228,0.019098877906799316
0.48466147552773864,-0.07005837177432747,-1.8868733063916658,-0.326968252658844,-0.4524659514427185,0.013395212590694427,-0.06193924322724342,-0.46590885519981384,-0.8826621770858765,-0.09569936245679855,0.010372936725616455,-0.0012336969375610352
0.48052446173219404,-0.07414951391039375,-1.8873764145629275,-0.46884095668792725,-0.3706405758857727,-0.06673504412174225,-0.06569203734397888,-0.46224430203437805,-0.8843159675598145,-0.1736573725938797,-0.03400203585624695,-0.08296912908554077
0.47563561833430495,-0.07618663868406302,-1.889528031545071,-0.511722207069397,-0.2210148721933365,-0.2571663558483124,-0.06766455620527267,-0.45790359377861023,-0.8864230513572693,-0.2577139139175415,-0.07561996579170227,-0.1782131791114807
0.47084354864428457,-0.07557589638587851,-1.8941398591773437,-0.49969854950904846,-0.07804839313030243,-0.48555636405944824,-0.06728807836771011,-0.4536381959915161,-0.8886420130729675,-0.30986344814300537,-0.08374586701393127,-0.2388756275177002
0.46642273919621147,-0.0727634094506344,-1.9009895734407602,-0.4741773009300232,0.010886815376579762,-0.6526760458946228,-0.06493367999792099,-0.4496940076351166,-0.890819251537323,-0.2891923487186432,-0.05978170037269592,-0.2506144642829895
0.4621242300148101,-0.06888391708852443,-1.9090547375142424,-0.49088624119758606,0.04007452726364136,-0.7081515789031982,-0.06160975620150566,-0.44585052132606506,-0.8929846286773682,-0.22058634459972382,-0.023387789726257324,-0.22835326194763184
0.45744341593209026,-0.06492568873540219,-1.9171487755151586,-0.5418829917907715,0.029896799474954605,-0.6613640189170837,-0.058209408074617386,-0.44165581464767456,-0.8952942490577698,-0.135470449924469,0.01128166913986206,-0.19102472066879272
0.452227719994795,-0.06167275143186311,-1.9242426332645155,-0.5737522840499878,-0.0069107478484511375,-0.535371720790863,-0.05543799325823784,-0.43697038292884827,-0.8977658152580261,-0.05914030224084854,0.03596940636634827,-0.1697390079498291
0.44690020051786267,-0.05964597959602502,-1.9296643120831154,-0.5356024503707886,-0.06056045740842819,-0.3694792091846466,-0.05375632643699646,-0.4321722388267517,-0.9001874327659607,-0.00015302374958992004,0.04836791753768921,-0.1803637146949768
0.4422903700632538,-0.05900424804641013,-1.933104060833722,-0.4078705906867981,-0.10590369999408722,-0.1945662647485733,-0.0532955527305603,-0.4280105531215668,-0.9022009372711182,0.02994956076145172,0.05713042616844177,-0.20990532636642456
0.43918632195185764,-0.05963023610988015,-1.934574717482893,-0.2231605350971222,-0.13956864178180695,-0.034609243273735046,-0.053939223289489746,-0.4252031445503235,-0.9034892916679382,0.030486416071653366,0.07220631837844849,-0.23319894075393677
0.43795108642866015,-0.06125111278106593,-1.9342133484446022,-0.02102421596646309,-0.1488066166639328,0.11288274079561234,-0.05543570592999458,-0.4240848124027252,-0.9039241671562195,0.016632553189992905,0.08585846424102783,-0.23065829277038574
0.438566396483303,-0.06361789465300567,-1.932212215736293,0.16303060948848724,-0.15358951687812805,0.23922963440418243,-0.0575583390891552,-0.4246419668197632,-0.9035298824310303,0.010133977979421616,0.0815175473690033,-0.20050454139709473
0.44071655113542474,-0.06658306013048311,-1.9288325095498107,0.3005692958831787,-0.14981767535209656,0.33761852979660034,-0.0601763091981411,-0.42658767104148865,-0.9024420976638794,0.007899653166532516,0.05779799818992615,-0.14832383394241333
0.4439520267061309,-0.06985257391320672,-1.9244393764444925,0.38776305317878723,-0.12703265249729156,0.4053591191768646,-0.06302987039089203,-0.4295117259025574,-0.900858998298645,0.00599246472120285,0.03424805402755737,-0.08690345287322998
0.44769026353837404,-0.07315277902501273,-1.9193811759493957,0.4115285575389862,-0.09861832112073898,0.4444039762020111,-0.06588472425937653,-0.4328845739364624,-0.8990384340286255,-0.0027798637747764587,0.018394827842712402,-0.019876301288604736
0.45129769633394473,-0.07640380348283227,-1.913971974385902,0.37256157398223877,-0.08393126726150513,0.4691750407218933,-0.06868752837181091,-0.4361336827278137,-0.89725661277771,-0.011466935276985168,0.001242905855178833,0.04587721824645996
0.4542713348134316,-0.07964926411912172,-1.908395248660089,0.290277361869812,-0.07649944722652435,0.48298007249832153,-0.0714956670999527,-0.4388076663017273,-0.8957322239875793,-0.010596677660942078,-0.015065014362335205,0.09835368394851685
0.45630174678200064,-0.08286347694348943,-1.9027363433717042,0.19396664202213287,-0.06574191153049469,0.4917134940624237,-0.07430046796798706,-0.440631240606308,-0.8946080207824707,-0.007562980055809021,-0.028134018182754517,0.13285881280899048
0.45739742613598194,-0.08591618044008334,-1.8971588380450861,0.11130905896425247,-0.05168388783931732,0.48056843876838684,-0.07698961347341537,-0.44161456823349,-0.8938955068588257,-0.010122865438461304,-0.0389305055141449,0.14635217189788818
0.4578508471791242,-0.0887265057982769,-1.891856595797254,0.06590058654546738,-0.04073284938931465,0.45540156960487366,-0.07948369532823563,-0.44202134013175964,-0.8934760689735413,-0.016433104872703552,-0.046870291233062744,0.14423900842666626
0.45798959579278953,-0.09132208590767385,-1.8868972977093028,0.04345119744539261,-0.03908568248152733,0.4234923720359802,-0.08179691433906555,-0.44214579463005066,-0.8932056427001953,-0.01656128466129303,-0.04930928349494934,0.1356831192970276
0.4579876123764033,-0.09378401430893082,-1.8822505860074785,0.03852023556828499,-0.041730813682079315,0.40677160024642944,-0.0839957594871521,-0.4421440064907074,-0.893002450466156,-0.012607678771018982,-0.04467242956161499,0.1306886076927185
0.45802060193601357,-0.09619600061565076,-1.8777386079353326,0.04599359631538391,-0.043361734598875046,0.39618420600891113,-0.08614802360534668,-0.4421736001968384,-0.8927827477455139,-0.010791115462779999,-0.04073658585548401,0.13028579950332642
0.4581440689392147,-0.09857222628136754,-1.8732741064101244,0.056231893599033356,-0.04100707918405533,0.39423754811286926,-0.0882638543844223,-0.44228434562683105,-0.8925211429595947,-0.014168448746204376,-0.03862693905830383,0.130146324634552
0.4583909316969828,-0.10091732693745463,-1.8688507844555466,0.07234242558479309,-0.03390203416347504,0.3858898878097534,-0.09034565836191177,-0.44250571727752686,-0.8922030925750732,-0.015550389885902405,-0.038954854011535645,0.13005709648132324
0.4588057863260884,-0.10305381367124465,-1.8645219462224565,0.08634985238313675,-0.008108707144856453,0.37450850009918213,-0.09223274141550064,-0.44287770986557007,-0.8918253183364868,-0.018393531441688538,-0.04035288095474243,0.1273905634880066
0.45933180706703025,-0.10475335990624454,-1.860420356002982,0.09039545804262161,0.03299611806869507,0.3409782350063324,-0.09372393041849136,-0.44334927201271057,-0.8914355039596558,-0.019954092800617218,-0.04252108931541443,0.13415712118148804
0.45980221423949336,-0.1058339402971237,-1.8567634079389828,0.06691217422485352,0.07437252998352051,0.29990580677986145,-0.09466510266065598,-0.4437708854675293,-0.8911262154579163,-0.019302837550640106,-0.04362538456916809,0.14660412073135376
0.45987634278377837,-0.10629103428378722,-1.8536622561783398,0.0007302248850464821,0.1073259487748146,0.2501707673072815,-0.09506893157958984,-0.44383731484413147,-0.8910501599311829,-0.019112631678581238,-0.04510009288787842,0.16395360231399536
0.4591805015397009,-0.10626326737446423,-1.851144227577159,-0.09316230565309525,0.1134537011384964,0.21195493638515472,-0.09507692605257034,-0.44321364164352417,-0.8913596272468567,-0.016617462038993835,-0.04949268698692322,0.17732465267181396
0.4575470047872535,-0.10621175727043826,-1.8491169829046756,-0.18933357298374176,0.0703970417380333,0.18698540329933167,-0.09510763734579086,-0.4417487680912018,-0.8920832872390747,-0.008713215589523315,-0.058541178703308105,0.1687403917312622
0.4551830025830305,-0.10660833881191745,-1.8472359905884366,-0.23411664366722107,0.020410291850566864,0.20529112219810486,-0.09557227045297623,-0.43962669372558594,-0.8930813670158386,0.01788972318172455,-0.06432533264160156,0.13175934553146362
0.45272075471654794,-0.1075185424315479,-1.8449309437742776,-0.20167720317840576,0.0024826908484101295,0.25996288657188416,-0.09650097787380219,-0.4374138116836548,-0.8940675258636475,0.03508429229259491,-0.052545905113220215,0.06664443016052246
0.45079255212311886,-0.10878811773027212,-1.8418541425591688,-0.11185183376073837,0.01548638753592968,0.3286527991294861,-0.09772738069295883,-0.43567904829978943,-0.8947810530662537,0.03785184025764465,-0.02835601568222046,0.007436692714691162
0.44990422397150975,-0.11010934128809614,-1.8379709609692525,0.013600094243884087,0.06150580942630768,0.3818366527557373,-0.09895199537277222,-0.4348793029785156,-0.8950355052947998,0.02787649631500244,-0.011669188737869263,-0.029952287673950195
0.45020752335759673,-0.11115226690389639,-1.833496918774067,0.13184292614459991,0.11589974164962769,0.4054006040096283,-0.09987075626850128,-0.4351523816585541,-0.8948006629943848,0.010698340833187103,-0.011121422052383423,-0.04062408208847046
0.4514771533491723,-0.11181880333910224,-1.8287857521845619,0.20495255291461945,0.1565648764371872,0.4033808708190918,-0.10040542483329773,-0.43629515171051025,-0.8941841721534729,-0.004544571042060852,-0.021666884422302246,-0.0175895094871521
0.45319355975688164,-0.11213304532429366,-1.824120738177449,0.21925494074821472,0.18618084490299225,0.39024752378463745,-0.10060246288776398,-0.43783894181251526,-0.8934071063995361,-0.009871229529380798,-0.03754866123199463,0.030400514602661133
0.45475783996409963,-0.11212129026684167,-1.8196160172360505,0.17588217556476593,0.20918524265289307,0.3796044588088989,-0.1005152091383934,-0.4392447769641876,-0.8927265405654907,-0.010507792234420776,-0.04831930994987488,0.074840247631073
0.4557399447542755,-0.11181454180654873,-1.8152384878034893,0.10433896631002426,0.23861420154571533,0.38040265440940857,-0.10019317269325256,-0.44012686610221863,-0.8923282027244568,-0.011958986520767212,-0.04455333948135376,0.10006141662597656
0.4559613214602963,-0.11106553919478679,-1.81085358627876,0.02678399160504341,0.2951890528202057,0.39415812492370605,-0.09951399266719818,-0.44032561779022217,-0.8923062086105347,-0.011356428265571594,-0.04076877236366272,0.10272490978240967
0.45554247559828787,-0.10974337687103192,-1.8064553717471068,-0.017871197313070297,0.35450121760368347,0.3963204324245453,-0.09835432469844818,-0.43994954228401184,-0.8926202058792114,-0.013019628822803497,-0.04218241572380066,0.0926172137260437
0.4548411981063052,-0.10778246797138294,-1.8020772694420515,-0.03239847719669342,0.4180479645729065,0.39859557151794434,-0.09663695096969604,-0.4393196702003479,-0.8931178450584412,-0.012936465442180634,-0.04595562815666199,0.07649803161621094
0.45415527487984775,-0.10533773492283827,-1.7976550083437786,-0.01935228332877159,0.45308801531791687,0.4044291079044342,-0.09448488801717758,-0.43870338797569275,-0.8936508893966675,-0.008878201246261597,-0.04568690061569214,0.06924909353256226
0.4536492856145987,-0.10278433819857972,-1.7931446598924912,0.0006049131043255329,0.44514647126197815,0.4091780483722687,-0.09222550690174103,-0.4382486045360565,-0.8941099643707275,-0.0008226409554481506,-0.04597380757331848,0.07808518409729004
0.45327610943192903,-0.10048637774539605,-1.7885971947107386,0.006129251793026924,0.40628910064697266,0.4092787802219391,-0.09018703550100327,-0.4379131495952606,-0.8944821953773499,0.00176229327917099,-0.05361825227737427,0.09147316217422485
0.45300048736535153,-0.09866483393810838,-1.7840545285996117,0.016379225999116898,0.35264265537261963,0.40684783458709717,-0.08856943249702454,-0.43766534328460693,-0.8947650790214539,0.0006787553429603577,-0.06302130222320557,0.09647101163864136
0.4528324347478438,-0.09741473620078803,-1.779567780952679,0.031230343505740166,0.28669291734695435,0.39623913168907166,-0.08745796978473663,-0.4375142455101013,-0.8949482440948486,-0.009282797574996948,-0.06668192148208618,0.08958941698074341
0.4528943940863538,-0.0967609663148886,-1.775220661642314,0.05338810756802559,0.2208649218082428,0.3745754063129425,-0.08687024563550949,-0.4375699460506439,-0.8949782848358154,-0.025632865726947784,-0.06310144066810608,0.07446742057800293
0.4532149138688552,-0.096605044592589,-1.7711334597506923,0.0792633593082428,0.16556647419929504,0.34790265560150146,-0.0867171660065651,-0.43785813450813293,-0.8948521614074707,-0.03654339164495468,-0.057335346937179565,0.0577397346496582
0.4538216228446587,-0.09670840691877812,-1.767323952046108,0.10857491195201874,0.1527460217475891,0.31923770904541016,-0.0867839902639389,-0.43840351700782776,-0.8945786356925964,-0.03841443359851837,-0.05073225498199463,0.043657004833221436
0.45476269195667346,-0.09649062871006549,-1.7637976221179725,0.1403142511844635,0.19909431040287018,0.2887094020843506,-0.08654938638210297,-0.4392491281032562,-0.8941864371299744,-0.03515476733446121,-0.04599559307098389,0.03250741958618164
0.45600986789182485,-0.09566939235124339,-1.7605808243303078,0.15695820748806,0.24601122736930847,0.26188310980796814,-0.085762619972229,-0.44036921858787537,-0.8937112092971802,-0.02220863103866577,-0.040831953287124634,0.031711697578430176
0.45734317366943106,-0.09426867703031533,-1.7575428754049531,0.15176604688167572,0.3050263524055481,0.2547664940357208,-0.08445535600185394,-0.4415659010410309,-0.8932451009750366,0.0018900036811828613,-0.028679490089416504,0.047770917415618896
0.45849415645457436,-0.0922026926334843,-1.7545896652403827,0.11931701749563217,0.3698679208755493,0.2509254217147827,-0.0825629010796547,-0.44259828329086304,-0.8929110169410706,0.016782209277153015,-0.018095076084136963,0.06664764881134033
0.45916082333904507,-0.08958214197188182,-1.751686394755052,0.05479980632662773,0.403571754693985,0.2548595666885376,-0.08019628375768661,-0.44319599866867065,-0.8928302526473999,0.023876041173934937,-0.006785690784454346,0.0892719030380249
0.45904442719539795,-0.0869639013072785,-1.74879924496889,-0.0362376905977726,0.36402273178100586,0.26179179549217224,-0.07786285132169724,-0.44309166073799133,-0.8930885195732117,0.025906622409820557,0.013602495193481445,0.11527180671691895
0.45786312304296184,-0.0850344250202332,-1.7459898072261775,-0.16066819429397583,0.26168984174728394,0.2601218819618225,-0.07618391513824463,-0.4420323371887207,-0.8937580585479736,0.020199358463287354,0.0356755256652832,0.13155102729797363
0.4553487323154163,-0.08423155887583582,-1.7433210943638842,-0.30212998390197754,0.13089455664157867,0.25940707325935364,-0.0755595862865448,-0.4397755265235901,-0.8949235677719116,0.005353853106498718,0.057191938161849976,0.1352342963218689
0.4513402598338931,-0.08463493537492994,-1.740818847869995,-0.45529890060424805,0.00857910793274641,0.2530486285686493,-0.07606898248195648,-0.4361719787120819,-0.8966423273086548,-0.021694131195545197,0.0777277946472168,0.11469048261642456
0.44602612336819253,-0.08578785831406398,-1.738681216323229,-0.5608548521995544,-0.041437987238168716,0.21710741519927979,-0.07730020582675934,-0.4313838481903076,-0.8988507390022278,-0.05833522975444794,0.08920547366142273,0.05264407396316528
0.44008393224265924,-0.08670485672068133,-1.7372069763391798,-0.5870839357376099,-0.010618149302899837,0.1436232626438141,-0.07834501564502716,-0.4260154068470001,-0.9013173580169678,-0.09601721912622452,0.09625771641731262,-0.03467202186584473
0.43437170356993415,-0.08662993255606799,-1.7366825862203605,-0.5335817933082581,0.077033132314682,0.04847623407840729,-0.07848675549030304,-0.4208405315876007,-0.9037328362464905,-0.11258385330438614,0.10045170783996582,-0.11370790004730225
0.4295543426700389,-0.08519803269453041,-1.7370560651675666,-0.42556846141815186,0.18283526599407196,-0.027031660079956055,-0.0773642435669899,-0.4164656698703766,-0.905853807926178,-0.09139801561832428,0.1037062406539917,-0.16085761785507202
0.42598933065958483,-0.08238863728931618,-1.7377997485888688,-0.2930288016796112,0.31571289896965027,-0.03958287462592125,-0.0749407485127449,-0.41322189569473267,-0.9075414538383484,-0.03426646441221237,0.11475998163223267,-0.17683959007263184
0.42381215509137715,-0.07847169488906335,-1.7381684475888621,-0.14628104865550995,0.4339151382446289,0.011871220543980598,-0.07145574688911438,-0.41123831272125244,-0.9087228178977966,0.0272509828209877,0.14620840549468994,-0.17243868112564087
0.423013021109122,-0.07379670270862826,-1.7377005805134103,-0.009795119985938072,0.5386067032814026,0.09013272821903229,-0.06723091751337051,-0.41050976514816284,-0.9093743562698364,0.062195464968681335,0.18384042382240295,-0.1673467755317688
0.423449740081323,-0.06833664752557721,-1.7362237875399504,0.11425033211708069,0.6705983281135559,0.17376595735549927,-0.0622524619102478,-0.41090795397758484,-0.9095489382743835,0.06888998299837112,0.21207064390182495,-0.16764521598815918
0.4250062214896209,-0.06186868404094513,-1.7338389825251483,0.2132280468940735,0.8133059740066528,0.2328910529613495,-0.056328658014535904,-0.412326455116272,-0.9092931151390076,0.04195482283830643,0.22853431105613708,-0.16527652740478516
0.42708003262072786,-0.05442616415430841,-1.7310350197578706,0.18925230205059052,0.8782060742378235,0.25005266070365906,-0.04951310530304909,-0.4142148792743683,-0.9088314175605774,0.03014964610338211,0.2241208851337433,-0.11317175626754761
0.42764919123095496,-0.048550608612580835,-1.728237088409941,-0.04525340721011162,0.46355006098747253,0.25572919845581055,-0.04416094347834587,-0.41473284363746643,-0.9088709950447083,0.1222858875989914,0.18369951844215393,0.15319472551345825
0.4262416208056511,-0.04714198345490362,-1.7254440850674366,-0.19775140285491943,0.10192704200744629,0.25441277027130127,-0.04290810972452164,-0.4134516417980194,-0.9095144867897034,0.25070223212242126,0.11894172430038452,0.12441933155059814
0.4239060598931808,-0.047323093686062426,-1.72305937582308,-0.2372189164161682,0.07868004590272903,0.19927334785461426,-0.043118394911289215,-0.4113239049911499,-0.9104688167572021,0.19120489060878754,0.1004260778427124,-0.04216790199279785
0.42165099082371954,-0.04688584027113908,-1.7212177986780348,-0.17884279787540436,0.1792285293340683,0.15782113373279572,-0.04276364669203758,-0.409267395734787,-0.9114118218421936,0.1229790449142456,0.1469230055809021,-0.2236894965171814
0.42071784004494545,-0.044266934713794955,-1.7197963626770125,0.01737571880221367,0.4789840877056122,0.10088513791561127,-0.040393486618995667,-0.4084157943725586,-0.9119018316268921,0.09592016041278839,0.1850576400756836,-0.4095855951309204
0.4219985135385886,-0.037818808034706865,-1.719374452392529,0.2313077747821808,0.8319188356399536,-0.041022464632987976,-0.03449282422661781,-0.4095844626426697,-0.9116199016571045,0.031746186316013336,0.1835102140903473,-0.5285351276397705
0.42503329851076926,-0.028040731608411827,-1.7204458134264207,0.3515585660934448,1.0081175565719604,-0.15682044625282288,-0.02554246038198471,-0.412351131439209,-0.9106668829917908,0.016783857718110085,0.2047857940196991,-0.48001915216445923
0.4287155312092025,-0.01676946464596064,-1.7221297010169863,0.3634260594844818,1.0978450775146484,-0.1512388288974762,-0.01525112148374319,-0.4157029092311859,-0.9093725681304932,0.08208455890417099,0.2188797891139984,-0.38442015647888184
0.4320358170526076,-0.005116016190003486,-1.7233392598204533,0.28393256664276123,1.1076979637145996,-0.06882891058921814,-0.004645911976695061,-0.41872042417526245,-0.908103346824646,0.11476853489875793,0.23756808042526245,-0.298805832862854
0.43426607475317186,0.005457465177051709,-1.723405849365297,0.1548006683588028,0.9807518124580383,0.0637483298778534,0.004950873553752899,-0.42074471712112427,-0.9071655869483948,0.13639123737812042,0.2808368504047394,-0.20954889059066772
0.4352618272237331,0.013695068218291296,-1.721761928666036,0.04501025751233101,0.7944117784500122,0.23959366977214813,0.012417747639119625,-0.4216478168964386,-0.9066746234893799,0.17120645940303802,0.306260883808136,-0.14647167921066284
0.4354309246739054,0.019033212332883406,-1.7180845941881966,-0.015101734548807144,0.5774960517883301,0.42381563782691956,0.017256150022149086,-0.4218011498451233,-0.906524121761322,0.19447475671768188,0.3042016625404358,-0.11836296319961548
0.4353384615133954,0.021482104437294043,-1.7126288052487526,-0.022496001794934273,0.3742219805717468,0.5568530559539795,0.019476914778351784,-0.4217173159122467,-0.9065181612968445,0.1778954714536667,0.2977701723575592,-0.11186867952346802
0.43534564105422285,0.021723701830871578,-1.706122856589443,0.0005404441617429256,0.22345826029777527,0.6125239133834839,0.019695859402418137,-0.4217238128185272,-0.9065103530883789,0.1294129639863968,0.2815108597278595,-0.11933797597885132
0.43570479937773515,0.02058526721293769,-1.699312245348826,0.04419897496700287,0.13029129803180695,0.6150411367416382,0.01866072602570057,-0.42204946279525757,-0.9063807129859924,0.0749976634979248,0.25316518545150757,-0.1421879529953003
0.4364706869390506,0.018901656180561787,-1.6927500866996568,0.0839548259973526,0.08810344338417053,0.571510374546051,0.01712859235703945,-0.42274367809295654,-0.9060873985290527,0.035849861800670624,0.22856032848358154,-0.16036456823349
0.4376805982715994,0.017309391638419807,-1.6868303271189629,0.14241760969161987,0.10296015441417694,0.5044516921043396,0.01567697711288929,-0.42383983731269836,-0.905601441860199,-0.002462923526763916,0.20777535438537598,-0.17897796630859375
0.43960858800894037,0.01644978449641206,-1.6817081268337235,0.22894372045993805,0.1657225340604782,0.4232044517993927,0.014885040000081062,-0.4255852997303009,-0.9047958850860596,-0.03351607918739319,0.2015404999256134,-0.20709681510925293
0.4423521577186825,0.016663904190079577,-1.6774884877637855,0.2991774082183838,0.2317124754190445,0.34845563769340515,0.015059261582791805,-0.4280664026737213,-0.9036217927932739,-0.04444774612784386,0.20310604572296143,-0.21864688396453857
0.4455481011098437,0.017632371900942027,-1.6738840306791511,0.3215658962726593,0.26600193977355957,0.3163025379180908,0.015910180285573006,-0.4309525489807129,-0.9022343158721924,-0.027598470449447632,0.202726811170578,-0.19491839408874512
0.4486996567871291,0.01880769811506674,-1.670376521553183,0.29055312275886536,0.2638903260231018,0.3311595320701599,0.01694496162235737,-0.4337942898273468,-0.900852620601654,0.005729541182518005,0.19671845436096191,-0.15426212549209595
0.45144183454721065,0.019572785294190227,-1.6665186456807217,0.23931610584259033,0.21731999516487122,0.3741491734981537,0.017610840499401093,-0.43626338243484497,-0.8996466398239136,0.03793109208345413,0.18894895911216736,-0.11964040994644165
0.4537023566279302,0.01953082522326317,-1.662123126771568,0.19721099734306335,0.15935416519641876,0.4214437007904053,0.017553785815835,-0.4382963180541992,-0.8986591100692749,0.060327015817165375,0.18133831024169922,-0.1007915735244751
0.45566833340263835,0.018774819997047394,-1.6573028592375603,0.18084460496902466,0.11328600347042084,0.4487318992614746,0.016858180984854698,-0.440062552690506,-0.897808849811554,0.06556973606348038,0.17127898335456848,-0.10241997241973877
0.45750919893440434,0.01751264174916033,-1.6522875063130533,0.17159171402454376,0.07683157920837402,0.45442283153533936,0.01571075990796089,-0.4417148530483246,-0.8970178961753845,0.05748559534549713,0.1619754433631897,-0.1094059944152832
0.4592614430098345,0.015896721207826297,-1.6471818863879732,0.16067036986351013,0.05168231576681137,0.46372532844543457,0.014248904772102833,-0.4432862102985382,-0.8962668776512146,0.050555117428302765,0.1517670452594757,-0.1105385422706604
0.4609080928978707,0.014160735349409865,-1.6420164638090957,0.15555576980113983,0.06443246454000473,0.4627567231655121,0.012682624161243439,-0.44476163387298584,-0.8955591917037964,0.048627130687236786,0.13427576422691345,-0.11574757099151611
0.4625315716585832,0.01280582281562898,-1.6369734870714305,0.15857844054698944,0.1133393719792366,0.4395870268344879,0.011459947563707829,-0.44621509313583374,-0.8948523998260498,0.03602534532546997,0.11532828211784363,-0.1287529468536377
0.4642159951993471,0.01223274098611046,-1.63232953586266,0.16505712270736694,0.1890658140182495,0.39553701877593994,0.01093791238963604,-0.4477218985557556,-0.8941059708595276,0.011339861899614334,0.10146945714950562,-0.1412944197654724
0.4659066769826681,0.012741133720813301,-1.6282024304859777,0.15965110063552856,0.27790841460227966,0.3467535972595215,0.011382807046175003,-0.4492330253124237,-0.8933420777320862,0.002350044436752796,0.0877065658569336,-0.14019668102264404
0.46745897418382987,0.01431063030692058,-1.624587309427865,0.13432630896568298,0.3547009229660034,0.304988294839859,0.012774895876646042,-0.45061933994293213,-0.8926247954368591,0.0025143511593341827,0.07752668857574463,-0.12266451120376587
0.4686226081228711,0.016603239662360703,-1.6212891759736774,0.08574014902114868,0.39584094285964966,0.2921237349510193,0.014812584035098553,-0.45165783166885376,-0.8920682668685913,0.021777931600809097,0.07528454065322876,-0.08908712863922119
0.4692336327787151,0.019085053104098353,-1.6178634795222304,0.026900533586740494,0.4026394486427307,0.32536956667900085,0.017021214589476585,-0.4522028863430023,-0.8917526602745056,0.05139913409948349,0.07494455575942993,-0.05308675765991211
0.46926866889097313,0.02129568224296963,-1.613915764718218,-0.03159889206290245,0.392817884683609,0.37683188915252686,0.018992166966199875,-0.4522341191768646,-0.8916969895362854,0.07346077263355255,0.07177147269248962,-0.029353976249694824
0.46885490206442915,0.023087339459439818,-1.6093606978321713,-0.06510838121175766,0.3712763488292694,0.43095290660858154,0.020594069734215736,-0.4518650472164154,-0.8918485641479492,0.07397984713315964,0.0694645345211029,-0.02352619171142578
0.4683368576953025,0.024473598857896302,-1.6042751531081283,-0.054090987890958786,0.3675578832626343,0.4712548553943634,0.021836109459400177,-0.45140284299850464,-0.8920530676841736,0.06246864050626755,0.06833094358444214,-0.034018099308013916
0.46805493381949104,0.025726371520939772,-1.5988393859908656,-0.02175222337245941,0.372658371925354,0.48874303698539734,0.022956902161240578,-0.4511512815952301,-0.8921521902084351,0.0418623723089695,0.06574475765228271,-0.04882681369781494
0.4682072489457808,0.026997153985237443,-1.5934108331329018,0.02683911845088005,0.3715813457965851,0.47576215863227844,0.02408876083791256,-0.4512872099876404,-0.8920536041259766,0.020924609154462814,0.06083005666732788,-0.05299949645996094
0.4687967249278137,0.0284075436127847,-1.5882317418640444,0.06600037217140198,0.3748972713947296,0.4477273225784302,0.025339320302009583,-0.4518131613731384,-0.8917526602745056,0.006383644416928291,0.04925578832626343,-0.051515161991119385
0.4697598260218514,0.029977786173213332,-1.5834287462811725,0.09915227442979813,0.3697831630706787,0.4138849079608917,0.02672649919986725,-0.45267215371131897,-0.8912764191627502,-0.006447628140449524,0.04382818937301636,-0.045292794704437256
0.47095570523389446,0.031702322314468435,-1.579037433281291,0.10884112119674683,0.3690486550331116,0.37582939863204956,0.0282463189214468,-0.45373815298080444,-0.8906872868537903,-0.015932535752654076,0.04817479848861694,-0.03449887037277222
0.47210266399577927,0.033503807215250966,-1.5750105216030357,0.09325143694877625,0.35649189352989197,0.3479945957660675,0.02983338013291359,-0.45475995540618896,-0.8901142477989197,-0.015001894906163216,0.053499579429626465,-0.019950449466705322
0.47310412807479557,0.03532214091972638,-1.571185412384521,0.08547473698854446,0.35143721103668213,0.3396975100040436,0.031435754150152206,-0.4556516408920288,-0.8896029591560364,-0.003252830356359482,0.04960000514984131,-0.020217597484588623
0.47404777531578,0.037057459840246075,-1.5673524136059014,0.07821344584226608,0.3380083441734314,0.34755071997642517,0.03296350687742233,-0.4564914405345917,-0.8891169428825378,0.01301116868853569,0.044259995222091675,-0.026517212390899658
0.4749643520016386,0.038597395181657446,-1.5634156928582683,0.07765471190214157,0.32456016540527344,0.35900765657424927,0.03431649133563042,-0.45730674266815186,-0.88864666223526,0.020203102380037308,0.045914530754089355,-0.028955817222595215
0.47584576711155296,0.039822712865881134,-1.5593366473042862,0.07220596075057983,0.2916359603404999,0.3686025142669678,0.03538927808403969,-0.4580904245376587,-0.8882008790969849,0.025783147662878036,0.050940126180648804,-0.023359179496765137
0.47672744283460233,0.04069450536313838,-1.5551552016989927,0.07487019151449203,0.2658485770225525,0.37792226672172546,0.03614714369177818,-0.4588739573955536,-0.8877657651901245,0.02397242560982704,0.04957219958305359,-0.02684605121612549
0.47761527176211654,0.041501453288840036,-1.551013281605023,0.07149678468704224,0.2780987024307251,0.3636077344417572,0.036846596747636795,-0.45966261625289917,-0.8873289227485657,-0.0027127452194690704,0.04434889554977417,-0.045974910259246826
0.4784870717672878,0.04268887686989258,-1.54714119743198,0.07823804765939713,0.3145270347595215,0.3254835307598114,0.03788308799266815,-0.46043670177459717,-0.8868837952613831,-0.041255347430706024,0.03766143321990967,-0.07446563243865967
0.47967246270122926,0.044706356897513726,-1.5438149769644618,0.13970647752285004,0.4008108973503113,0.2710128724575043,0.03964785858988762,-0.46148863434791565,-0.8862597346305847,-0.07684884965419769,0.02987852692604065,-0.12776309251785278
0.48171721220460945,0.04800901557993142,-1.5411873697852998,0.24908943474292755,0.49537336826324463,0.21319139003753662,0.04252927750349045,-0.4633016586303711,-0.8851795792579651,-0.08772586286067963,0.030653923749923706,-0.1716136336326599
0.4847912743085833,0.052490300673747804,-1.5392499794630996,0.33828040957450867,0.5774808526039124,0.16641494631767273,0.046420637518167496,-0.46602368354797363,-0.8835536241531372,-0.06994974613189697,0.03999829292297363,-0.1697300672531128
0.48848151189566685,0.05776822039398432,-1.5376258138323102,0.36915072798728943,0.6138479113578796,0.1655115932226181,0.05098365619778633,-0.4692855477333069,-0.8815734386444092,-0.022037792950868607,0.054597437381744385,-0.11575627326965332
0.49214607667009297,0.06305001769579836,-1.5357536958886555,0.3352394998073578,0.6126276254653931,0.21349887549877167,0.05553048476576805,-0.47251835465431213,-0.8795696496963501,0.044704437255859375,0.06359806656837463,-0.0483020544052124
0.49523990292758724,0.06802506665743228,-1.5331761436692941,0.23284922540187836,0.6521478891372681,0.27753913402557373,0.05980602651834488,-0.4752427339553833,-0.8778197765350342,0.08925702422857285,0.0679246187210083,0.0038878917694091797
0.49591670590097486,0.07277575509763702,-1.529508159983558,-0.13861611485481262,0.4830282926559448,0.3665924370288849,0.06395217776298523,-0.4758381247520447,-0.8772047162055969,0.1403476893901825,0.060829609632492065,0.1804732084274292
0.49380533784491887,0.07341469108384495,-1.5246920719257637,-0.30391931533813477,0.16484208405017853,0.4437636435031891,0.06458619236946106,-0.47398003935813904,-0.878163754940033,0.22382012009620667,0.03310784697532654,0.19415801763534546
0.491085601015034,0.07223475646314094,-1.5191460908224976,-0.3029211759567261,0.12124481797218323,0.48662349581718445,0.06364277750253677,-0.4715834856033325,-0.8795218467712402,0.21145787835121155,0.01198875904083252,0.0013937950134277344
0.48866559105425,0.07024705727670273,-1.5132249802660753,-0.24286769330501556,0.045502908527851105,0.5188727974891663,0.06197435036301613,-0.4694480895996094,-0.880782425403595,0.1691657304763794,0.03202435374259949,-0.07478398084640503
0.48730401408855234,0.0682633758282203,-1.5071349271967571,-0.09346113353967667,0.15119977295398712,0.5263497233390808,0.06027057766914368,-0.46824541687965393,-0.8815405368804932,0.12985387444496155,0.08154192566871643,-0.17282652854919434
0.48756555329791373,0.0681748313984024,-1.5014519105048394,0.07339709252119064,0.36839306354522705,0.4687996208667755,0.06018417701125145,-0.4684765040874481,-0.8814235925674438,0.05768990144133568,0.08923459053039551,-0.2713473439216614
0.4891777102655069,0.07090174098282477,-1.4967807124950274,0.17405837774276733,0.6067172288894653,0.3723236918449402,0.06253392994403839,-0.4699001908302307,-0.8805017471313477,0.016949042677879333,0.0854855477809906,-0.29537105560302734
0.4910944210875285,0.0762053963539376,-1.4931213685839735,0.14578652381896973,0.7806946635246277,0.30667439103126526,0.06713421642780304,-0.4715912640094757,-0.8792580366134644,0.033543214201927185,0.08677983283996582,-0.22743141651153564
0.4923182648304879,0.08284898550834502,-1.489797296384521,0.04256950691342354,0.8409323692321777,0.30517375469207764,0.07292629778385162,-0.4726701080799103,-0.8782168030738831,0.0662337988615036,0.08004617691040039,-0.14255040884017944
0.4923746277392914,0.08922061915882032,-1.486008906465484,-0.08892513811588287,0.7707352042198181,0.36564773321151733,0.0785180851817131,-0.4727197587490082,-0.8777077794075012,0.10695244371891022,0.09176883101463318,-0.08255833387374878
0.49123644581024806,0.09376906859685558,-1.4812154514112361,-0.20847971737384796,0.5772740244865417,0.4580096900463104,0.08255979418754578,-0.4717164933681488,-0.8778766393661499,0.14285823702812195,0.11177694797515869,-0.04155689477920532
0.4892754563651181,0.09551567579109992,-1.4752156817405677,-0.2724294066429138,0.32862716913223267,0.5538736581802368,0.0841810330748558,-0.4699864685535431,-0.8786502480506897,0.16954205930233002,0.11505177617073059,-0.0357632040977478
0.4871323373375287,0.09438682483451864,-1.4682449080381288,-0.2605852782726288,0.10490193963050842,0.6204109191894531,0.08328384906053543,-0.46809372305870056,-0.8797454833984375,0.1795945018529892,0.10353073477745056,-0.0707855224609375
0.48541605734083976,0.09122981414918786,-1.4608074031091993,-0.19953016936779022,-0.029679838567972183,0.6486214995384216,0.08057914674282074,-0.46657639741897583,-0.8808027505874634,0.16499574482440948,0.08704453706741333,-0.12360703945159912
0.48429446366464807,0.08714015101219408,-1.4533025414206273,-0.1448674350976944,-0.07644432783126831,0.6482346057891846,0.07702178508043289,-0.46558406949043274,-0.881645679473877,0.14928126335144043,0.08509093523025513,-0.14961957931518555
0.48348883773812945,0.08308539022482705,-1.4458933397216531,-0.13390053808689117,-0.03706016391515732,0.6410285830497742,0.07347740978002548,-0.4648709297180176,-0.88232421875,0.14144256711006165,0.09238865971565247,-0.1407623291015625
0.48249305975188383,0.07973050953431506,-1.4384393386083996,-0.1769281029701233,0.06653954833745956,0.658461332321167,0.0705537423491478,-0.4639890789985657,-0.8830267786979675,0.14442726969718933,0.10440045595169067,-0.10961848497390747
0.48094041949217226,0.07727410145301877,-1.430590784957581,-0.23690089583396912,0.17620666325092316,0.7009318470954895,0.06843998283147812,-0.4626131057739258,-0.883914589881897,0.1549486219882965,0.12359336018562317,-0.08654439449310303
0.4789725200008253,0.07587179359845903,-1.4222218013917167,-0.2645198404788971,0.31382307410240173,0.7456164360046387,0.06726928055286407,-0.4608675539493561,-0.8849157691001892,0.14794063568115234,0.13754910230636597,-0.09819275140762329
0.47692777652333884,0.07556920907761307,-1.413399016661385,-0.25522568821907043,0.43097925186157227,0.7796630859375,0.06707251816987991,-0.4590519666671753,-0.8858739137649536,0.1414540410041809,0.1485813856124878,-0.11148631572723389
0.47510313525207154,0.07626367924364705,-1.4043023656670757,-0.23159824311733246,0.5341699123382568,0.7995970249176025,0.06775141507387161,-0.4574301540851593,-0.8866608142852783,0.1375097632408142,0.1492941975593567,-0.12778925895690918
0.4734234744235215,0.07749500230388623,-1.394961805959175,-0.22742347419261932,0.5512820482254028,0.8274640440940857,0.06890251487493515,-0.45593589544296265,-0.8873414993286133,0.15579834580421448,0.14244407415390015,-0.12378215789794922
0.4719023578083668,0.07834463262603328,-1.3852995581314835,-0.20245450735092163,0.48339617252349854,0.8603289723396301,0.06971060484647751,-0.4545815587043762,-0.8879730105400085,0.18192201852798462,0.13088160753250122,-0.12617188692092896
0.47099274490299653,0.07814181419250592,-1.3752156713216852,-0.11241196095943451,0.3838152587413788,0.9123514294624329,0.06956275552511215,-0.45377117395401,-0.8883990049362183,0.20697221159934998,0.1262107491493225,-0.1580488085746765
0.4713273428079895,0.07655322381925352,-1.3645991362853183,0.03858843445777893,0.26502808928489685,0.9750638604164124,0.06813974678516388,-0.4540693163871765,-0.8883569240570068,0.22600385546684265,0.142927348613739,-0.19860291481018066
0.47336357562194314,0.07368272975772654,-1.3533540669767172,0.21746869385242462,0.19354164600372314,1.0486438274383545,0.0655212476849556,-0.45588257908821106,-0.8876249194145203,0.24076837301254272,0.17011600732803345,-0.22515273094177246
0.47718062374053505,0.07012863035113803,-1.34133675354423,0.3826757073402405,0.2045830339193344,1.1305418014526367,0.0622437447309494,-0.45927655696868896,-0.8861098885536194,0.25182783603668213,0.19629135727882385,-0.23525851964950562
0.48237816863521565,0.0665837439780719,-1.328457164403739,0.4835170805454254,0.2801254391670227,1.2121766805648804,0.05894257873296738,-0.4638873040676117,-0.8839312195777893,0.25737205147743225,0.21873962879180908,-0.2175244688987732
0.4882117365246297,0.06354004035090122,-1.314723788709936,0.5073577761650085,0.396816223859787,1.279013752937317,0.05607910081744194,-0.46904727816581726,-0.8813908100128174,0.2649199962615967,0.23326849937438965,-0.17273211479187012
0.4938831753803748,0.06126219309556309,-1.3002074460066115,0.45349404215812683,0.5161764621734619,1.335585594177246,0.053907547146081924,-0.47404858469963074,-0.8788469433784485,0.2731645405292511,0.23875805735588074,-0.12011545896530151
0.49876354301323994,0.059793050666500584,-1.2850004089239082,0.35266879200935364,0.6355592608451843,1.3854795694351196,0.052477460354566574,-0.4783400893211365,-0.8766053318977356,0.28437548875808716,0.24094384908676147,-0.0747038722038269
0.5024572304773246,0.05904879014400513,-1.2691304073067586,0.21725398302078247,0.7276508212089539,1.42851722240448,0.05172039940953255,-0.481580525636673,-0.8748743534088135,0.2966682016849518,0.24438267946243286,-0.04237717390060425
0.5048881857659542,0.0587086103785034,-1.252640918564887,0.10262374579906464,0.7904609441757202,1.4717185497283936,0.05135393887758255,-0.48370957374572754,-0.873720645904541,0.29773658514022827,0.24997550249099731,-0.03501647710800171
0.5064405205484462,0.05869164710585673,-1.2356132548780099,0.037808001041412354,0.8496316075325012,1.5076647996902466,0.05129501223564148,-0.4850676357746124,-0.8729709386825562,0.29553720355033875,0.2623046040534973,-0.05427515506744385
0.5076429066687734,0.05892861860306434,-1.2182309412027492,0.029481425881385803,0.8732707500457764,1.53043794631958,0.051467493176460266,-0.48611876368522644,-0.8723758459091187,0.29661592841148376,0.28026244044303894,-0.07839930057525635
0.5090602043431471,0.05904238432343972,-1.2005328960281634,0.07213062047958374,0.8655605912208557,1.5668751001358032,0.0515260323882103,-0.48735684156417847,-0.8716813325881958,0.30105873942375183,0.29407379031181335,-0.10642224550247192
0.5110968442861138,0.05886323791684254,-1.1823179459185718,0.14587756991386414,0.8729116916656494,1.622671127319336,0.051311373710632324,-0.4891342222690582,-0.8706979155540466,0.3086128830909729,0.3070511519908905,-0.13593965768814087
0.513823661479748,0.0583639481722087,-1.163400408795924,0.2048197090625763,0.8788065910339355,1.692455768585205,0.050798650830984116,-0.4915107488632202,-0.8693886995315552,0.3134896159172058,0.3260139524936676,-0.14634311199188232
0.5170757981462649,0.05742584022554545,-1.1435310412716786,0.24062123894691467,0.886625349521637,1.7900984287261963,0.04989103972911835,-0.49434033036231995,-0.867835521697998,0.32761135697364807,0.34689468145370483,-0.13538408279418945
0.5206246663289558,0.055938130457607635,-1.1222634968659386,0.2551375925540924,0.9195356369018555,1.9286309480667114,0.04850150644779205,-0.49742212891578674,-0.8661516904830933,0.3559631407260895,0.3642434775829315,-0.11880308389663696
0.5242719403694703,0.053881151857273865,-1.0992419605258363,0.25276216864585876,0.9601956009864807,2.0874667167663574,0.04662173241376877,-0.5005828738212585,-0.8644322752952576,0.37642812728881836,0.38199156522750854,-0.09714609384536743
0.5278506066734884,0.05125590611268148,-1.0742361426870735,0.2347509264945984,1.0232877731323242,2.258897066116333,0.044260162860155106,-0.5036776661872864,-0.8627570867538452,0.3901727497577667,0.40109288692474365,-0.07278972864151001
0.5312270646594629,0.04813043439035539,-1.0470685805070297,0.2014053612947464,1.0863531827926636,2.4446306228637695,0.041481371968984604,-0.5065916776657104,-0.8611876964569092,0.3997417092323303,0.42147815227508545,-0.044543564319610596
0.5341685087817811,0.04433701082284489,-1.0175703798523166,0.14951767027378082,1.1412203311920166,2.646359443664551,0.038148023188114166,-0.5091255307197571,-0.8598464727401733,0.41122326254844666,0.44308555126190186,-0.00581514835357666
0.5365118566963771,0.039704952173936374,-0.9856061644039101,0.08844567835330963,1.1816093921661377,2.849306344985962,0.03411731496453285,-0.5111410617828369,-0.8588194251060486,0.41902291774749756,0.4610006809234619,0.031732022762298584
0.5382099700047778,0.03404018533134415,-0.9513624213955533,0.03686823323369026,1.1788409948349,3.0220258235931396,0.02922219969332218,-0.5125998258590698,-0.8581302165985107,0.4130384922027588,0.4747733473777771,0.05585360527038574
0.5394604775944422,0.02717721373925341,-0.915216374080549,0.028525348752737045,1.1473129987716675,3.165419578552246,0.02331479638814926,-0.5136731863021851,-0.8576691150665283,0.40240538120269775,0.48248422145843506,0.05438542366027832
0.540535179628523,0.019190964656183175,-0.8775557318618622,0.0352943055331707,1.1195461750030518,3.2786927223205566,0.01645396463572979,-0.5145949721336365,-0.8572755455970764,0.3868968188762665,0.488883912563324,0.03706979751586914
0.5413160257309809,0.010288674761557764,-0.8385817203687046,0.012990312650799751,1.1083928346633911,3.3887546062469482,0.008817560970783234,-0.5152643322944641,-0.8569859862327576,0.3779163956642151,0.5029657483100891,0.03201949596405029
0.5412943336154615,0.0005906518897177758,-0.7980742336850156,-0.06267568469047546,1.1192066669464111,3.534762144088745,0.0005062137497588992,-0.5152457356452942,-0.8570423722267151,0.39211761951446533,0.522722601890564,0.04394721984863281
0.5399249573845727,-0.00984677804828491,-0.7557525474244091,-0.18034105002880096,1.1410564184188843,3.7029833793640137,-0.008445910178124905,-0.5140716433525085,-0.8577056527137756,0.4214249849319458,0.544024646282196,0.06261593103408813
0.5368108238707456,-0.020947158093027433,-0.7115409928617127,-0.3231687843799591,1.1616101264953613,3.8712940216064453,-0.017999498173594475,-0.5113980174064636,-0.8591554164886475,0.43586140871047974,0.5642697811126709,0.06231093406677246
