attitudeX,attitudeY,attitudeZ,gyroX,gyroY,gyroZ,gravityX,gravityY,gravityZ,accX,accY,accZ
0.6152020174881495,0.18764066296265677,0.6341685737575343,0.6749412417411804,-0.17399267852306366,-0.24129527807235718,0.15234039723873138,-0.5771235227584839,-0.8023221492767334,0.013095438480377197,-0.006799757480621338,-0.2674868106842041
0.6219133764007262,0.18861778196885018,0.629423504931036,0.7675649523735046,-0.18959064781665802,-0.27054089307785034,0.1523945927619934,-0.5825913548469543,-0.7983502745628357,5.5983662605285645e-05,-0.03453505039215088,-0.1994677186012268
0.6291739934913256,0.18963253127637558,0.6240086235043002,0.8186132311820984,-0.23744899034500122,-0.3128156363964081,0.15240326523780823,-0.5884771347045898,-0.7940201163291931,-0.010099783539772034,-0.07087033987045288,-0.13829189538955688
0.6367415629546447,0.1903515006011501,0.6181659297357255,0.8382607102394104,-0.32179802656173706,-0.31433767080307007,0.15212713181972504,-0.5945786833763123,-0.7895147204399109,0.019656315445899963,-0.0775250792503357,-0.10431462526321411
0.6445124015898462,0.1896728017693922,0.6127051975299916,0.8477149605751038,-0.464551717042923,-0.2450086623430252,0.15071558952331543,-0.6008087396621704,-0.785056471824646,0.06835487484931946,-0.08740842342376709,-0.0734487771987915
0.6525751287683019,0.18698154803030975,0.6083068637085083,0.863387942314148,-0.5966325402259827,-0.1394636482000351,0.14769694209098816,-0.6072344183921814,-0.7806740999221802,0.10547691583633423,-0.11752748489379883,-0.0547141432762146
0.6610179676686074,0.18250741061417114,0.6051463840413339,0.8799487948417664,-0.6731307506561279,-0.04861202463507652,0.14326700568199158,-0.6139207482337952,-0.7762576341629028,0.11602562665939331,-0.13900893926620483,-0.05200469493865967
0.6696011300985492,0.17680319322486737,0.6028342227008309,0.8669208288192749,-0.7482166886329651,-0.007726302370429039,0.13790486752986908,-0.6206732988357544,-0.7718464732170105,0.0941813588142395,-0.13884812593460083,-0.04402577877044678
0.6779772696520142,0.17025294086030518,0.6010464277620715,0.8192883133888245,-0.7716546058654785,0.018349505960941315,0.1319606453180313,-0.6272189021110535,-0.7675824761390686,0.05981184542179108,-0.13520169258117676,-0.027125835418701172
0.6857772167129924,0.16363533887999293,0.5996203450221747,0.7537602782249451,-0.7251639366149902,0.017143476754426956,0.12607741355895996,-0.6332747340202332,-0.7635887265205383,0.028814584016799927,-0.13227397203445435,-0.0030586719512939453
0.6930283363372679,0.1575741578507302,0.5981893992438112,0.7150387167930603,-0.6631743907928467,-0.0014400607906281948,0.12072309851646423,-0.6388698816299438,-0.7597836852073669,0.007099799811840057,-0.11900359392166138,0.006823420524597168
0.7002022331770683,0.1523747848961966,0.5966575852303132,0.7445178031921387,-0.5714414715766907,-0.011313296854496002,0.11607242375612259,-0.6443723440170288,-0.7558514475822449,0.0009320005774497986,-0.10468149185180664,0.007606208324432373
0.7079713962834409,0.14790043861976956,0.5948428728351158,0.8363936543464661,-0.5675076842308044,-0.030484328046441078,0.11194822192192078,-0.6502940058708191,-0.7513889670372009,0.0033929944038391113,-0.08722424507141113,-0.0007168054580688477
0.7168868263644608,0.14340282645633257,0.5927510875080331,0.973085343837738,-0.599909245967865,-0.016446290537714958,0.10773477703332901,-0.6570409536361694,-0.7461168766021729,0.011878885328769684,-0.06408929824829102,0.0008471012115478516
0.7272237814916148,0.13846926141610724,0.5908228449189137,1.1020920276641846,-0.6386233568191528,0.01904379203915596,0.1031094640493393,-0.6647983193397522,-0.7398726940155029,0.00278656929731369,-0.04090529680252075,0.01582789421081543
0.7386028710993426,0.13309732614412165,0.5890619693914789,1.1734155416488647,-0.6652736663818359,0.024025335907936096,0.09812317043542862,-0.6732555031776428,-0.7328702211380005,-0.03318174183368683,-0.024940848350524902,0.04346287250518799
0.750635283999202,0.12762158715039384,0.5870609668762875,1.249450922012329,-0.6956603527069092,-0.005664915312081575,0.09307088702917099,-0.6821034550666809,-0.7253087162971497,-0.0566176176071167,0.0002645254135131836,0.06089520454406738
0.7638067244700892,0.12227111110456285,0.5846688759433972,1.4073742628097534,-0.7009665369987488,-0.00900174118578434,0.08808533847332001,-0.6916757225990295,-0.7168163657188416,-0.07311645150184631,0.022089600563049316,0.04951894283294678
0.7788213283199751,0.11626048464348107,0.5824768169374057,1.6044628620147705,-0.8305453062057495,0.06961902976036072,0.0825611799955368,-0.7024409770965576,-0.7069372534751892,-0.07316172868013382,0.022280573844909668,0.03182739019393921
0.7960618583615185,0.10673826090960382,0.5812117752837888,1.8436511754989624,-1.2741440534591675,0.11546876281499863,0.07452452927827835,-0.7146068215370178,-0.6955452561378479,-0.05159054696559906,0.0381237268447876,0.0134773850440979
0.8166558967671079,0.09311164984206487,0.5792173588778975,2.3018569946289062,-1.6984375715255737,0.012673944234848022,0.0636579692363739,-0.7288603186607361,-0.6816965937614441,-0.11810130625963211,0.19799190759658813,-0.06061297655105591
0.8426608264596586,0.07827873703125357,0.5751776681996309,2.9093539714813232,-1.8115898370742798,-0.11358018219470978,0.052039675414562225,-0.7464165091514587,-0.6634412407875061,-0.17710068821907043,0.313295841217041,-0.1594957709312439
0.8741777072780909,0.06529114095888737,0.5686975662713031,3.3930718898773193,-1.7568176984786987,-0.2927856147289276,0.0418628565967083,-0.7670161724090576,-0.6402606964111328,-0.2274707555770874,0.3159968852996826,-0.1871929168701172
0.9093549110663295,0.05570597437225472,0.5585047691973339,3.662149667739868,-1.7400645017623901,-0.5691028237342834,0.034199971705675125,-0.7891076803207397,-0.6133020520210266,-0.29776501655578613,0.3390650153160095,-0.1419621706008911
0.9463964592378613,0.0502978134134394,0.5435579389795259,3.792639970779419,-1.7100850343704224,-0.8068733215332031,0.029392234981060028,-0.8113141059875488,-0.5838711857795715,-0.34276196360588074,0.3996625542640686,-0.07186007499694824
0.9839377406071305,0.04924039099966396,0.5249090820611473,3.760002374649048,-1.5173052549362183,-0.9246071577072144,0.027255749329924583,-0.832684338092804,-0.5530768036842346,-0.28880661725997925,0.41558539867401123,0.004981040954589844
1.0198475046758528,0.05415620363400647,0.5040786326319572,3.4695117473602295,-0.8483186364173889,-0.9263451099395752,0.028336690738797188,-0.8520281910896301,-0.5227283835411072,-0.18801990151405334,0.4091266393661499,0.1245502233505249
1.050750510965347,0.06798184910679597,0.4824285330182993,2.7596356868743896,-0.4358241856098175,-0.9147081971168518,0.03375551104545593,-0.8677964210510254,-0.49577197432518005,-0.08278197050094604,0.35145437717437744,0.4261918365955353
1.0732818168614624,0.08105764360713026,0.46142125146337065,1.8604786396026611,-0.5666813254356384,-0.7644875645637512,0.038641829043626785,-0.8787714838981628,-0.4756758213043213,-0.0953281819820404,0.22130078077316284,0.717237651348114
1.0863735683092628,0.08889641207063247,0.4439707911064586,0.8775993585586548,-0.9571938514709473,-0.6644542813301086,0.04134434089064598,-0.8849439024925232,-0.4638586938381195,-0.11405247449874878,0.16150951385498047,0.8835058808326721
1.0898488140015177,0.09013832077582284,0.42966114343828377,-0.05095967650413513,-1.2777881622314453,-0.5904804468154907,0.04164329171180725,-0.8865569829940796,-0.4607413113117218,-0.15040794014930725,0.18108218908309937,0.8871023654937744
1.084969565621292,0.08702637155443456,0.41858460616232135,-0.8026875257492065,-1.2711412906646729,-0.5193014144897461,0.04058479517698288,-0.8842892050743103,-0.4651726186275482,-0.1788904368877411,0.18888521194458008,0.756279706954956
1.0737923800225366,0.08296596962930064,0.4095363563979251,-1.311019778251648,-1.1184964179992676,-0.5359498858451843,0.03951231762766838,-0.8790150284767151,-0.4751540422439575,-0.22475400567054749,0.17440998554229736,0.557475209236145
1.058783910008127,0.08138164408705,0.3995542018465108,-1.5592994689941406,-0.9419523477554321,-0.6803617477416992,0.03982751443982124,-0.8717603087425232,-0.48831096291542053,-0.31424155831336975,0.14886003732681274,0.33854594826698303
1.0425040434874941,0.08383332613744973,0.38673453079116094,-1.541319727897644,-0.7890088558197021,-0.8538262248039246,0.042207490652799606,-0.8636690974235535,-0.5022891163825989,-0.3907945156097412,0.11759048700332642,0.10321086645126343
1.0271115037074983,0.09027936410973296,0.3711898633304656,-1.3689947128295898,-0.589436948299408,-0.988052487373352,0.046637486666440964,-0.8558083772659302,-0.5151865482330322,-0.42543691396713257,0.10130703449249268,-0.12078458070755005
1.0135676755224845,0.1000860772605781,0.35329802466678234,-1.134305715560913,-0.5170485377311707,-1.1265685558319092,0.05284080654382706,-0.8487239480018616,-0.5261895656585693,-0.4444118142127991,0.05560266971588135,-0.26938849687576294
1.0024385080791642,0.11170839491804033,0.3330870717907885,-0.8346837759017944,-0.5848903059959412,-1.2417832612991333,0.060001928359270096,-0.8427860140800476,-0.5348938703536987,-0.4471631646156311,-0.004076719284057617,-0.35516655445098877
0.9943218919777654,0.12382716101528433,0.31099736360647906,-0.49694326519966125,-0.6976402401924133,-1.3107359409332275,0.06732230633497238,-0.83838951587677,-0.5408980250358582,-0.4288487732410431,-0.051441967487335205,-0.4022630453109741
0.9889231389250418,0.13565691228714868,0.2880320137103658,-0.259834885597229,-0.7725210189819336,-1.3112869262695312,0.07432720065116882,-0.83543461561203,-0.5445405840873718,-0.3825242221355438,-0.0874321460723877,-0.39732348918914795
0.9852602024512183,0.14641763005967273,0.2649451885004014,-0.11167524009943008,-0.9330976009368896,-1.3047387599945068,0.08062835037708282,-0.8334159255027771,-0.546733021736145,-0.34896939992904663,-0.15138626098632812,-0.3559921979904175
0.9824752056858611,0.15551150672649772,0.24172675481282888,-0.06675788015127182,-1.0987876653671265,-1.315657138824463,0.08595604449510574,-0.8318735957145691,-0.5482681393623352,-0.33159202337265015,-0.2346242070198059,-0.30970311164855957
0.9795067305921753,0.16344282742748642,0.21853321897240532,-0.11483831703662872,-1.1440401077270508,-1.313331961631775,0.09070318937301636,-0.830222487449646,-0.550003170967102,-0.26559939980506897,-0.31124168634414673,-0.29571521282196045
0.9760923960878969,0.17079256585615143,0.1960270413361705,-0.1246926337480545,-1.1087541580200195,-1.2733899354934692,0.0952243059873581,-0.8283144235610962,-0.5521118640899658,-0.1707705557346344,-0.39440280199050903,-0.3224303722381592
0.9729257935549352,0.17785832731743573,0.17415179014448687,-0.06819020211696625,-1.0883519649505615,-1.2547701597213745,0.09958656877279282,-0.8265361189842224,-0.5540041923522949,-0.10387426614761353,-0.4463367462158203,-0.37501198053359985
0.9702889986282167,0.18542065590268586,0.15225189636129344,-0.0027390718460083008,-1.005947470664978,-1.2625036239624023,0.1041746661067009,-0.8250490427017212,-0.5553752779960632,-0.0553617849946022,-0.46939975023269653,-0.42877084016799927
0.9682194461733904,0.19420727309922514,0.12984698491838015,0.07705056667327881,-0.9243324995040894,-1.3038265705108643,0.10937975347042084,-0.8238778710365295,-0.5561127662658691,0.0056257545948028564,-0.522115170955658,-0.47702938318252563
0.9668397540404122,0.20490860924121132,0.10620962456046157,0.18570153415203094,-0.8198354840278625,-1.3654236793518066,0.11555569618940353,-0.8230950832366943,-0.5560227632522583,0.07510289549827576,-0.5828953981399536,-0.516258180141449
0.9665357543328448,0.2171749876108618,0.08184921323817028,0.34169408679008484,-0.739933431148529,-1.3215893507003784,0.12242111563682556,-0.82292240858078,-0.5548077821731567,0.19200149178504944,-0.6044151782989502,-0.5532397031784058
0.9681501510452112,0.22854166951382274,0.05900984016479772,0.5484715700149536,-0.7501116394996643,-1.109160304069519,0.12841825187206268,-0.8238385915756226,-0.552085816860199,0.3773342967033386,-0.6104570627212524,-0.5739670991897583
0.9724723941340939,0.23642260619925923,0.040143447779452106,0.7796509861946106,-0.7806493043899536,-0.7472929358482361,0.1319299042224884,-0.8262808322906494,-0.5475897192955017,0.551175594329834,-0.6004311442375183,-0.5578485727310181
0.9798187426713508,0.2393817892890326,0.026977854922726606,0.9891828298568726,-0.7990624904632568,-0.3354896306991577,0.13210691511631012,-0.8303964138031006,-0.5412852168083191,0.6487158536911011,-0.5742819309234619,-0.5098623037338257
0.989898054702128,0.2370782712317288,0.019854444049266274,1.1501381397247314,-0.8237259984016418,0.03703707456588745,0.128887340426445,-0.8359700441360474,-0.5334250330924988,0.6549566388130188,-0.5533732175827026,-0.447471022605896
1.0028755143329104,0.23066774809555501,0.01797364944350989,1.3970396518707275,-0.7663121223449707,0.2866498827934265,0.12297433614730835,-0.8430211544036865,-0.523634135723114,0.6158257126808167,-0.5674554705619812,-0.41247737407684326
1.0181374247969661,0.22211277237906618,0.019508852585371956,1.5227022171020508,-0.6783772110939026,0.5878093838691711,0.11564222723245621,-0.8511317372322083,-0.512056291103363,0.5663493871688843,-0.512546181678772,-0.36260807514190674
1.0348307340462195,0.2090186316960635,0.026595260246413965,1.5670273303985596,-0.7545045018196106,0.8198229074478149,0.10596432536840439,-0.8597759008407593,-0.4995567202568054,0.5253528356552124,-0.47887754440307617,-0.25181663036346436
1.0520188388252605,0.19142581867772968,0.037509779567674546,1.5690182447433472,-0.8543189764022827,0.9241698384284973,0.0943339392542839,-0.8684259653091431,-0.48676225543022156,0.431621253490448,-0.47710925340652466,-0.1616295576095581
1.0691101392889713,0.17164105892228393,0.050874031494952225,1.5556886196136475,-0.7412986755371094,0.9572685956954956,0.08213828504085541,-0.876772940158844,-0.4738381505012512,0.3688504993915558,-0.5004547834396362,-0.11841654777526855
1.0858811847492034,0.15382600667244634,0.06431806128133628,1.5406054258346558,-0.44859379529953003,0.8513587117195129,0.07142098248004913,-0.8847144842147827,-0.46062925457954407,0.32616204023361206,-0.4807792901992798,-0.12712407112121582
1.1025132869096628,0.13830747059044718,0.07792857090259951,1.5588533878326416,-0.25620895624160767,0.8577924370765686,0.06222691386938095,-0.8923445343971252,-0.4470447599887848,0.29351651668548584,-0.41917884349823,-0.11316651105880737
1.1191019567897833,0.12310673153237947,0.09239315642287903,1.542750597000122,-0.19033940136432648,0.8349310755729675,0.053599320352077484,-0.8997088074684143,-0.4331873059272766,0.2932787537574768,-0.3930768370628357,-0.08239197731018066
1.135018455152987,0.10814918224240401,0.10756647251573025,1.4512320756912231,-0.047911640256643295,0.8254445195198059,0.045562516897916794,-0.9065419435501099,-0.4196493923664093,0.2695162296295166,-0.37280064821243286,-0.0458199679851532
1.1498015898436325,0.09388748930573752,0.12361395085526168,1.3508566617965698,0.10164616256952286,0.786440908908844,0.038312509655952454,-0.9126828908920288,-0.406868577003479,0.25618210434913635,-0.3867402672767639,-0.018790632486343384
1.1636878068792258,0.08017692574232604,0.13989100289179324,1.2998547554016113,0.12267926335334778,0.755452036857605,0.03171251341700554,-0.9182695746421814,-0.3946837782859802,0.22159862518310547,-0.38173341751098633,-0.01873791217803955
1.1770595477714072,0.06592949264791798,0.1567515984300858,1.26566481590271,0.13208261132240295,0.7434800863265991,0.025275005027651787,-0.9234819412231445,-0.38280853629112244,0.19434475898742676,-0.36860179901123047,-0.02325838804244995
1.190029238479427,0.051044021194696636,0.17437218970956683,1.2367075681686401,0.15799197554588318,0.7317093014717102,0.018961407244205475,-0.9283798336982727,-0.3711489737033844,0.16554787755012512,-0.36942607164382935,-0.032995373010635376
1.2027381019175807,0.03547309899961952,0.19315006100477913,1.2438502311706543,0.2123180627822876,0.7521418333053589,0.012760704383254051,-0.9330277442932129,-0.35957813262939453,0.1510424017906189,-0.39245742559432983,-0.059382498264312744
1.215815867529303,0.017238708621877267,0.21470032901647387,1.3325495719909668,0.15277093648910522,0.8422203063964844,0.005991395562887192,-0.9376533031463623,-0.3475203514099121,0.1508689522743225,-0.4192344546318054,-0.09759381413459778
1.2298119582249167,-0.007188174319508885,0.24139306604505714,1.4471487998962402,-0.034070856869220734,0.9938303232192993,-0.0024038127157837152,-0.9424259066581726,-0.33440637588500977,0.13982447981834412,-0.4248988628387451,-0.129827082157135
1.2444465500370698,-0.040840541074530515,0.2754654033343008,1.5172988176345825,-0.24542847275733948,1.1518462896347046,-0.01308933924883604,-0.9472188949584961,-0.3203204572200775,0.10987582802772522,-0.4133462905883789,-0.15207648277282715
1.2592211524825474,-0.08254235087895015,0.3160115531344528,1.5809345245361328,-0.3811173439025879,1.1706249713897705,-0.02527531422674656,-0.9518518447875977,-0.30551451444625854,0.03154668211936951,-0.39179128408432007,-0.19598087668418884
1.2742194613714102,-0.12701967021051458,0.35851611562449753,1.662072777748108,-0.37628787755966187,1.0127884149551392,-0.03702152520418167,-0.9563425183296204,-0.2898937463760376,-0.08352288603782654,-0.36693018674850464,-0.2704700827598572
1.2900150312371224,-0.16739749975838417,0.39756912487987967,1.783997893333435,-0.19249378144741058,0.7036770582199097,-0.04617055505514145,-0.9608392119407654,-0.2732327878475189,-0.18568673729896545,-0.32497304677963257,-0.35381194949150085
1.307366446748088,-0.19955910108798564,0.4300194268516634,1.9397379159927368,0.0016011511906981468,0.3822338879108429,-0.051619719713926315,-0.9655025601387024,-0.2552259564399719,-0.2288520634174347,-0.2670566439628601,-0.42266106605529785
1.3266057734610512,-0.22548847382304885,0.4574092439409366,2.0997164249420166,0.11374153941869736,0.16210898756980896,-0.05405589938163757,-0.9703333377838135,-0.2356511652469635,-0.18681934475898743,-0.21414554119110107,-0.4465998709201813
1.3475268761138972,-0.24945198172904268,0.48372144115576093,2.2364096641540527,0.20307818055152893,0.050779376178979874,-0.054662514477968216,-0.9751787185668945,-0.2145662158727646,-0.09385126829147339,-0.16485118865966797,-0.4367247223854065
1.3696037560816798,-0.2763864670736302,0.5135636446868829,2.336944341659546,0.2325734794139862,0.021413231268525124,-0.05453208088874817,-0.979828953742981,-0.192253977060318,-0.02333351969718933,-0.10352981090545654,-0.4002600908279419
1.3922387027953738,-0.3106537066897302,0.5506287269082634,2.377345323562622,0.183820441365242,0.004776488523930311,-0.05429215729236603,-0.984100878238678,-0.16910892724990845,0.0022291839122772217,-0.015502333641052246,-0.34262514114379883
1.4147327531162757,-0.3539602456067192,0.5961041725093471,2.341911554336548,0.13160118460655212,-0.04189886897802353,-0.05387447029352188,-0.9878467917442322,-0.14579465985298157,0.0006365552544593811,0.07177025079727173,-0.2704803943634033
1.4362505545221829,-0.40633754189827487,0.6503266396270412,2.2109363079071045,0.11161240190267563,-0.09308533370494843,-0.05301813781261444,-0.9909623861312866,-0.1232166737318039,-0.0010132081806659698,0.14846378564834595,-0.2021922767162323
1.4560247066009253,-0.4709188378096836,0.7160355837147112,2.042595148086548,-0.0019503738731145859,-0.09749899059534073,-0.05195871368050575,-0.9934209585189819,-0.10205545276403427,0.026888512074947357,0.22094464302062988,-0.152354434132576
1.473451598540783,-0.556029839467213,0.8005160783356672,1.8578909635543823,-0.23467808961868286,-0.04779864475131035,-0.05129925161600113,-0.9952657222747803,-0.08254998922348022,0.06706160306930542,0.29279690980911255,-0.13047802448272705
1.488037733738631,-0.6740134049653634,0.9150984016938996,1.703323483467102,-0.5407178997993469,0.054402824491262436,-0.051593150943517685,-0.9965774416923523,-0.06458771228790283,0.10547193884849548,0.35950779914855957,-0.13916301727294922
1.4993150927818435,-0.8418842843890614,1.0764022609207824,1.6395384073257446,-0.8563420176506042,0.20180834829807281,-0.05327238142490387,-0.9974462985992432,-0.047570113092660904,0.14770904183387756,0.42161017656326294,-0.18579792976379395
1.5067046531546162,-1.0744075013618548,1.299732846818468,1.6709482669830322,-1.0600159168243408,0.32094165682792664,-0.05631706863641739,-0.9979468584060669,-0.03050260618329048,0.1684386432170868,0.4874488115310669,-0.2461240291595459
1.5095139740883483,-1.360845172419041,1.5756481922383054,1.7453906536102295,-1.1191011667251587,0.32735997438430786,-0.059898119419813156,-0.9981228113174438,-0.01276377309113741,0.13297247886657715,0.5563199520111084,-0.28745293617248535
1.5076424905915946,-1.6604677027261332,1.8650821907216848,1.7962427139282227,-1.0023419857025146,0.24318890273571014,-0.06285680085420609,-0.9980064630508423,0.005651612300425768,0.07892430573701859,0.6131341457366943,-0.29064011573791504
1.5019365253869035,-1.9295136903291896,2.125572957680723,1.781966209411621,-0.8194890022277832,0.09080133587121964,-0.06442562490701675,-0.9976301193237305,0.024155693128705025,0.03877559304237366,0.667719841003418,-0.26457321643829346
1.493852390483997,-2.152181438131827,2.341073726234218,1.718975305557251,-0.73679119348526,-0.07764866203069687,-0.06423845887184143,-0.9970412850379944,0.042214300483465195,0.01832476258277893,0.7014327645301819,-0.20749759674072266
1.4845905293433879,-2.3317603275389645,2.5137950733443244,1.6112364530563354,-0.7480050325393677,-0.21889272332191467,-0.06235135346651077,-0.9962865710258484,0.059376444667577744,0.025791309773921967,0.7080327272415161,-0.14598536491394043
1.475003394796019,-2.475365026717056,2.650573447076036,1.459655523300171,-0.7146952748298645,-0.32631850242614746,-0.05911104008555412,-0.9954153895378113,0.07519223541021347,0.05564729496836662,0.7206810116767883,-0.11266793310642242
1.4656944100422775,-2.5911729240862593,2.759940651987137,1.3122140169143677,-0.684113621711731,-0.3994278311729431,-0.05487127602100372,-0.9944818615913391,0.08941307663917542,0.09005806595087051,0.7367305159568787,-0.10268831998109818
1.456661070094845,-2.6856686107201484,2.8481583642435484,1.1936346292495728,-0.668127715587616,-0.40899229049682617,-0.050143685191869736,-0.9934936165809631,0.1022542342543602,0.14540430903434753,0.7315765619277954,-0.09073388576507568
1.4476984973905063,-2.761027325708385,2.9175292796200134,1.1072648763656616,-0.618321418762207,-0.3538936972618103,-0.045608676970005035,-0.9924330115318298,0.11400219798088074,0.20922866463661194,0.7257246971130371,-0.08858108520507812
1.438665096376093,-2.8186228397751107,2.9697316790783166,1.0429236888885498,-0.5405464172363281,-0.26645147800445557,-0.04181431606411934,-0.9912833571434021,0.12493497878313065,0.24496984481811523,0.7231101989746094,-0.08857333660125732
1.4295758092878537,-2.8611582786858385,3.0075030450913918,0.9956411123275757,-0.4838888943195343,-0.17718838155269623,-0.038956210017204285,-0.9900449514389038,0.13525302708148956,0.250855028629303,0.7018522024154663,-0.08015358448028564
1.4203774112239311,-2.894033375188909,3.0358829539720156,0.988447368144989,-0.4720415472984314,-0.14974769949913025,-0.036719705909490585,-0.9887083768844604,0.14528436958789825,0.21334019303321838,0.663070559501648,-0.07568907737731934
1.4111317382604966,-2.9239849292598077,3.0613927103564977,0.9836114645004272,-0.47158339619636536,-0.19996598362922668,-0.03432447463274002,-0.9872806668281555,0.15523791313171387,0.16023999452590942,0.633230984210968,-0.07293212413787842
1.4021133127805236,-2.95493953118927,3.0879261857679157,0.9477541446685791,-0.48591598868370056,-0.2861434817314148,-0.0311545692384243,-0.9858067035675049,0.16496869921684265,0.1293296217918396,0.6129124164581299,-0.06673264503479004
1.3934101714317757,-2.9875478240142708,3.115885546742304,0.9285985827445984,-0.5146545171737671,-0.3649829924106598,-0.0270750243216753,-0.9843083024024963,0.174368217587471,0.14615461230278015,0.5822696685791016,-0.05307614803314209
1.384670844745352,-3.020567438093839,-3.1385410903627466,0.9422147870063782,-0.4109496772289276,-0.4215115010738373,-0.022341405972838402,-0.9827286005020142,0.18369907140731812,0.19822946190834045,0.5492264032363892,-0.05457925796508789
1.375590251266699,-3.0519702810992055,-3.109965105506067,0.9692395925521851,-0.25539425015449524,-0.45872461795806885,-0.017360705882310867,-0.9810076951980591,0.1931905895471573,0.25591662526130676,0.5226335525512695,-0.05537328124046326
1.3662718115329717,-3.0806125367892907,-3.0826876967749404,0.9562284350395203,-0.12917880713939667,-0.4745160937309265,-0.01237753126770258,-0.9791576862335205,0.20272484421730042,0.31657674908638,0.4821940064430237,-0.01899382472038269
1.3572382356130943,-3.10592271685837,-3.0576349025892395,0.8871737122535706,-0.037794098258018494,-0.4759993851184845,-0.007558256853371859,-0.9772830009460449,0.21180443465709686,0.35892239212989807,0.43504655361175537,0.030566126108169556
1.3490829213565285,-3.1292182488081353,-3.0338340650974263,0.7612336277961731,0.02560165338218212,-0.5172248482704163,-0.0027210675179958344,-0.9755221009254456,0.21988359093666077,0.37933850288391113,0.39109545946121216,0.0695907473564148
1.3420979459140405,3.130013177527956,-3.008664818404576,0.6428219079971313,0.08490058779716492,-0.6095898151397705,0.002625128021463752,-0.9739623069763184,0.22669510543346405,0.38749632239341736,0.34041738510131836,0.07164466381072998
1.3356707239438066,3.103079769750874,-2.9800083728278426,0.6157351732254028,0.10906025767326355,-0.7321879267692566,0.008969957940280437,-0.9724850654602051,0.23279280960559845,0.3831503987312317,0.291012167930603,0.034388571977615356
1.3287951768155029,3.0735550966865532,-2.948118831872681,0.6796860098838806,0.19816327095031738,-0.8323302865028381,0.016292331740260124,-0.9708603620529175,0.23909126222133636,0.4212229251861572,0.25575727224349976,-0.023728743195533752
1.3208114044867285,3.0449521481393966,-2.915605732953142,0.7785518765449524,0.39239904284477234,-0.8623906970024109,0.023870613425970078,-0.9689161777496338,0.24623478949069977,0.4984072148799896,0.2355177402496338,-0.07397842407226562
1.3116452635326827,3.020998123865123,-2.885795762819699,0.8735219240188599,0.5820751190185547,-0.815929651260376,0.030828693881630898,-0.9666078686714172,0.25439876317977905,0.5754945278167725,0.2275484800338745,-0.09897279739379883
1.3016999389138135,3.0040094591878947,-2.861131487970465,0.9180262684822083,0.7819725275039673,-0.7047301530838013,0.03646252304315567,-0.964011549949646,0.2633472979068756,0.6442930698394775,0.22653919458389282,-0.09370023012161255
1.2918860892468633,2.9945586130530173,-2.842032135047344,0.8543362617492676,0.9997116923332214,-0.597308337688446,0.0403338260948658,-0.9613560438156128,0.27233657240867615,0.6800183653831482,0.2177191972732544,-0.05903416872024536
1.283358686708313,2.9901501101331958,-2.8260579856950283,0.687309980392456,1.1732354164123535,-0.5443481802940369,0.042769405990839005,-0.9589734673500061,0.28025105595588684,0.6841440200805664,0.1835065484046936,-0.014244705438613892
1.2768268733625532,2.9882451067473084,-2.810985445517073,0.4703853130340576,1.3236773014068604,-0.507188618183136,0.04425903037190437,-0.9571012258529663,0.286353200674057,0.6580114364624023,0.12989187240600586,0.009667128324508667
1.2724258696005006,2.98809105015857,-2.7963463873685046,0.26947617530822754,1.426662564277649,-0.4702617824077606,0.04494674131274223,-0.9558168053627014,0.29050618410110474,0.6138362288475037,0.08792752027511597,-0.010126054286956787
1.2697447795210315,2.989036919554653,-2.7818924716199294,0.13850241899490356,1.5276532173156738,-0.4530515968799591,0.04506123065948486,-0.9550251960754395,0.29308050870895386,0.5772379636764526,0.081307053565979,-0.07410171627998352
1.2678485802337067,2.9916660504721073,-2.7678741963079463,0.12502095103263855,1.6690473556518555,-0.4192209243774414,0.04456096515059471,-0.9544612169265747,0.2949882447719574,0.5630897879600525,0.08820456266403198,-0.16934743523597717
1.2657205012195378,2.9981820004266035,-2.7562113135617183,0.19909052550792694,1.8509966135025024,-0.32281798124313354,0.04292811453342438,-0.9538241624832153,0.29728206992149353,0.5729318857192993,0.08567535877227783,-0.24451720714569092
1.2629903666840014,3.011134147645397,-2.749381338885055,0.2826317548751831,2.0180320739746094,-0.14874233305454254,0.03941278159618378,-0.9530006051063538,0.30039384961128235,0.5946967005729675,0.09190136194229126,-0.2819003164768219
1.2599557046673426,3.0319809182605226,-2.7495857858523207,0.3145194351673126,2.0913684368133545,0.09648185223340988,0.03345861658453941,-0.95207679271698,0.3040231764316559,0.5958901047706604,0.09235090017318726,-0.27751877903938293
1.2572262439112125,3.0609662948354384,-2.7578097574649996,0.2632373571395874,2.1208271980285645,0.3506065309047699,0.02484278753399849,-0.9512383937835693,0.3074544370174408,0.5591568350791931,0.09483891725540161,-0.2535147964954376
1.2555650992687244,3.097145999726442,-2.7732818325575437,0.11254614591598511,2.1707065105438232,0.5714378952980042,0.013775534927845001,-0.950724720954895,0.30973002314567566,0.4776032567024231,0.09670555591583252,-0.23410749435424805
1.2556471294851703,3.138907674436599,-2.7936551622869494,-0.10432065278291702,2.2991745471954346,0.6688385009765625,0.0008322300855070353,-0.9507501721382141,0.30995699763298035,0.3526376187801361,0.08400517702102661,-0.23210671544075012
1.2575146847861232,-3.100269896492541,-2.8150137251006067,-0.28068482875823975,2.4215831756591797,0.623424232006073,-0.01273132860660553,-0.9513273239135742,0.3079194724559784,0.20824220776557922,0.07303130626678467,-0.2673921287059784
1.2604053225733294,-3.0579210661413065,-2.8335849204092582,-0.3529342710971832,2.4874844551086426,0.4665493667125702,-0.025526130571961403,-0.952214241027832,0.3043629825115204,0.07348451018333435,0.0633133053779602,-0.3286244571208954
1.2635133060634718,-3.020102592503149,-2.8470577716993564,-0.3339649438858032,2.4848601818084717,0.28471308946609497,-0.03665672242641449,-0.9531589150428772,0.300240159034729,-0.007181759923696518,0.03317606449127197,-0.39353254437446594
1.2659051780490451,-2.9863329552500555,-2.856156093063203,-0.19904468953609467,2.5237369537353516,0.21269772946834564,-0.04642022028565407,-0.9538796544075012,0.2965780794620514,-0.026150580495595932,0.006507277488708496,-0.45575788617134094
1.2663643493145982,-2.952143223685085,-2.86538304418731,0.015149399638175964,2.5235722064971924,0.3454487919807434,-0.05644859001040459,-0.9540174007415771,0.29438796639442444,0.019201908260583878,0.0057904720306396484,-0.4971010982990265
1.2641194757866598,-2.9127414788259274,-2.881138323727339,0.21784791350364685,2.302856206893921,0.6963452696800232,-0.06848683208227158,-0.953342080116272,0.2940208613872528,0.06340570002794266,0.002231299877166748,-0.4788658916950226
1.2589704565928774,-2.865928119067292,-2.9081721516857915,0.353854775428772,1.8785046339035034,1.1480637788772583,-0.08350590616464615,-0.9517750144004822,0.2952134609222412,0.026087112724781036,-0.007316112518310547,-0.4151780903339386
1.251253351291149,-2.814331046656792,-2.9451592117475704,0.43239593505859375,1.406093716621399,1.4660608768463135,-0.10097834467887878,-0.9493790864944458,0.29746052622795105,-0.11020329594612122,-0.0009993314743041992,-0.35706138610839844
1.241640794493434,-2.764416302545378,-2.984551531139965,0.5072037577629089,1.140264868736267,1.5059107542037964,-0.11904972791671753,-0.9463156461715698,0.30052265524864197,-0.3084709942340851,-0.014988064765930176,-0.33364951610565186
1.2309675577225483,-2.721667732942771,-3.017899183265486,0.6204323172569275,1.1274726390838623,1.3141735792160034,-0.135894313454628,-0.9428117275238037,0.30436646938323975,-0.4958348274230957,-0.08135831356048584,-0.3303522765636444
1.2196590451292626,-2.6882250466133484,-3.040855605008169,0.7680048942565918,1.2377065420150757,1.038973093032837,-0.15065553784370422,-0.9389821290969849,0.3092176020145416,-0.6103460192680359,-0.13180339336395264,-0.3265669345855713
1.2079962775300348,-2.6635946575912777,-3.053249960603718,0.9169618487358093,1.351255178451538,0.785666286945343,-0.16325163841247559,-0.9349067807197571,0.31511572003364563,-0.6720144152641296,-0.11566072702407837,-0.30739492177963257
1.196195059907506,-2.6460009578591532,-3.0573636742037325,1.0185080766677856,1.3679355382919312,0.5850855112075806,-0.1740054190158844,-0.9306535720825195,0.32187923789024353,-0.7083645462989807,-0.08500206470489502,-0.2558850944042206
1.1845325799802433,-2.634333916124411,-3.0557189310384474,1.075799584388733,1.255257487297058,0.4337162673473358,-0.18300896883010864,-0.9263230562210083,0.32929185032844543,-0.7215014696121216,-0.08783704042434692,-0.16883054375648499
1.1731332841276638,-2.626737146007947,-3.050825318490441,1.0839240550994873,1.1677651405334473,0.3648058772087097,-0.19069263339042664,-0.9219685196876526,0.33706116676330566,-0.7191126346588135,-0.11437785625457764,-0.07609012722969055
1.1620753913988433,-2.6204817563649825,-3.045458243497864,1.037421464920044,1.055202841758728,0.36690792441368103,-0.19786125421524048,-0.9176298975944519,0.34468328952789307,-0.712829053401947,-0.13699662685394287,0.005368620157241821
1.1514718202742822,-2.614989227000808,-3.040937012663399,0.9746308922767639,0.8591911196708679,0.3733007311820984,-0.2046305239200592,-0.9133641719818115,0.35198381543159485,-0.7265980839729309,-0.13674581050872803,0.06285694241523743
1.1415195703965195,-2.6108682325855233,-3.036919213225275,0.9063668847084045,0.7086162567138672,0.34127143025398254,-0.21066981554031372,-0.909267008304596,0.35895928740501404,-0.7531973123550415,-0.10962343215942383,0.08688712120056152
1.132320146226092,-2.6077325307813246,-3.0328395169981355,0.8506177663803101,0.6599673628807068,0.29177695512771606,-0.2160417139530182,-0.9053996801376343,0.36548227071762085,-0.7525556087493896,-0.08401072025299072,0.08832928538322449
1.1238719182287944,-2.6056586644419055,-3.0278610045951933,0.815789520740509,0.6561768651008606,0.19365224242210388,-0.22069746255874634,-0.9017806053161621,0.3715970814228058,-0.7509059309959412,-0.05195474624633789,0.0825502872467041
1.1164791145236144,-2.6050105173983042,-3.0209907896973345,0.7491344809532166,0.715228796005249,0.04165441170334816,-0.22434008121490479,-0.8985608816146851,0.3771732747554779,-0.7648108601570129,-0.012144625186920166,0.08562570810317993
1.1107281868156873,-2.605579200122707,-3.011855359233259,0.6480733752250671,0.8036329746246338,-0.15433721244335175,-0.22676104307174683,-0.8960222601890564,0.38173747062683105,-0.7642362117767334,0.015117108821868896,0.11055681109428406
1.1069547355931617,-2.6078912422848655,-2.999992607670407,0.5365413427352905,0.8445019721984863,-0.36628660559654236,-0.22759632766246796,-0.8943403959274292,0.38516896963119507,-0.7603492140769958,0.0342482328414917,0.14148807525634766
1.1052319474482581,-2.611996473542802,-2.985825458524634,0.39897146821022034,0.860077977180481,-0.54926997423172,-0.2267914116382599,-0.8935683369636536,0.38742947578430176,-0.7274627685546875,0.03773319721221924,0.17577248811721802
1.1056707971781254,-2.6174226014474558,-2.970302044865719,0.21912960708141327,0.8136676549911499,-0.690720796585083,-0.2244894951581955,-0.8937652707099915,0.38831472396850586,-0.6768624186515808,0.050732314586639404,0.20619827508926392
1.1083253080183046,-2.623870004780582,-2.9543850448132654,0.03376879170536995,0.7455642223358154,-0.8027980327606201,-0.22080634534358978,-0.8949527740478516,0.3876911699771881,-0.6252477169036865,0.07023030519485474,0.214161217212677
1.1127661801260333,-2.6313561205434324,-2.937929070645887,-0.08129844814538956,0.7043899297714233,-0.8995844125747681,-0.21595436334609985,-0.8969252705574036,0.3858606517314911,-0.5700868368148804,0.08729410171508789,0.18123215436935425
1.1184326665573017,-2.6400032721902265,-2.92043217745816,-0.15938392281532288,0.7128998041152954,-0.9872546195983887,-0.2101626694202423,-0.8994165062904358,0.3832511603832245,-0.5084651708602905,0.11497747898101807,0.13078683614730835
1.1249317701607915,-2.6496295953712012,-2.901482241304574,-0.19205611944198608,0.7693406939506531,-1.0722118616104126,-0.20369860529899597,-0.9022381901741028,0.3800968527793884,-0.45792245864868164,0.16029471158981323,0.07133477926254272
1.1318807831428799,-2.660454933748511,-2.880662816585721,-0.19987063109874725,0.8230798244476318,-1.1436280012130737,-0.19666533172130585,-0.9052130579948425,0.37671181559562683,-0.4187368154525757,0.20510941743850708,0.021603524684906006
1.1390522446650955,-2.6723590324467414,-2.8582435079352115,-0.21116243302822113,0.8555323481559753,-1.1815412044525146,-0.18922655284404755,-0.9082373380661011,0.3732263445854187,-0.3693976402282715,0.24802017211914062,-0.006206810474395752
1.1463926862219342,-2.6849414662794215,-2.834862465453211,-0.22877098619937897,0.8755608797073364,-1.2010347843170166,-0.18157100677490234,-0.9112844467163086,0.36958399415016174,-0.3259515166282654,0.29775917530059814,-0.029480963945388794
1.153670977450679,-2.6982515688093445,-2.8106975044063995,-0.22171415388584137,0.8644317984580994,-1.195771336555481,-0.17378607392311096,-0.9142573475837708,0.36596667766571045,-0.2860221862792969,0.3470577597618103,-0.056426942348480225
1.160561556168969,-2.7122085925134716,-2.786300084491207,-0.19868765771389008,0.7982138991355896,-1.1526910066604614,-0.16603519022464752,-0.9170272350311279,0.36262062191963196,-0.2415117770433426,0.3989759087562561,-0.08309492468833923
1.1669954051591205,-2.7266930730264347,-2.7625466045662326,-0.2077638804912567,0.6487606763839722,-1.0823549032211304,-0.1583840698003769,-0.9195742011070251,0.3595806658267975,-0.20923066139221191,0.4635345935821533,-0.10854312777519226
1.1732349667063082,-2.7418056742421357,-2.7401293670826874,-0.24372828006744385,0.45393097400665283,-1.0140591859817505,-0.15069542825222015,-0.9220079183578491,0.3566400110721588,-0.18734771013259888,0.5250201225280762,-0.1372796893119812
1.179353318587992,-2.757601337803305,-2.7189274851753824,-0.2552332282066345,0.30630549788475037,-0.9547090530395508,-0.14292758703231812,-0.9243595004081726,0.3537389636039734,-0.1577773243188858,0.5745211839675903,-0.18158936500549316
1.185083306349923,-2.7739297830721377,-2.698671201343781,-0.24087612330913544,0.18354016542434692,-0.8868407607078552,-0.1352267861366272,-0.9265304207801819,0.3510771095752716,-0.11802330613136292,0.6222396492958069,-0.23056316375732422
1.1902327141945972,-2.7902011648541647,-2.679453010911372,-0.21493853628635406,0.1351049393415451,-0.8150849342346191,-0.1278526335954666,-0.9284554123878479,0.34874650835990906,-0.0713203102350235,0.6728097200393677,-0.27002647519111633
1.1947850783657012,-2.8058832481657294,-2.6611291645587,-0.18443867564201355,0.12976449728012085,-0.7635522484779358,-0.12097428739070892,-0.9301367402076721,0.34671396017074585,-0.0321933850646019,0.723426103591919,-0.3004036545753479
1.1988473476737518,-2.8213500637671367,-2.6433057601240004,-0.1685117483139038,0.08938127756118774,-0.7301175594329834,-0.11440720409154892,-0.9316207766532898,0.3449546694755554,-0.019030854105949402,0.7719680666923523,-0.3078606128692627
1.2027357862718406,-2.8366503613695104,-2.6262863352146963,-0.20032453536987305,0.012269443832337856,-0.6831724047660828,-0.10802754014730453,-0.933026909828186,0.3432062864303589,-0.0056503936648368835,0.8044107556343079,-0.29190629720687866
1.2071169184968558,-2.851988010993935,-2.610334520068928,-0.3060024082660675,-0.10017503052949905,-0.6724840402603149,-0.10158289223909378,-0.9345943331718445,0.3409024775028229,-0.007776811718940735,0.8353511691093445,-0.2728787660598755
1.2127037474302744,-2.867712308021878,-2.5948603409426463,-0.44288143515586853,-0.15121211111545563,-0.714317262172699,-0.09479643404483795,-0.9365670680999756,0.3374256491661072,-0.03421659767627716,0.856916069984436,-0.26505324244499207
1.2197633401472372,-2.885260681592173,-2.577941351601358,-0.6106647253036499,-0.18832072615623474,-0.7915015816688538,-0.08718220144510269,-0.9390180110931396,0.3326323926448822,-0.04140356928110123,0.8713148236274719,-0.24565735459327698
1.2286723239181565,-2.904586673317316,-2.559753856308916,-0.8134093284606934,-0.24986983835697174,-0.8299850821495056,-0.07877054810523987,-0.942044198513031,0.3261103332042694,-0.002360403537750244,0.8649415373802185,-0.2156825065612793
1.2395179844567714,-2.9244652208177717,-2.5416688296294767,-1.027189016342163,-0.3189646899700165,-0.8078027963638306,-0.07006759196519852,-0.9456273317337036,0.31761541962623596,0.037734255194664,0.8561040163040161,-0.20137393474578857
1.252305655503972,-2.9434803257329585,-2.5254697448282974,-1.2523829936981201,-0.4049701392650604,-0.7236527800559998,-0.06163058057427406,-0.9497091174125671,0.3070084750652313,0.07505835592746735,0.8703939914703369,-0.1922471821308136
1.2670875644782842,-2.9603798945487276,-2.5123225282351154,-1.4870489835739136,-0.4642834961414337,-0.6199953556060791,-0.05389764532446861,-0.9542338848114014,0.29416462779045105,0.12457641959190369,0.8741099834442139,-0.19144248962402344
1.2837871117112478,-2.974945406947068,-2.502205020434545,-1.6785385608673096,-0.5120116472244263,-0.5409380793571472,-0.046957384794950485,-0.9590948224067688,0.2791638672351837,0.15369266271591187,0.8264653086662292,-0.21638914942741394
1.3018720203823866,-2.988675450521253,-2.493384957531081,-1.7971217632293701,-0.5222165584564209,-0.5095385313034058,-0.040471166372299194,-0.9640572667121887,0.2625945210456848,0.15234865248203278,0.7663796544075012,-0.2401638627052307
1.3208618863735118,-3.0013318638762776,-2.4849658837673294,-1.8795697689056396,-0.3530224859714508,-0.46635934710502625,-0.0345786027610302,-0.9689286351203918,0.24491198360919952,0.17819437384605408,0.7017166018486023,-0.24718555808067322
1.3405301815626254,-3.0107018077380654,-2.477949777481893,-1.9720697402954102,-0.1745249181985855,-0.38947853446006775,-0.029788972809910774,-0.9736056923866272,0.2262851893901825,0.2187386155128479,0.6624634861946106,-0.2251712679862976
1.361595625688584,-3.0148791896221225,-2.4750935191177237,-2.2013940811157227,-0.11441418528556824,-0.26258528232574463,-0.02624523639678955,-0.9781972169876099,0.20601297914981842,0.27110305428504944,0.6265584826469421,-0.15382792055606842
1.385612713949683,-3.0091764996639165,-2.482006935372609,-2.5890026092529297,-0.11032453924417496,-0.08745589852333069,-0.02431015856564045,-0.982902467250824,0.18251480162143707,0.3112212121486664,0.5804061889648438,-0.07339932024478912
1.4129973762872172,-2.9875124569516647,-2.5053519377565614,-2.91079044342041,-0.16633081436157227,0.09366489201784134,-0.02411721460521221,-0.9875755310058594,0.1552831530570984,0.32720255851745605,0.5151177048683167,-0.046518564224243164
1.4424190050145091,-2.9391647034980393,-2.5560358728392933,-3.106360673904419,-0.18584097921848297,0.2860580384731293,-0.025739509612321854,-0.9917709231376648,0.12541235983371735,0.34875285625457764,0.41005998849868774,-0.07807956635951996
1.4723612105338622,-2.8373130277724807,-2.6602674472908014,-3.2484138011932373,-0.15393683314323425,0.49457770586013794,-0.029444372281432152,-0.9951591491699219,0.09376244246959686,0.369242399930954,0.3425559997558594,-0.11529266834259033
1.5006667974839225,-2.616584492027906,-2.883603537838582,-3.4017913341522217,-0.23099970817565918,0.6603697538375854,-0.03512174263596535,-0.9975419044494629,0.060635123401880264,0.3440512418746948,0.2607407569885254,-0.10429060459136963
1.5214968093892907,-2.1123489340309662,2.8916554353378165,-3.676830768585205,-0.3301912844181061,0.7731679677963257,-0.04222705587744713,-0.9987850189208984,0.025401350110769272,0.2959349751472473,0.1310787796974182,-0.02581346035003662
1.5187794438294173,-1.3129531051988355,2.087867979582233,-4.079615592956543,-0.3500404357910156,0.8306624293327332,-0.050274234265089035,-0.9986474514007568,-0.013257992453873158,0.23641622066497803,-0.023538827896118164,0.04496568441390991
1.4895738337460238,-0.8090305911316836,1.579750937528777,-4.4816484451293945,-0.26307278871536255,0.8246559500694275,-0.058709219098091125,-0.9967032670974731,-0.05599790811538696,0.16607007384300232,-0.18122941255569458,0.041608814150094986
1.4484205947975526,-0.5806275226119734,1.3481125934811007,-4.749588966369629,-0.17024606466293335,0.7912600040435791,-0.06696201115846634,-0.9925214052200317,-0.10206601023674011,0.10234715789556503,-0.35464662313461304,-0.05166633427143097
1.4030353317565605,-0.4650839676123082,1.2295506896713253,-4.741366386413574,-0.19684705138206482,0.7596240639686584,-0.07488828897476196,-0.9859610795974731,-0.14924028515815735,0.057386480271816254,-0.5013284683227539,-0.22069384157657623
1.3578490546772162,-0.40044415450638987,1.1616381016488757,-4.4847588539123535,-0.19791021943092346,0.6791399121284485,-0.08238684386014938,-0.9774122834205627,-0.19462215900421143,0.0009812414646148682,-0.6343583464622498,-0.4122809171676636
1.31544510168607,-0.35717469931360235,1.1160248964319566,-4.141631126403809,0.0023712031543254852,0.4684532582759857,-0.08831090480089188,-0.9675746560096741,-0.23664383590221405,-0.06870197504758835,-0.8213351368904114,-0.5431718826293945
1.2770250403285213,-0.31983538582218474,1.0784776149954,-3.752842903137207,0.22343610227108002,0.15624047815799713,-0.09104187041521072,-0.9571586847305298,-0.2748792767524719,-0.14923825860023499,-1.0146278142929077,-0.6186907291412354
1.2430171091136506,-0.28393413157474984,1.0439156410369175,-3.3419618606567383,0.3667772710323334,-0.14344556629657745,-0.09018690139055252,-0.9467596411705017,-0.3090512454509735,-0.2037583887577057,-1.148729920387268,-0.6514133214950562
1.2132612201577808,-0.24958961370297483,1.011838224652471,-2.9581186771392822,0.4411461651325226,-0.3552134931087494,-0.0864439308643341,-0.936762273311615,-0.33912238478660583,-0.208187997341156,-1.2603201866149902,-0.6410565376281738
1.1868713666732993,-0.21815657695552773,0.9827301310226625,-2.6487293243408203,0.4045415222644806,-0.4582173824310303,-0.08106666803359985,-0.9272016286849976,-0.3656846880912781,-0.19162312150001526,-1.3919512033462524,-0.5766676068305969
1.1634063661190412,-0.19178573140275754,0.957867004311266,-2.310551881790161,0.27206918597221375,-0.4460078775882721,-0.07552320510149002,-0.9181580543518066,-0.38894951343536377,-0.1540299654006958,-1.4646236896514893,-0.5260590314865112
1.1431855982619579,-0.17242204717413448,0.9389490843641589,-1.9282288551330566,0.13886718451976776,-0.318736732006073,-0.0711493045091629,-0.9099591970443726,-0.40854883193969727,-0.1025567352771759,-1.47555410861969,-0.52475506067276
1.1262444091067914,-0.16077648796501845,0.9268655009379858,-1.55319344997406,0.008385788649320602,-0.13691748678684235,-0.0688449889421463,-0.9028034806251526,-0.42450714111328125,-0.06497453898191452,-1.4588909149169922,-0.5250015258789062
1.1128878470283479,-0.155821877039099,0.9206913497036621,-1.1560910940170288,-0.13202404975891113,0.015155669301748276,-0.06860619783401489,-0.896979033946991,-0.43671682476997375,-0.08199798315763474,-1.4207088947296143,-0.5313007831573486
1.1034150287293614,-0.15602503995796332,0.9186589814073198,-0.732704222202301,-0.2658974230289459,0.08926761895418167,-0.07001223415136337,-0.8927512168884277,-0.44507718086242676,-0.14829522371292114,-1.3535866737365723,-0.5504520535469055
1.0982181383182168,-0.15929035950123854,0.9187927888754798,-0.2828768491744995,-0.34693872928619385,0.07617844641208649,-0.07220006734132767,-0.8903977274894714,-0.44942063093185425,-0.23460838198661804,-1.2595503330230713,-0.5655024647712708
1.0974277997810917,-0.1633805459173285,0.9195768340351467,0.13563679158687592,-0.32372522354125977,0.01567532680928707,-0.0741521567106247,-0.8900376558303833,-0.4498160779476166,-0.3016259968280792,-1.1431043148040771,-0.5447366237640381
1.1005903735638993,-0.16709490641131328,0.9201923334804303,0.48447519540786743,-0.3147628903388977,-0.0648147240281105,-0.07535389810800552,-0.8914750218391418,-0.44675976037979126,-0.3371521532535553,-1.015812635421753,-0.4613977074623108
1.1067800895620359,-0.17052627046892233,0.92030110364131,0.7166956067085266,-0.3481866121292114,-0.12999142706394196,-0.07594852894544601,-0.8942622542381287,-0.44105181097984314,-0.3422185480594635,-0.8728122115135193,-0.33206525444984436
1.1148425589806878,-0.17369977279529247,0.9199377354106387,0.8504264950752258,-0.34011590480804443,-0.17677517235279083,-0.07609928399324417,-0.8978414535522461,-0.4336931109428406,-0.32140737771987915,-0.7187815308570862,-0.20726770162582397
1.1240132183051603,-0.1757237294788604,0.9188874063152802,0.9265366196632385,-0.24701130390167236,-0.23649762570858002,-0.07553425431251526,-0.9018417000770569,-0.4254131317138672,-0.30271583795547485,-0.5684189200401306,-0.11339002847671509
1.1338269536510357,-0.1752068397612335,0.9163323015986887,0.9544827938079834,-0.10012679547071457,-0.32410842180252075,-0.07376797497272491,-0.9060383439064026,-0.4167165756225586,-0.2925344705581665,-0.43418675661087036,-0.040741950273513794
1.1438462802947456,-0.17087496304039942,0.9113829871912965,0.9360900521278381,0.059059370309114456,-0.4243893027305603,-0.07041489332914352,-0.9102329611778259,-0.4080657660961151,-0.2869764268398285,-0.3075709342956543,0.023010194301605225
1.1535681355686798,-0.16295986444703,0.903805915247447,0.8676114082336426,0.11824411898851395,-0.4969167709350586,-0.06574400514364243,-0.9142156839370728,-0.399859219789505,-0.2666687071323395,-0.18533265590667725,0.08043169975280762
1.1624708957321683,-0.1533057041783146,0.8945063169810831,0.7662319540977478,0.10969255119562149,-0.5090405941009521,-0.060635410249233246,-0.9177870154380798,-0.3924161493778229,-0.23002922534942627,-0.07993948459625244,0.12093168497085571
1.1704234529901514,-0.14341818232729994,0.8847071721571164,0.6899870038032532,0.05407882481813431,-0.48274102807044983,-0.055707480758428574,-0.9209157228469849,-0.385760098695755,-0.19810718297958374,0.006899058818817139,0.12217974662780762
1.1777326694442363,-0.1347952880190335,0.8754143694287582,0.6575155258178711,-0.04642266780138016,-0.4197334945201874,-0.05147309973835945,-0.9237399697303772,-0.3795456886291504,-0.17840051651000977,0.07786905765533447,0.096434086561203
1.1847077123257743,-0.1291950135653947,0.8683043463321092,0.6544014811515808,-0.15295682847499847,-0.2916485071182251,-0.04851546511054039,-0.9263890385627747,-0.373429536819458,-0.16559582948684692,0.12733209133148193,0.06126523017883301
1.1916129115108038,-0.12807404885526463,0.8646173774075713,0.6791525483131409,-0.30947017669677734,-0.1558254510164261,-0.047278642654418945,-0.9289672374725342,-0.36713024973869324,-0.18340370059013367,0.17083430290222168,0.03262704610824585
1.198672816827706,-0.13197509998158383,0.8645843802692823,0.7216041088104248,-0.47210782766342163,-0.03232534974813461,-0.047846246510744095,-0.9315573573112488,-0.3604326844215393,-0.21260598301887512,0.218147873878479,0.009877175092697144
1.2059546275696473,-0.14029005140363987,0.8677858028990231,0.7424007654190063,-0.5849364399909973,0.05642099305987358,-0.049891673028469086,-0.9341802597045898,-0.3532961308956146,-0.24586939811706543,0.24462032318115234,0.006616353988647461
1.213093496420354,-0.1511737354474038,0.8727471656699145,0.710232675075531,-0.6523785591125488,0.07331501692533493,-0.052728086709976196,-0.9367035627365112,-0.34613022208213806,-0.2988801598548889,0.2639588713645935,0.023025333881378174
1.2196292809258016,-0.1622407559269066,0.8774949798047649,0.6209546327590942,-0.6624605655670166,0.04253461956977844,-0.05556535720825195,-0.9389718770980835,-0.3394767940044403,-0.36099952459335327,0.2733986973762512,0.05090245604515076
1.225148576893482,-0.17203480309541386,0.8807633670541444,0.505160391330719,-0.6874109506607056,-0.005935709923505783,-0.05799940228462219,-0.9408561587333679,-0.33380505442619324,-0.4122764468193054,0.2744896411895752,0.06357187032699585
1.2296289319333298,-0.18096462934721333,0.8824151689776517,0.3930521607398987,-0.7876380681991577,-0.0402623750269413,-0.06021859124302864,-0.9423646926879883,-0.32912400364875793,-0.4672471880912781,0.2668123245239258,0.05594587326049805
1.2329310880446198,-0.18973860657419556,0.8824906943270873,0.25081512331962585,-0.9418129920959473,-0.08238160610198975,-0.06251663714647293,-0.943464457988739,-0.32552477717399597,-0.5334763526916504,0.26107627153396606,0.043481260538101196
1.2347856002719262,-0.19746696923074739,0.8799627041973183,0.07745255529880524,-1.0718961954116821,-0.15368042886257172,-0.06468716263771057,-0.9440775513648987,-0.3233157694339752,-0.5912728905677795,0.25369369983673096,0.02717319130897522
1.2350798518529602,-0.20348848326205188,0.8743684226713055,-0.09080222994089127,-1.1736798286437988,-0.21926343441009521,-0.06657670438289642,-0.9441745281219482,-0.32264840602874756,-0.6355563998222351,0.22597390413284302,-0.007155090570449829
1.234027845519726,-0.2075451556103116,0.8657325974204099,-0.22147637605667114,-1.2609854936599731,-0.2953908443450928,-0.06808963418006897,-0.9438273906707764,-0.323347270488739,-0.6796825528144836,0.19428527355194092,-0.06366142630577087
1.2323538135182568,-0.2100607954434981,0.8543308705598892,-0.2478693723678589,-1.390744924545288,-0.3735021650791168,-0.0692322850227356,-0.9432729482650757,-0.3247201442718506,-0.7154051065444946,0.15453088283538818,-0.1450827717781067
1.2310812471982961,-0.21184640428891233,0.8407253209989524,-0.17909105122089386,-1.5123275518417358,-0.46238067746162415,-0.07006427645683289,-0.9428496360778809,-0.32576900720596313,-0.7485697269439697,0.1507202386856079,-0.24457404017448425
1.23099242578634,-0.21203884725896519,0.824425035386794,-0.06353329122066498,-1.5937765836715698,-0.5975169539451599,-0.0701446458697319,-0.9428200721740723,-0.3258376121520996,-0.7781219482421875,0.17171716690063477,-0.32064682245254517
1.232380773152569,-0.20972749002627705,0.8044206606429899,0.05859188362956047,-1.7167621850967407,-0.7595045566558838,-0.06911874562501907,-0.943281888961792,-0.32471826672554016,-0.795612096786499,0.1708667278289795,-0.3444254398345947
1.2351084268796004,-0.20521256030990864,0.7803673310147885,0.1381112039089203,-1.9089406728744507,-0.9008678197860718,-0.06712736934423447,-0.9441839456558228,-0.3225066661834717,-0.7979238629341125,0.18844670057296753,-0.3220093548297882
1.2383605814012693,-0.19869768072865235,0.7521107695227679,0.11128474771976471,-2.1027181148529053,-1.043226718902588,-0.06441842764616013,-0.9452502727508545,-0.31992533802986145,-0.7875865697860718,0.197859525680542,-0.27326011657714844
1.241097115842338,-0.18789415468848156,0.7179259850338056,-0.008412891998887062,-2.1746408939361572,-1.247633695602417,-0.06047496199607849,-0.9461397528648376,-0.3180599808692932,-0.7871354818344116,0.1763034462928772,-0.23153111338615417
1.2427861913232645,-0.16950658795868448,0.6753670113205049,-0.14337366819381714,-2.1824827194213867,-1.5110336542129517,-0.054347071796655655,-0.946685254573822,-0.3175426125526428,-0.7805833220481873,0.1408076286315918,-0.20981642603874207
1.2434041248224632,-0.14223288899769615,0.6238516843045007,-0.24805453419685364,-2.089571475982666,-1.7761664390563965,-0.045584455132484436,-0.9468841552734375,-0.31832754611968994,-0.7306453585624695,0.12844854593276978,-0.21249523758888245
1.2427742038171892,-0.105666212583238,0.5637802580921621,-0.3532906770706177,-1.958925485610962,-2.0339860916137695,-0.03397928178310394,-0.9466813802719116,-0.32037416100502014,-0.6577473878860474,0.13381528854370117,-0.21469053626060486
1.2404306040020316,-0.06070228719238295,0.4963652756923158,-0.4803791344165802,-1.7870330810546875,-2.249619483947754,-0.019679060205817223,-0.9459237456321716,-0.3237914741039276,-0.558873176574707,0.1245737075805664,-0.19898992776870728
1.235579039635188,-0.009741562410595601,0.4245263242808875,-0.65350741147995,-1.5972535610198975,-2.378875732421875,-0.0032046723645180464,-0.944338858127594,-0.3289586305618286,-0.44641077518463135,0.10776060819625854,-0.19026747345924377
1.227688219713183,0.042069948089868095,0.35314185504836915,-0.8377430438995361,-1.5038615465164185,-2.361098527908325,0.014148830436170101,-0.9417135715484619,-0.3361183702945709,-0.2786141633987427,0.08865559101104736,-0.19047775864601135
1.2170046451977694,0.0884299862882646,0.2880753940605928,-1.001276969909668,-1.45595121383667,-2.1822266578674316,0.03059728816151619,-0.9380658268928528,-0.3451034426689148,-0.08189734816551208,0.06878781318664551,-0.18672648072242737
1.2037930367996057,0.12459395663006226,0.23291991837832388,-1.2002065181732178,-1.6855406761169434,-1.9473373889923096,0.04459121450781822,-0.9334068298339844,-0.3560384213924408,0.07802841067314148,0.06394582986831665,-0.16320297122001648
1.188865476955104,0.14778993717967745,0.1880897358288392,-1.2788803577423096,-1.953410029411316,-1.6982260942459106,0.05488291010260582,-0.9279466867446899,-0.3686498999595642,0.22375783324241638,0.10404843091964722,-0.20666754245758057
1.1736756403420943,0.16215577706011883,0.1516216807217679,-1.29738187789917,-1.8931820392608643,-1.5091263055801392,0.06244160234928131,-0.9221784472465515,-0.3816906809806824,0.2886936664581299,0.15417319536209106,-0.2993548512458801
1.158057346991056,0.1721365239071985,0.1204112157979803,-1.3594810962677002,-1.8392391204833984,-1.440751314163208,0.06870690733194351,-0.9160255789756775,-0.39519181847572327,0.3148990869522095,0.13843774795532227,-0.3099473714828491
1.1420258823239384,0.18095501973895434,0.09154877192509081,-1.3694673776626587,-1.5993537902832031,-1.4379762411117554,0.07482266426086426,-0.9094776511192322,-0.4089645743370056,0.36827731132507324,0.13268327713012695,-0.32260286808013916
1.12582587246117,0.1917484339228178,0.06360914319848908,-1.3570802211761475,-1.3394765853881836,-1.4765366315841675,0.08202967792749405,-0.9026233553886414,-0.4225424826145172,0.42335668206214905,0.13808178901672363,-0.3183633089065552
1.1099830083565847,0.202854707493887,0.0364337509939658,-1.264840841293335,-1.3171941041946411,-1.454147458076477,0.08958736062049866,-0.8956911563873291,-0.4355587065219879,0.5432098507881165,0.13740569353103638,-0.3386722505092621
1.0955005139455043,0.2127002816936235,0.011369985087243102,-1.086225986480713,-1.1628435850143433,-1.3408966064453125,0.09659972041845322,-0.8891574144363403,-0.44728922843933105,0.6991614103317261,0.14950287342071533,-0.3919747471809387
1.0832158186738046,0.22158706099141226,-0.010877162281349382,-0.8608900904655457,-1.0155335664749146,-1.187474012374878,0.10296379029750824,-0.8834689259529114,-0.45703500509262085,0.7758508920669556,0.15701335668563843,-0.41718682646751404
1.0733875457878586,0.2278966795185788,-0.029649569110517814,-0.6576228141784668,-1.0418754816055298,-0.9674455523490906,0.10780201107263565,-0.8788219094276428,-0.4648124575614929,0.8350385427474976,0.13487976789474487,-0.40448078513145447
1.0660026363342345,0.2295450294296656,-0.044088372051473215,-0.4593094289302826,-1.1540769338607788,-0.7149973511695862,0.1100417822599411,-0.8752742409706116,-0.4709412455558777,0.8884018063545227,0.12362641096115112,-0.3793395459651947
1.061207584212741,0.22617936689736487,-0.05423661670358799,-0.25148940086364746,-1.2914308309555054,-0.4592953622341156,0.10939613729715347,-0.8729451894760132,-0.4753938615322113,0.8901765942573547,0.14351403713226318,-0.35466909408569336
1.0589541154972517,0.21753631161805426,-0.060155656482245974,-0.058915428817272186,-1.4533504247665405,-0.20742586255073547,0.10570750385522842,-0.871843695640564,-0.4782410264015198,0.8874260187149048,0.14045947790145874,-0.3190154731273651
1.0591122700849622,0.2045525783731724,-0.06228624291510113,0.13236214220523834,-1.4843926429748535,0.003224756568670273,0.09946142882108688,-0.871921181678772,-0.47943824529647827,0.87958824634552,0.12172281742095947,-0.282387375831604
1.061437172475417,0.18961215851148802,-0.061531924618482975,0.303432434797287,-1.3432859182357788,0.14893029630184174,0.09190525859594345,-0.8730571866035461,-0.47887852787971497,0.8243087530136108,0.12440001964569092,-0.24924039840698242
1.065409030670341,0.17516569989736908,-0.05925055929791066,0.4241063594818115,-1.1459308862686157,0.19915761053562164,0.08437282592058182,-0.874987006187439,-0.4767378270626068,0.7316519618034363,0.12929004430770874,-0.20800036191940308
1.070252171576942,0.16237453771618582,-0.0569439389855423,0.4841659665107727,-1.0105862617492676,0.17743659019470215,0.07758207619190216,-0.8773215413093567,-0.47359055280685425,0.6367733478546143,0.11947858333587646,-0.15298116207122803
1.0754036145940706,0.15153204879835508,-0.05538667974184232,0.5084404349327087,-0.8677799105644226,0.12811817228794098,0.07175953686237335,-0.8797820806503296,-0.469929963350296,0.5568109750747681,0.12171024084091187,-0.10442620515823364
1.0806685119268709,0.1437053822666612,-0.055035877201092265,0.5198525786399841,-0.6238511204719543,0.05700139328837395,0.06741510331630707,-0.8822727203369141,-0.4658864736557007,0.48841679096221924,0.14316749572753906,-0.07453411817550659
1.0858792453178339,0.1395694150181111,-0.05610254860844213,0.5263831615447998,-0.3970277011394501,-0.010466746985912323,0.0648472011089325,-0.8847135901451111,-0.46160247921943665,0.44517782330513,0.1421903371810913,-0.04401284456253052
1.0910907316108176,0.13849550697470858,-0.058527967041204526,0.5290966629981995,-0.25690948963165283,-0.0598318986594677,0.06371402740478516,-0.887130856513977,-0.4570988416671753,0.40878963470458984,0.14147967100143433,-0.004830509424209595
1.0960589291882352,0.13847722336422388,-0.061182697542216606,0.4777570366859436,-0.23596984148025513,-0.03781900927424431,0.06309650093317032,-0.8894127607345581,-0.45272910594940186,0.3832536041736603,0.14862918853759766,0.04344254732131958
1.1004789659165648,0.13712305817439674,-0.06282334485405558,0.4102776050567627,-0.33319759368896484,0.012567998841404915,0.06194537878036499,-0.8914245367050171,-0.44891536235809326,0.3630271553993225,0.14290469884872437,0.08676323294639587
1.104169448263776,0.13363034734962914,-0.06332682074587691,0.3224620223045349,-0.4511036276817322,0.04347267746925354,0.05993836745619774,-0.8930908441543579,-0.44586554169654846,0.32485777139663696,0.15470284223556519,0.11359012126922607
1.1069104960732634,0.1284197469682806,-0.06296781112667182,0.21375417709350586,-0.5173654556274414,0.058962419629096985,0.057300616055727005,-0.8943206071853638,-0.4437423050403595,0.2640189528465271,0.15846556425094604,0.12359762191772461
1.1086539013404137,0.12258096565578064,-0.06222124334811089,0.13065119087696075,-0.4944473206996918,0.046471744775772095,0.054518021643161774,-0.8950993418693542,-0.44252124428749084,0.22450420260429382,0.13383835554122925,0.11827197670936584
1.1098200583202176,0.11848760593445648,-0.062289987836649005,0.10537032783031464,-0.32139644026756287,-0.03273146227002144,0.05258273705840111,-0.8956186771392822,-0.4417038559913635,0.1809072494506836,0.11790871620178223,0.08946990966796875
1.1107928649252081,0.11829067046582482,-0.06450897078244817,0.11087143421173096,-0.11568504571914673,-0.13905657827854156,0.052392881363630295,-0.8960509896278381,-0.44084861874580383,0.1363735795021057,0.11858522891998291,0.05936363339424133
1.1117399452591925,0.12178456150322152,-0.06889977613240489,0.12028810381889343,0.015883369371294975,-0.22135597467422485,0.05382971093058586,-0.8964710235595703,-0.4398202896118164,0.10864584892988205,0.11871540546417236,0.044266700744628906
1.1125670466500546,0.12779158506019664,-0.0749634080650797,0.10973040014505386,0.09829464554786682,-0.28617408871650696,0.056376244872808456,-0.8968371748924255,-0.4387536346912384,0.09247323870658875,0.11735725402832031,0.046862125396728516
1.1131188623941604,0.13550394974760135,-0.08209117187435724,0.08073204010725021,0.1591484099626541,-0.31568965315818787,0.05969150736927986,-0.8970811367034912,-0.43781542778015137,0.09626856446266174,0.10875111818313599,0.05012005567550659
1.1133570576737677,0.14366242418026295,-0.0893552421237693,0.057254668325185776,0.15777736902236938,-0.30537986755371094,0.06323077529668808,-0.8971863985061646,-0.4371022582054138,0.11464092135429382,0.09405535459518433,0.04800307750701904
1.1134186693108246,0.1504869058819994,-0.09560498476690528,0.03687802702188492,0.07739276438951492,-0.23084783554077148,0.0662039965391159,-0.8972135782241821,-0.43660596013069153,0.1529121994972229,0.0877501368522644,0.04306647181510925
1.1134317450767137,0.15427942864872318,-0.09965734364396675,0.017588037997484207,-0.05251532793045044,-0.11853209137916565,0.06785756349563599,-0.8972193598747253,-0.43634021282196045,0.1753522753715515,0.07234454154968262,0.035293400287628174
1.1134521432463946,0.15430974094506725,-0.1010139983401541,0.007005434948951006,-0.17815208435058594,-3.421120345592499e-05,0.06786798685789108,-0.8972283601760864,-0.43632012605667114,0.17781376838684082,0.0602380633354187,0.018336057662963867
1.1136582530613885,0.15119968442823842,-0.09998870939526162,0.023581234738230705,-0.25145286321640015,0.09090651571750641,0.06648281216621399,-0.8973193764686584,-0.4363462030887604,0.16044586896896362,0.06058847904205322,-0.007104754447937012
1.1142403671035679,0.14624551979364558,-0.09740028307479359,0.05664890632033348,-0.25905460119247437,0.14704009890556335,0.06424413621425629,-0.8975761532783508,-0.4361533522605896,0.13273155689239502,0.055703043937683105,-0.023914456367492676
1.1152467589557762,0.14105491832126438,-0.09415584232261512,0.10002631694078445,-0.19159042835235596,0.15865522623062134,0.0618523471057415,-0.8980193734169006,-0.43558627367019653,0.1047888696193695,0.03757631778717041,-0.027014464139938354
1.116637867361368,0.13673507364375279,-0.09105165803854295,0.13737954199314117,-0.11420749127864838,0.14593330025672913,0.05979975685477257,-0.8986305594444275,-0.43461132049560547,0.07545414566993713,0.027796268463134766,-0.019719183444976807
1.118273941269983,0.1334000101584065,-0.08839735784065597,0.15178759396076202,-0.08171448111534119,0.12939612567424774,0.058154378086328506,-0.8993470668792725,-0.4333508312702179,0.054135024547576904,0.023996174335479736,-0.0011126995086669922
1.1199157922070544,0.1303156185357062,-0.08588802330957697,0.14100179076194763,-0.09022008627653122,0.13592486083507538,0.05662550404667854,-0.9000637531280518,-0.43206334114074707,0.04849227890372276,0.016091644763946533,0.025843828916549683
1.121394853379552,0.12643362539908484,-0.0827598885152255,0.11469996720552444,-0.12395399808883667,0.1717768907546997,0.05477987974882126,-0.9007073044776917,-0.43095871806144714,0.05198584869503975,0.003017604351043701,0.052357643842697144
1.1225539746326374,0.12167138858202338,-0.07903847008489098,0.0816996693611145,-0.1773378700017929,0.2233378291130066,0.052600204944610596,-0.9012102484703064,-0.4301782548427582,0.052822768688201904,-0.0010114312171936035,0.06958246231079102
1.123283901126322,0.11528246290207808,-0.07413704511687663,0.023347824811935425,-0.24086058139801025,0.2659435272216797,0.04977509751915932,-0.9015263319015503,-0.4298520088195801,0.04269316792488098,-0.001351475715637207,0.0811581015586853
1.1234372388648615,0.10630018545571374,-0.06748570885431424,-0.057896699756383896,-0.3583294451236725,0.3074113428592682,0.04589744657278061,-0.9015926718711853,-0.4301444888114929,0.022217784076929092,-0.011859536170959473,0.09278780221939087
1.1229212853105741,0.0953023222984394,-0.05998516948569378,-0.10687856376171112,-0.4797411561012268,0.32473382353782654,0.04120834171772003,-0.9013693332672119,-0.43108612298965454,0.0022334158420562744,-0.01279991865158081,0.09183740615844727
1.122015693660366,0.08350134990909604,-0.05223658371188067,-0.1278267353773117,-0.45834264159202576,0.32227465510368347,0.036186426877975464,-0.900976836681366,-0.43235570192337036,-0.013954367488622665,0.0008608102798461914,0.07229393720626831
1.1210024924850275,0.0729821115745806,-0.044993128191764264,-0.11883574724197388,-0.3334512710571289,0.2827465236186981,0.03170298784971237,-0.9005367755889893,-0.43362241983413696,-0.027003291994333267,0.004388153553009033,0.049924880266189575
1.1201349885221694,0.06503374158954257,-0.0392172339513488,-0.08902645856142044,-0.21801656484603882,0.19907477498054504,0.02830619551241398,-0.9001592397689819,-0.43464019894599915,-0.05297967791557312,-0.011629641056060791,0.04732632637023926
1.1194421231502123,0.060140307513043764,-0.03566317426280796,-0.07356932759284973,-0.12527087330818176,0.09596312791109085,0.026216458529233932,-0.899857223033905,-0.4353959262371063,-0.07542607188224792,-0.01934736967086792,0.06233373284339905
1.1185341819157686,0.058105798324317504,-0.03447830401995583,-0.13102328777313232,-0.07720694690942764,-0.0018284085672348738,0.0253780297935009,-0.8994608521461487,-0.43626388907432556,-0.08027917146682739,-0.012144923210144043,0.0851285457611084
1.1163325676500468,0.05790204711960394,-0.035075191282852476,-0.31052690744400024,-0.04638519138097763,-0.07291451096534729,0.025403672829270363,-0.8984965682029724,-0.43824490904808044,-0.06074303388595581,-0.0058155059814453125,0.18740558624267578
1.1123665044028688,0.059968222733737794,-0.036820321589156865,-0.45635679364204407,0.1496964395046234,-0.12385332584381104,0.026522478088736534,-0.8967484831809998,-0.44174525141716003,-0.06708034873008728,-0.0022841691970825195,0.1366913914680481
1.1075541248655083,0.0644355603390037,-0.03952178932388848,-0.47389188408851624,0.23258404433727264,-0.17398273944854736,0.028773177415132523,-0.8946084380149841,-0.44592371582984924,-0.07746395468711853,-0.019301533699035645,0.04742509126663208
1.1029889346582071,0.06974644728777393,-0.04282714783660802,-0.40294766426086426,0.23750104010105133,-0.1754184514284134,0.03142530843615532,-0.8925591707229614,-0.4498341381549835,-0.052940189838409424,-0.029224276542663574,-0.020960569381713867
1.0994486770202574,0.07436145402087112,-0.04555484902463538,-0.28339967131614685,0.19014856219291687,-0.11912209540605545,0.033735498785972595,-0.8909571170806885,-0.4528326392173767,-0.015150278806686401,-0.014056921005249023,-0.08505499362945557
1.097030310279176,0.07717587340661568,-0.0470474674662399,-0.19287721812725067,0.10466641932725906,-0.053683433681726456,0.03517584502696991,-0.8898563981056213,-0.45488283038139343,0.0016741156578063965,-0.017507433891296387,-0.09460151195526123
1.0953996956216514,0.0778815538939025,-0.047116623778260654,-0.1346045881509781,0.027977298945188522,0.0199267715215683,0.03560967370867729,-0.8891112804412842,-0.45630380511283875,0.0008588135242462158,-0.02324223518371582,-0.08301812410354614
1.094258288875704,0.0767875401223626,-0.04586409131395691,-0.1045321598649025,-0.01734304428100586,0.07395032793283463,0.03518826887011528,-0.8885882496833801,-0.4573538899421692,-0.0036025680601596832,-0.023170053958892822,-0.0685708224773407
1.0933876949252874,0.07491415017763535,-0.04401428609665209,-0.0834479108452797,-0.026037998497486115,0.0785839632153511,0.03438928350806236,-0.8881886005401611,-0.4581901729106903,-0.023937050253152847,-0.022211670875549316,-0.060501813888549805
1.0926905403269616,0.07325671310546446,-0.04231444150457617,-0.07091028243303299,0.0005206409841775894,0.0639650747179985,0.033675145357847214,-0.8878680467605591,-0.4588642418384552,-0.039900749921798706,-0.024271845817565918,-0.05019956827163696
1.0919748585526392,0.07231024684151205,-0.04106464364616991,-0.08043671399354935,0.028861068189144135,0.04030042141675949,0.033286724239587784,-0.8875385522842407,-0.45952945947647095,-0.052146587520837784,-0.025654137134552002,-0.04036375880241394
1.0911464133694926,0.07194515321448679,-0.040315942470777716,-0.08667171001434326,0.030320744961500168,0.015209181234240532,0.03317180648446083,-0.8871565461158752,-0.46027493476867676,-0.06814497709274292,-0.031300485134124756,-0.03523904085159302
1.0903277823726314,0.07208552680987969,-0.04002680200134811,-0.06699218600988388,0.05751945078372955,-0.0011715393047779799,0.033288706094026566,-0.8867784738540649,-0.4609944224357605,-0.06553053855895996,-0.02600228786468506,-0.03700673580169678
1.0896940536759796,0.07320309891326172,-0.04022747258404536,-0.048686955124139786,0.13050417602062225,-0.02584412693977356,0.0338449589908123,-0.8864853978157043,-0.4615170955657959,-0.0679941177368164,-0.016041338443756104,-0.0384218692779541
1.0891158277471182,0.07535209177202305,-0.04087239417020978,-0.060119133442640305,0.17529204487800598,-0.038580186665058136,0.03487526997923851,-0.8862176537513733,-0.4619545042514801,-0.06701028347015381,-0.024457335472106934,-0.027684807777404785
1.0883908479720636,0.07774882888303628,-0.04160952243221291,-0.06769075989723206,0.1662450134754181,-0.038277387619018555,0.03603224828839302,-0.8858815431594849,-0.46251004934310913,-0.06023266911506653,-0.03558140993118286,-0.017775654792785645
1.087689634723222,0.07981808869370965,-0.04215691092836798,-0.059559281915426254,0.15589749813079834,-0.031137486919760704,0.03703874722123146,-0.8855560421943665,-0.4630536139011383,-0.05322831869125366,-0.023532092571258545,-0.021672368049621582
1.0870727797257604,0.08191371414992177,-0.042549065018529196,-0.04913513734936714,0.20889946818351746,-0.032276254147291183,0.03805374726653099,-0.8852693438529968,-0.463519424200058,-0.04934525489807129,-0.004150211811065674,-0.02073359489440918
1.0866110033248098,0.08492135528080096,-0.0430788508162153,-0.02916417270898819,0.3103887438774109,-0.04793670028448105,0.03948232904076576,-0.8850544691085815,-0.463809996843338,-0.05170464515686035,0.012694239616394043,-0.007503509521484375
1.086443885478643,0.08906320627012143,-0.04398907285352441,0.002945828251540661,0.36426210403442383,-0.07976546138525009,0.04141617938876152,-0.8849766850471497,-0.4637899100780487,-0.06625750660896301,0.016782164573669434,0.016707301139831543
1.0860254106600387,0.09376060444147216,-0.04567396514671186,-0.08325408399105072,0.27951961755752563,-0.12307585030794144,0.043628983199596405,-0.8847817182540894,-0.46395882964134216,-0.0893595814704895,-0.002623617649078369,0.059143126010894775
1.0844141342429225,0.09739896586630205,-0.047420465175602694,-0.20770467817783356,0.1648862361907959,-0.09783467650413513,0.04545532539486885,-0.8840296864509583,-0.46521538496017456,-0.062346816062927246,-0.005618691444396973,0.09998095035552979
1.0819246631050763,0.09924970165932087,-0.04812033869702398,-0.26838967204093933,0.10653892159461975,-0.050104863941669464,0.04653416574001312,-0.8828633427619934,-0.46731898188591003,-0.020304322242736816,0.021107971668243408,0.08697837591171265
1.079206849901608,0.10010099755883252,-0.047990063713958545,-0.26962539553642273,0.11010542511940002,-0.02353929542005062,0.04717158526182175,-0.8815836906433105,-0.46966487169265747,-0.004569053649902344,0.03877973556518555,0.058699846267700195
1.07665339078184,0.1010998337360863,-0.04751264865224338,-0.24713075160980225,0.19338133931159973,-0.010775996372103691,0.04786771163344383,-0.8803755044937134,-0.471855491399765,-0.0020913518965244293,0.048603713512420654,0.049782127141952515
1.0741747561315331,0.10272224909550597,-0.046748918881773335,-0.2602180540561676,0.26574209332466125,0.007490358781069517,0.048856787383556366,-0.8791972398757935,-0.4739462435245514,-0.005537096410989761,0.06279110908508301,0.06697908043861389
1.0711504760660822,0.10389292040962299,-0.045353671012678565,-0.36705559492111206,0.2071574330329895,0.03569384291768074,0.049687135964632034,-0.8777523040771484,-0.47653138637542725,-0.00674891471862793,0.05290794372558594,0.10375910997390747
1.0668278273722465,0.10303580301079032,-0.042862344560472034,-0.5266279578208923,0.07040783017873764,0.08994057029485703,0.04966845363378525,-0.8756730556488037,-0.48034337162971497,-0.004258304834365845,0.03666853904724121,0.1278957724571228
1.061104632594674,0.09993480817075205,-0.0390674973632839,-0.6371080279350281,-0.016214191913604736,0.15872058272361755,0.04867789149284363,-0.8728950023651123,-0.4854738414287567,0.012540370225906372,0.046997785568237305,0.10595721006393433
1.0547560102307003,0.09523259790666413,-0.03399775147661007,-0.6588758826255798,-0.03327200561761856,0.20482149720191956,0.04692057892680168,-0.8697798848152161,-0.491204172372818,0.019516170024871826,0.059156715869903564,0.054818034172058105
1.048432044997646,0.09004793624308488,-0.028301871462452062,-0.6515264511108398,-0.004098245874047279,0.2316809445619583,0.04486697539687157,-0.8666419982910156,-0.49690911173820496,0.014749109745025635,0.054996490478515625,0.01784414052963257
1.0419738247211778,0.08552047727891597,-0.022567655727304247,-0.6857954859733582,0.09419316798448563,0.2235575020313263,0.0430939719080925,-0.8634017109870911,-0.5026732683181763,0.002743452787399292,0.04592740535736084,-0.0014923810958862305
1.035106948147501,0.08229586672165125,-0.01730847273020793,-0.7185771465301514,0.15084828436374664,0.18930001556873322,0.04195920750498772,-0.8599169254302979,-0.5087064504623413,-0.02013915777206421,0.023109734058380127,-0.02670919895172119
1.0281256775136232,0.07973140453206304,-0.012895709345397917,-0.6946665048599243,0.08778222650289536,0.15201762318611145,0.04113166034221649,-0.856332540512085,-0.5147841572761536,-0.034082118421792984,0.013223469257354736,-0.059739768505096436
1.021758768712842,0.0769254268442453,-0.008937126396955779,-0.5962471961975098,0.03955841809511185,0.15936626493930817,0.04010522738099098,-0.8530271649360657,-0.5203232169151306,-0.010503172874450684,0.02697741985321045,-0.09651339054107666
1.016496015142205,0.07419355150341847,-0.005141092599655586,-0.4814588725566864,0.06662039458751678,0.15609484910964966,0.03901584818959236,-0.8502689003944397,-0.524900496006012,0.004364877939224243,0.03590738773345947,-0.12062263488769531
1.01219124504904,0.07234830907388637,-0.0017179303774583594,-0.4056318402290344,0.1452077031135559,0.13656772673130035,0.038311440497636795,-0.8479952216148376,-0.5286173820495605,-0.0036129653453826904,0.026736736297607422,-0.11531883478164673
1.008435743101334,0.07172149504476702,0.0008877399468942164,-0.36746978759765625,0.16104954481124878,0.08027010411024094,0.03820803761482239,-0.8459988236427307,-0.5318140983581543,-0.027648981660604477,0.021825790405273438,-0.09301811456680298
1.0047934178145939,0.07225527107183759,0.002205278361805734,-0.3709196150302887,0.173927441239357,0.0067920866422355175,0.03871408849954605,-0.84405118227005,-0.534863293170929,-0.05542248860001564,0.0248374342918396,-0.06587523221969604
1.0009142040054417,0.07432726912919653,0.0021002401592541066,-0.4070667028427124,0.2236446589231491,-0.07577123492956161,0.04006509482860565,-0.841964602470398,-0.5380432605743408,-0.06248024106025696,0.02081286907196045,-0.04383540153503418
0.996425181792844,0.0777795062440177,0.0006735395160328339,-0.47359421849250793,0.22122125327587128,-0.14189429581165314,0.042215555906295776,-0.8395341038703918,-0.5416644215583801,-0.057169169187545776,-0.002705216407775879,-0.024528205394744873
0.991298581657365,0.08152603770681585,-0.0015000230923817605,-0.5218363404273987,0.15417830646038055,-0.169605553150177,0.04459451511502266,-0.8367378115653992,-0.5457848310470581,-0.03131938353180885,-0.03019016981124878,-0.019873738288879395
0.985858713528972,0.08425633559688611,-0.0036488368614437934,-0.5331829786300659,0.0372920036315918,-0.14778652787208557,0.0464668869972229,-0.8337465524673462,-0.5501886010169983,0.015468534082174301,-0.03261691331863403,-0.04073852300643921
0.9806386640401169,0.08524524603373435,-0.0049130685015855,-0.48468732833862305,-0.04445052891969681,-0.07798852026462555,0.04738087207078934,-0.8308529257774353,-0.5544713735580444,0.06139904260635376,-0.03732633590698242,-0.07889050245285034
0.9762913339584122,0.08437445692462012,-0.005039684072427264,-0.36726969480514526,-0.1551291048526764,-0.013888766057789326,0.0472019724547863,-0.8284258246421814,-0.5581061840057373,0.0730220377445221,-0.05124324560165405,-0.1248314380645752
0.9734698358148934,0.08210395127030515,-0.0046645759588701385,-0.18928399682044983,-0.22680887579917908,0.0048404475674033165,0.04612618312239647,-0.8268422484397888,-0.5605393052101135,0.05246084928512573,-0.039856910705566406,-0.18007659912109375
0.9727050863893816,0.07962183835316516,-0.004510492238971948,0.045625921338796616,-0.23735657334327698,-0.0032455341424793005,0.04478500410914421,-0.8264119029045105,-0.561282217502594,0.028335124254226685,-0.023365318775177002,-0.23304462432861328
0.9745186966073348,0.07757297558894127,-0.0050332058962099,0.32083725929260254,-0.25624504685401917,-0.027241148054599762,0.04351869225502014,-0.8274316787719727,-0.5598775148391724,0.008162826299667358,-0.025153040885925293,-0.2576884627342224
0.9789982794248501,0.07599942055146293,-0.006407322663734002,0.5771039724349976,-0.2828746736049652,-0.05872710421681404,0.04235578700900078,-0.8299389481544495,-0.5562437772750854,-0.009564638137817383,-0.02160823345184326,-0.26123058795928955
0.985801309499796,0.07506240057411828,-0.00874697751198196,0.7853871583938599,-0.2815268337726593,-0.09782790392637253,0.04141019657254219,-0.8337148427963257,-0.5506404638290405,-0.009214162826538086,-0.022440552711486816,-0.23642319440841675
0.9942855787081769,0.07516028865890056,-0.01216312507237632,0.9237039089202881,-0.27975761890411377,-0.1483362764120102,0.04093146324157715,-0.8383697271347046,-0.5435630679130554,-0.009071111679077148,-0.022546350955963135,-0.19250571727752686
1.0039846368688805,0.07573051611799501,-0.016858886040532418,1.0364741086959839,-0.40611928701400757,-0.2110486477613449,0.04062426835298538,-0.8436172008514404,-0.5354060530662537,-0.022039059549570084,-0.017039477825164795,-0.15471845865249634
1.0144746106266034,0.07587859351457005,-0.022714070756820873,1.0885331630706787,-0.5407947897911072,-0.2468981295824051,0.04003048688173294,-0.8492032289505005,-0.5265467762947083,-0.02443602681159973,-0.01792323589324951,-0.12585806846618652
1.0252195654981733,0.0755067870170758,-0.028944551902041822,1.0962620973587036,-0.5813640356063843,-0.2381102442741394,0.039144087582826614,-0.8548281192779541,-0.5174325704574585,-0.0017142891883850098,-0.03193628787994385,-0.10189121961593628
1.0360107450836975,0.07488055753594708,-0.035058804890955905,1.095737338066101,-0.590651273727417,-0.22648349404335022,0.03812771663069725,-0.8603779077529907,-0.5082284212112427,0.02537935972213745,-0.03673195838928223,-0.0787162184715271
1.0468427358296006,0.07406804350093381,-0.041015346938841096,1.1036754846572876,-0.5968692302703857,-0.20966483652591705,0.0370229110121727,-0.8658479452133179,-0.4989355802536011,0.040308624505996704,-0.027187883853912354,-0.0504114031791687
1.0576694713240524,0.07298670815083025,-0.046743804191403615,1.0871832370758057,-0.6134896874427795,-0.19562964141368866,0.03579765185713768,-0.8712137937545776,-0.4895968735218048,0.04516547918319702,-0.021547377109527588,-0.014126300811767578
1.0681185938621853,0.07167878095228812,-0.05228580420373917,1.0230236053466797,-0.6086959838867188,-0.18977254629135132,0.03450339287519455,-0.8762956261634827,-0.48053663969039917,0.037746965885162354,-0.02098214626312256,0.037284016609191895
1.0777504707142214,0.07043474952532457,-0.057660111666678844,0.923949658870697,-0.5774569511413574,-0.184531107544899,0.03330998867750168,-0.8808953166007996,-0.4721375107765198,0.02842703089118004,-0.024164438247680664,0.09927371144294739
1.0862612311242188,0.06928323315594669,-0.06288039972204687,0.7981081008911133,-0.5761620998382568,-0.1889607459306717,0.03224611654877663,-0.8848915696144104,-0.4646795988082886,0.019969433546066284,-0.030910372734069824,0.1615942120552063
1.0932457368192228,0.06816578118076659,-0.06814489155980376,0.6180810332298279,-0.5598966479301453,-0.20148545503616333,0.031305085867643356,-0.8881233334541321,-0.458537757396698,0.0033323466777801514,-0.021620869636535645,0.22353708744049072
1.098111401189413,0.06824652536246023,-0.07355749746449003,0.37956884503364563,-0.363593727350235,-0.22396759688854218,0.031047051772475243,-0.8903490900993347,-0.4542185068130493,-0.002162160351872444,-0.008179843425750732,0.26304110884666443
1.1005795546061117,0.07102519627349417,-0.07916455396767338,0.14350131154060364,-0.06875896453857422,-0.25245237350463867,0.03215302526950836,-0.8914700746536255,-0.45193734765052795,-0.006609827280044556,-0.01886928081512451,0.27362310886383057
1.1002807532866157,0.07743900028371983,-0.08506653595074926,-0.1714683473110199,0.283334344625473,-0.28161928057670593,0.035071585327386856,-0.8913346529006958,-0.4519873559474945,0.00013044476509094238,-0.034431278705596924,0.3275366425514221
1.0965259336420798,0.08637935355262699,-0.09077097842790594,-0.5370453000068665,0.46604013442993164,-0.29438450932502747,0.039399512112140656,-0.889626145362854,-0.4549868702888489,0.005125612020492554,-0.03176051378250122,0.4000246524810791
1.089230553827137,0.09580956426261675,-0.09573977776812398,-0.8521392941474915,0.5209470391273499,-0.29302310943603516,0.04430801421403885,-0.8862708210945129,-0.4610432982444763,-0.00936540961265564,-0.0069329142570495605,0.37232863903045654
1.0795471583554688,0.10462954594716654,-0.09983783075090394,-1.008925437927246,0.519797146320343,-0.2801167666912079,0.04926663637161255,-0.8817442655563354,-0.46914783120155334,-0.011714790016412735,0.010864198207855225,0.26872363686561584
1.0692076672107338,0.11305012659127435,-0.10317112688577142,-0.9842073917388916,0.5752281546592712,-0.2565824091434479,0.05424094572663307,-0.8768197894096375,-0.4777498245239258,-0.011882543563842773,6.508827209472656e-05,0.0937623381614685
1.0598435348293818,0.12111733404239093,-0.10587456595615152,-0.8294332027435303,0.5493728518486023,-0.21396096050739288,0.05908270552754402,-0.8722789883613586,-0.485426127910614,-0.001282423734664917,-0.018513798713684082,-0.05046260356903076
1.052352315495944,0.12749808445949268,-0.1076140431882504,-0.6279701590538025,0.4169599115848541,-0.13789787888526917,0.06300796568393707,-0.8685912489891052,-0.4915068745613098,0.028498969972133636,-0.005554080009460449,-0.13421028852462769
1.046843096377592,0.13139273105023785,-0.10834805621796702,-0.46424171328544617,0.222031831741333,-0.0807841420173645,0.06554769724607468,-0.8658481240272522,-0.49599435925483704,0.00925087183713913,0.022723853588104248,-0.15767687559127808
1.0427806090230478,0.13269509662746773,-0.10830495869262023,-0.3403080403804779,0.061235491186380386,-0.019505873322486877,0.06665844470262527,-0.8638085126876831,-0.4993910491466522,-0.005852200090885162,-0.008032798767089844,-0.14811569452285767
1.0399857208992729,0.13223446533504257,-0.10724174826198156,-0.2313677817583084,0.042393043637275696,0.050263892859220505,0.06674646586179733,-0.8623970150947571,-0.5018129944801331,0.010905496776103973,-0.029311299324035645,-0.14300817251205444
1.038171441840738,0.13116710478527188,-0.105365740082456,-0.15438245236873627,0.06330471485853195,0.08486475050449371,0.06641533970832825,-0.8614771366119385,-0.5034343004226685,0.013891667127609253,-0.021136939525604248,-0.12908834218978882
1.0370033706906532,0.13019077491663752,-0.10338870828952386,-0.10573605448007584,0.08756043016910553,0.07903368026018143,0.06605439633131027,-0.8608834147453308,-0.5044963955879211,0.004059731960296631,-0.018404245376586914,-0.09607434272766113
1.036108234508926,0.13008191086484472,-0.10189619876581146,-0.09611298888921738,0.15321987867355347,0.0435960628092289,0.06609942018985748,-0.8604276180267334,-0.5052675604820251,-0.011488229036331177,-0.0178835391998291,-0.06002485752105713
1.0350235730371828,0.13155334403096752,-0.1012064880896392,-0.1349618136882782,0.2632560133934021,-0.004017601255327463,0.06696520000696182,-0.8598743677139282,-0.5060946941375732,-0.026727795600891113,-0.020252585411071777,-0.023736298084259033
1.033133896405134,0.13487654622908782,-0.10137164322048796,-0.23647192120552063,0.3686855137348175,-0.06627192348241806,0.06886503100395203,-0.8589081764221191,-0.5074784159660339,-0.04228422790765762,-0.034127652645111084,0.009385764598846436
1.0300764578246513,0.14001810683436347,-0.10251066160267229,-0.34863656759262085,0.4572407305240631,-0.13352066278457642,0.07183951139450073,-0.8573383688926697,-0.5097156763076782,-0.05548211932182312,-0.04474598169326782,0.03138309717178345
1.0259421199142207,0.14676852942164265,-0.10449895049317619,-0.43171682953834534,0.5511409044265747,-0.18745046854019165,0.07579635828733444,-0.855202853679657,-0.5127211809158325,-0.06275013089179993,-0.04544711112976074,0.038157522678375244
1.0211328221925913,0.15527201259968634,-0.10729201095359056,-0.47302573919296265,0.662624180316925,-0.24414288997650146,0.08078860491514206,-0.8527003526687622,-0.5161156058311462,-0.07283882051706314,-0.03650552034378052,0.03373950719833374
1.0157396808661128,0.1647287007702071,-0.11075304828134946,-0.5316118001937866,0.6110858917236328,-0.27547284960746765,0.08641854673624039,-0.8498705625534058,-0.5198575854301453,-0.07181590050458908,-0.03677189350128174,0.03146940469741821
1.0098730449341948,0.1725929820826614,-0.11376681556257041,-0.5612569451332092,0.44982677698135376,-0.2261975109577179,0.09135884791612625,-0.846764326095581,-0.5240647792816162,-0.025059431791305542,-0.038840532302856445,0.034516990184783936
1.0041809107245998,0.17768712587472676,-0.11517234579838738,-0.5176974534988403,0.3402177095413208,-0.11889608204364777,0.0948777049779892,-0.8437225818634033,-0.528328001499176,0.01800680160522461,-0.01336359977722168,0.01349639892578125
0.999384424394287,0.18079796183761374,-0.11493380120854454,-0.42527854442596436,0.3308142125606537,-0.029439372941851616,0.09724736213684082,-0.8411382436752319,-0.5320051312446594,0.029614180326461792,0.0002111196517944336,-0.011055231094360352
0.9955018420979447,0.18307867737741107,-0.11356553636157377,-0.36819422245025635,0.3482062518596649,0.03492683172225952,0.09905429184436798,-0.8390321135520935,-0.5349892377853394,0.031606703996658325,-0.012148857116699219,-0.02032393217086792
0.992192498507883,0.18438875127457233,-0.11121777852226346,-0.32569560408592224,0.29547014832496643,0.09413017332553864,0.10026358813047409,-0.8372269868850708,-0.537585437297821,0.031206093728542328,-0.022727787494659424,-0.00693964958190918
0.9893701915753025,0.18440490544025084,-0.10806856109293092,-0.2914111316204071,0.23237240314483643,0.13605685532093048,0.10070516169071198,-0.8356802463531494,-0.5399046540260315,0.01835915446281433,-0.004758596420288086,0.0021848678588867188
0.986865509659039,0.18372949166231684,-0.10453364188678428,-0.2717122733592987,0.2228151261806488,0.14935295283794403,0.10072257369756699,-0.8343020081520081,-0.5420287847518921,0.000168532133102417,0.010342717170715332,0.0041564106941223145
0.9846064540342813,0.18282858035751767,-0.10114480728985302,-0.23464132845401764,0.1514109969139099,0.13203202188014984,0.10057662427425385,-0.8330544233322144,-0.5439711809158325,-0.02879929542541504,0.005127847194671631,-0.004017770290374756
0.9828512913992187,0.18138201900736792,-0.09831142019395261,-0.1629536747932434,0.029858220368623734,0.11041922122240067,0.10005322843790054,-0.832082211971283,-0.5455533862113953,-0.050385862588882446,0.0035147666931152344,-0.008981585502624512
0.981814726813075,0.17954542011561403,-0.0962074769281273,-0.08184151351451874,-0.02995957061648369,0.08235456049442291,0.09920504689216614,-0.8315068483352661,-0.5465844869613647,-0.055595435202121735,0.012476205825805664,-0.013016343116760254
0.9814959734772187,0.1782785860586569,-0.09489536162637432,-0.011359784752130508,0.0021540578454732895,0.05027201026678085,0.09855957329273224,-0.8313297033309937,-0.5469707250595093,-0.05079957842826843,0.022262990474700928,-0.009364724159240723
0.981565573957547,0.17785544313426535,-0.09423915781908024,0.0047667198814451694,0.018370309844613075,0.028552334755659103,0.09831786155700684,-0.8313683867454529,-0.5469553470611572,-0.044896870851516724,0.022500038146972656,0.013706445693969727
0.9815518432634137,0.1774342098322424,-0.09364337600303758,-0.01863721013069153,-0.008226442150771618,0.038795169442892075,0.09808947890996933,-0.8313607573509216,-0.5470079779624939,-0.023153573274612427,0.011399269104003906,0.05036485195159912
0.981319067981074,0.17622413409344764,-0.09258012705590435,-0.04824436828494072,-0.05881371721625328,0.06849820166826248,0.09746140241622925,-0.831231415271759,-0.5473167300224304,-0.003085792064666748,0.006707549095153809,0.07606422901153564
0.9807603828010475,0.173930821739232,-0.09092774112967604,-0.10152570903301239,-0.12166913598775864,0.09308233112096786,0.0962863340973854,-0.8309206962585449,-0.5479961633682251,-0.0013003647327423096,0.011874675750732422,0.09253650903701782
0.9794414272751428,0.17059153889900242,-0.08861186574709035,-0.204082190990448,-0.15701326727867126,0.11612746119499207,0.09464187175035477,-0.830186128616333,-0.5493942499160767,-0.00467604398727417,0.013871431350708008,0.10373079776763916
0.9771539281653675,0.16636972749392484,-0.08549848019371604,-0.2975245416164398,-0.1659267246723175,0.1476462185382843,0.09263584762811661,-0.8289086818695068,-0.5516603589057922,-0.0017697736620903015,0.01013725996017456,0.10527962446212769
0.9741373080280546,0.1616470094797885,-0.08179153732316552,-0.35716763138771057,-0.15947815775871277,0.16188693046569824,0.09043149650096893,-0.8272174596786499,-0.5545569062232971,-0.002449333667755127,0.0037617087364196777,0.09027773141860962
0.9706638154809732,0.15686279127776048,-0.07795632534672538,-0.39483949542045593,-0.16206398606300354,0.15275995433330536,0.08822569996118546,-0.8252607583999634,-0.5578179955482483,-0.019149191677570343,0.0022932887077331543,0.06900268793106079
0.9667807572274727,0.152231597173445,-0.07430644431224975,-0.4305407702922821,-0.15692462027072906,0.1366020292043686,0.08612670004367828,-0.8230615854263306,-0.561383843421936,-0.030081160366535187,0.0004450678825378418,0.054364800453186035
0.9626397455579847,0.14803027583081127,-0.07087310731617243,-0.4397018253803253,-0.11153709143400192,0.12180585414171219,0.08426935970783234,-0.8207026720046997,-0.5651068687438965,-0.026850558817386627,-0.0017459988594055176,0.037290096282958984
0.9585075171746885,0.14483706945738156,-0.06792711670541306,-0.4297160506248474,-0.04543290287256241,0.09024392813444138,0.08295319974422455,-0.818334698677063,-0.5687240958213806,-0.02928806096315384,-0.0026949048042297363,0.018736302852630615
0.9543625562246618,0.14275662457514549,-0.06566769276884958,-0.42584964632987976,-0.005778102204203606,0.05056299641728401,0.08225169032812119,-0.8159453868865967,-0.5722479224205017,-0.03726879507303238,-0.003665149211883545,0.008038938045501709
0.9501390453855524,0.14138103524443765,-0.06395204218600796,-0.4323671758174896,0.01218864694237709,0.031501952558755875,0.08194931596517563,-0.8134963512420654,-0.5757672190666199,-0.03766828775405884,-0.008708178997039795,0.007270455360412598
0.9458749517359438,0.1404530919076812,-0.06251302903922368,-0.4324083626270294,0.03822379559278488,0.016292935237288475,0.08189987391233444,-0.8110091090202332,-0.5792725086212158,-0.03078293800354004,-0.00449681282043457,-0.00016480684280395508
0.9416058996686556,0.1399552543813663,-0.061386893268090166,-0.42780667543411255,0.03816014528274536,-0.0074030738323926926,0.08209370821714401,-0.8085042238235474,-0.5827362537384033,-0.034638889133930206,-0.00042515993118286133,-0.01423335075378418
0.9373466048773623,0.13970273032390634,-0.060754661448451756,-0.4241630733013153,0.01254213321954012,-0.03778410330414772,0.0824253186583519,-0.8059903383255005,-0.586161732673645,-0.04566691070795059,-0.004541218280792236,-0.02786719799041748
0.9330975685537855,0.1395509081651914,-0.060547724502269605,-0.4152175188064575,-0.00787845253944397,-0.05533486604690552,0.08281195908784866,-0.8034679293632507,-0.5895603895187378,-0.038973480463027954,-0.009917020797729492,-0.04045981168746948
0.9290125301673258,0.13953905629752816,-0.06062013451219923,-0.3860034942626953,-0.004629645496606827,-0.06642436236143112,0.08326079696416855,-0.8010292053222656,-0.5928068161010742,-0.016473084688186646,-0.0110129714012146,-0.06042200326919556
0.9252930076905155,0.1395825608163683,-0.06082799483543778,-0.34249064326286316,-0.022324487566947937,-0.06009376421570778,0.08370054513216019,-0.798797070980072,-0.59574955701828,0.00046694278717041016,-0.014877796173095703,-0.07946717739105225
0.9221385790934662,0.13937655506967817,-0.061016761969727655,-0.2745189070701599,-0.048719994723796844,-0.047273196280002594,0.0839274451136589,-0.7968953847885132,-0.5982590317726135,0.013988196849822998,-0.02302032709121704,-0.09142303466796875
